trial_nr	onset	event_type	phase	response	nr_frames	face_age	face_sex	face_eth	attractiveness	expression	face_id	sub_id	ses	run	trial_type	catch	rating_type	onset_abs	duration
-1.0	0.05975179836468669	fix	0.0		713													25.425868981919393	5.957907204959156
-1.0	0.701265458269063	pulse	0.0	t														26.06738264182377	
-1.0	1.4012054800805345	pulse	0.0	t														26.76732266363524	
-1.0	2.1011880631635904	pulse	0.0	t														27.467305246718297	
-1.0	2.8011821166596746	pulse	0.0	t														28.16729930021438	
-1.0	3.5011523237699294	pulse	0.0	t														28.867269507324636	
-1.0	4.201135510558743	pulse	0.0	t														29.56725269411345	
-1.0	4.901112358435057	pulse	0.0	t														30.267229541989764	
-1.0	5.601097356341597	pulse	0.0	t														30.967214539896304	
0.0	6.017659003323843	face	0.0		144	37.0	male	white	3.898925586947871	neutral	101	sub-12	1.0	4.0	101_neutral	0.0		31.38377618687855	1.233278929363678
0.0	6.301081448689274	pulse	0.0	t		37.0	male	white	3.898925586947871	neutral	101	sub-12	1.0	4.0	101_neutral	0.0		31.66719863224398	
0.0	7.0010625225072545	pulse	0.0	t		37.0	male	white	3.898925586947871	neutral	101	sub-12	1.0	4.0	101_neutral	0.0		32.36717970606196	
0.0	7.2509379326875205	fix	1.0		444	37.0	male	white	3.898925586947871	neutral	101	sub-12	1.0	4.0	101_neutral	0.0		32.61705511624223	3.758229946170559
0.0	7.701043294472129	pulse	1.0	t		37.0	male	white	3.898925586947871	neutral	101	sub-12	1.0	4.0	101_neutral	0.0		33.067160478026835	
0.0	8.401023160877685	pulse	1.0	t		37.0	male	white	3.898925586947871	neutral	101	sub-12	1.0	4.0	101_neutral	0.0		33.76714034443239	
0.0	9.101006045813392	pulse	1.0	t		37.0	male	white	3.898925586947871	neutral	101	sub-12	1.0	4.0	101_neutral	0.0		34.4671232293681	
0.0	9.800982289983494	pulse	1.0	t		37.0	male	white	3.898925586947871	neutral	101	sub-12	1.0	4.0	101_neutral	0.0		35.1670994735382	
0.0	10.500981776833669	pulse	1.0	t		37.0	male	white	3.898925586947871	neutral	101	sub-12	1.0	4.0	101_neutral	0.0		35.867098960388375	
1.0	11.00916787885808	face	0.0		146	22.0	female	west_asian	3.8205332272184642	smiling	066	sub-12	1.0	4.0	066_smiling	0.0		36.375285062412786	1.24164055889878
1.0	11.200951682090817	pulse	0.0	t		22.0	female	west_asian	3.8205332272184642	smiling	066	sub-12	1.0	4.0	066_smiling	0.0		36.567068865645524	
1.0	11.90092913367289	pulse	0.0	t		22.0	female	west_asian	3.8205332272184642	smiling	066	sub-12	1.0	4.0	066_smiling	0.0		37.267046317227596	
1.0	12.25080843775686	fix	1.0		444	22.0	female	west_asian	3.8205332272184642	smiling	066	sub-12	1.0	4.0	066_smiling	0.0		37.616925621311566	3.758212438697683
1.0	12.60096484288124	pulse	1.0	t		22.0	female	west_asian	3.8205332272184642	smiling	066	sub-12	1.0	4.0	066_smiling	0.0		37.967082026435946	
1.0	13.300900035045288	pulse	1.0	t		22.0	female	west_asian	3.8205332272184642	smiling	066	sub-12	1.0	4.0	066_smiling	0.0		38.667017218599995	
1.0	14.000875373656527	pulse	1.0	t		22.0	female	west_asian	3.8205332272184642	smiling	066	sub-12	1.0	4.0	066_smiling	0.0		39.36699255721123	
1.0	14.700865804916702	pulse	1.0	t		22.0	female	west_asian	3.8205332272184642	smiling	066	sub-12	1.0	4.0	066_smiling	0.0		40.06698298847141	
1.0	15.40083148423264	pulse	1.0	t		22.0	female	west_asian	3.8205332272184642	smiling	066	sub-12	1.0	4.0	066_smiling	0.0		40.76694866778735	
2.0	16.009020876454542	face	0.0		146	24.0	female	east_asian	2.9076800636689217	neutral	034	sub-12	1.0	4.0	034_neutral	0.0		41.37513806000925	1.2416532367242326
2.0	16.1008367062891	pulse	0.0	t		24.0	female	east_asian	2.9076800636689217	neutral	034	sub-12	1.0	4.0	034_neutral	0.0		41.46695388984381	
2.0	16.800789104073374	pulse	0.0	t		24.0	female	east_asian	2.9076800636689217	neutral	034	sub-12	1.0	4.0	034_neutral	0.0		42.16690628762808	
2.0	17.250674113178775	fix	1.0		444	24.0	female	east_asian	2.9076800636689217	neutral	034	sub-12	1.0	4.0	034_neutral	0.0		42.61679129673348	3.7582082127555623
2.0	17.500778629774686	pulse	1.0	t		24.0	female	east_asian	2.9076800636689217	neutral	034	sub-12	1.0	4.0	034_neutral	0.0		42.86689581332939	
2.0	18.200758798033803	pulse	1.0	t		24.0	female	east_asian	2.9076800636689217	neutral	034	sub-12	1.0	4.0	034_neutral	0.0		43.56687598158851	
2.0	18.90073866443936	pulse	1.0	t		24.0	female	east_asian	2.9076800636689217	neutral	034	sub-12	1.0	4.0	034_neutral	0.0		44.266855847994066	
2.0	19.600717927139613	pulse	1.0	t		24.0	female	east_asian	2.9076800636689217	neutral	034	sub-12	1.0	4.0	034_neutral	0.0		44.96683511069432	
2.0	20.300704132458122	pulse	1.0	t		24.0	female	east_asian	2.9076800636689217	neutral	034	sub-12	1.0	4.0	034_neutral	0.0		45.66682131601283	
3.0	21.008882325934337	face	0.0		147	32.0	male	white	2.389176283326701	neutral	092	sub-12	1.0	4.0	092_neutral	0.0		46.374999509489044	1.2416574626658985
3.0	21.002332418014703	pulse	0.0	t		32.0	male	white	2.389176283326701	neutral	092	sub-12	1.0	4.0	092_neutral	0.0		46.36844960156941	
3.0	21.700670204182643	pulse	0.0	t		32.0	male	white	2.389176283326701	neutral	092	sub-12	1.0	4.0	092_neutral	0.0		47.06678738773735	
3.0	22.250539788600236	fix	1.0		443	32.0	male	white	2.389176283326701	neutral	092	sub-12	1.0	4.0	092_neutral	0.0		47.61665697215494	3.75824232214336
3.0	22.400679652181225	pulse	1.0	t		32.0	male	white	2.389176283326701	neutral	092	sub-12	1.0	4.0	092_neutral	0.0		47.76679683573593	
3.0	23.10063174811239	pulse	1.0	t		32.0	male	white	2.389176283326701	neutral	092	sub-12	1.0	4.0	092_neutral	0.0		48.4667489316671	
3.0	23.80060859598825	pulse	1.0	t		32.0	male	white	2.389176283326701	neutral	092	sub-12	1.0	4.0	092_neutral	0.0		49.16672577954296	
3.0	24.500600536513502	pulse	1.0	t		32.0	male	white	2.389176283326701	neutral	092	sub-12	1.0	4.0	092_neutral	0.0		49.86671772006821	
3.0	25.200574064007014	pulse	1.0	t		32.0	male	white	2.389176283326701	neutral	092	sub-12	1.0	4.0	092_neutral	0.0		50.56669124756172	
3.0	25.900554232265677	pulse	1.0	t		32.0	male	white	2.389176283326701	neutral	092	sub-12	1.0	4.0	092_neutral	0.0		51.26667141582038	
4.0	26.008782110743596	face	0.0		147	40.0	male	white	1.868682849184242	neutral	172	sub-12	1.0	4.0	172_neutral	0.0		51.3748992942983	1.2416215421608285
4.0	26.600530778288885	pulse	0.0	t		40.0	male	white	1.868682849184242	neutral	172	sub-12	1.0	4.0	172_neutral	0.0		51.96664796184359	
4.0	27.250403652904424	fix	1.0		444	40.0	male	white	1.868682849184242	neutral	172	sub-12	1.0	4.0	172_neutral	0.0		52.61652083645913	3.758361554071598
4.0	27.300515776195425	pulse	1.0	t		40.0	male	white	1.868682849184242	neutral	172	sub-12	1.0	4.0	172_neutral	0.0		52.66663295975013	
4.0	28.00048960554159	pulse	1.0	t		40.0	male	white	1.868682849184242	neutral	172	sub-12	1.0	4.0	172_neutral	0.0		53.366606789096295	
4.0	28.700474301595477	pulse	1.0	t		40.0	male	white	1.868682849184242	neutral	172	sub-12	1.0	4.0	172_neutral	0.0		54.066591485150184	
4.0	29.400458393943154	pulse	1.0	t		40.0	male	white	1.868682849184242	neutral	172	sub-12	1.0	4.0	172_neutral	0.0		54.76657557749786	
4.0	30.10047327529537	pulse	1.0	t		40.0	male	white	1.868682849184242	neutral	172	sub-12	1.0	4.0	172_neutral	0.0		55.46659045885008	
4.0	30.800434426816082	pulse	1.0	t		40.0	male	white	1.868682849184242	neutral	172	sub-12	1.0	4.0	172_neutral	0.0		56.16655161037079	
5.0	31.008765206976022	face	0.0		146	23.0	male	white	2.6275368085953046	neutral	141	sub-12	1.0	4.0	141_neutral	0.0		56.37488239053073	1.241509856556604
5.0	31.500406143191412	pulse	0.0	t		23.0	male	white	2.6275368085953046	neutral	141	sub-12	1.0	4.0	141_neutral	0.0		56.86652332674612	
5.0	32.20038600959742	pulse	0.0	t		23.0	male	white	2.6275368085953046	neutral	141	sub-12	1.0	4.0	141_neutral	0.0		57.56650319315213	
5.0	32.25027506353263	fix	1.0		445	23.0	male	white	2.6275368085953046	neutral	141	sub-12	1.0	4.0	141_neutral	0.0		57.61639224708733	3.766560484848469
5.0	32.90037130935707	pulse	1.0	t		23.0	male	white	2.6275368085953046	neutral	141	sub-12	1.0	4.0	141_neutral	0.0		58.266488492911776	
5.0	33.60034453499702	pulse	1.0	t		23.0	male	white	2.6275368085953046	neutral	141	sub-12	1.0	4.0	141_neutral	0.0		58.96646171855173	
5.0	34.30031293098955	pulse	1.0	t		23.0	male	white	2.6275368085953046	neutral	141	sub-12	1.0	4.0	141_neutral	0.0		59.666430114544255	
5.0	35.0003269067829	pulse	1.0	t		23.0	male	white	2.6275368085953046	neutral	141	sub-12	1.0	4.0	141_neutral	0.0		60.36644409033761	
5.0	35.7003028490999	pulse	1.0	t		23.0	male	white	2.6275368085953046	neutral	141	sub-12	1.0	4.0	141_neutral	0.0		61.066420032654605	
6.0	36.016835548381096	face	0.0		145	36.0	female	white	2.7548746518105847	smiling	011	sub-12	1.0	4.0	011_smiling	1.0	attractiveness	61.3829527319358	1.2332964368365538
6.0	36.400276074740304	pulse	0.0	t		36.0	female	white	2.7548746518105847	smiling	011	sub-12	1.0	4.0	011_smiling	1.0	attractiveness	61.76639325829501	
6.0	37.10027103379525	pulse	0.0	t		36.0	female	white	2.7548746518105847	smiling	011	sub-12	1.0	4.0	011_smiling	1.0	attractiveness	62.46638821734996	
6.0	37.25013198521765	fix	1.0		177	36.0	female	white	2.7548746518105847	smiling	011	sub-12	1.0	4.0	011_smiling	1.0	attractiveness	62.616249168772356	1.5083315951633267
6.0	37.80024184461172	pulse	1.0	t		36.0	female	white	2.7548746518105847	smiling	011	sub-12	1.0	4.0	011_smiling	1.0	attractiveness	63.166359028166426	
6.0	38.50021174986887	pulse	1.0	t		36.0	female	white	2.7548746518105847	smiling	011	sub-12	1.0	4.0	011_smiling	1.0	attractiveness	63.866328933423574	
6.0	38.758463580380976	rating	2.0		295	36.0	female	white	2.7548746518105847	smiling	011	sub-12	1.0	4.0	011_smiling	1.0	attractiveness	64.12458076393568	2.491566076675099
6.0	39.20020791633624	pulse	2.0	t		36.0	female	white	2.7548746518105847	smiling	011	sub-12	1.0	4.0	011_smiling	1.0	attractiveness	64.56632509989095	
6.0	39.900181141976645	pulse	2.0	t		36.0	female	white	2.7548746518105847	smiling	011	sub-12	1.0	4.0	011_smiling	1.0	attractiveness	65.26629832553135	
6.0	40.60016372505925	pulse	2.0	t		36.0	female	white	2.7548746518105847	smiling	011	sub-12	1.0	4.0	011_smiling	1.0	attractiveness	65.96628090861395	
6.0	41.250029657056075	fix	3.0		442	36.0	female	white	2.7548746518105847	smiling	011	sub-12	1.0	4.0	011_smiling	1.0	attractiveness	66.61614684061078	3.7665493162876373
6.0	41.30019943426714	pulse	3.0	t		36.0	female	white	2.7548746518105847	smiling	011	sub-12	1.0	4.0	011_smiling	1.0	attractiveness	66.66631661782185	
6.0	41.366812954684974	response	3.0	e		36.0	female	white	2.7548746518105847	smiling	011	sub-12	1.0	4.0	011_smiling	1.0	attractiveness	66.73293013823968	
6.0	42.0001285893718	pulse	3.0	t		36.0	female	white	2.7548746518105847	smiling	011	sub-12	1.0	4.0	011_smiling	1.0	attractiveness	67.3662457729265	
6.0	42.70011751136735	pulse	3.0	t		36.0	female	white	2.7548746518105847	smiling	011	sub-12	1.0	4.0	011_smiling	1.0	attractiveness	68.06623469492206	
6.0	43.4001091500395	pulse	3.0	t		36.0	female	white	2.7548746518105847	smiling	011	sub-12	1.0	4.0	011_smiling	1.0	attractiveness	68.7662263335942	
6.0	44.10007935714975	pulse	3.0	t		36.0	female	white	2.7548746518105847	smiling	011	sub-12	1.0	4.0	011_smiling	1.0	attractiveness	69.46619654070446	
6.0	44.8000429234944	pulse	3.0	t		36.0	female	white	2.7548746518105847	smiling	011	sub-12	1.0	4.0	011_smiling	1.0	attractiveness	70.16616010704911	
7.0	45.01657897334371	face	0.0		145	54.0	female	white	2.286908077994429	neutral	136	sub-12	1.0	4.0	136_neutral	0.0		70.38269615689842	1.2333326591951845
7.0	45.50004391960965	pulse	0.0	t		54.0	female	white	2.286908077994429	neutral	136	sub-12	1.0	4.0	136_neutral	0.0		70.86616110316436	
7.0	46.200024087868314	pulse	0.0	t		54.0	female	white	2.286908077994429	neutral	136	sub-12	1.0	4.0	136_neutral	0.0		71.56614127142302	
7.0	46.2499116325389	fix	1.0		445	54.0	female	white	2.286908077994429	neutral	136	sub-12	1.0	4.0	136_neutral	0.0		71.6160288160936	3.7581910071353377
7.0	46.89999278571395	pulse	1.0	t		54.0	female	white	2.286908077994429	neutral	136	sub-12	1.0	4.0	136_neutral	0.0		72.26610996926865	
7.0	47.59997748176738	pulse	1.0	t		54.0	female	white	2.286908077994429	neutral	136	sub-12	1.0	4.0	136_neutral	0.0		72.96609466532209	
7.0	48.299963083380135	pulse	1.0	t		54.0	female	white	2.286908077994429	neutral	136	sub-12	1.0	4.0	136_neutral	0.0		73.66608026693484	
7.0	48.99997132396675	pulse	1.0	t		54.0	female	white	2.286908077994429	neutral	136	sub-12	1.0	4.0	136_neutral	0.0		74.36608850752145	
7.0	49.69992885325155	pulse	1.0	t		54.0	female	white	2.286908077994429	neutral	136	sub-12	1.0	4.0	136_neutral	0.0		75.06604603680626	
8.0	50.008102639674235	face	0.0		146	20.0	male	black	2.609629924393156	neutral	043	sub-12	1.0	4.0	043_neutral	1.0	dominance	75.37421982322894	1.2416749701392291
8.0	50.39990056962688	pulse	0.0	t		20.0	male	black	2.609629924393156	neutral	043	sub-12	1.0	4.0	043_neutral	1.0	dominance	75.76601775318159	
8.0	51.09988164344486	pulse	0.0	t		20.0	male	black	2.609629924393156	neutral	043	sub-12	1.0	4.0	043_neutral	1.0	dominance	76.46599882699957	
8.0	51.249777609813464	fix	1.0		177	20.0	male	black	2.609629924393156	neutral	043	sub-12	1.0	4.0	043_neutral	1.0	dominance	76.61589479336817	1.4999603063324685
8.0	51.79986483023367	pulse	1.0	t		20.0	male	black	2.609629924393156	neutral	043	sub-12	1.0	4.0	043_neutral	1.0	dominance	77.16598201378838	
8.0	52.49984318737461	pulse	1.0	t		20.0	male	black	2.609629924393156	neutral	043	sub-12	1.0	4.0	043_neutral	1.0	dominance	77.86596037092932	
8.0	52.74973791614593	rating	2.0		295	20.0	male	black	2.609629924393156	neutral	043	sub-12	1.0	4.0	043_neutral	1.0	dominance	78.11585509970064	2.499921065444596
8.0	53.19984901313728	pulse	2.0	t		20.0	male	black	2.609629924393156	neutral	043	sub-12	1.0	4.0	043_neutral	1.0	dominance	78.56596619669199	
8.0	53.89984065180943	pulse	2.0	t		20.0	male	black	2.609629924393156	neutral	043	sub-12	1.0	4.0	043_neutral	1.0	dominance	79.26595783536413	
8.0	54.49978825013113	response	2.0	e		20.0	male	black	2.609629924393156	neutral	043	sub-12	1.0	4.0	043_neutral	1.0	dominance	79.86590543368584	
8.0	54.59977856065052	pulse	2.0	t		20.0	male	black	2.609629924393156	neutral	043	sub-12	1.0	4.0	043_neutral	1.0	dominance	79.96589574420523	
8.0	55.24965898159053	fix	3.0		443	20.0	male	black	2.609629924393156	neutral	043	sub-12	1.0	4.0	043_neutral	1.0	dominance	80.61577616514523	3.766562295966196
8.0	55.29977321785282	pulse	3.0	t		20.0	male	black	2.609629924393156	neutral	043	sub-12	1.0	4.0	043_neutral	1.0	dominance	80.66589040140752	
8.0	55.99975308425837	pulse	3.0	t		20.0	male	black	2.609629924393156	neutral	043	sub-12	1.0	4.0	043_neutral	1.0	dominance	81.36587026781308	
8.0	56.69972600804567	pulse	3.0	t		20.0	male	black	2.609629924393156	neutral	043	sub-12	1.0	4.0	043_neutral	1.0	dominance	82.06584319160038	
8.0	57.39971251521729	pulse	3.0	t		20.0	male	black	2.609629924393156	neutral	043	sub-12	1.0	4.0	043_neutral	1.0	dominance	82.765829698772	
8.0	58.09969479644724	pulse	3.0	t		20.0	male	black	2.609629924393156	neutral	043	sub-12	1.0	4.0	043_neutral	1.0	dominance	83.46581198000194	
8.0	58.79967526655901	pulse	3.0	t		20.0	male	black	2.609629924393156	neutral	043	sub-12	1.0	4.0	043_neutral	1.0	dominance	84.16579245011371	
9.0	59.016221277556724	face	0.0		145	31.0	female	east_asian	3.395941106247513	neutral	087	sub-12	1.0	4.0	087_neutral	0.0		84.38233846111143	1.2333045868672343
9.0	59.499657547788956	pulse	0.0	t		31.0	female	east_asian	3.395941106247513	neutral	087	sub-12	1.0	4.0	087_neutral	0.0		84.86577473134366	
9.0	60.19963530122368	pulse	0.0	t		31.0	female	east_asian	3.395941106247513	neutral	087	sub-12	1.0	4.0	087_neutral	0.0		85.56575248477839	
9.0	60.24952586442396	fix	1.0		445	31.0	female	east_asian	3.395941106247513	neutral	087	sub-12	1.0	4.0	087_neutral	0.0		85.61564304797866	3.7582405110251784
9.0	60.89962150654219	pulse	1.0	t		31.0	female	east_asian	3.395941106247513	neutral	087	sub-12	1.0	4.0	087_neutral	0.0		86.2657386900969	
9.0	61.59959684515343	pulse	1.0	t		31.0	female	east_asian	3.395941106247513	neutral	087	sub-12	1.0	4.0	087_neutral	0.0		86.96571402870813	
9.0	62.2996056894458	pulse	1.0	t		31.0	female	east_asian	3.395941106247513	neutral	087	sub-12	1.0	4.0	087_neutral	0.0		87.6657228730005	
9.0	62.99956744467272	pulse	1.0	t		31.0	female	east_asian	3.395941106247513	neutral	087	sub-12	1.0	4.0	087_neutral	0.0		88.36568462822743	
9.0	63.69954459440169	pulse	1.0	t		31.0	female	east_asian	3.395941106247513	neutral	087	sub-12	1.0	4.0	087_neutral	0.0		89.0656617779564	
10.0	64.00776637544914	face	0.0		146	20.0	male	black	3.1070433744528456	neutral	082	sub-12	1.0	4.0	082_neutral	0.0		89.37388355900384	1.24162727736757
10.0	64.39952898860247	pulse	0.0	t		20.0	male	black	3.1070433744528456	neutral	082	sub-12	1.0	4.0	082_neutral	0.0		89.76564617215718	
10.0	65.099535719924	pulse	0.0	t		20.0	male	black	3.1070433744528456	neutral	082	sub-12	1.0	4.0	082_neutral	0.0		90.46565290347871	
10.0	65.2493936528167	fix	1.0		445	20.0	male	black	3.1070433744528456	neutral	082	sub-12	1.0	4.0	082_neutral	0.0		90.61551083637141	3.766559881142257
10.0	65.79949083438532	pulse	1.0	t		20.0	male	black	3.1070433744528456	neutral	082	sub-12	1.0	4.0	082_neutral	0.0		91.16560801794003	
10.0	66.49946647484921	pulse	1.0	t		20.0	male	black	3.1070433744528456	neutral	082	sub-12	1.0	4.0	082_neutral	0.0		91.86558365840392	
10.0	67.19945479313901	pulse	1.0	t		20.0	male	black	3.1070433744528456	neutral	082	sub-12	1.0	4.0	082_neutral	0.0		92.56557197669372	
10.0	67.89943496139767	pulse	1.0	t		20.0	male	black	3.1070433744528456	neutral	082	sub-12	1.0	4.0	082_neutral	0.0		93.26555214495238	
10.0	68.59941482780368	pulse	1.0	t		20.0	male	black	3.1070433744528456	neutral	082	sub-12	1.0	4.0	082_neutral	0.0		93.96553201135839	
11.0	69.01595353395896	face	0.0		145	23.0	male	white	2.6275368085953046	smiling	141	sub-12	1.0	4.0	141_smiling	0.0		94.38207071751367	1.23330609613231
11.0	69.29939680718053	pulse	0.0	t		23.0	male	white	2.6275368085953046	smiling	141	sub-12	1.0	4.0	141_smiling	0.0		94.66551399073523	
11.0	69.99938603102873	pulse	0.0	t		23.0	male	white	2.6275368085953046	smiling	141	sub-12	1.0	4.0	141_smiling	0.0		95.36550321458344	
11.0	70.24925963009127	fix	1.0		444	23.0	male	white	2.6275368085953046	smiling	141	sub-12	1.0	4.0	141_smiling	0.0		95.61537681364598	3.7583497818059186
11.0	70.6993665011405	pulse	1.0	t		23.0	male	white	2.6275368085953046	smiling	141	sub-12	1.0	4.0	141_smiling	0.0		96.06548368469521	
11.0	71.39934063233977	pulse	1.0	t		23.0	male	white	2.6275368085953046	smiling	141	sub-12	1.0	4.0	141_smiling	0.0		96.76545781589448	
11.0	72.09932895062957	pulse	1.0	t		23.0	male	white	2.6275368085953046	smiling	141	sub-12	1.0	4.0	141_smiling	0.0		97.46544613418428	
11.0	72.79930217626952	pulse	1.0	t		23.0	male	white	2.6275368085953046	smiling	141	sub-12	1.0	4.0	141_smiling	0.0		98.16541935982423	
11.0	73.49928415564636	pulse	1.0	t		23.0	male	white	2.6275368085953046	smiling	141	sub-12	1.0	4.0	141_smiling	0.0		98.86540133920107	
12.0	74.00760941189719	face	0.0		146	31.0	female	white	2.1822522881018704	smiling	102	sub-12	1.0	4.0	102_smiling	0.0		99.3737265954519	1.241522836234708
12.0	74.19926704058207	pulse	0.0	t		31.0	female	white	2.1822522881018704	smiling	102	sub-12	1.0	4.0	102_smiling	0.0		99.56538422413678	
12.0	74.89923634213346	pulse	0.0	t		31.0	female	white	2.1822522881018704	smiling	102	sub-12	1.0	4.0	102_smiling	0.0		100.26535352568817	
12.0	75.2491322481319	fix	1.0		445	31.0	female	white	2.1822522881018704	smiling	102	sub-12	1.0	4.0	102_smiling	0.0		100.6152494316866	3.7748711012291096
12.0	75.59923733824826	pulse	1.0	t		31.0	female	white	2.1822522881018704	smiling	102	sub-12	1.0	4.0	102_smiling	0.0		100.96535452180296	
12.0	76.29923531583336	pulse	1.0	t		31.0	female	white	2.1822522881018704	smiling	102	sub-12	1.0	4.0	102_smiling	0.0		101.66535249938806	
12.0	76.99918107285202	pulse	1.0	t		31.0	female	white	2.1822522881018704	smiling	102	sub-12	1.0	4.0	102_smiling	0.0		102.36529825640673	
12.0	77.69917090040644	pulse	1.0	t		31.0	female	white	2.1822522881018704	smiling	102	sub-12	1.0	4.0	102_smiling	0.0		103.06528808396115	
12.0	78.399138088987	pulse	1.0	t		31.0	female	white	2.1822522881018704	smiling	102	sub-12	1.0	4.0	102_smiling	0.0		103.76525527254171	
13.0	79.02400334936101	face	0.0		145	30.0	female	black	2.7345801830481498	neutral	062	sub-12	1.0	4.0	062_neutral	0.0		104.39012053291572	1.2333139443098844
13.0	79.09912670912945	pulse	0.0	t		30.0	female	black	2.7345801830481498	neutral	062	sub-12	1.0	4.0	062_neutral	0.0		104.46524389268416	
13.0	79.79913193118637	pulse	0.0	t		30.0	female	black	2.7345801830481498	neutral	062	sub-12	1.0	4.0	062_neutral	0.0		105.16524911474107	
13.0	80.2573172936709	fix	1.0		444	30.0	female	black	2.7345801830481498	neutral	062	sub-12	1.0	4.0	062_neutral	0.0		105.6234344772256	3.76655263667044
13.0	80.4991196457695	pulse	1.0	t		30.0	female	black	2.7345801830481498	neutral	062	sub-12	1.0	4.0	062_neutral	0.0		105.8652368293242	
13.0	81.19908441952612	pulse	1.0	t		30.0	female	black	2.7345801830481498	neutral	062	sub-12	1.0	4.0	062_neutral	0.0		106.56520160308082	
13.0	81.89906428593213	pulse	1.0	t		30.0	female	black	2.7345801830481498	neutral	062	sub-12	1.0	4.0	062_neutral	0.0		107.26518146948683	
13.0	82.59906105610526	pulse	1.0	t		30.0	female	black	2.7345801830481498	neutral	062	sub-12	1.0	4.0	062_neutral	0.0		107.96517823965996	
13.0	83.29902160392021	pulse	1.0	t		30.0	female	black	2.7345801830481498	neutral	062	sub-12	1.0	4.0	062_neutral	0.0		108.66513878747492	
13.0	83.99900509256167	pulse	1.0	t		30.0	female	black	2.7345801830481498	neutral	062	sub-12	1.0	4.0	062_neutral	0.0		109.36512227611638	
14.0	84.02386993034133	face	0.0		146	26.0	male	white	2.7966573816155993	neutral	117	sub-12	1.0	4.0	117_neutral	0.0		109.38998711389604	1.233322698046777
14.0	84.69898375155572	pulse	0.0	t		26.0	male	white	2.7966573816155993	neutral	117	sub-12	1.0	4.0	117_neutral	0.0		110.06510093511042	
14.0	85.25719262838811	fix	1.0		443	26.0	male	white	2.7966573816155993	neutral	117	sub-12	1.0	4.0	117_neutral	0.0		110.62330981194282	3.7665450903459714
14.0	85.39896663649142	pulse	1.0	t		26.0	male	white	2.7966573816155993	neutral	117	sub-12	1.0	4.0	117_neutral	0.0		110.76508382004613	
14.0	86.09895284181039	pulse	1.0	t		26.0	male	white	2.7966573816155993	neutral	117	sub-12	1.0	4.0	117_neutral	0.0		111.4650700253651	
14.0	86.79892003039095	pulse	1.0	t		26.0	male	white	2.7966573816155993	neutral	117	sub-12	1.0	4.0	117_neutral	0.0		112.16503721394565	
14.0	87.49891166906309	pulse	1.0	t		26.0	male	white	2.7966573816155993	neutral	117	sub-12	1.0	4.0	117_neutral	0.0		112.8650288526178	
14.0	88.19892564485644	pulse	1.0	t		26.0	male	white	2.7966573816155993	neutral	117	sub-12	1.0	4.0	117_neutral	0.0		113.56504282841115	
14.0	88.89887260928663	pulse	1.0	t		26.0	male	white	2.7966573816155993	neutral	117	sub-12	1.0	4.0	117_neutral	0.0		114.26498979284133	
15.0	89.02373771873408	face	0.0		146	21.0	male	black	2.969757262236371	smiling	137	sub-12	1.0	4.0	137_smiling	0.0		114.38985490228879	1.233320283222838
15.0	89.59885489051658	pulse	0.0	t		21.0	male	black	2.969757262236371	smiling	137	sub-12	1.0	4.0	137_smiling	0.0		114.96497207407128	
15.0	90.25705800195692	fix	1.0		444	21.0	male	black	2.969757262236371	smiling	137	sub-12	1.0	4.0	137_smiling	0.0		115.62317518551163	3.7583328780383454
15.0	90.29883022912782	pulse	1.0	t		21.0	male	black	2.969757262236371	smiling	137	sub-12	1.0	4.0	137_smiling	0.0		115.66494741268252	
15.0	90.99881190665155	pulse	1.0	t		21.0	male	black	2.969757262236371	smiling	137	sub-12	1.0	4.0	137_smiling	0.0		116.36492909020626	
15.0	91.69882346762097	pulse	1.0	t		21.0	male	black	2.969757262236371	smiling	137	sub-12	1.0	4.0	137_smiling	0.0		117.06494065117568	
15.0	92.39881842667592	pulse	1.0	t		21.0	male	black	2.969757262236371	smiling	137	sub-12	1.0	4.0	137_smiling	0.0		117.76493561023062	
15.0	93.09878350228564	pulse	1.0	t		21.0	male	black	2.969757262236371	smiling	137	sub-12	1.0	4.0	137_smiling	0.0		118.46490068584035	
15.0	93.79874978530734	pulse	1.0	t		21.0	male	black	2.969757262236371	smiling	137	sub-12	1.0	4.0	137_smiling	0.0		119.16486696886204	
16.0	94.01539087999527	face	0.0		146	28.0	male	east_asian	1.5563072025467568	smiling	005	sub-12	1.0	4.0	005_smiling	0.0		119.38150806354997	1.241529477000313
16.0	94.49872512391858	pulse	0.0	t		28.0	male	east_asian	1.5563072025467568	smiling	005	sub-12	1.0	4.0	005_smiling	0.0		119.86484230747328	
16.0	95.19873547747557	pulse	0.0	t		28.0	male	east_asian	1.5563072025467568	smiling	005	sub-12	1.0	4.0	005_smiling	0.0		120.56485266103027	
16.0	95.25692035699558	fix	1.0		444	28.0	male	east_asian	1.5563072025467568	smiling	005	sub-12	1.0	4.0	005_smiling	0.0		120.62303754055029	3.766549014434986
16.0	95.89867821596454	pulse	1.0	t		28.0	male	east_asian	1.5563072025467568	smiling	005	sub-12	1.0	4.0	005_smiling	0.0		121.26479539951924	
16.0	96.59865627125237	pulse	1.0	t		28.0	male	east_asian	1.5563072025467568	smiling	005	sub-12	1.0	4.0	005_smiling	0.0		121.96477345480707	
16.0	97.29864640065989	pulse	1.0	t		28.0	male	east_asian	1.5563072025467568	smiling	005	sub-12	1.0	4.0	005_smiling	0.0		122.6647635842146	
16.0	97.99862898374249	pulse	1.0	t		28.0	male	east_asian	1.5563072025467568	smiling	005	sub-12	1.0	4.0	005_smiling	0.0		123.3647461672972	
16.0	98.69860643532456	pulse	1.0	t		28.0	male	east_asian	1.5563072025467568	smiling	005	sub-12	1.0	4.0	005_smiling	0.0		124.06472361887927	
17.0	99.02346937143056	face	0.0		145	28.0	male	white	3.9076800636689217	smiling	033	sub-12	1.0	4.0	033_smiling	0.0		124.38958655498527	1.2333214906343528
17.0	99.39859596102633	pulse	0.0	t		28.0	male	white	3.9076800636689217	smiling	033	sub-12	1.0	4.0	033_smiling	0.0		124.76471314458104	
17.0	100.09856858296052	pulse	0.0	t		28.0	male	white	3.9076800636689217	smiling	033	sub-12	1.0	4.0	033_smiling	0.0		125.46468576651523	
17.0	100.25679086206492	fix	1.0		444	28.0	male	white	3.9076800636689217	smiling	033	sub-12	1.0	4.0	033_smiling	0.0		125.62290804561962	3.758207910902911
17.0	100.79855750495562	pulse	1.0	t		28.0	male	white	3.9076800636689217	smiling	033	sub-12	1.0	4.0	033_smiling	0.0		126.16467468851033	
17.0	101.49853133430224	pulse	1.0	t		28.0	male	white	3.9076800636689217	smiling	033	sub-12	1.0	4.0	033_smiling	0.0		126.86464851785695	
17.0	102.19851874703272	pulse	1.0	t		28.0	male	white	3.9076800636689217	smiling	033	sub-12	1.0	4.0	033_smiling	0.0		127.56463593058743	
17.0	102.8985028393804	pulse	1.0	t		28.0	male	white	3.9076800636689217	smiling	033	sub-12	1.0	4.0	033_smiling	0.0		128.2646200229351	
17.0	103.59849810028845	pulse	1.0	t		28.0	male	white	3.9076800636689217	smiling	033	sub-12	1.0	4.0	033_smiling	0.0		128.96461528384316	
18.0	104.01499877296783	face	0.0		146	47.0	male	east_asian	2.171110226820533	smiling	024	sub-12	1.0	4.0	024_smiling	0.0		129.38111595652254	1.2416604811960497
18.0	104.29848822969598	pulse	0.0	t		47.0	male	east_asian	2.171110226820533	smiling	024	sub-12	1.0	4.0	024_smiling	0.0		129.66460541325068	
18.0	104.99843881636207	pulse	0.0	t		47.0	male	east_asian	2.171110226820533	smiling	024	sub-12	1.0	4.0	024_smiling	0.0		130.36455599991677	
18.0	105.25665925416388	fix	1.0		444	47.0	male	east_asian	2.171110226820533	smiling	024	sub-12	1.0	4.0	024_smiling	0.0		130.62277643771858	3.7582984667978963
18.0	105.69842653094565	pulse	1.0	t		47.0	male	east_asian	2.171110226820533	smiling	024	sub-12	1.0	4.0	024_smiling	0.0		131.06454371450036	
18.0	106.39840036029182	pulse	1.0	t		47.0	male	east_asian	2.171110226820533	smiling	024	sub-12	1.0	4.0	024_smiling	0.0		131.76451754384652	
18.0	107.09838686746343	pulse	1.0	t		47.0	male	east_asian	2.171110226820533	smiling	024	sub-12	1.0	4.0	024_smiling	0.0		132.46450405101814	
18.0	107.79836975239914	pulse	1.0	t		47.0	male	east_asian	2.171110226820533	smiling	024	sub-12	1.0	4.0	024_smiling	0.0		133.16448693595385	
18.0	108.4983435817453	pulse	1.0	t		47.0	male	east_asian	2.171110226820533	smiling	024	sub-12	1.0	4.0	024_smiling	0.0		133.8644607653	
19.0	109.01495772096177	face	0.0		146	21.0	male	east_asian/white	3.501790688420215	neutral	036	sub-12	1.0	4.0	036_neutral	0.0		134.38107490451648	1.2415653975058376
19.0	109.19833250374086	pulse	0.0	t		21.0	male	east_asian/white	3.501790688420215	neutral	036	sub-12	1.0	4.0	036_neutral	0.0		134.56444968729556	
19.0	109.89830723864588	pulse	0.0	t		21.0	male	east_asian/white	3.501790688420215	neutral	036	sub-12	1.0	4.0	036_neutral	0.0		135.2644244222006	
19.0	110.25652311846761	fix	1.0		444	21.0	male	east_asian/white	3.501790688420215	neutral	036	sub-12	1.0	4.0	036_neutral	0.0		135.62264030202232	3.7583078242405463
19.0	110.59829284025864	pulse	1.0	t		21.0	male	east_asian/white	3.501790688420215	neutral	036	sub-12	1.0	4.0	036_neutral	0.0		135.96441002381334	
19.0	111.29828900672555	pulse	1.0	t		21.0	male	east_asian/white	3.501790688420215	neutral	036	sub-12	1.0	4.0	036_neutral	0.0		136.66440619028026	
19.0	111.99825770457119	pulse	1.0	t		21.0	male	east_asian/white	3.501790688420215	neutral	036	sub-12	1.0	4.0	036_neutral	0.0		137.3643748881259	
19.0	112.69823485430015	pulse	1.0	t		21.0	male	east_asian/white	3.501790688420215	neutral	036	sub-12	1.0	4.0	036_neutral	0.0		138.06435203785486	
19.0	113.39821200402912	pulse	1.0	t		21.0	male	east_asian/white	3.501790688420215	neutral	036	sub-12	1.0	4.0	036_neutral	0.0		138.76432918758383	
20.0	114.01483094270816	face	0.0		146	24.0	male	white	3.1153999204138483	smiling	012	sub-12	1.0	4.0	012_smiling	0.0		139.38094812626287	1.2415587567402326
20.0	114.09823050761725	pulse	0.0	t		24.0	male	white	3.1153999204138483	smiling	012	sub-12	1.0	4.0	012_smiling	0.0		139.46434769117195	
20.0	114.7981844146666	pulse	0.0	t		24.0	male	white	3.1153999204138483	smiling	012	sub-12	1.0	4.0	012_smiling	0.0		140.1643015982213	
20.0	115.25638969944839	fix	1.0		1185	24.0	male	white	3.1153999204138483	smiling	012	sub-12	1.0	4.0	012_smiling	0.0		140.6225068830031	10.01639605043465
20.0	115.4981672996023	pulse	1.0	t		24.0	male	white	3.1153999204138483	smiling	012	sub-12	1.0	4.0	012_smiling	0.0		140.864284483157	
20.0	116.19814716600831	pulse	1.0	t		24.0	male	white	3.1153999204138483	smiling	012	sub-12	1.0	4.0	012_smiling	0.0		141.56426434956302	
20.0	116.89812763612008	pulse	1.0	t		24.0	male	white	3.1153999204138483	smiling	012	sub-12	1.0	4.0	012_smiling	0.0		142.2642448196748	
20.0	117.59810991735003	pulse	1.0	t		24.0	male	white	3.1153999204138483	smiling	012	sub-12	1.0	4.0	012_smiling	0.0		142.96422710090474	
20.0	118.29808616151968	pulse	1.0	t		24.0	male	white	3.1153999204138483	smiling	012	sub-12	1.0	4.0	012_smiling	0.0		143.66420334507438	
20.0	118.99807478166258	pulse	1.0	t		24.0	male	white	3.1153999204138483	smiling	012	sub-12	1.0	4.0	012_smiling	0.0		144.3641919652173	
20.0	119.69806340180503	pulse	1.0	t		24.0	male	white	3.1153999204138483	smiling	012	sub-12	1.0	4.0	012_smiling	0.0		145.06418058535974	
20.0	120.3980317977971	pulse	1.0	t		24.0	male	white	3.1153999204138483	smiling	012	sub-12	1.0	4.0	012_smiling	0.0		145.7641489813518	
20.0	121.09801166420311	pulse	1.0	t		24.0	male	white	3.1153999204138483	smiling	012	sub-12	1.0	4.0	012_smiling	0.0		146.46412884775782	
20.0	121.7979897194914	pulse	1.0	t		24.0	male	white	3.1153999204138483	smiling	012	sub-12	1.0	4.0	012_smiling	0.0		147.1641069030461	
20.0	122.49797683036877	pulse	1.0	t		24.0	male	white	3.1153999204138483	smiling	012	sub-12	1.0	4.0	012_smiling	0.0		147.86409401392348	
20.0	123.19796182827531	pulse	1.0	t		24.0	male	white	3.1153999204138483	smiling	012	sub-12	1.0	4.0	012_smiling	0.0		148.56407901183002	
20.0	123.89793746873966	pulse	1.0	t		24.0	male	white	3.1153999204138483	smiling	012	sub-12	1.0	4.0	012_smiling	0.0		149.26405465229436	
20.0	124.59791824070453	pulse	1.0	t		24.0	male	white	3.1153999204138483	smiling	012	sub-12	1.0	4.0	012_smiling	0.0		149.96403542425924	
21.0	125.27278574988304	face	0.0		145	19.0	male	white	3.2522881018702745	smiling	018	sub-12	1.0	4.0	018_smiling	1.0	trustworthiness	150.63890293343775	1.233301870190644
21.0	125.29791410531834	pulse	0.0	t		19.0	male	white	3.2522881018702745	smiling	018	sub-12	1.0	4.0	018_smiling	1.0	trustworthiness	150.66403128887305	
21.0	125.9978846142817	pulse	0.0	t		19.0	male	white	3.2522881018702745	smiling	018	sub-12	1.0	4.0	018_smiling	1.0	trustworthiness	151.3640017978364	
21.0	126.50608762007369	fix	1.0		177	19.0	male	white	3.2522881018702745	smiling	018	sub-12	1.0	4.0	018_smiling	1.0	trustworthiness	151.8722048036284	1.4999633248621649
21.0	126.69787323442415	pulse	1.0	t		19.0	male	white	3.2522881018702745	smiling	018	sub-12	1.0	4.0	018_smiling	1.0	trustworthiness	152.06399041797886	
21.0	127.39784827118228	pulse	1.0	t		19.0	male	white	3.2522881018702745	smiling	018	sub-12	1.0	4.0	018_smiling	1.0	trustworthiness	152.763965454737	
21.0	128.00605094493585	rating	2.0		294	19.0	male	white	3.2522881018702745	smiling	018	sub-12	1.0	4.0	018_smiling	1.0	trustworthiness	153.37216812849056	2.499934346975806
21.0	128.09782904314716	pulse	2.0	t		19.0	male	white	3.2522881018702745	smiling	018	sub-12	1.0	4.0	018_smiling	1.0	trustworthiness	153.46394622670186	
21.0	128.79781041881824	pulse	2.0	t		19.0	male	white	3.2522881018702745	smiling	018	sub-12	1.0	4.0	018_smiling	1.0	trustworthiness	154.16392760237295	
21.0	129.49778998337115	pulse	2.0	t		19.0	male	white	3.2522881018702745	smiling	018	sub-12	1.0	4.0	018_smiling	1.0	trustworthiness	154.86390716692586	
21.0	129.5811017090614	response	2.0	y		19.0	male	white	3.2522881018702745	smiling	018	sub-12	1.0	4.0	018_smiling	1.0	trustworthiness	154.9472188926161	
21.0	130.1977384570664	pulse	2.0	t		19.0	male	white	3.2522881018702745	smiling	018	sub-12	1.0	4.0	018_smiling	1.0	trustworthiness	155.5638556406211	
21.0	130.50598529191166	fix	3.0		444	19.0	male	white	3.2522881018702745	smiling	018	sub-12	1.0	4.0	018_smiling	1.0	trustworthiness	155.87210247546636	3.766559881142257
21.0	130.8977611865962	pulse	3.0	t		19.0	male	white	3.2522881018702745	smiling	018	sub-12	1.0	4.0	018_smiling	1.0	trustworthiness	156.2638783701509	
21.0	131.59836468126923	pulse	3.0	t		19.0	male	white	3.2522881018702745	smiling	018	sub-12	1.0	4.0	018_smiling	1.0	trustworthiness	156.96448186482394	
21.0	132.29771578790724	pulse	3.0	t		19.0	male	white	3.2522881018702745	smiling	018	sub-12	1.0	4.0	018_smiling	1.0	trustworthiness	157.66383297146194	
21.0	132.9977149729043	pulse	3.0	t		19.0	male	white	3.2522881018702745	smiling	018	sub-12	1.0	4.0	018_smiling	1.0	trustworthiness	158.363832156459	
21.0	133.69769514116342	pulse	3.0	t		19.0	male	white	3.2522881018702745	smiling	018	sub-12	1.0	4.0	018_smiling	1.0	trustworthiness	159.06381232471813	
22.0	134.2725451730539	face	0.0		145	25.0	female	black	3.858336649423	smiling	126	sub-12	1.0	4.0	126_smiling	0.0		159.63866235660862	1.2333100202213245
22.0	134.39766172603777	pulse	0.0	t		25.0	female	black	3.858336649423	smiling	126	sub-12	1.0	4.0	126_smiling	0.0		159.76377890959247	
22.0	135.09763917761984	pulse	0.0	t		25.0	female	black	3.858336649423	smiling	126	sub-12	1.0	4.0	126_smiling	0.0		160.46375636117455	
22.0	135.50585519327524	fix	1.0		444	25.0	female	black	3.858336649423	smiling	126	sub-12	1.0	4.0	126_smiling	0.0		160.87197237682994	3.7582788463541874
22.0	135.79762266626176	pulse	1.0	t		25.0	female	black	3.858336649423	smiling	126	sub-12	1.0	4.0	126_smiling	0.0		161.16373984981647	
22.0	136.49760253266732	pulse	1.0	t		25.0	female	black	3.858336649423	smiling	126	sub-12	1.0	4.0	126_smiling	0.0		161.86371971622202	
22.0	137.19759266207484	pulse	1.0	t		25.0	female	black	3.858336649423	smiling	126	sub-12	1.0	4.0	126_smiling	0.0		162.56370984562955	
22.0	137.89756860439184	pulse	1.0	t		25.0	female	black	3.858336649423	smiling	126	sub-12	1.0	4.0	126_smiling	0.0		163.26368578794654	
22.0	138.59754001891406	pulse	1.0	t		25.0	female	black	3.858336649423	smiling	126	sub-12	1.0	4.0	126_smiling	0.0		163.96365720246877	
23.0	139.26413403962943	face	0.0		146	26.0	male	white	2.7966573816155993	smiling	117	sub-12	1.0	4.0	117_smiling	0.0		164.63025122318413	1.241592866127121
23.0	139.29753467611636	pulse	0.0	t		26.0	male	white	2.7966573816155993	smiling	117	sub-12	1.0	4.0	117_smiling	0.0		164.66365185967106	
23.0	139.99750910916873	pulse	0.0	t		26.0	male	white	2.7966573816155993	smiling	117	sub-12	1.0	4.0	117_smiling	0.0		165.36362629272344	
23.0	140.50572690575655	fix	1.0		443	26.0	male	white	2.7966573816155993	smiling	117	sub-12	1.0	4.0	117_smiling	0.0		165.87184408931125	3.758205496078972
23.0	140.69749199410444	pulse	1.0	t		26.0	male	white	2.7966573816155993	smiling	117	sub-12	1.0	4.0	117_smiling	0.0		166.06360917765915	
23.0	141.39746672900947	pulse	1.0	t		26.0	male	white	2.7966573816155993	smiling	117	sub-12	1.0	4.0	117_smiling	0.0		166.76358391256417	
23.0	142.0974535380342	pulse	1.0	t		26.0	male	white	2.7966573816155993	smiling	117	sub-12	1.0	4.0	117_smiling	0.0		167.4635707215889	
23.0	142.79743581926368	pulse	1.0	t		26.0	male	white	2.7966573816155993	smiling	117	sub-12	1.0	4.0	117_smiling	0.0		168.1635530028184	
23.0	143.4974093467572	pulse	1.0	t		26.0	male	white	2.7966573816155993	smiling	117	sub-12	1.0	4.0	117_smiling	0.0		168.8635265303119	
23.0	144.19739736319343	pulse	1.0	t		26.0	male	white	2.7966573816155993	smiling	117	sub-12	1.0	4.0	117_smiling	0.0		169.56351454674814	
24.0	144.26393240183552	face	0.0		147	34.0	male	white	2.651014723438122	neutral	121	sub-12	1.0	4.0	121_neutral	0.0		169.63004958539022	1.241651425606051
24.0	144.89738115368846	pulse	0.0	t		34.0	male	white	2.651014723438122	neutral	121	sub-12	1.0	4.0	121_neutral	0.0		170.26349833724316	
24.0	145.50558382744157	fix	1.0		443	34.0	male	white	2.651014723438122	neutral	121	sub-12	1.0	4.0	121_neutral	0.0		170.87170101099628	3.7665867460582376
24.0	145.59736071824136	pulse	1.0	t		34.0	male	white	2.651014723438122	neutral	121	sub-12	1.0	4.0	121_neutral	0.0		170.96347790179607	
24.0	146.29733696241146	pulse	1.0	t		34.0	male	white	2.651014723438122	neutral	121	sub-12	1.0	4.0	121_neutral	0.0		171.66345414596617	
24.0	146.99733101590755	pulse	1.0	t		34.0	male	white	2.651014723438122	neutral	121	sub-12	1.0	4.0	121_neutral	0.0		172.36344819946225	
24.0	147.69730182672401	pulse	1.0	t		34.0	male	white	2.651014723438122	neutral	121	sub-12	1.0	4.0	121_neutral	0.0		173.06341901027872	
24.0	148.3972771653348	pulse	1.0	t		34.0	male	white	2.651014723438122	neutral	121	sub-12	1.0	4.0	121_neutral	0.0		173.7633943488895	
24.0	149.09735603952004	pulse	1.0	t		34.0	male	white	2.651014723438122	neutral	121	sub-12	1.0	4.0	121_neutral	0.0		174.46347322307474	
25.0	149.2721705734998	face	0.0		146	20.0	female	white	3.9502586549940313	neutral	091	sub-12	1.0	4.0	091_neutral	0.0		174.6382877570545	1.2416152032478749
25.0	149.7973899376102	pulse	0.0	t		20.0	female	white	3.9502586549940313	neutral	091	sub-12	1.0	4.0	091_neutral	0.0		175.1635071211649	
25.0	150.4972360831439	pulse	0.0	t		20.0	female	white	3.9502586549940313	neutral	091	sub-12	1.0	4.0	091_neutral	0.0		175.8633532666986	
25.0	150.51378577674768	fix	1.0		443	20.0	female	white	3.9502586549940313	neutral	091	sub-12	1.0	4.0	091_neutral	0.0		175.8799029603024	3.7582094201679865
25.0	151.19721353472596	pulse	1.0	t		20.0	female	white	3.9502586549940313	neutral	091	sub-12	1.0	4.0	091_neutral	0.0		176.56333071828067	
25.0	151.89718947704296	pulse	1.0	t		20.0	female	white	3.9502586549940313	neutral	091	sub-12	1.0	4.0	091_neutral	0.0		177.26330666059766	
25.0	152.59718503980412	pulse	1.0	t		20.0	female	white	3.9502586549940313	neutral	091	sub-12	1.0	4.0	091_neutral	0.0		177.96330222335882	
25.0	153.29714981356074	pulse	1.0	t		20.0	female	white	3.9502586549940313	neutral	091	sub-12	1.0	4.0	091_neutral	0.0		178.66326699711544	
25.0	153.99713269849644	pulse	1.0	t		20.0	female	white	3.9502586549940313	neutral	091	sub-12	1.0	4.0	091_neutral	0.0		179.36324988205115	
26.0	154.27199519691567	face	0.0		145	36.0	female	white	2.7548746518105847	neutral	011	sub-12	1.0	4.0	011_neutral	0.0		179.63811238047037	1.2333229998994284
26.0	154.6971183001092	pulse	0.0	t		36.0	female	white	2.7548746518105847	neutral	011	sub-12	1.0	4.0	011_neutral	0.0		180.0632354836639	
26.0	155.3970972609559	pulse	0.0	t		36.0	female	white	2.7548746518105847	neutral	011	sub-12	1.0	4.0	011_neutral	0.0		180.7632144445106	
26.0	155.5053181968151	fix	1.0		444	36.0	female	white	2.7548746518105847	neutral	011	sub-12	1.0	4.0	011_neutral	0.0		180.8714353803698	3.7665607867011204
26.0	156.09707984403894	pulse	1.0	t		36.0	female	white	2.7548746518105847	neutral	011	sub-12	1.0	4.0	011_neutral	0.0		181.46319702759365	
26.0	156.7970814438595	pulse	1.0	t		36.0	female	white	2.7548746518105847	neutral	011	sub-12	1.0	4.0	011_neutral	0.0		182.1631986274142	
26.0	157.49705557505877	pulse	1.0	t		36.0	female	white	2.7548746518105847	neutral	011	sub-12	1.0	4.0	011_neutral	0.0		182.86317275861347	
26.0	158.19702215993357	pulse	1.0	t		36.0	female	white	2.7548746518105847	neutral	011	sub-12	1.0	4.0	011_neutral	0.0		183.56313934348827	
26.0	158.897006855987	pulse	1.0	t		36.0	female	white	2.7548746518105847	neutral	011	sub-12	1.0	4.0	011_neutral	0.0		184.2631240395417	
27.0	159.27187898351622	face	0.0		145	26.0	female	white	4.854755272582572	neutral	027	sub-12	1.0	4.0	027_neutral	0.0		184.63799616707092	1.2333009646317805
27.0	159.5969864205399	pulse	0.0	t		26.0	female	white	4.854755272582572	neutral	027	sub-12	1.0	4.0	027_neutral	0.0		184.9631036040946	
27.0	160.29696447582774	pulse	0.0	t		26.0	female	white	4.854755272582572	neutral	027	sub-12	1.0	4.0	027_neutral	0.0		185.66308165938244	
27.0	160.505179948148	fix	1.0		444	26.0	female	white	4.854755272582572	neutral	027	sub-12	1.0	4.0	027_neutral	0.0		185.8712971317027	3.766533016226731
27.0	160.99695249226443	pulse	1.0	t		26.0	female	white	4.854755272582572	neutral	027	sub-12	1.0	4.0	027_neutral	0.0		186.36306967581913	
27.0	161.69693567905324	pulse	1.0	t		26.0	female	white	4.854755272582572	neutral	027	sub-12	1.0	4.0	027_neutral	0.0		187.06305286260795	
27.0	162.39695720117106	pulse	1.0	t		26.0	female	white	4.854755272582572	neutral	027	sub-12	1.0	4.0	027_neutral	0.0		187.76307438472577	
27.0	163.09689420445284	pulse	1.0	t		26.0	female	white	4.854755272582572	neutral	027	sub-12	1.0	4.0	027_neutral	0.0		188.46301138800754	
27.0	163.79690123762748	pulse	1.0	t		26.0	female	white	4.854755272582572	neutral	027	sub-12	1.0	4.0	027_neutral	0.0		189.1630184211822	
28.0	164.27171296437473	face	0.0		145	19.0	female	white	4.298846000795861	neutral	100	sub-12	1.0	4.0	100_neutral	0.0		189.63783014792944	1.2333386962545774
28.0	164.49684608908728	pulse	0.0	t		19.0	female	white	4.298846000795861	neutral	100	sub-12	1.0	4.0	100_neutral	0.0		189.862963272642	
28.0	165.19683984073026	pulse	0.0	t		19.0	female	white	4.298846000795861	neutral	100	sub-12	1.0	4.0	100_neutral	0.0		190.56295702428497	
28.0	165.5050516606293	fix	1.0		444	19.0	female	white	4.298846000795861	neutral	100	sub-12	1.0	4.0	100_neutral	0.0		190.871168844184	3.7665616922604386
28.0	165.89682272566642	pulse	1.0	t		19.0	female	white	4.298846000795861	neutral	100	sub-12	1.0	4.0	100_neutral	0.0		191.26293990922113	
28.0	166.5967914235116	pulse	1.0	t		19.0	female	white	4.298846000795861	neutral	100	sub-12	1.0	4.0	100_neutral	0.0		191.9629086070663	
28.0	167.2967960418623	pulse	1.0	t		19.0	female	white	4.298846000795861	neutral	100	sub-12	1.0	4.0	100_neutral	0.0		192.66291322541701	
28.0	167.99676353229597	pulse	1.0	t		19.0	female	white	4.298846000795861	neutral	100	sub-12	1.0	4.0	100_neutral	0.0		193.36288071585068	
28.0	168.69673947461297	pulse	1.0	t		19.0	female	white	4.298846000795861	neutral	100	sub-12	1.0	4.0	100_neutral	0.0		194.06285665816768	
29.0	169.27161335288974	face	0.0		145	27.0	female	white	4.181058495821727	smiling	039	sub-12	1.0	4.0	039_smiling	1.0	trustworthiness	194.63773053644445	1.2333054924260978
29.0	169.39673382996216	pulse	0.0	t		27.0	female	white	4.181058495821727	smiling	039	sub-12	1.0	4.0	039_smiling	1.0	trustworthiness	194.76285101351687	
29.0	170.09669981113075	pulse	0.0	t		27.0	female	white	4.181058495821727	smiling	039	sub-12	1.0	4.0	039_smiling	1.0	trustworthiness	195.46281699468545	
29.0	170.50491884531584	fix	1.0		177	27.0	female	white	4.181058495821727	smiling	039	sub-12	1.0	4.0	039_smiling	1.0	trustworthiness	195.87103602887055	1.4999557785376965
29.0	170.79670865542312	pulse	1.0	t		27.0	female	white	4.181058495821727	smiling	039	sub-12	1.0	4.0	039_smiling	1.0	trustworthiness	196.16282583897782	
29.0	171.49666316617822	pulse	1.0	t		27.0	female	white	4.181058495821727	smiling	039	sub-12	1.0	4.0	039_smiling	1.0	trustworthiness	196.86278034973293	
29.0	172.00487462385354	rating	2.0		294	27.0	female	white	4.181058495821727	smiling	039	sub-12	1.0	4.0	039_smiling	1.0	trustworthiness	197.37099180740825	2.499936459946639
29.0	172.19665540855658	pulse	2.0	t		27.0	female	white	4.181058495821727	smiling	039	sub-12	1.0	4.0	039_smiling	1.0	trustworthiness	197.5627725921113	
29.0	172.89663467125683	pulse	2.0	t		27.0	female	white	4.181058495821727	smiling	039	sub-12	1.0	4.0	039_smiling	1.0	trustworthiness	198.26275185481154	
29.0	173.35495254720172	response	2.0	b		27.0	female	white	4.181058495821727	smiling	039	sub-12	1.0	4.0	039_smiling	1.0	trustworthiness	198.72106973075643	
29.0	173.59660910430875	pulse	2.0	t		27.0	female	white	4.181058495821727	smiling	039	sub-12	1.0	4.0	039_smiling	1.0	trustworthiness	198.96272628786346	
29.0	174.29660859115893	pulse	2.0	t		27.0	female	white	4.181058495821727	smiling	039	sub-12	1.0	4.0	039_smiling	1.0	trustworthiness	199.66272577471364	
29.0	174.50481108380018	fix	3.0		444	27.0	female	white	4.181058495821727	smiling	039	sub-12	1.0	4.0	039_smiling	1.0	trustworthiness	199.87092826735488	3.7665610885542264
29.0	174.99658302421085	pulse	3.0	t		27.0	female	white	4.181058495821727	smiling	039	sub-12	1.0	4.0	039_smiling	1.0	trustworthiness	200.36270020776556	
29.0	175.69655957023406	pulse	3.0	t		27.0	female	white	4.181058495821727	smiling	039	sub-12	1.0	4.0	039_smiling	1.0	trustworthiness	201.06267675378876	
29.0	176.3965294754912	pulse	3.0	t		27.0	female	white	4.181058495821727	smiling	039	sub-12	1.0	4.0	039_smiling	1.0	trustworthiness	201.7626466590459	
29.0	177.0965174919279	pulse	3.0	t		27.0	female	white	4.181058495821727	smiling	039	sub-12	1.0	4.0	039_smiling	1.0	trustworthiness	202.4626346754826	
29.0	177.79650279168754	pulse	3.0	t		27.0	female	white	4.181058495821727	smiling	039	sub-12	1.0	4.0	039_smiling	1.0	trustworthiness	203.16261997524225	
30.0	178.2713721723544	face	0.0		145	30.0	female	black	2.7345801830481498	smiling	062	sub-12	1.0	4.0	062_smiling	0.0		203.6374893559091	1.2333036813088256
30.0	178.49648356365242	pulse	0.0	t		30.0	female	black	2.7345801830481498	smiling	062	sub-12	1.0	4.0	062_smiling	0.0		203.86260074720713	
30.0	179.19650085982857	pulse	0.0	t		30.0	female	black	2.7345801830481498	smiling	062	sub-12	1.0	4.0	062_smiling	0.0		204.56261804338328	
30.0	179.50467585366323	fix	1.0		444	30.0	female	black	2.7345801830481498	smiling	062	sub-12	1.0	4.0	062_smiling	0.0		204.87079303721794	3.7582263239346503
30.0	179.8964439001702	pulse	1.0	t		30.0	female	black	2.7345801830481498	smiling	062	sub-12	1.0	4.0	062_smiling	0.0		205.2625610837249	
30.0	180.59642919992984	pulse	1.0	t		30.0	female	black	2.7345801830481498	smiling	062	sub-12	1.0	4.0	062_smiling	0.0		205.96254638348455	
30.0	181.29641178301245	pulse	1.0	t		30.0	female	black	2.7345801830481498	smiling	062	sub-12	1.0	4.0	062_smiling	0.0		206.66252896656715	
30.0	181.99639134756535	pulse	1.0	t		30.0	female	black	2.7345801830481498	smiling	062	sub-12	1.0	4.0	062_smiling	0.0		207.36250853112006	
30.0	182.6963703084125	pulse	1.0	t		30.0	female	black	2.7345801830481498	smiling	062	sub-12	1.0	4.0	062_smiling	0.0		208.0624874919672	
31.0	183.26290217759788	face	0.0		146	32.0	male	white	2.389176283326701	smiling	092	sub-12	1.0	4.0	092_smiling	0.0		208.6290193611526	1.241637842221735
31.0	183.39635530631904	pulse	0.0	t		32.0	male	white	2.389176283326701	smiling	092	sub-12	1.0	4.0	092_smiling	0.0		208.76247248987374	
31.0	184.09632672084126	pulse	0.0	t		32.0	male	white	2.389176283326701	smiling	092	sub-12	1.0	4.0	092_smiling	0.0		209.46244390439597	
31.0	184.50454001981961	fix	1.0		444	32.0	male	white	2.389176283326701	smiling	092	sub-12	1.0	4.0	092_smiling	0.0		209.87065720337432	3.7665662200552106
31.0	184.79632500027947	pulse	1.0	t		32.0	male	white	2.389176283326701	smiling	092	sub-12	1.0	4.0	092_smiling	0.0		210.16244218383417	
31.0	185.49629762221366	pulse	1.0	t		32.0	male	white	2.389176283326701	smiling	092	sub-12	1.0	4.0	092_smiling	0.0		210.86241480576837	
31.0	186.19627507379573	pulse	1.0	t		32.0	male	white	2.389176283326701	smiling	092	sub-12	1.0	4.0	092_smiling	0.0		211.56239225735044	
31.0	186.8962522235247	pulse	1.0	t		32.0	male	white	2.389176283326701	smiling	092	sub-12	1.0	4.0	092_smiling	0.0		212.2623694070794	
31.0	187.59623933440207	pulse	1.0	t		32.0	male	white	2.389176283326701	smiling	092	sub-12	1.0	4.0	092_smiling	0.0		212.96235651795678	
32.0	188.27110623987483	face	0.0		145	24.0	male	white	3.1153999204138483	neutral	012	sub-12	1.0	4.0	012_neutral	0.0		213.63722342342953	1.233306699838522
32.0	188.29622252119088	pulse	0.0	t		24.0	male	white	3.1153999204138483	neutral	012	sub-12	1.0	4.0	012_neutral	0.0		213.6623397047456	
32.0	188.99620118018493	pulse	0.0	t		24.0	male	white	3.1153999204138483	neutral	012	sub-12	1.0	4.0	012_neutral	0.0		214.36231836373963	
32.0	189.50441293971335	fix	1.0		443	24.0	male	white	3.1153999204138483	neutral	012	sub-12	1.0	4.0	012_neutral	0.0		214.87053012326805	3.7582966556801694
32.0	189.6961919132982	pulse	1.0	t		24.0	male	white	3.1153999204138483	neutral	012	sub-12	1.0	4.0	012_neutral	0.0		215.0623090968529	
32.0	190.39615729076104	pulse	1.0	t		24.0	male	white	3.1153999204138483	neutral	012	sub-12	1.0	4.0	012_neutral	0.0		215.76227447431575	
32.0	191.09614651460925	pulse	1.0	t		24.0	male	white	3.1153999204138483	neutral	012	sub-12	1.0	4.0	012_neutral	0.0		216.46226369816395	
32.0	191.79614449219434	pulse	1.0	t		24.0	male	white	3.1153999204138483	neutral	012	sub-12	1.0	4.0	012_neutral	0.0		217.16226167574905	
32.0	192.49610986965718	pulse	1.0	t		24.0	male	white	3.1153999204138483	neutral	012	sub-12	1.0	4.0	012_neutral	0.0		217.86222705321188	
32.0	193.19609033976894	pulse	1.0	t		24.0	male	white	3.1153999204138483	neutral	012	sub-12	1.0	4.0	012_neutral	0.0		218.56220752332365	
33.0	193.26270959539352	face	0.0		147	20.0	female	white	3.9502586549940313	smiling	091	sub-12	1.0	4.0	091_smiling	0.0		218.62882677894822	1.241568416035534
33.0	193.89607352655776	pulse	0.0	t		20.0	female	white	3.9502586549940313	smiling	091	sub-12	1.0	4.0	091_smiling	0.0		219.26219071011246	
33.0	194.50427801142905	fix	1.0		443	20.0	female	white	3.9502586549940313	smiling	091	sub-12	1.0	4.0	091_smiling	0.0		219.87039519498376	3.7665318088147615
33.0	194.59605429852263	pulse	1.0	t		20.0	female	white	3.9502586549940313	smiling	091	sub-12	1.0	4.0	091_smiling	0.0		219.96217148207734	
33.0	195.29604050384114	pulse	1.0	t		20.0	female	white	3.9502586549940313	smiling	091	sub-12	1.0	4.0	091_smiling	0.0		220.66215768739585	
33.0	195.9960146350404	pulse	1.0	t		20.0	female	white	3.9502586549940313	smiling	091	sub-12	1.0	4.0	091_smiling	0.0		221.36213181859512	
33.0	196.69599480329907	pulse	1.0	t		20.0	female	white	3.9502586549940313	smiling	091	sub-12	1.0	4.0	091_smiling	0.0		222.06211198685378	
33.0	197.39598281973576	pulse	1.0	t		20.0	female	white	3.9502586549940313	smiling	091	sub-12	1.0	4.0	091_smiling	0.0		222.76210000329047	
33.0	198.09595906390587	pulse	1.0	t		20.0	female	white	3.9502586549940313	smiling	091	sub-12	1.0	4.0	091_smiling	0.0		223.46207624746057	
34.0	198.2708098202438	face	0.0		146	25.0	female	black	3.858336649423	neutral	126	sub-12	1.0	4.0	126_neutral	0.0		223.63692700379852	1.2416671219616546
34.0	198.7959555322259	pulse	0.0	t		25.0	female	black	3.858336649423	neutral	126	sub-12	1.0	4.0	126_neutral	0.0		224.1620727157806	
34.0	199.49592302265955	pulse	0.0	t		25.0	female	black	3.858336649423	neutral	126	sub-12	1.0	4.0	126_neutral	0.0		224.86204020621426	
34.0	199.51247694220547	fix	1.0		443	25.0	female	black	3.858336649423	neutral	126	sub-12	1.0	4.0	126_neutral	0.0		224.87859412576017	3.758229946170559
34.0	200.19590198350625	pulse	1.0	t		25.0	female	black	3.858336649423	neutral	126	sub-12	1.0	4.0	126_neutral	0.0		225.56201916706095	
34.0	200.8958839628831	pulse	1.0	t		25.0	female	black	3.858336649423	neutral	126	sub-12	1.0	4.0	126_neutral	0.0		226.2620011464378	
34.0	201.5958888830869	pulse	1.0	t		25.0	female	black	3.858336649423	neutral	126	sub-12	1.0	4.0	126_neutral	0.0		226.9620060666416	
34.0	202.2958467142248	pulse	1.0	t		25.0	female	black	3.858336649423	neutral	126	sub-12	1.0	4.0	126_neutral	0.0		227.66196389777951	
34.0	202.9958311084256	pulse	1.0	t		25.0	female	black	3.858336649423	neutral	126	sub-12	1.0	4.0	126_neutral	0.0		228.3619482919803	
35.0	203.27070688837603	face	0.0		145	31.0	female	white	2.1822522881018704	neutral	102	sub-12	1.0	4.0	102_neutral	0.0		228.63682407193073	1.2332994553662502
35.0	203.69581218224312	pulse	0.0	t		31.0	female	white	2.1822522881018704	neutral	102	sub-12	1.0	4.0	102_neutral	0.0		229.06192936579782	
35.0	204.39578208750072	pulse	0.0	t		31.0	female	white	2.1822522881018704	neutral	102	sub-12	1.0	4.0	102_neutral	0.0		229.76189927105543	
35.0	204.50400634374228	fix	1.0		444	31.0	female	white	2.1822522881018704	neutral	102	sub-12	1.0	4.0	102_neutral	0.0		229.87012352729698	3.766567125614074
35.0	205.09577432987908	pulse	1.0	t		31.0	female	white	2.1822522881018704	neutral	102	sub-12	1.0	4.0	102_neutral	0.0		230.46189151343378	
35.0	205.79575298887312	pulse	1.0	t		31.0	female	white	2.1822522881018704	neutral	102	sub-12	1.0	4.0	102_neutral	0.0		231.16187017242783	
35.0	206.49573315713178	pulse	1.0	t		31.0	female	white	2.1822522881018704	neutral	102	sub-12	1.0	4.0	102_neutral	0.0		231.8618503406865	
35.0	207.19575528295582	pulse	1.0	t		31.0	female	white	2.1822522881018704	neutral	102	sub-12	1.0	4.0	102_neutral	0.0		232.56187246651052	
35.0	207.89570013441516	pulse	1.0	t		31.0	female	white	2.1822522881018704	neutral	102	sub-12	1.0	4.0	102_neutral	0.0		233.26181731796987	
36.0	208.27057346935635	face	0.0		145	54.0	female	white	2.286908077994429	smiling	136	sub-12	1.0	4.0	136_smiling	1.0	attractiveness	233.63669065291106	1.2333036813088256
36.0	208.59571622317935	pulse	0.0	t		54.0	female	white	2.286908077994429	smiling	136	sub-12	1.0	4.0	136_smiling	1.0	attractiveness	233.96183340673406	
36.0	209.29565624499128	pulse	0.0	t		54.0	female	white	2.286908077994429	smiling	136	sub-12	1.0	4.0	136_smiling	1.0	attractiveness	234.66177342854598	
36.0	209.50387715066518	fix	1.0		177	54.0	female	white	2.286908077994429	smiling	136	sub-12	1.0	4.0	136_smiling	1.0	attractiveness	234.86999433421988	1.4999615137439832
36.0	209.995643054016	pulse	1.0	t		54.0	female	white	2.286908077994429	smiling	136	sub-12	1.0	4.0	136_smiling	1.0	attractiveness	235.3617602375707	
36.0	210.69562322227466	pulse	1.0	t		54.0	female	white	2.286908077994429	smiling	136	sub-12	1.0	4.0	136_smiling	1.0	attractiveness	236.06174040582937	
36.0	211.00383866440916	rating	2.0		295	54.0	female	white	2.286908077994429	smiling	136	sub-12	1.0	4.0	136_smiling	1.0	attractiveness	236.36995584796387	2.5082567356230356
36.0	211.3956136535353	pulse	2.0	t		54.0	female	white	2.286908077994429	smiling	136	sub-12	1.0	4.0	136_smiling	1.0	attractiveness	236.76173083709	
36.0	212.09561555520895	pulse	2.0	t		54.0	female	white	2.286908077994429	smiling	136	sub-12	1.0	4.0	136_smiling	1.0	attractiveness	237.46173273876366	
36.0	212.4955774009918	response	2.0	w		54.0	female	white	2.286908077994429	smiling	136	sub-12	1.0	4.0	136_smiling	1.0	attractiveness	237.8616945845465	
36.0	212.79555708628595	pulse	2.0	t		54.0	female	white	2.286908077994429	smiling	136	sub-12	1.0	4.0	136_smiling	1.0	attractiveness	238.16167426984066	
36.0	213.49553725454462	pulse	2.0	t		54.0	female	white	2.286908077994429	smiling	136	sub-12	1.0	4.0	136_smiling	1.0	attractiveness	238.86165443809932	
36.0	213.5120954000322	fix	3.0		443	54.0	female	white	2.286908077994429	smiling	136	sub-12	1.0	4.0	136_smiling	1.0	attractiveness	238.8782125835869	3.7582356813773004
36.0	214.19555907851554	pulse	3.0	t		54.0	female	white	2.286908077994429	smiling	136	sub-12	1.0	4.0	136_smiling	1.0	attractiveness	239.56167626207025	
36.0	214.89552143744822	pulse	3.0	t		54.0	female	white	2.286908077994429	smiling	136	sub-12	1.0	4.0	136_smiling	1.0	attractiveness	240.26163862100293	
36.0	215.59550070014802	pulse	3.0	t		54.0	female	white	2.286908077994429	smiling	136	sub-12	1.0	4.0	136_smiling	1.0	attractiveness	240.96161788370273	
36.0	216.29548750917274	pulse	3.0	t		54.0	female	white	2.286908077994429	smiling	136	sub-12	1.0	4.0	136_smiling	1.0	attractiveness	241.66160469272745	
36.0	216.9954824682277	pulse	3.0	t		54.0	female	white	2.286908077994429	smiling	136	sub-12	1.0	4.0	136_smiling	1.0	attractiveness	242.3615996517824	
37.0	217.2703310814095	face	0.0		145	24.0	female	east_asian	4.409868682849185	smiling	030	sub-12	1.0	4.0	030_smiling	0.0		242.6364482649642	1.2333076053973855
37.0	217.6954596179571	pulse	0.0	t		24.0	female	east_asian	4.409868682849185	smiling	030	sub-12	1.0	4.0	030_smiling	0.0		243.06157680151182	
37.0	218.39543073062623	pulse	0.0	t		24.0	female	east_asian	4.409868682849185	smiling	030	sub-12	1.0	4.0	030_smiling	0.0		243.76154791418094	
37.0	218.50363868680688	fix	1.0		444	24.0	female	east_asian	4.409868682849185	smiling	030	sub-12	1.0	4.0	030_smiling	0.0		243.8697558703616	3.758286694531762
37.0	219.09542508597542	pulse	1.0	t		24.0	female	east_asian	4.409868682849185	smiling	030	sub-12	1.0	4.0	030_smiling	0.0		244.46154226953013	
37.0	219.79540827276423	pulse	1.0	t		24.0	female	east_asian	4.409868682849185	smiling	030	sub-12	1.0	4.0	030_smiling	0.0		245.16152545631894	
37.0	220.49537274466775	pulse	1.0	t		24.0	female	east_asian	4.409868682849185	smiling	030	sub-12	1.0	4.0	030_smiling	0.0		245.86148992822245	
37.0	221.19535049810293	pulse	1.0	t		24.0	female	east_asian	4.409868682849185	smiling	030	sub-12	1.0	4.0	030_smiling	0.0		246.56146768165763	
37.0	221.89532553486106	pulse	1.0	t		24.0	female	east_asian	4.409868682849185	smiling	030	sub-12	1.0	4.0	030_smiling	0.0		247.26144271841576	
38.0	222.26192538133864	face	0.0		146	20.0	male	black	2.609629924393156	smiling	043	sub-12	1.0	4.0	043_smiling	0.0		247.62804256489335	1.241568114182428
38.0	222.59530932535563	pulse	0.0	t		20.0	male	black	2.609629924393156	smiling	043	sub-12	1.0	4.0	043_smiling	0.0		247.96142650891034	
38.0	223.29529070102672	pulse	0.0	t		20.0	male	black	2.609629924393156	smiling	043	sub-12	1.0	4.0	043_smiling	0.0		248.66140788458142	
38.0	223.50349349552107	fix	1.0		444	20.0	male	black	2.609629924393156	smiling	043	sub-12	1.0	4.0	043_smiling	0.0		248.86961067907578	3.7665728608208155
38.0	223.99527086928538	pulse	1.0	t		20.0	male	black	2.609629924393156	smiling	043	sub-12	1.0	4.0	043_smiling	0.0		249.36138805284008	
38.0	224.695257376457	pulse	1.0	t		20.0	male	black	2.609629924393156	smiling	043	sub-12	1.0	4.0	043_smiling	0.0		250.0613745600117	
38.0	225.39525142995308	pulse	1.0	t		20.0	male	black	2.609629924393156	smiling	043	sub-12	1.0	4.0	043_smiling	0.0		250.76136861350778	
38.0	226.0952134870331	pulse	1.0	t		20.0	male	black	2.609629924393156	smiling	043	sub-12	1.0	4.0	043_smiling	0.0		251.4613306705878	
38.0	226.7952211239135	pulse	1.0	t		20.0	male	black	2.609629924393156	smiling	043	sub-12	1.0	4.0	043_smiling	0.0		252.1613383074682	
39.0	227.27006635634189	face	0.0		145	28.0	female	white	5.676880222841227	smiling	124	sub-12	1.0	4.0	124_smiling	0.0		252.6361835398966	1.233304285014583
39.0	227.49517835134566	pulse	0.0	t		28.0	female	white	5.676880222841227	smiling	124	sub-12	1.0	4.0	124_smiling	0.0		252.86129553490036	
39.0	228.19515067142675	pulse	0.0	t		28.0	female	white	5.676880222841227	smiling	124	sub-12	1.0	4.0	124_smiling	0.0		253.56126785498145	
39.0	228.50337064135647	fix	1.0		444	28.0	female	white	5.676880222841227	smiling	124	sub-12	1.0	4.0	124_smiling	0.0		253.86948782491118	3.749906651964011
39.0	228.89517551392737	pulse	1.0	t		28.0	female	white	5.676880222841227	smiling	124	sub-12	1.0	4.0	124_smiling	0.0		254.26129269748208	
39.0	229.59512368576998	pulse	1.0	t		28.0	female	white	5.676880222841227	smiling	124	sub-12	1.0	4.0	124_smiling	0.0		254.96124086932468	
39.0	230.29509902438122	pulse	1.0	t		28.0	female	white	5.676880222841227	smiling	124	sub-12	1.0	4.0	124_smiling	0.0		255.66121620793592	
39.0	230.99508462599397	pulse	1.0	t		28.0	female	white	5.676880222841227	smiling	124	sub-12	1.0	4.0	124_smiling	0.0		256.3612018095487	
39.0	231.69506117201672	pulse	1.0	t		28.0	female	white	5.676880222841227	smiling	124	sub-12	1.0	4.0	124_smiling	0.0		257.0611783555714	
40.0	232.25327729332048	fix	0.0		720													257.6193944768752	5.999815567826317
40.0	232.39504315139357	pulse	0.0	t														257.7611603349483	
40.0	233.09502724374124	pulse	0.0	t														258.46114442729595	
40.0	233.79501344905975	pulse	0.0	t														259.16113063261446	
40.0	234.49499059878917	pulse	0.0	t														259.8611077823439	
40.0	235.19496955963587	pulse	0.0	t														260.5610867431906	
40.0	235.8949762909574	pulse	0.0	t														261.2610934745121	
40.0	236.59492989615364	pulse	0.0	t														261.96104707970835	
40.0	237.29491791259034	pulse	0.0	t														262.66103509614504	
40.0	237.9949101549687	pulse	0.0	t														263.3610273385234	
