trial_nr	onset	event_type	phase	response	nr_frames	face_age	face_sex	face_eth	attractiveness	expression	face_id	sub_id	ses	run	trial_type	catch	rating_type	onset_abs	duration
-1.0	0.05694674526239396	fix	0.0		714													104.09963046722623	5.964468768714141
-1.0	-72.1916375475721	response	0.0	b														31.85104617439174	
-1.0	0.7049488172051497	pulse	0.0	t														104.74763253916899	
-1.0	1.4049200200915948	pulse	0.0	t														105.44760374205543	
-1.0	2.1049380107415345	pulse	0.0	t														106.14762173270537	
-1.0	2.8049080062010034	pulse	0.0	t														106.84759172816484	
-1.0	3.5049145263019454	pulse	0.0	t														107.54759824826579	
-1.0	4.204902935010978	pulse	0.0	t														108.24758665697482	
-1.0	4.904911266252384	pulse	0.0	t														108.94759498821622	
-1.0	5.604870998589831	pulse	0.0	t														109.64755472055367	
0.0	6.021415513976535	face	0.0		144	21.0	male	black	2.969757262236371	smiling	137	sub-02	1.0	1.0	137_smiling	0.0		110.06409923594038	1.2333402357871819
0.0	6.304874198269317	pulse	0.0	t		21.0	male	black	2.969757262236371	smiling	137	sub-02	1.0	1.0	137_smiling	0.0		110.34755792023316	
0.0	7.004854758708461	pulse	0.0	t		21.0	male	black	2.969757262236371	smiling	137	sub-02	1.0	1.0	137_smiling	0.0		111.0475384806723	
0.0	7.254755749763717	fix	1.0		445	21.0	male	black	2.969757262236371	smiling	137	sub-02	1.0	1.0	137_smiling	0.0		111.29743947172756	3.7582479280572443
0.0	7.704867617796481	pulse	1.0	t		21.0	male	black	2.969757262236371	smiling	137	sub-02	1.0	1.0	137_smiling	0.0		111.74755133976032	
0.0	8.404835802117304	pulse	1.0	t		21.0	male	black	2.969757262236371	smiling	137	sub-02	1.0	1.0	137_smiling	0.0		112.44751952408114	
0.0	9.104823607112849	pulse	1.0	t		21.0	male	black	2.969757262236371	smiling	137	sub-02	1.0	1.0	137_smiling	0.0		113.14750732907669	
0.0	9.804817147383801	pulse	1.0	t		21.0	male	black	2.969757262236371	smiling	137	sub-02	1.0	1.0	137_smiling	0.0		113.84750086934764	
0.0	10.504801933813724	pulse	1.0	t		21.0	male	black	2.969757262236371	smiling	137	sub-02	1.0	1.0	137_smiling	0.0		114.54748565577756	
1.0	11.013003677820961	face	0.0		146	31.0	male	west_asian	1.9538400318344609	neutral	070	sub-02	1.0	1.0	070_neutral	0.0		115.0556873997848	1.2416744948113774
1.0	11.20480000193129	pulse	0.0	t		31.0	male	west_asian	1.9538400318344609	neutral	070	sub-02	1.0	1.0	070_neutral	0.0		115.24748372389513	
1.0	11.90479263663292	pulse	0.0	t		31.0	male	west_asian	1.9538400318344609	neutral	070	sub-02	1.0	1.0	070_neutral	0.0		115.94747635859676	
1.0	12.254678172632339	fix	1.0		444	31.0	male	west_asian	1.9538400318344609	neutral	070	sub-02	1.0	1.0	070_neutral	0.0		116.29736189459618	3.766582790796747
1.0	12.604775008210709	pulse	1.0	t		31.0	male	west_asian	1.9538400318344609	neutral	070	sub-02	1.0	1.0	070_neutral	0.0		116.64745873017455	
1.0	13.304762511350418	pulse	1.0	t		31.0	male	west_asian	1.9538400318344609	neutral	070	sub-02	1.0	1.0	070_neutral	0.0		117.34744623331426	
1.0	14.004760881323818	pulse	1.0	t		31.0	male	west_asian	1.9538400318344609	neutral	070	sub-02	1.0	1.0	070_neutral	0.0		118.04744460328766	
1.0	14.704745365897907	pulse	1.0	t		31.0	male	west_asian	1.9538400318344609	neutral	070	sub-02	1.0	1.0	070_neutral	0.0		118.74742908786175	
1.0	15.404730454185483	pulse	1.0	t		31.0	male	west_asian	1.9538400318344609	neutral	070	sub-02	1.0	1.0	070_neutral	0.0		119.44741417614932	
2.0	16.021260963429086	face	0.0		145	22.0	male	black	2.767608436132113	smiling	044	sub-02	1.0	1.0	044_smiling	1.0	attractiveness	120.06394468539293	1.2333366135080723
2.0	16.104731239012835	pulse	0.0	t		22.0	male	black	2.767608436132113	smiling	044	sub-02	1.0	1.0	044_smiling	1.0	attractiveness	120.14741496097668	
2.0	16.804728099705244	pulse	0.0	t		22.0	male	black	2.767608436132113	smiling	044	sub-02	1.0	1.0	044_smiling	1.0	attractiveness	120.84741182166908	
2.0	17.254597576937158	fix	1.0		177	22.0	male	black	2.767608436132113	smiling	044	sub-02	1.0	1.0	044_smiling	1.0	attractiveness	121.297281298901	1.508344522149855
2.0	17.504704132295956	pulse	1.0	t		22.0	male	black	2.767608436132113	smiling	044	sub-02	1.0	1.0	044_smiling	1.0	attractiveness	121.5473878542598	
2.0	18.204688616870044	pulse	1.0	t		22.0	male	black	2.767608436132113	smiling	044	sub-02	1.0	1.0	044_smiling	1.0	attractiveness	122.24737233883388	
2.0	18.762942099087013	rating	2.0		293	22.0	male	black	2.767608436132113	smiling	044	sub-02	1.0	1.0	044_smiling	1.0	attractiveness	122.80562582105085	2.491594804685519
2.0	18.904689401695578	pulse	2.0	t		22.0	male	black	2.767608436132113	smiling	044	sub-02	1.0	1.0	044_smiling	1.0	attractiveness	122.94737312365942	
2.0	19.600106494986903	pulse	2.0	t		22.0	male	black	2.767608436132113	smiling	044	sub-02	1.0	1.0	044_smiling	1.0	attractiveness	123.64279021695074	
2.0	19.691100242935136	response	2.0	y		22.0	male	black	2.767608436132113	smiling	044	sub-02	1.0	1.0	044_smiling	1.0	attractiveness	123.73378396489898	
2.0	20.304655352278132	pulse	2.0	t		22.0	male	black	2.767608436132113	smiling	044	sub-02	1.0	1.0	044_smiling	1.0	attractiveness	124.34733907424197	
2.0	21.004673342928072	pulse	2.0	t		22.0	male	black	2.767608436132113	smiling	044	sub-02	1.0	1.0	044_smiling	1.0	attractiveness	125.04735706489191	
2.0	21.254536903772532	fix	3.0		444	22.0	male	black	2.767608436132113	smiling	044	sub-02	1.0	1.0	044_smiling	1.0	attractiveness	125.29722062573637	3.7666063356064114
2.0	21.705493366400333	pulse	3.0	t		22.0	male	black	2.767608436132113	smiling	044	sub-02	1.0	1.0	044_smiling	1.0	attractiveness	125.74817708836417	
2.0	22.404670988447833	pulse	3.0	t		22.0	male	black	2.767608436132113	smiling	044	sub-02	1.0	1.0	044_smiling	1.0	attractiveness	126.44735471041167	
2.0	23.104622570659558	pulse	3.0	t		22.0	male	black	2.767608436132113	smiling	044	sub-02	1.0	1.0	044_smiling	1.0	attractiveness	127.1473062926234	
2.0	23.80461007379745	pulse	3.0	t		22.0	male	black	2.767608436132113	smiling	044	sub-02	1.0	1.0	044_smiling	1.0	attractiveness	127.84729379576129	
2.0	24.504603010354913	pulse	3.0	t		22.0	male	black	2.767608436132113	smiling	044	sub-02	1.0	1.0	044_smiling	1.0	attractiveness	128.54728673231875	
3.0	25.021143239378944	face	0.0		145	27.0	male	black	3.5523278949462798	neutral	042	sub-02	1.0	1.0	042_neutral	1.0	attractiveness	129.06382696134278	1.2333169928333518
3.0	25.204596550625865	pulse	0.0	t		27.0	male	black	3.5523278949462798	neutral	042	sub-02	1.0	1.0	042_neutral	1.0	attractiveness	129.2472802725897	
3.0	25.904580129628812	pulse	0.0	t		27.0	male	black	3.5523278949462798	neutral	042	sub-02	1.0	1.0	042_neutral	1.0	attractiveness	129.94726385159265	
3.0	26.254460232212296	fix	1.0		177	27.0	male	black	3.5523278949462798	neutral	042	sub-02	1.0	1.0	042_neutral	1.0	attractiveness	130.29714395417614	1.4999803793252795
3.0	26.60457336804211	pulse	1.0	t		27.0	male	black	3.5523278949462798	neutral	042	sub-02	1.0	1.0	042_neutral	1.0	attractiveness	130.64725709000595	
3.0	27.304559060043175	pulse	1.0	t		27.0	male	black	3.5523278949462798	neutral	042	sub-02	1.0	1.0	042_neutral	1.0	attractiveness	131.34724278200702	
3.0	27.754440611537575	rating	2.0		294	27.0	male	black	3.5523278949462798	neutral	042	sub-02	1.0	1.0	042_neutral	1.0	attractiveness	131.79712433350142	2.499956230802127
3.0	27.999416813167045	pulse	2.0	t		27.0	male	black	3.5523278949462798	neutral	042	sub-02	1.0	1.0	042_neutral	1.0	attractiveness	132.04210053513088	
3.0	28.69933217259495	pulse	2.0	t		27.0	male	black	3.5523278949462798	neutral	042	sub-02	1.0	1.0	042_neutral	1.0	attractiveness	132.7420158945588	
3.0	28.92953098738508	response	2.0	b		27.0	male	black	3.5523278949462798	neutral	042	sub-02	1.0	1.0	042_neutral	1.0	attractiveness	132.97221470934892	
3.0	29.404550849545558	pulse	2.0	t		27.0	male	black	3.5523278949462798	neutral	042	sub-02	1.0	1.0	042_neutral	1.0	attractiveness	133.4472345715094	
3.0	30.104538050827614	pulse	2.0	t		27.0	male	black	3.5523278949462798	neutral	042	sub-02	1.0	1.0	042_neutral	1.0	attractiveness	134.14722177279145	
3.0	30.254396842339702	fix	3.0		444	27.0	male	black	3.5523278949462798	neutral	042	sub-02	1.0	1.0	042_neutral	1.0	attractiveness	134.29708056430354	3.758284150841064
3.0	30.80451076299687	pulse	3.0	t		27.0	male	black	3.5523278949462798	neutral	042	sub-02	1.0	1.0	042_neutral	1.0	attractiveness	134.8471944849607	
3.0	31.50449675685377	pulse	3.0	t		27.0	male	black	3.5523278949462798	neutral	042	sub-02	1.0	1.0	042_neutral	1.0	attractiveness	135.5471804788176	
3.0	32.20448878784009	pulse	3.0	t		27.0	male	black	3.5523278949462798	neutral	042	sub-02	1.0	1.0	042_neutral	1.0	attractiveness	136.24717250980393	
3.0	32.90450949519982	pulse	3.0	t		27.0	male	black	3.5523278949462798	neutral	042	sub-02	1.0	1.0	042_neutral	1.0	attractiveness	136.94719321716366	
3.0	33.60448492407704	pulse	3.0	t		27.0	male	black	3.5523278949462798	neutral	042	sub-02	1.0	1.0	042_neutral	1.0	attractiveness	137.64716864604088	
4.0	34.012680993180766	face	0.0		146	30.0	female	black	2.7345801830481498	neutral	062	sub-02	1.0	1.0	062_neutral	0.0		138.0553647151446	1.2416569871329557
4.0	34.30446216409473	pulse	0.0	t		30.0	female	black	2.7345801830481498	neutral	062	sub-02	1.0	1.0	062_neutral	0.0		138.34714588605857	
4.0	35.004447856093975	pulse	0.0	t		30.0	female	black	2.7345801830481498	neutral	062	sub-02	1.0	1.0	062_neutral	0.0		139.04713157805782	
4.0	35.25433798031372	fix	1.0		444	30.0	female	black	2.7345801830481498	neutral	062	sub-02	1.0	1.0	062_neutral	0.0		139.29702170227756	3.7665876205010136
4.0	35.70443505737785	pulse	1.0	t		30.0	female	black	2.7345801830481498	neutral	062	sub-02	1.0	1.0	062_neutral	0.0		139.7471187793417	
4.0	36.40444942574868	pulse	1.0	t		30.0	female	black	2.7345801830481498	neutral	062	sub-02	1.0	1.0	062_neutral	0.0		140.44713314771252	
4.0	37.104447493866246	pulse	1.0	t		30.0	female	black	2.7345801830481498	neutral	062	sub-02	1.0	1.0	062_neutral	0.0		141.1471312158301	
4.0	37.804403000212915	pulse	1.0	t		30.0	female	black	2.7345801830481498	neutral	062	sub-02	1.0	1.0	062_neutral	0.0		141.84708672217675	
4.0	38.504399257191835	pulse	1.0	t		30.0	female	black	2.7345801830481498	neutral	062	sub-02	1.0	1.0	062_neutral	0.0		142.54708297915568	
5.0	39.020925600814735	face	0.0		145	20.0	male	black	3.1070433744528456	neutral	082	sub-02	1.0	1.0	082_neutral	0.0		143.06360932277858	1.2333399339295283
5.0	39.2043921937493	pulse	0.0	t		20.0	male	black	3.1070433744528456	neutral	082	sub-02	1.0	1.0	082_neutral	0.0		143.24707591571314	
5.0	39.904382111739324	pulse	0.0	t		20.0	male	black	3.1070433744528456	neutral	082	sub-02	1.0	1.0	082_neutral	0.0		143.94706583370316	
5.0	40.25426553474426	fix	1.0		444	20.0	male	black	3.1070433744528456	neutral	082	sub-02	1.0	1.0	082_neutral	0.0		144.2969492567081	3.7666081467468757
5.0	40.60438017985871	pulse	1.0	t		20.0	male	black	3.1070433744528456	neutral	082	sub-02	1.0	1.0	082_neutral	0.0		144.64706390182255	
5.0	41.3043553068801	pulse	1.0	t		20.0	male	black	3.1070433744528456	neutral	082	sub-02	1.0	1.0	082_neutral	0.0		145.34703902884394	
5.0	42.00435307314183	pulse	1.0	t		20.0	male	black	3.1070433744528456	neutral	082	sub-02	1.0	1.0	082_neutral	0.0		146.04703679510567	
5.0	42.70433333172332	pulse	1.0	t		20.0	male	black	3.1070433744528456	neutral	082	sub-02	1.0	1.0	082_neutral	0.0		146.74701705368716	
5.0	43.404345285242016	pulse	1.0	t		20.0	male	black	3.1070433744528456	neutral	082	sub-02	1.0	1.0	082_neutral	0.0		147.44702900720586	
6.0	44.02087368149114	face	0.0		145	22.0	male	black	2.767608436132113	neutral	044	sub-02	1.0	1.0	044_neutral	0.0		148.06355740345498	1.2333224262492877
6.0	44.1043318828124	pulse	0.0	t		22.0	male	black	2.767608436132113	neutral	044	sub-02	1.0	1.0	044_neutral	0.0		148.14701560477624	
6.0	44.80430489683749	pulse	0.0	t		22.0	male	black	2.767608436132113	neutral	044	sub-02	1.0	1.0	044_neutral	0.0		148.84698861880133	
6.0	45.25419610774043	fix	1.0		444	22.0	male	black	2.767608436132113	neutral	044	sub-02	1.0	1.0	044_neutral	0.0		149.29687982970427	3.7582524559056765
6.0	45.50430688909	pulse	1.0	t		22.0	male	black	2.767608436132113	neutral	044	sub-02	1.0	1.0	044_neutral	0.0		149.54699061105384	
6.0	46.20430797577501	pulse	1.0	t		22.0	male	black	2.767608436132113	neutral	044	sub-02	1.0	1.0	044_neutral	0.0		150.24699169773885	
6.0	46.904280687942446	pulse	1.0	t		22.0	male	black	2.767608436132113	neutral	044	sub-02	1.0	1.0	044_neutral	0.0		150.9469644099063	
6.0	47.60426336137789	pulse	1.0	t		22.0	male	black	2.767608436132113	neutral	044	sub-02	1.0	1.0	044_neutral	0.0		151.64694708334173	
6.0	48.30428135202783	pulse	1.0	t		22.0	male	black	2.767608436132113	neutral	044	sub-02	1.0	1.0	044_neutral	0.0		152.34696507399167	
7.0	49.0124485636461	face	0.0		146	31.0	female	west_asian	2.364902506963788	neutral	006	sub-02	1.0	1.0	006_neutral	1.0	trustworthiness	153.05513228560994	1.241682041225431
7.0	49.006578057686056	pulse	0.0	t		31.0	female	west_asian	2.364902506963788	neutral	006	sub-02	1.0	1.0	006_neutral	1.0	trustworthiness	153.0492617796499	
7.0	49.7042352283479	pulse	0.0	t		31.0	female	west_asian	2.364902506963788	neutral	006	sub-02	1.0	1.0	006_neutral	1.0	trustworthiness	153.74691895031174	
7.0	50.254130604871534	fix	1.0		177	31.0	female	west_asian	2.364902506963788	neutral	006	sub-02	1.0	1.0	006_neutral	1.0	trustworthiness	154.29681432683537	1.499966795781802
7.0	50.40423390017895	pulse	1.0	t		31.0	female	west_asian	2.364902506963788	neutral	006	sub-02	1.0	1.0	006_neutral	1.0	trustworthiness	154.4469176221428	
7.0	51.104214460618095	pulse	1.0	t		31.0	female	west_asian	2.364902506963788	neutral	006	sub-02	1.0	1.0	006_neutral	1.0	trustworthiness	155.14689818258194	
7.0	51.754097400653336	rating	2.0		294	31.0	female	west_asian	2.364902506963788	neutral	006	sub-02	1.0	1.0	006_neutral	1.0	trustworthiness	155.79678112261718	2.499961362362228
7.0	51.798946641423754	pulse	2.0	t		31.0	female	west_asian	2.364902506963788	neutral	006	sub-02	1.0	1.0	006_neutral	1.0	trustworthiness	155.8416303633876	
7.0	52.49930271139601	pulse	2.0	t		31.0	female	west_asian	2.364902506963788	neutral	006	sub-02	1.0	1.0	006_neutral	1.0	trustworthiness	156.54198643335985	
7.0	52.81559372766242	response	2.0	g		31.0	female	west_asian	2.364902506963788	neutral	006	sub-02	1.0	1.0	006_neutral	1.0	trustworthiness	156.85827744962626	
7.0	53.20417727189306	pulse	2.0	t		31.0	female	west_asian	2.364902506963788	neutral	006	sub-02	1.0	1.0	006_neutral	1.0	trustworthiness	157.2468609938569	
7.0	53.90417020845052	pulse	2.0	t		31.0	female	west_asian	2.364902506963788	neutral	006	sub-02	1.0	1.0	006_neutral	1.0	trustworthiness	157.94685393041436	
7.0	54.254058763015564	fix	3.0		444	31.0	female	west_asian	2.364902506963788	neutral	006	sub-02	1.0	1.0	006_neutral	1.0	trustworthiness	158.2967424849794	3.7665930539187684
7.0	54.60416676728528	pulse	3.0	t		31.0	female	west_asian	2.364902506963788	neutral	006	sub-02	1.0	1.0	006_neutral	1.0	trustworthiness	158.64685048924912	
7.0	55.30414944072072	pulse	3.0	t		31.0	female	west_asian	2.364902506963788	neutral	006	sub-02	1.0	1.0	006_neutral	1.0	trustworthiness	159.34683316268456	
7.0	56.004138754999076	pulse	3.0	t		31.0	female	west_asian	2.364902506963788	neutral	006	sub-02	1.0	1.0	006_neutral	1.0	trustworthiness	160.04682247696292	
7.0	56.704126861850455	pulse	3.0	t		31.0	female	west_asian	2.364902506963788	neutral	006	sub-02	1.0	1.0	006_neutral	1.0	trustworthiness	160.7468105838143	
7.0	57.40412281697354	pulse	3.0	t		31.0	female	west_asian	2.364902506963788	neutral	006	sub-02	1.0	1.0	006_neutral	1.0	trustworthiness	161.44680653893738	
8.0	58.02065181693433	face	0.0		145	28.0	male	white	3.9076800636689217	smiling	033	sub-02	1.0	1.0	033_smiling	0.0		162.06333553889817	1.233346876630094
8.0	58.10412239437392	pulse	0.0	t		28.0	male	white	3.9076800636689217	smiling	033	sub-02	1.0	1.0	033_smiling	0.0		162.14680611633776	
8.0	58.80409993624744	pulse	0.0	t		28.0	male	white	3.9076800636689217	smiling	033	sub-02	1.0	1.0	033_smiling	0.0		162.84678365821128	
8.0	59.25399869356443	fix	1.0		444	28.0	male	white	3.9076800636689217	smiling	033	sub-02	1.0	1.0	033_smiling	0.0		163.29668241552827	3.7665948650592327
8.0	59.5040970987975	pulse	1.0	t		28.0	male	white	3.9076800636689217	smiling	033	sub-02	1.0	1.0	033_smiling	0.0		163.54678082076134	
8.0	60.20408158336977	pulse	1.0	t		28.0	male	white	3.9076800636689217	smiling	033	sub-02	1.0	1.0	033_smiling	0.0		164.2467653053336	
8.0	60.90407270878859	pulse	1.0	t		28.0	male	white	3.9076800636689217	smiling	033	sub-02	1.0	1.0	033_smiling	0.0		164.94675643075243	
8.0	61.604069267623345	pulse	1.0	t		28.0	male	white	3.9076800636689217	smiling	033	sub-02	1.0	1.0	033_smiling	0.0		165.64675298958718	
8.0	62.30405012991832	pulse	1.0	t		28.0	male	white	3.9076800636689217	smiling	033	sub-02	1.0	1.0	033_smiling	0.0		166.34673385188216	
9.0	63.02059355862366	face	0.0		145	27.0	female	white	4.181058495821727	smiling	039	sub-02	1.0	1.0	039_smiling	1.0	dominance	167.0632772805875	1.2333296708075068
9.0	63.00667555734799	pulse	0.0	t		27.0	female	white	4.181058495821727	smiling	039	sub-02	1.0	1.0	039_smiling	1.0	dominance	167.04935927931183	
9.0	63.70403509746393	pulse	0.0	t		27.0	female	white	4.181058495821727	smiling	039	sub-02	1.0	1.0	039_smiling	1.0	dominance	167.74671881942777	
9.0	64.25392322943117	fix	1.0		177	27.0	female	white	4.181058495821727	smiling	039	sub-02	1.0	1.0	039_smiling	1.0	dominance	168.296606951395	1.499968003206959
9.0	64.40406184195308	pulse	1.0	t		27.0	female	white	4.181058495821727	smiling	039	sub-02	1.0	1.0	039_smiling	1.0	dominance	168.44674556391692	
9.0	65.10402308357334	pulse	1.0	t		27.0	female	white	4.181058495821727	smiling	039	sub-02	1.0	1.0	039_smiling	1.0	dominance	169.14670680553718	
9.0	65.75389123263813	rating	2.0		294	27.0	female	white	4.181058495821727	smiling	039	sub-02	1.0	1.0	039_smiling	1.0	dominance	169.79657495460197	2.499976153332682
9.0	65.80400847371675	pulse	2.0	t		27.0	female	white	4.181058495821727	smiling	039	sub-02	1.0	1.0	039_smiling	1.0	dominance	169.8466921956806	
9.0	66.50398390259397	pulse	2.0	t		27.0	female	white	4.181058495821727	smiling	039	sub-02	1.0	1.0	039_smiling	1.0	dominance	170.5466676245578	
9.0	67.20398649856179	pulse	2.0	t		27.0	female	white	4.181058495821727	smiling	039	sub-02	1.0	1.0	039_smiling	1.0	dominance	171.24667022052563	
9.0	67.46231622973937	response	2.0	d		27.0	female	white	4.181058495821727	smiling	039	sub-02	1.0	1.0	039_smiling	1.0	dominance	171.5049999517032	
9.0	67.90396856828193	pulse	2.0	t		27.0	female	white	4.181058495821727	smiling	039	sub-02	1.0	1.0	039_smiling	1.0	dominance	171.94665229024577	
9.0	68.2538673859708	fix	3.0		444	27.0	female	white	4.181058495821727	smiling	039	sub-02	1.0	1.0	039_smiling	1.0	dominance	172.29655110793465	3.766597279909547
9.0	68.60396422154918	pulse	3.0	t		27.0	female	white	4.181058495821727	smiling	039	sub-02	1.0	1.0	039_smiling	1.0	dominance	172.64664794351302	
9.0	69.30397376021574	pulse	3.0	t		27.0	female	white	4.181058495821727	smiling	039	sub-02	1.0	1.0	039_smiling	1.0	dominance	173.34665748217958	
9.0	70.00395854664566	pulse	3.0	t		27.0	female	white	4.181058495821727	smiling	039	sub-02	1.0	1.0	039_smiling	1.0	dominance	174.0466422686095	
9.0	70.70393156067075	pulse	3.0	t		27.0	female	white	4.181058495821727	smiling	039	sub-02	1.0	1.0	039_smiling	1.0	dominance	174.7466152826346	
9.0	71.40392993064597	pulse	3.0	t		27.0	female	white	4.181058495821727	smiling	039	sub-02	1.0	1.0	039_smiling	1.0	dominance	175.4466136526098	
10.0	72.02046466588035	face	0.0		145	31.0	female	east_asian	3.395941106247513	smiling	087	sub-02	1.0	1.0	087_smiling	0.0		176.0631483878442	1.2333387265043712
10.0	72.10392830062119	pulse	0.0	t		31.0	female	east_asian	3.395941106247513	smiling	087	sub-02	1.0	1.0	087_smiling	0.0		176.14661202258503	
10.0	72.80392395388662	pulse	0.0	t		31.0	female	east_asian	3.395941106247513	smiling	087	sub-02	1.0	1.0	087_smiling	0.0		176.84660767585046	
10.0	73.25380339238473	fix	1.0		444	31.0	female	east_asian	3.395941106247513	smiling	087	sub-02	1.0	1.0	087_smiling	0.0		177.29648711434857	3.7582358537947584
10.0	73.50389244006328	pulse	1.0	t		31.0	female	east_asian	3.395941106247513	smiling	087	sub-02	1.0	1.0	087_smiling	0.0		177.54657616202712	
10.0	74.20387662278154	pulse	1.0	t		31.0	female	east_asian	3.395941106247513	smiling	087	sub-02	1.0	1.0	087_smiling	0.0		178.24656034474538	
10.0	74.90387076676416	pulse	1.0	t		31.0	female	east_asian	3.395941106247513	smiling	087	sub-02	1.0	1.0	087_smiling	0.0		178.946554488728	
10.0	75.60385555319408	pulse	1.0	t		31.0	female	east_asian	3.395941106247513	smiling	087	sub-02	1.0	1.0	087_smiling	0.0		179.64653927515792	
10.0	76.30384516933009	pulse	1.0	t		31.0	female	east_asian	3.395941106247513	smiling	087	sub-02	1.0	1.0	087_smiling	0.0		180.34652889129393	
11.0	77.01203924617948	face	0.0		147	24.0	female	east_asian	4.409868682849185	smiling	030	sub-02	1.0	1.0	030_smiling	0.0		181.05472296814332	1.2416723818168975
11.0	77.00582462376588	pulse	0.0	t		24.0	female	east_asian	4.409868682849185	smiling	030	sub-02	1.0	1.0	030_smiling	0.0		181.04850834572972	
11.0	77.70384221113636	pulse	0.0	t		24.0	female	east_asian	4.409868682849185	smiling	030	sub-02	1.0	1.0	030_smiling	0.0		181.7465259331002	
11.0	78.25371162799638	fix	1.0		443	24.0	female	east_asian	4.409868682849185	smiling	030	sub-02	1.0	1.0	030_smiling	0.0		182.29639534996022	3.766605430037089
11.0	78.40383212912639	pulse	1.0	t		24.0	female	east_asian	4.409868682849185	smiling	030	sub-02	1.0	1.0	030_smiling	0.0		182.44651585109023	
11.0	79.1038081617171	pulse	1.0	t		24.0	female	east_asian	4.409868682849185	smiling	030	sub-02	1.0	1.0	030_smiling	0.0		183.14649188368094	
11.0	79.8037998908494	pulse	1.0	t		24.0	female	east_asian	4.409868682849185	smiling	030	sub-02	1.0	1.0	030_smiling	0.0		183.84648361281324	
11.0	80.50379011069708	pulse	1.0	t		24.0	female	east_asian	4.409868682849185	smiling	030	sub-02	1.0	1.0	030_smiling	0.0		184.54647383266092	
11.0	81.2037884806723	pulse	1.0	t		24.0	female	east_asian	4.409868682849185	smiling	030	sub-02	1.0	1.0	030_smiling	0.0		185.24647220263614	
11.0	81.90376572068817	pulse	1.0	t		24.0	female	east_asian	4.409868682849185	smiling	030	sub-02	1.0	1.0	030_smiling	0.0		185.946449442652	
12.0	82.02031705803347	face	0.0		146	36.0	female	white	2.7548746518105847	smiling	011	sub-02	1.0	1.0	011_smiling	0.0		186.0630007799973	1.2333112575597625
12.0	82.60376590180203	pulse	0.0	t		36.0	female	white	2.7548746518105847	smiling	011	sub-02	1.0	1.0	011_smiling	0.0		186.64644962376588	
12.0	83.25362831559323	fix	1.0		443	36.0	female	white	2.7548746518105847	smiling	011	sub-02	1.0	1.0	011_smiling	0.0		187.29631203755707	3.766619315436401
12.0	83.30376427177725	pulse	1.0	t		36.0	female	white	2.7548746518105847	smiling	011	sub-02	1.0	1.0	011_smiling	0.0		187.3464479937411	
12.0	84.00372490968402	pulse	1.0	t		36.0	female	white	2.7548746518105847	smiling	011	sub-02	1.0	1.0	011_smiling	0.0		188.04640863164786	
12.0	84.70372841122116	pulse	1.0	t		36.0	female	white	2.7548746518105847	smiling	011	sub-02	1.0	1.0	011_smiling	0.0		188.746412133185	
12.0	85.40372587562524	pulse	1.0	t		36.0	female	white	2.7548746518105847	smiling	011	sub-02	1.0	1.0	011_smiling	0.0		189.44640959758908	
12.0	86.10370673792022	pulse	1.0	t		36.0	female	white	2.7548746518105847	smiling	011	sub-02	1.0	1.0	011_smiling	0.0		190.14639045988406	
12.0	86.80369725962555	pulse	1.0	t		36.0	female	white	2.7548746518105847	smiling	011	sub-02	1.0	1.0	011_smiling	0.0		190.8463809815894	
13.0	87.02024763102963	face	0.0		145	24.0	female	black	3.0955033824114606	neutral	099	sub-02	1.0	1.0	099_neutral	0.0		191.06293135299347	1.2333459710607713
13.0	87.50368778133088	pulse	0.0	t		24.0	female	black	3.0955033824114606	neutral	099	sub-02	1.0	1.0	099_neutral	0.0		191.54637150329472	
13.0	88.20369913113609	pulse	0.0	t		24.0	female	black	3.0955033824114606	neutral	099	sub-02	1.0	1.0	099_neutral	0.0		192.24638285309993	
13.0	88.2535936020904	fix	1.0		444	24.0	female	black	3.0955033824114606	neutral	099	sub-02	1.0	1.0	099_neutral	0.0		192.29627732405424	3.7665797722311254
13.0	88.9036658061741	pulse	1.0	t		24.0	female	black	3.0955033824114606	neutral	099	sub-02	1.0	1.0	099_neutral	0.0		192.94634952813794	
13.0	89.6036684021401	pulse	1.0	t		24.0	female	black	3.0955033824114606	neutral	099	sub-02	1.0	1.0	099_neutral	0.0		193.64635212410394	
13.0	90.30364564215779	pulse	1.0	t		24.0	female	black	3.0955033824114606	neutral	099	sub-02	1.0	1.0	099_neutral	0.0		194.34632936412163	
13.0	91.00369049803885	pulse	1.0	t		24.0	female	black	3.0955033824114606	neutral	099	sub-02	1.0	1.0	099_neutral	0.0		195.0463742200027	
13.0	91.70363121341506	pulse	1.0	t		24.0	female	black	3.0955033824114606	neutral	099	sub-02	1.0	1.0	099_neutral	0.0		195.7463149353789	
14.0	92.02017337432153	face	0.0		145	24.0	female	black	3.0955033824114606	smiling	099	sub-02	1.0	1.0	099_smiling	0.0		196.06285709628537	1.233330878232664
14.0	92.40361992397993	pulse	0.0	t		24.0	female	black	3.0955033824114606	smiling	099	sub-02	1.0	1.0	099_smiling	0.0		196.44630364594377	
14.0	93.10362131252077	pulse	0.0	t		24.0	female	black	3.0955033824114606	smiling	099	sub-02	1.0	1.0	099_smiling	0.0		197.1463050344846	
14.0	93.2535042525542	fix	1.0		444	24.0	female	black	3.0955033824114606	smiling	099	sub-02	1.0	1.0	099_smiling	0.0		197.29618797451803	3.766595468772721
14.0	93.80359764696732	pulse	1.0	t		24.0	female	black	3.0955033824114606	smiling	099	sub-02	1.0	1.0	099_smiling	0.0		197.84628136893116	
14.0	94.5035806222586	pulse	1.0	t		24.0	female	black	3.0955033824114606	smiling	099	sub-02	1.0	1.0	099_smiling	0.0		198.54626434422244	
14.0	95.20357446438538	pulse	1.0	t		24.0	female	black	3.0955033824114606	smiling	099	sub-02	1.0	1.0	099_smiling	0.0		199.24625818634922	
14.0	95.90356830651217	pulse	1.0	t		24.0	female	black	3.0955033824114606	smiling	099	sub-02	1.0	1.0	099_smiling	0.0		199.946252028476	
14.0	96.60355007437829	pulse	1.0	t		24.0	female	black	3.0955033824114606	smiling	099	sub-02	1.0	1.0	099_smiling	0.0		200.64623379634213	
15.0	97.02009972132691	face	0.0		145	19.0	male	white	2.243931555909272	neutral	130	sub-02	1.0	1.0	130_neutral	0.0		201.06278344329075	1.233318200258509
15.0	97.30355961304485	pulse	0.0	t		19.0	male	white	2.243931555909272	neutral	130	sub-02	1.0	1.0	130_neutral	0.0		201.3462433350087	
15.0	98.00353685306072	pulse	0.0	t		19.0	male	white	2.243931555909272	neutral	130	sub-02	1.0	1.0	130_neutral	0.0		202.04622057502456	
15.0	98.25341792158542	fix	1.0		444	19.0	male	white	2.243931555909272	neutral	130	sub-02	1.0	1.0	130_neutral	0.0		202.29610164354926	3.766594563201579
15.0	98.70353492118011	pulse	1.0	t		19.0	male	white	2.243931555909272	neutral	130	sub-02	1.0	1.0	130_neutral	0.0		202.74621864314395	
15.0	99.40352785773575	pulse	1.0	t		19.0	male	white	2.243931555909272	neutral	130	sub-02	1.0	1.0	130_neutral	0.0		203.4462115796996	
15.0	100.10350238104365	pulse	1.0	t		19.0	male	white	2.243931555909272	neutral	130	sub-02	1.0	1.0	130_neutral	0.0		204.1461861030075	
15.0	100.80348958232753	pulse	1.0	t		19.0	male	white	2.243931555909272	neutral	130	sub-02	1.0	1.0	130_neutral	0.0		204.84617330429137	
15.0	101.50347889660588	pulse	1.0	t		19.0	male	white	2.243931555909272	neutral	130	sub-02	1.0	1.0	130_neutral	0.0		205.54616261856972	
16.0	102.020012484787	face	0.0		145	25.0	female	black	3.858336649423	neutral	126	sub-02	1.0	1.0	126_neutral	0.0		206.06269620675084	1.2333305763768294
16.0	102.20347424801548	pulse	0.0	t		25.0	female	black	3.858336649423	neutral	126	sub-02	1.0	1.0	126_neutral	0.0		206.24615796997932	
16.0	102.90345873258957	pulse	0.0	t		25.0	female	black	3.858336649423	neutral	126	sub-02	1.0	1.0	126_neutral	0.0		206.9461424545534	
16.0	103.25334306116383	fix	1.0		444	25.0	female	black	3.858336649423	neutral	126	sub-02	1.0	1.0	126_neutral	0.0		207.29602678312767	3.7666135801628116
16.0	103.60345136728938	pulse	1.0	t		25.0	female	black	3.858336649423	neutral	126	sub-02	1.0	1.0	126_neutral	0.0		207.64613508925322	
16.0	104.3034289091629	pulse	1.0	t		25.0	female	black	3.858336649423	neutral	126	sub-02	1.0	1.0	126_neutral	0.0		208.34611263112674	
16.0	105.0034357311215	pulse	1.0	t		25.0	female	black	3.858336649423	neutral	126	sub-02	1.0	1.0	126_neutral	0.0		209.04611945308534	
16.0	105.7034174989858	pulse	1.0	t		25.0	female	black	3.858336649423	neutral	126	sub-02	1.0	1.0	126_neutral	0.0		209.74610122094964	
16.0	106.40340711512181	pulse	1.0	t		25.0	female	black	3.858336649423	neutral	126	sub-02	1.0	1.0	126_neutral	0.0		210.44609083708565	
17.0	107.01995664132664	face	0.0		145	24.0	male	white	3.1153999204138483	smiling	012	sub-02	1.0	1.0	012_smiling	0.0		211.06264036329048	1.2333200113989733
17.0	107.10347370467389	pulse	0.0	t		24.0	male	white	3.1153999204138483	smiling	012	sub-02	1.0	1.0	012_smiling	0.0		211.14615742663773	
17.0	107.80343072030155	pulse	0.0	t		24.0	male	white	3.1153999204138483	smiling	012	sub-02	1.0	1.0	012_smiling	0.0		211.8461144422654	
17.0	108.25327665272562	fix	1.0		444	24.0	male	white	3.1153999204138483	smiling	012	sub-02	1.0	1.0	012_smiling	0.0		212.29596037468946	3.766593959488091
17.0	108.50369321474864	pulse	1.0	t		24.0	male	white	3.1153999204138483	smiling	012	sub-02	1.0	1.0	012_smiling	0.0		212.54637693671248	
17.0	109.20337403164376	pulse	1.0	t		24.0	male	white	3.1153999204138483	smiling	012	sub-02	1.0	1.0	012_smiling	0.0		213.2460577536076	
17.0	109.90337300533247	pulse	1.0	t		24.0	male	white	3.1153999204138483	smiling	012	sub-02	1.0	1.0	012_smiling	0.0		213.9460567272963	
17.0	110.6033571880489	pulse	1.0	t		24.0	male	white	3.1153999204138483	smiling	012	sub-02	1.0	1.0	012_smiling	0.0		214.64604091001274	
17.0	111.30334589861559	pulse	1.0	t		24.0	male	white	3.1153999204138483	smiling	012	sub-02	1.0	1.0	012_smiling	0.0		215.34602962057943	
18.0	112.01987061221371	face	0.0		146	21.0	male	east_asian/white	3.501790688420215	neutral	036	sub-02	1.0	1.0	036_neutral	0.0		216.06255433417755	1.233331481946152
18.0	112.00633264831959	pulse	0.0	t		21.0	male	east_asian/white	3.501790688420215	neutral	036	sub-02	1.0	1.0	036_neutral	0.0		216.04901637028343	
18.0	112.7033203011797	pulse	0.0	t		21.0	male	east_asian/white	3.501790688420215	neutral	036	sub-02	1.0	1.0	036_neutral	0.0		216.74600402314354	
18.0	113.25320209415986	fix	1.0		443	21.0	male	east_asian/white	3.501790688420215	neutral	036	sub-02	1.0	1.0	036_neutral	0.0		217.2958858161237	3.7666096560278675
18.0	113.40331172845436	pulse	1.0	t		21.0	male	east_asian/white	3.501790688420215	neutral	036	sub-02	1.0	1.0	036_neutral	0.0		217.4459954504182	
18.0	114.10331070214306	pulse	1.0	t		21.0	male	east_asian/white	3.501790688420215	neutral	036	sub-02	1.0	1.0	036_neutral	0.0		218.1459944241069	
18.0	114.80329186629388	pulse	1.0	t		21.0	male	east_asian/white	3.501790688420215	neutral	036	sub-02	1.0	1.0	036_neutral	0.0		218.84597558825772	
18.0	115.50327816200843	pulse	1.0	t		21.0	male	east_asian/white	3.501790688420215	neutral	036	sub-02	1.0	1.0	036_neutral	0.0		219.54596188397227	
18.0	116.20327502269902	pulse	1.0	t		21.0	male	east_asian/white	3.501790688420215	neutral	036	sub-02	1.0	1.0	036_neutral	0.0		220.24595874466286	
18.0	116.90326282769638	pulse	1.0	t		21.0	male	east_asian/white	3.501790688420215	neutral	036	sub-02	1.0	1.0	036_neutral	0.0		220.94594654966022	
19.0	117.01981175018773	face	0.0		146	26.0	male	white	2.7966573816155993	smiling	117	sub-02	1.0	1.0	117_smiling	0.0		221.06249547215157	1.2333133705542423
19.0	117.60325817910416	pulse	0.0	t		26.0	male	white	2.7966573816155993	smiling	117	sub-02	1.0	1.0	117_smiling	0.0		221.645941901068	
19.0	118.25312512074197	fix	1.0		443	26.0	male	white	2.7966573816155993	smiling	117	sub-02	1.0	1.0	117_smiling	0.0		222.2958088427058	3.7666147875897877
19.0	118.30323904140096	pulse	1.0	t		26.0	male	white	2.7966573816155993	smiling	117	sub-02	1.0	1.0	117_smiling	0.0		222.3459227633648	
19.0	119.00322865753515	pulse	1.0	t		26.0	male	white	2.7966573816155993	smiling	117	sub-02	1.0	1.0	117_smiling	0.0		223.045912379499	
19.0	119.70321646253069	pulse	1.0	t		26.0	male	white	2.7966573816155993	smiling	117	sub-02	1.0	1.0	117_smiling	0.0		223.74590018449453	
19.0	120.40320728609186	pulse	1.0	t		26.0	male	white	2.7966573816155993	smiling	117	sub-02	1.0	1.0	117_smiling	0.0		224.4458910080557	
19.0	121.10320776906337	pulse	1.0	t		26.0	male	white	2.7966573816155993	smiling	117	sub-02	1.0	1.0	117_smiling	0.0		225.14589149102721	
19.0	121.80317685895352	pulse	1.0	t		26.0	male	white	2.7966573816155993	smiling	117	sub-02	1.0	1.0	117_smiling	0.0		225.84586058091736	
20.0	122.01973990833176	face	0.0		145	19.0	male	white	3.2522881018702745	neutral	018	sub-02	1.0	1.0	018_neutral	0.0		226.0624236302956	1.2333157854063757
20.0	122.50319364217648	pulse	0.0	t		19.0	male	white	3.2522881018702745	neutral	018	sub-02	1.0	1.0	018_neutral	0.0		226.54587736414032	
20.0	123.20317993789104	pulse	0.0	t		19.0	male	white	3.2522881018702745	neutral	018	sub-02	1.0	1.0	018_neutral	0.0		227.24586365985488	
20.0	123.25305569373813	fix	1.0		1185	19.0	male	white	3.2522881018702745	neutral	018	sub-02	1.0	1.0	018_neutral	0.0		227.29573941570197	10.016496157970323
20.0	123.90314540550207	pulse	1.0	t		19.0	male	white	3.2522881018702745	neutral	018	sub-02	1.0	1.0	018_neutral	0.0		227.9458291274659	
20.0	124.60315947201707	pulse	1.0	t		19.0	male	white	3.2522881018702745	neutral	018	sub-02	1.0	1.0	018_neutral	0.0		228.6458431939809	
20.0	125.30313459903846	pulse	1.0	t		19.0	male	white	3.2522881018702745	neutral	018	sub-02	1.0	1.0	018_neutral	0.0		229.3458183210023	
20.0	126.00313628943513	pulse	1.0	t		19.0	male	white	3.2522881018702745	neutral	018	sub-02	1.0	1.0	018_neutral	0.0		230.04582001139897	
20.0	126.7031177554436	pulse	1.0	t		19.0	male	white	3.2522881018702745	neutral	018	sub-02	1.0	1.0	018_neutral	0.0		230.74580147740744	
20.0	127.4031037493005	pulse	1.0	t		19.0	male	white	3.2522881018702745	neutral	018	sub-02	1.0	1.0	018_neutral	0.0		231.44578747126434	
20.0	128.10309910070828	pulse	1.0	t		19.0	male	white	3.2522881018702745	neutral	018	sub-02	1.0	1.0	018_neutral	0.0		232.14578282267212	
20.0	128.80308539642283	pulse	1.0	t		19.0	male	white	3.2522881018702745	neutral	018	sub-02	1.0	1.0	018_neutral	0.0		232.84576911838667	
20.0	129.50306656057364	pulse	1.0	t		19.0	male	white	3.2522881018702745	neutral	018	sub-02	1.0	1.0	018_neutral	0.0		233.54575028253748	
20.0	130.20305134700538	pulse	1.0	t		19.0	male	white	3.2522881018702745	neutral	018	sub-02	1.0	1.0	018_neutral	0.0		234.24573506896922	
20.0	130.90304066128374	pulse	1.0	t		19.0	male	white	3.2522881018702745	neutral	018	sub-02	1.0	1.0	018_neutral	0.0		234.94572438324758	
20.0	131.6030320885584	pulse	1.0	t		19.0	male	white	3.2522881018702745	neutral	018	sub-02	1.0	1.0	018_neutral	0.0		235.64571581052223	
20.0	132.30303106224528	pulse	1.0	t		19.0	male	white	3.2522881018702745	neutral	018	sub-02	1.0	1.0	018_neutral	0.0		236.34571478420912	
20.0	133.00302611179904	pulse	1.0	t		19.0	male	white	3.2522881018702745	neutral	018	sub-02	1.0	1.0	018_neutral	0.0		237.04570983376288	
21.0	133.26955185170846	face	0.0		145	27.0	male	black	3.5523278949462798	smiling	042	sub-02	1.0	1.0	042_smiling	0.0		237.3122355736723	1.2333426506393153
21.0	133.70302750033807	pulse	0.0	t		27.0	male	black	3.5523278949462798	smiling	042	sub-02	1.0	1.0	042_smiling	0.0		237.7457112223019	
21.0	134.40301047562934	pulse	0.0	t		27.0	male	black	3.5523278949462798	smiling	042	sub-02	1.0	1.0	042_smiling	0.0		238.44569419759318	
21.0	134.50289450234777	fix	1.0		444	27.0	male	black	3.5523278949462798	smiling	042	sub-02	1.0	1.0	042_smiling	0.0		238.5455782243116	3.7665909409224696
21.0	135.1029940546341	pulse	1.0	t		27.0	male	black	3.5523278949462798	smiling	042	sub-02	1.0	1.0	042_smiling	0.0		239.14567777659795	
21.0	135.80299031161303	pulse	1.0	t		27.0	male	black	3.5523278949462798	smiling	042	sub-02	1.0	1.0	042_smiling	0.0		239.84567403357687	
21.0	136.50297147576384	pulse	1.0	t		27.0	male	black	3.5523278949462798	smiling	042	sub-02	1.0	1.0	042_smiling	0.0		240.54565519772768	
21.0	137.20296411046547	pulse	1.0	t		27.0	male	black	3.5523278949462798	smiling	042	sub-02	1.0	1.0	042_smiling	0.0		241.2456478324293	
21.0	137.90296338601001	pulse	1.0	t		27.0	male	black	3.5523278949462798	smiling	042	sub-02	1.0	1.0	042_smiling	0.0		241.94564710797385	
22.0	138.26948544327024	face	0.0		145	40.0	female	west_asian	1.5777954635893354	smiling	038	sub-02	1.0	1.0	038_smiling	0.0		242.31216916523408	1.2333486877687392
22.0	138.60298439522376	pulse	0.0	t		40.0	female	west_asian	1.5777954635893354	smiling	038	sub-02	1.0	1.0	038_smiling	0.0		242.6456681171876	
22.0	139.30294956098078	pulse	0.0	t		40.0	female	west_asian	1.5777954635893354	smiling	038	sub-02	1.0	1.0	038_smiling	0.0		243.34563328294462	
22.0	139.50283413103898	fix	1.0		444	40.0	female	west_asian	1.5777954635893354	smiling	038	sub-02	1.0	1.0	038_smiling	0.0		243.54551785300282	3.7665803759446135
22.0	140.00292378243103	pulse	1.0	t		40.0	female	west_asian	1.5777954635893354	smiling	038	sub-02	1.0	1.0	038_smiling	0.0		244.04560750439487	
22.0	140.70292849139332	pulse	1.0	t		40.0	female	west_asian	1.5777954635893354	smiling	038	sub-02	1.0	1.0	038_smiling	0.0		244.74561221335716	
22.0	141.40290180727607	pulse	1.0	t		40.0	female	west_asian	1.5777954635893354	smiling	038	sub-02	1.0	1.0	038_smiling	0.0		245.4455855292399	
22.0	142.10290742180769	pulse	1.0	t		40.0	female	west_asian	1.5777954635893354	smiling	038	sub-02	1.0	1.0	038_smiling	0.0		246.14559114377153	
22.0	142.80289341566458	pulse	1.0	t		40.0	female	west_asian	1.5777954635893354	smiling	038	sub-02	1.0	1.0	038_smiling	0.0		246.84557713762842	
23.0	143.2694145069836	face	0.0		145	40.0	male	black	2.408674890569041	neutral	061	sub-02	1.0	1.0	061_neutral	0.0		247.31209822894743	1.2333302745209949
23.0	143.5028646185492	pulse	0.0	t		40.0	male	black	2.408674890569041	neutral	061	sub-02	1.0	1.0	061_neutral	0.0		247.54554834051305	
23.0	144.20287596835624	pulse	0.0	t		40.0	male	black	2.408674890569041	neutral	061	sub-02	1.0	1.0	061_neutral	0.0		248.24555969032008	
23.0	144.5027447815046	fix	1.0		444	40.0	male	black	2.408674890569041	neutral	061	sub-02	1.0	1.0	061_neutral	0.0		248.54542850346843	3.766597279909547
23.0	144.9028559250819	pulse	1.0	t		40.0	male	black	2.408674890569041	neutral	061	sub-02	1.0	1.0	061_neutral	0.0		248.94553964704573	
23.0	145.60285670990925	pulse	1.0	t		40.0	male	black	2.408674890569041	neutral	061	sub-02	1.0	1.0	061_neutral	0.0		249.6455404318731	
23.0	146.30282459237242	pulse	1.0	t		40.0	male	black	2.408674890569041	neutral	061	sub-02	1.0	1.0	061_neutral	0.0		250.34550831433626	
23.0	147.00283443289663	pulse	1.0	t		40.0	male	black	2.408674890569041	neutral	061	sub-02	1.0	1.0	061_neutral	0.0		251.04551815486047	
23.0	147.70280352278678	pulse	1.0	t		40.0	male	black	2.408674890569041	neutral	061	sub-02	1.0	1.0	061_neutral	0.0		251.74548724475062	
24.0	148.26934206141414	face	0.0		145	19.0	female	white	4.298846000795861	neutral	100	sub-02	1.0	1.0	100_neutral	0.0		252.31202578337798	1.233328161524696
24.0	148.40280460946997	pulse	0.0	t		19.0	female	white	4.298846000795861	neutral	100	sub-02	1.0	1.0	100_neutral	0.0		252.4454883314338	
24.0	149.10279482931765	pulse	0.0	t		19.0	female	white	4.298846000795861	neutral	100	sub-02	1.0	1.0	100_neutral	0.0		253.14547855128149	
24.0	149.50267022293883	fix	1.0		444	19.0	female	white	4.298846000795861	neutral	100	sub-02	1.0	1.0	100_neutral	0.0		253.54535394490267	3.766578564805968
24.0	149.80279289743703	pulse	1.0	t		19.0	female	white	4.298846000795861	neutral	100	sub-02	1.0	1.0	100_neutral	0.0		253.84547661940087	
24.0	150.50277194859336	pulse	1.0	t		19.0	female	white	4.298846000795861	neutral	100	sub-02	1.0	1.0	100_neutral	0.0		254.5454556705572	
24.0	151.2027914485243	pulse	1.0	t		19.0	female	white	4.298846000795861	neutral	100	sub-02	1.0	1.0	100_neutral	0.0		255.24547517048813	
24.0	151.90286135849965	pulse	1.0	t		19.0	female	white	4.298846000795861	neutral	100	sub-02	1.0	1.0	100_neutral	0.0		255.9455450804635	
24.0	152.60275498425472	pulse	1.0	t		19.0	female	white	4.298846000795861	neutral	100	sub-02	1.0	1.0	100_neutral	0.0		256.64543870621856	
25.0	153.2692487877448	face	0.0		145	40.0	male	black	2.408674890569041	smiling	061	sub-02	1.0	1.0	061_smiling	0.0		257.31193250970864	1.2333483859129046
25.0	153.30273252612824	pulse	0.0	t		40.0	male	black	2.408674890569041	smiling	061	sub-02	1.0	1.0	061_smiling	0.0		257.3454162480921	
25.0	154.00271851998514	pulse	0.0	t		40.0	male	black	2.408674890569041	smiling	061	sub-02	1.0	1.0	061_smiling	0.0		258.045402241949	
25.0	154.5025971736577	fix	1.0		443	40.0	male	black	2.408674890569041	smiling	061	sub-02	1.0	1.0	061_smiling	0.0		258.54528089562154	3.7666147875897877
25.0	154.70271024911563	pulse	1.0	t		40.0	male	black	2.408674890569041	smiling	061	sub-02	1.0	1.0	061_smiling	0.0		258.74539397107947	
25.0	155.40269352626456	pulse	1.0	t		40.0	male	black	2.408674890569041	smiling	061	sub-02	1.0	1.0	061_smiling	0.0		259.4453772482284	
25.0	156.102677708981	pulse	1.0	t		40.0	male	black	2.408674890569041	smiling	061	sub-02	1.0	1.0	061_smiling	0.0		260.14536143094483	
25.0	156.80269388849229	pulse	1.0	t		40.0	male	black	2.408674890569041	smiling	061	sub-02	1.0	1.0	061_smiling	0.0		260.8453776104561	
25.0	157.50267444893143	pulse	1.0	t		40.0	male	black	2.408674890569041	smiling	061	sub-02	1.0	1.0	061_smiling	0.0		261.54535817089527	
25.0	158.20264806667	pulse	1.0	t		40.0	male	black	2.408674890569041	smiling	061	sub-02	1.0	1.0	061_smiling	0.0		262.24533178863385	
26.0	158.2692119612475	face	0.0		146	26.0	male	white	2.7966573816155993	neutral	117	sub-02	1.0	1.0	117_neutral	0.0		262.31189568321133	1.233304918570866
26.0	158.90264251250846	pulse	0.0	t		26.0	male	white	2.7966573816155993	neutral	117	sub-02	1.0	1.0	117_neutral	0.0		262.9453262344723	
26.0	159.50251687981836	fix	1.0		443	26.0	male	white	2.7966573816155993	neutral	117	sub-02	1.0	1.0	117_neutral	0.0		263.5452006017822	3.7666223340020224
26.0	159.6026719737074	pulse	1.0	t		26.0	male	white	2.7966573816155993	neutral	117	sub-02	1.0	1.0	117_neutral	0.0		263.64535569567124	
26.0	160.30263200790068	pulse	1.0	t		26.0	male	white	2.7966573816155993	neutral	117	sub-02	1.0	1.0	117_neutral	0.0		264.3453157298645	
26.0	161.00262977416241	pulse	1.0	t		26.0	male	white	2.7966573816155993	neutral	117	sub-02	1.0	1.0	117_neutral	0.0		265.04531349612625	
26.0	161.70260671232427	pulse	1.0	t		26.0	male	white	2.7966573816155993	neutral	117	sub-02	1.0	1.0	117_neutral	0.0		265.7452904342881	
26.0	162.40259904516824	pulse	1.0	t		26.0	male	white	2.7966573816155993	neutral	117	sub-02	1.0	1.0	117_neutral	0.0		266.4452827671321	
26.0	163.10261733767402	pulse	1.0	t		26.0	male	white	2.7966573816155993	neutral	117	sub-02	1.0	1.0	117_neutral	0.0		267.14530105963786	
27.0	163.26913921382038	face	0.0		146	19.0	male	white	3.2522881018702745	smiling	018	sub-02	1.0	1.0	018_smiling	0.0		267.3118229357842	1.2333100501327863
27.0	163.80258793684698	pulse	0.0	t		19.0	male	white	3.2522881018702745	smiling	018	sub-02	1.0	1.0	018_smiling	0.0		267.8452716588108	
27.0	164.50244926395317	fix	1.0		444	19.0	male	white	3.2522881018702745	smiling	018	sub-02	1.0	1.0	018_smiling	0.0		268.545132985917	3.76663380455102
27.0	164.51015807623298	pulse	1.0	t		19.0	male	white	3.2522881018702745	smiling	018	sub-02	1.0	1.0	018_smiling	0.0		268.5528417981968	
27.0	165.20255781156447	pulse	1.0	t		19.0	male	white	3.2522881018702745	smiling	018	sub-02	1.0	1.0	018_smiling	0.0		269.2452415335283	
27.0	165.9025447109907	pulse	1.0	t		19.0	male	white	3.2522881018702745	smiling	018	sub-02	1.0	1.0	018_smiling	0.0		269.94522843295454	
27.0	166.60257085176636	pulse	1.0	t		19.0	male	white	3.2522881018702745	smiling	018	sub-02	1.0	1.0	018_smiling	0.0		270.6452545737302	
27.0	167.30253420638292	pulse	1.0	t		19.0	male	white	3.2522881018702745	smiling	018	sub-02	1.0	1.0	018_smiling	0.0		271.34521792834676	
27.0	168.00252291694778	pulse	1.0	t		19.0	male	white	3.2522881018702745	smiling	018	sub-02	1.0	1.0	018_smiling	0.0		272.0452066389116	
28.0	168.2690830685042	face	0.0		145	40.0	female	west_asian	1.5777954635893354	neutral	038	sub-02	1.0	1.0	038_neutral	1.0	dominance	272.311766790468	1.2332973721586313
28.0	168.70250438295625	pulse	0.0	t		40.0	female	west_asian	1.5777954635893354	neutral	038	sub-02	1.0	1.0	038_neutral	1.0	dominance	272.7451881049201	
28.0	169.40249248980945	pulse	0.0	t		40.0	female	west_asian	1.5777954635893354	neutral	038	sub-02	1.0	1.0	038_neutral	1.0	dominance	273.4451762117733	
28.0	169.50238044066282	fix	1.0		177	40.0	female	west_asian	1.5777954635893354	neutral	038	sub-02	1.0	1.0	038_neutral	1.0	dominance	273.54506416262666	1.4999809830369486
28.0	170.10248814307488	pulse	1.0	t		40.0	female	west_asian	1.5777954635893354	neutral	038	sub-02	1.0	1.0	038_neutral	1.0	dominance	274.1451718650387	
28.0	170.80247111836616	pulse	1.0	t		40.0	female	west_asian	1.5777954635893354	neutral	038	sub-02	1.0	1.0	038_neutral	1.0	dominance	274.84515484033	
28.0	171.00236142369977	rating	2.0		295	40.0	female	west_asian	1.5777954635893354	neutral	038	sub-02	1.0	1.0	038_neutral	1.0	dominance	275.0450451456636	2.499968606920447
28.0	171.50247069576653	pulse	2.0	t		40.0	female	west_asian	1.5777954635893354	neutral	038	sub-02	1.0	1.0	038_neutral	1.0	dominance	275.5451544177304	
28.0	172.20245940633322	pulse	2.0	t		40.0	female	west_asian	1.5777954635893354	neutral	038	sub-02	1.0	1.0	038_neutral	1.0	dominance	276.24514312829706	
28.0	172.3971970205548	response	2.0	d		40.0	female	west_asian	1.5777954635893354	neutral	038	sub-02	1.0	1.0	038_neutral	1.0	dominance	276.43988074251865	
28.0	172.90244419276314	pulse	2.0	t		40.0	female	west_asian	1.5777954635893354	neutral	038	sub-02	1.0	1.0	038_neutral	1.0	dominance	276.945127914727	
28.0	173.50233003062021	fix	3.0		443	40.0	female	west_asian	1.5777954635893354	neutral	038	sub-02	1.0	1.0	038_neutral	1.0	dominance	277.54501375258405	3.7666084486027103
28.0	173.6024833133706	pulse	3.0	t		40.0	female	west_asian	1.5777954635893354	neutral	038	sub-02	1.0	1.0	038_neutral	1.0	dominance	277.64516703533445	
28.0	174.30243217887255	pulse	3.0	t		40.0	female	west_asian	1.5777954635893354	neutral	038	sub-02	1.0	1.0	038_neutral	1.0	dominance	278.3451159008364	
28.0	175.00242903956496	pulse	3.0	t		40.0	female	west_asian	1.5777954635893354	neutral	038	sub-02	1.0	1.0	038_neutral	1.0	dominance	279.0451127615288	
28.0	175.70239963873792	pulse	3.0	t		40.0	female	west_asian	1.5777954635893354	neutral	038	sub-02	1.0	1.0	038_neutral	1.0	dominance	279.74508336070176	
28.0	176.40238955672976	pulse	3.0	t		40.0	female	west_asian	1.5777954635893354	neutral	038	sub-02	1.0	1.0	038_neutral	1.0	dominance	280.4450732786936	
28.0	177.1023996991098	pulse	3.0	t		40.0	female	west_asian	1.5777954635893354	neutral	038	sub-02	1.0	1.0	038_neutral	1.0	dominance	281.14508342107365	
29.0	177.26893847922292	face	0.0		146	25.0	female	black	3.858336649423	smiling	126	sub-02	1.0	1.0	126_smiling	0.0		281.31162220118676	1.233305522284354
29.0	177.8023914282403	pulse	0.0	t		25.0	female	black	3.858336649423	smiling	126	sub-02	1.0	1.0	126_smiling	0.0		281.84507515020414	
29.0	178.50224400150728	fix	1.0		444	25.0	female	black	3.858336649423	smiling	126	sub-02	1.0	1.0	126_smiling	0.0		282.5449277234711	3.766602713327302
29.0	178.50977984999008	pulse	1.0	t		25.0	female	black	3.858336649423	smiling	126	sub-02	1.0	1.0	126_smiling	0.0		282.5524635719539	
29.0	179.2023540584014	pulse	1.0	t		25.0	female	black	3.858336649423	smiling	126	sub-02	1.0	1.0	126_smiling	0.0		283.24503778036524	
29.0	179.90234397639324	pulse	1.0	t		25.0	female	black	3.858336649423	smiling	126	sub-02	1.0	1.0	126_smiling	0.0		283.9450276983571	
29.0	180.60233298881394	pulse	1.0	t		25.0	female	black	3.858336649423	smiling	126	sub-02	1.0	1.0	126_smiling	0.0		284.6450167107778	
29.0	181.3023337736413	pulse	1.0	t		25.0	female	black	3.858336649423	smiling	126	sub-02	1.0	1.0	126_smiling	0.0		285.34501749560513	
29.0	182.00232520091595	pulse	1.0	t		25.0	female	black	3.858336649423	smiling	126	sub-02	1.0	1.0	126_smiling	0.0		286.0450089228798	
30.0	182.26884671483458	face	0.0		145	24.0	female	east_asian	2.9076800636689217	smiling	034	sub-02	1.0	1.0	034_smiling	0.0		286.3115304367984	1.233343556208638
30.0	182.70231391148081	pulse	0.0	t		24.0	female	east_asian	2.9076800636689217	smiling	034	sub-02	1.0	1.0	034_smiling	0.0		286.74499763344465	
30.0	183.40232012972592	pulse	0.0	t		24.0	female	east_asian	2.9076800636689217	smiling	034	sub-02	1.0	1.0	034_smiling	0.0		287.44500385168976	
30.0	183.50219027104322	fix	1.0		444	24.0	female	east_asian	2.9076800636689217	smiling	034	sub-02	1.0	1.0	034_smiling	0.0		287.54487399300706	3.7665870167875255
30.0	184.10229676603012	pulse	1.0	t		24.0	female	east_asian	2.9076800636689217	smiling	034	sub-02	1.0	1.0	034_smiling	0.0		288.14498048799396	
30.0	184.8022848728815	pulse	1.0	t		24.0	female	east_asian	2.9076800636689217	smiling	034	sub-02	1.0	1.0	034_smiling	0.0		288.84496859484534	
30.0	185.50229622268853	pulse	1.0	t		24.0	female	east_asian	2.9076800636689217	smiling	034	sub-02	1.0	1.0	034_smiling	0.0		289.54497994465237	
30.0	186.2022496160389	pulse	1.0	t		24.0	female	east_asian	2.9076800636689217	smiling	034	sub-02	1.0	1.0	034_smiling	0.0		290.24493333800274	
30.0	186.90224255259636	pulse	1.0	t		24.0	female	east_asian	2.9076800636689217	smiling	034	sub-02	1.0	1.0	034_smiling	0.0		290.9449262745602	
31.0	187.26877728783074	face	0.0		145	54.0	female	white	2.286908077994429	smiling	136	sub-02	1.0	1.0	136_smiling	0.0		291.3114610097946	1.2333290670940187
31.0	187.60224424299304	pulse	0.0	t		54.0	female	white	2.286908077994429	smiling	136	sub-02	1.0	1.0	136_smiling	0.0		291.6449279649569	
31.0	188.30222329414937	pulse	0.0	t		54.0	female	white	2.286908077994429	smiling	136	sub-02	1.0	1.0	136_smiling	0.0		292.3449070161132	
31.0	188.50210635492476	fix	1.0		444	54.0	female	white	2.286908077994429	smiling	136	sub-02	1.0	1.0	136_smiling	0.0		292.5447900768886	3.7666114671683317
31.0	189.00221924927064	pulse	1.0	t		54.0	female	white	2.286908077994429	smiling	136	sub-02	1.0	1.0	136_smiling	0.0		293.0449029712345	
31.0	189.7022100728318	pulse	1.0	t		54.0	female	white	2.286908077994429	smiling	136	sub-02	1.0	1.0	136_smiling	0.0		293.74489379479564	
31.0	190.40217433301768	pulse	1.0	t		54.0	female	white	2.286908077994429	smiling	136	sub-02	1.0	1.0	136_smiling	0.0		294.4448580549815	
31.0	191.10218085311863	pulse	1.0	t		54.0	female	white	2.286908077994429	smiling	136	sub-02	1.0	1.0	136_smiling	0.0		295.14486457508247	
31.0	191.80216986554115	pulse	1.0	t		54.0	female	white	2.286908077994429	smiling	136	sub-02	1.0	1.0	136_smiling	0.0		295.844853587505	
32.0	192.2687178220931	face	0.0		145	22.0	female	white	4.614007162753682	smiling	009	sub-02	1.0	1.0	009_smiling	0.0		296.31140154405693	1.2333317838038056
32.0	192.50216612252007	pulse	0.0	t		22.0	female	white	4.614007162753682	smiling	009	sub-02	1.0	1.0	009_smiling	0.0		296.5448498444839	
32.0	193.20214939966718	pulse	0.0	t		22.0	female	white	4.614007162753682	smiling	009	sub-02	1.0	1.0	009_smiling	0.0		297.244833121631	
32.0	193.5020496058969	fix	1.0		444	22.0	female	white	4.614007162753682	smiling	009	sub-02	1.0	1.0	009_smiling	0.0		297.54473332786074	3.7665951669132482
32.0	193.90217222002138	pulse	1.0	t		22.0	female	white	4.614007162753682	smiling	009	sub-02	1.0	1.0	009_smiling	0.0		297.9448559419852	
32.0	194.6021337634993	pulse	1.0	t		22.0	female	white	4.614007162753682	smiling	009	sub-02	1.0	1.0	009_smiling	0.0		298.64481748546314	
32.0	195.30212005921203	pulse	1.0	t		22.0	female	white	4.614007162753682	smiling	009	sub-02	1.0	1.0	009_smiling	0.0		299.34480378117587	
32.0	196.00211933475657	pulse	1.0	t		22.0	female	white	4.614007162753682	smiling	009	sub-02	1.0	1.0	009_smiling	0.0		300.0448030567204	
32.0	196.70211046017357	pulse	1.0	t		22.0	female	white	4.614007162753682	smiling	009	sub-02	1.0	1.0	009_smiling	0.0		300.7447941821374	
33.0	197.26864477281015	face	0.0		145	37.0	male	white	3.898925586947871	smiling	101	sub-02	1.0	1.0	101_smiling	0.0		301.311328494774	1.2333097482769517
33.0	197.4020952466053	pulse	0.0	t		37.0	male	white	3.898925586947871	smiling	101	sub-02	1.0	1.0	101_smiling	0.0		301.44477896856915	
33.0	198.10207701446961	pulse	0.0	t		37.0	male	white	3.898925586947871	smiling	101	sub-02	1.0	1.0	101_smiling	0.0		302.14476073643345	
33.0	198.5019545210871	fix	1.0		444	37.0	male	white	3.898925586947871	smiling	101	sub-02	1.0	1.0	101_smiling	0.0		302.54463824305094	3.766613278306977
33.0	198.80207206402338	pulse	1.0	t		37.0	male	white	3.898925586947871	smiling	101	sub-02	1.0	1.0	101_smiling	0.0		302.8447557859872	
33.0	199.50205715230913	pulse	1.0	t		37.0	male	white	3.898925586947871	smiling	101	sub-02	1.0	1.0	101_smiling	0.0		303.544740874273	
33.0	200.20205522042852	pulse	1.0	t		37.0	male	white	3.898925586947871	smiling	101	sub-02	1.0	1.0	101_smiling	0.0		304.24473894239236	
33.0	200.9020454402762	pulse	1.0	t		37.0	male	white	3.898925586947871	smiling	101	sub-02	1.0	1.0	101_smiling	0.0		304.94472916224004	
33.0	201.6020293211368	pulse	1.0	t		37.0	male	white	3.898925586947871	smiling	101	sub-02	1.0	1.0	101_smiling	0.0		305.64471304310064	
34.0	202.26856779939408	face	0.0		145	24.0	female	east_asian	4.409868682849185	neutral	030	sub-02	1.0	1.0	030_neutral	0.0		306.3112515213579	1.233317596545021
34.0	202.30202316326358	pulse	0.0	t		24.0	female	east_asian	4.409868682849185	neutral	030	sub-02	1.0	1.0	030_neutral	0.0		306.3447068852274	
34.0	203.00200915712048	pulse	0.0	t		24.0	female	east_asian	4.409868682849185	neutral	030	sub-02	1.0	1.0	030_neutral	0.0		307.0446928790843	
34.0	203.5018853959391	fix	1.0		443	24.0	female	east_asian	4.409868682849185	neutral	030	sub-02	1.0	1.0	030_neutral	0.0		307.54456911790294	3.766599392905846
34.0	203.70199786768535	pulse	1.0	t		24.0	female	east_asian	4.409868682849185	neutral	030	sub-02	1.0	1.0	030_neutral	0.0		307.7446815896492	
34.0	204.4019820504036	pulse	1.0	t		24.0	female	east_asian	4.409868682849185	neutral	030	sub-02	1.0	1.0	030_neutral	0.0		308.44466577236744	
34.0	205.1019737795341	pulse	1.0	t		24.0	female	east_asian	4.409868682849185	neutral	030	sub-02	1.0	1.0	030_neutral	0.0		309.14465750149793	
34.0	205.80198060149087	pulse	1.0	t		24.0	female	east_asian	4.409868682849185	neutral	030	sub-02	1.0	1.0	030_neutral	0.0		309.8446643234547	
34.0	206.50195663408158	pulse	1.0	t		24.0	female	east_asian	4.409868682849185	neutral	030	sub-02	1.0	1.0	030_neutral	0.0		310.5446403560454	
34.0	207.20194292979613	pulse	1.0	t		24.0	female	east_asian	4.409868682849185	neutral	030	sub-02	1.0	1.0	030_neutral	0.0		311.24462665176	
35.0	207.26848478884494	face	0.0		146	19.0	male	white	2.243931555909272	smiling	130	sub-02	1.0	1.0	130_smiling	0.0		311.3111685108088	1.233330878234483
35.0	207.90195065732223	pulse	0.0	t		19.0	male	white	2.243931555909272	smiling	130	sub-02	1.0	1.0	130_smiling	0.0		311.9446343792861	
35.0	208.50181566707943	fix	1.0		443	19.0	male	white	2.243931555909272	smiling	130	sub-02	1.0	1.0	130_smiling	0.0		312.54449938904327	3.7665951669132482
35.0	208.6019291047669	pulse	1.0	t		19.0	male	white	2.243931555909272	smiling	130	sub-02	1.0	1.0	130_smiling	0.0		312.64461282673074	
35.0	209.30192868216727	pulse	1.0	t		19.0	male	white	2.243931555909272	smiling	130	sub-02	1.0	1.0	130_smiling	0.0		313.3446124041311	
35.0	210.00190712961012	pulse	1.0	t		19.0	male	white	2.243931555909272	smiling	130	sub-02	1.0	1.0	130_smiling	0.0		314.04459085157396	
35.0	210.7018937271805	pulse	1.0	t		19.0	male	white	2.243931555909272	smiling	130	sub-02	1.0	1.0	130_smiling	0.0		314.74457744914434	
35.0	211.4018978324293	pulse	1.0	t		19.0	male	white	2.243931555909272	smiling	130	sub-02	1.0	1.0	130_smiling	0.0		315.44458155439315	
35.0	212.10187990214945	pulse	1.0	t		19.0	male	white	2.243931555909272	smiling	130	sub-02	1.0	1.0	130_smiling	0.0		316.1445636241133	
36.0	212.26841083399268	face	0.0		146	23.0	male	white	2.6275368085953046	neutral	141	sub-02	1.0	1.0	141_neutral	0.0		316.3110945559565	1.2333332930866163
36.0	212.80187736655535	pulse	0.0	t		23.0	male	white	2.6275368085953046	neutral	141	sub-02	1.0	1.0	141_neutral	0.0		316.8445610885192	
36.0	213.5017441270793	fix	1.0		444	23.0	male	white	2.6275368085953046	neutral	141	sub-02	1.0	1.0	141_neutral	0.0		317.54442784904313	3.766593355774603
36.0	213.5094399595273	pulse	1.0	t		23.0	male	white	2.6275368085953046	neutral	141	sub-02	1.0	1.0	141_neutral	0.0		317.55212368149114	
36.0	214.2018532784041	pulse	1.0	t		23.0	male	white	2.6275368085953046	neutral	141	sub-02	1.0	1.0	141_neutral	0.0		318.2445370003679	
36.0	214.90184500753458	pulse	1.0	t		23.0	male	white	2.6275368085953046	neutral	141	sub-02	1.0	1.0	141_neutral	0.0		318.9445287294984	
36.0	215.60183069953382	pulse	1.0	t		23.0	male	white	2.6275368085953046	neutral	141	sub-02	1.0	1.0	141_neutral	0.0		319.64451442149766	
36.0	216.3018121655423	pulse	1.0	t		23.0	male	white	2.6275368085953046	neutral	141	sub-02	1.0	1.0	141_neutral	0.0		320.3444958875061	
36.0	217.0018032909611	pulse	1.0	t		23.0	male	white	2.6275368085953046	neutral	141	sub-02	1.0	1.0	141_neutral	0.0		321.04448701292495	
37.0	217.2683374828539	face	0.0		145	27.0	female	white	3.504576203740549	neutral	144	sub-02	1.0	1.0	144_neutral	0.0		321.31102120481773	1.233334198655939
37.0	217.70179562380508	pulse	0.0	t		27.0	female	white	3.504576203740549	neutral	144	sub-02	1.0	1.0	144_neutral	0.0		321.7444793457689	
37.0	218.40178493808344	pulse	0.0	t		27.0	female	white	3.504576203740549	neutral	144	sub-02	1.0	1.0	144_neutral	0.0		322.4444686600473	
37.0	218.50167168150983	fix	1.0		444	27.0	female	white	3.504576203740549	neutral	144	sub-02	1.0	1.0	144_neutral	0.0		322.5443554034737	3.75834120172658
37.0	219.10177485607528	pulse	1.0	t		27.0	female	white	3.504576203740549	neutral	144	sub-02	1.0	1.0	144_neutral	0.0		323.1444585780391	
37.0	219.8017674907751	pulse	1.0	t		27.0	female	white	3.504576203740549	neutral	144	sub-02	1.0	1.0	144_neutral	0.0		323.84445121273893	
37.0	220.50175408834548	pulse	1.0	t		27.0	female	white	3.504576203740549	neutral	144	sub-02	1.0	1.0	144_neutral	0.0		324.5444378103093	
37.0	221.20174521376248	pulse	1.0	t		27.0	female	white	3.504576203740549	neutral	144	sub-02	1.0	1.0	144_neutral	0.0		325.2444289357263	
37.0	221.9017363391813	pulse	1.0	t		27.0	female	white	3.504576203740549	neutral	144	sub-02	1.0	1.0	144_neutral	0.0		325.94442006114514	
38.0	222.2600128832364	face	0.0		146	22.0	female	west_asian	3.8205332272184642	neutral	066	sub-02	1.0	1.0	066_neutral	0.0		326.30269660520025	1.241573674729807
38.0	222.6017280683118	pulse	0.0	t		22.0	female	west_asian	3.8205332272184642	neutral	066	sub-02	1.0	1.0	066_neutral	0.0		326.6444117902756	
38.0	223.3017107417454	pulse	0.0	t		22.0	female	west_asian	3.8205332272184642	neutral	066	sub-02	1.0	1.0	066_neutral	0.0		327.34439446370925	
38.0	223.50158655796622	fix	1.0		444	22.0	female	west_asian	3.8205332272184642	neutral	066	sub-02	1.0	1.0	066_neutral	0.0		327.54427027993006	3.766624446998321
38.0	224.00170518758569	pulse	1.0	t		22.0	female	west_asian	3.8205332272184642	neutral	066	sub-02	1.0	1.0	066_neutral	0.0		328.0443889095495	
38.0	224.70169661486034	pulse	1.0	t		22.0	female	west_asian	3.8205332272184642	neutral	066	sub-02	1.0	1.0	066_neutral	0.0		328.7443803368242	
38.0	225.40169075884296	pulse	1.0	t		22.0	female	west_asian	3.8205332272184642	neutral	066	sub-02	1.0	1.0	066_neutral	0.0		329.4443744808068	
38.0	226.10167011185695	pulse	1.0	t		22.0	female	west_asian	3.8205332272184642	neutral	066	sub-02	1.0	1.0	066_neutral	0.0		330.1443538338208	
38.0	226.8016609354181	pulse	1.0	t		22.0	female	west_asian	3.8205332272184642	neutral	066	sub-02	1.0	1.0	066_neutral	0.0		330.84434465738195	
39.0	227.26821100496454	face	0.0		145	26.0	female	white	4.854755272582572	neutral	027	sub-02	1.0	1.0	027_neutral	0.0		331.3108947269284	1.233311559415597
39.0	227.5016541738314	pulse	0.0	t		26.0	female	white	4.854755272582572	neutral	027	sub-02	1.0	1.0	027_neutral	0.0		331.54433789579525	
39.0	228.2016754849028	pulse	0.0	t		26.0	female	white	4.854755272582572	neutral	027	sub-02	1.0	1.0	027_neutral	0.0		332.24435920686665	
39.0	228.50152256438014	fix	1.0		444	26.0	female	white	4.854755272582572	neutral	027	sub-02	1.0	1.0	027_neutral	0.0		332.544206286344	3.7499655883548257
39.0	228.90162555783172	pulse	1.0	t		26.0	female	white	4.854755272582572	neutral	027	sub-02	1.0	1.0	027_neutral	0.0		332.94430927979556	
39.0	229.60161064611748	pulse	1.0	t		26.0	female	white	4.854755272582572	neutral	027	sub-02	1.0	1.0	027_neutral	0.0		333.6442943680813	
39.0	230.3016105253755	pulse	1.0	t		26.0	female	white	4.854755272582572	neutral	027	sub-02	1.0	1.0	027_neutral	0.0		334.34429424733935	
39.0	231.0016037637888	pulse	1.0	t		26.0	female	white	4.854755272582572	neutral	027	sub-02	1.0	1.0	027_neutral	0.0		335.04428748575265	
39.0	231.70158794650706	pulse	1.0	t		26.0	female	white	4.854755272582572	neutral	027	sub-02	1.0	1.0	027_neutral	0.0		335.7442716684709	
40.0	232.25148815273496	fix	0.0		720													336.2941718746988	5.999907933755821
40.0	232.4015835997725	pulse	0.0	t														336.44426732173633	
40.0	233.10158498831152	pulse	0.0	t														337.14426871027536	
40.0	233.8015549837728	pulse	0.0	t														337.84423870573664	
40.0	234.50155003332475	pulse	0.0	t														338.5442337552886	
40.0	235.2015378383203	pulse	0.0	t														339.24422156028413	
40.0	235.9015404342881	pulse	0.0	t														339.94422415625195	
40.0	236.6015294467088	pulse	0.0	t														340.64421316867265	
40.0	237.30151876098716	pulse	0.0	t														341.344202482951	
40.0	238.00150747155385	pulse	0.0	t														342.0441911935177	
