trial_nr	onset	event_type	phase	response	nr_frames	rating_type	face_id	repetition	session	rating	onset_abs	duration
0.0	0.011117346108221682	cue	0.0		479						26.293212683614	3.992116434203126
0.0	4.003233780311348	fix	1.0		120						30.285329117817128	1.0171481215065796
0.0	5.020381901817927	face	0.0		147	dominance	036	1.0	1		31.302477239323707	1.2833993542099051
0.0	6.303781256027833	rating	1.0		193	dominance	036	1.0	1		32.58587659353361	1.616599468552522
0.0	7.920380724580355	fix	2.0		59	dominance	036	1.0	1	-0.009999999999999787	34.202476062086134	0.5167235614380843
1.0	8.437104286018439	face	0.0		147	dominance	136	1.0	1		34.71919962352422	1.233475135088156
1.0	9.670579421106595	rating	1.0		47	dominance	136	1.0	1		35.952674758612375	0.4000493835956149
1.0	10.07062880470221	fix	2.0		60	dominance	136	1.0	1	0.0	36.35272414220799	0.5167489173190916
2.0	10.587377722021301	face	0.0		147	dominance	009	1.0	1		36.86947305952708	1.2334515903421561
2.0	11.820829312363458	rating	1.0		915	dominance	009	1.0	1		38.10292464986924	7.634246859417544
2.0	19.455076171781002	fix	2.0		60	dominance	009	1.0	1	0.5599999999999996	45.73717150928678	0.5167314096870541
3.0	19.971807581468056	face	0.0		147	dominance	070	1.0	1		46.253902918973836	1.2334537033320885
3.0	21.205261284800144	rating	1.0		136	dominance	070	1.0	1		47.487356622305924	1.1418272111459373
3.0	22.347088495946082	fix	2.0		60	dominance	070	1.0	1	1.12	48.62918383345186	0.5167178261799563
4.0	22.863806322126038	face	0.0		147	dominance	137	1.0	1		49.14590165963182	1.23347211653072
4.0	24.09727843865676	rating	1.0		294	dominance	137	1.0	1		50.37937377616254	2.458625391318492
4.0	26.55590382997525	fix	2.0		60	dominance	137	1.0	1	0.8499999999999996	52.83799916748103	0.5167537470106254
5.0	27.072657576985875	face	0.0		147	dominance	102	1.0	1		53.354752914491655	1.2334413272474194
5.0	28.306098904233295	rating	1.0		138	dominance	102	1.0	1		54.588194241739075	1.1584805911297735
5.0	29.46457949536307	fix	2.0		61	dominance	102	1.0	1	-0.8599999999999999	55.74667483286885	0.5250825499924758
6.0	29.989662045355544	face	0.0		146	dominance	121	1.0	1		56.271757382861324	1.2251107131314711
6.0	31.214772758487015	rating	1.0		99	dominance	121	1.0	1		57.496868095992795	0.8334348071639397
6.0	32.048207565650955	fix	2.0		61	dominance	121	1.0	1	1.3600000000000003	58.330302903156735	0.5250783240126111
7.0	32.573285889663566	face	0.0		146	dominance	124	1.0	1		58.855381227169346	1.2251421061255314
7.0	33.7984279957891	rating	1.0		86	dominance	124	1.0	1		60.08052333329488	0.7250686042589223
7.0	34.52349660004802	fix	2.0		61	dominance	124	1.0	1	-0.41999999999999993	60.8055919375538	0.5250801351467089
8.0	35.04857673519473	face	0.0		146	dominance	038	1.0	1		61.33067207270051	1.2251122224097344
8.0	36.27368895760446	rating	1.0		78	dominance	038	1.0	1		62.55578429511024	0.6583983354466909
8.0	36.932087293051154	fix	2.0		60	dominance	038	1.0	1	-0.6600000000000001	63.214182630556934	0.5167579729904901
9.0	37.448845266041644	face	0.0		147	dominance	005	1.0	1		63.730940603547424	1.233471512819051
9.0	38.682316778860695	rating	1.0		88	dominance	005	1.0	1		64.96441211636647	0.7417687718789239
9.0	39.42408555073962	fix	2.0		60	dominance	005	1.0	1	-1.6400000000000001	65.7061808882454	0.5167389560810989
10.0	39.94082450682072	face	0.0		147	dominance	066	1.0	1		66.2229198443265	1.2334600423018856
10.0	41.1742845491226	rating	1.0		83	dominance	066	1.0	1		67.45637988662838	0.7000809878891232
10.0	41.87436553701173	fix	2.0		61	dominance	066	1.0	1	1.1900000000000004	68.1564608745175	0.5250919075197089
11.0	42.399457444531436	face	0.0		146	dominance	099	1.0	1		68.68155278203722	1.2251052797282682
11.0	43.624562724259704	rating	1.0		99	dominance	099	1.0	1		69.90665806176548	0.8334483906710375
11.0	44.45801111493074	fix	2.0		60	dominance	099	1.0	1	0.2999999999999998	70.74010645243652	0.5167283911305276
12.0	44.97473950606127	face	0.0		147	dominance	061	1.0	1		71.25683484356705	1.23350743364972
12.0	46.20824693971099	rating	1.0		141	dominance	061	1.0	1		72.49034227721677	1.1834120623352646
12.0	47.391659002046254	fix	2.0		60	dominance	061	1.0	1	0.9699999999999998	73.67375433955203	0.5167640101053621
13.0	47.908423012151616	face	0.0		147	dominance	042	1.0	1		74.1905183496574	1.2334461569389532
13.0	49.14186916909057	rating	1.0		87	dominance	042	1.0	1		75.42396450659635	0.7334363466279683
13.0	49.87530551571854	fix	2.0		60	dominance	042	1.0	1	1.0599999999999996	76.15740085322432	0.5167501247424298
14.0	50.39205564046097	face	0.0		147	dominance	126	1.0	1		76.67415097796675	1.2334515903412466
14.0	51.625507230802214	rating	1.0		88	dominance	126	1.0	1		77.907602568308	0.7417560939393297
14.0	52.36726332474154	fix	2.0		60	dominance	126	1.0	1	0.28000000000000025	78.64935866224732	0.5167428802042195
15.0	52.88400620494576	face	0.0		147	dominance	117	1.0	1		79.16610154245154	1.233459438591126
15.0	54.11746564353689	rating	1.0		160	dominance	117	1.0	1		80.39956098104267	1.3418325841776095
15.0	55.4592982277145	fix	2.0		61	dominance	117	1.0	1	1.67	81.74139356522028	0.525068966485378
16.0	55.984367194199876	face	0.0		146	dominance	012	1.0	1		82.26646253170566	1.2251345597323962
16.0	57.20950175393227	rating	1.0		103	dominance	012	1.0	1		83.49159709143805	0.8667645081668525
16.0	58.076266262099125	fix	2.0		60	dominance	012	1.0	1	2.62	84.3583615996049	0.5167440876275577
17.0	58.59301034972668	face	0.0		147	dominance	141	1.0	1		84.87510568723246	1.233459740446051
17.0	59.826470090172734	rating	1.0		89	dominance	141	1.0	1		86.10856542767851	0.7500646725884508
17.0	60.576534762761185	fix	2.0		61	dominance	141	1.0	1	-2.0300000000000002	86.85863010026696	0.5251540897970699
18.0	61.101688852558254	face	0.0		146	dominance	034	1.0	1		87.38378419006403	1.2250962240568697
18.0	62.326785076615124	rating	1.0		108	dominance	034	1.0	1		88.6088804141209	0.908425125141548
18.0	63.23521020175667	fix	2.0		60	dominance	034	1.0	1	-1.52	89.51730553926245	0.5167271837080989
19.0	63.75193738546477	face	0.0		147	dominance	044	1.0	1		90.03403272297055	1.2334884167394193
19.0	64.98542580220419	rating	1.0		67	dominance	044	1.0	1		91.26752113970997	0.5666981904651038
19.0	65.5521239926693	fix	2.0		60	dominance	044	1.0	1	-0.33000000000000007	91.83421933017507	0.5167718583534224
20.0	66.06889585102272	face	0.0		147	dominance	039	1.0	1		92.3509911885285	1.2334530996204194
20.0	67.30234895064314	rating	1.0		87	dominance	039	1.0	1		93.58444428814892	0.7334176315744116
20.0	68.03576658221755	fix	2.0		60	dominance	039	1.0	1	-0.8300000000000001	94.31786191972333	0.5167525395872872
21.0	68.55251912180483	face	0.0		147	dominance	087	1.0	1		94.83461445931061	1.2334527977645848
21.0	69.78597191956942	rating	1.0		90	dominance	087	1.0	1		96.0680672570752	0.7584227555744292
21.0	70.54439467514385	fix	2.0		60	dominance	087	1.0	1	-1.3599999999999999	96.82649001264963	0.5167507284531894
22.0	71.06114540359704	face	0.0		147	dominance	092	1.0	1		97.34324074110282	1.23346034415772
22.0	72.29460574775476	rating	1.0		77	dominance	092	1.0	1		98.57670108526054	0.6500465914305096
22.0	72.94465233918527	fix	2.0		60	dominance	092	1.0	1	-0.56	99.22674767669105	0.5167951012435879
23.0	73.46144744042886	face	0.0		147	dominance	082	1.0	1		99.74354277793464	1.2334349882776223
23.0	74.69488242870648	rating	1.0		58	dominance	082	1.0	1		100.97697776621226	0.49173503950260056
23.0	75.18661746820908	fix	2.0		60	dominance	082	1.0	1	0.6299999999999999	101.46871280571486	0.5167437857717232
24.0	75.7033612539808	face	0.0		147	dominance	024	1.0	1		101.98545659148658	1.2334331771435245
24.0	76.93679443112433	rating	1.0		90	dominance	024	1.0	1		103.2188897686301	0.7584441873304968
24.0	77.69523861845482	fix	2.0		61	dominance	024	1.0	1	3.17	103.9773339559606	0.5250837574149045
25.0	78.22032237586973	face	0.0		146	dominance	030	1.0	1		104.50241771337551	1.2251227873603057
25.0	79.44544516323003	rating	1.0		96	dominance	030	1.0	1		105.72754050073581	0.808440549968509
25.0	80.25388571319854	fix	2.0		60	dominance	030	1.0	1	0.71	106.53598105070432	0.5167679342293923
26.0	80.77065364742793	face	0.0		147	dominance	172	1.0	1		107.05274898493371	1.2334482699288856
26.0	82.00410191735682	rating	1.0		77	dominance	172	1.0	1		108.2861972548626	0.6500321023559081
26.0	82.65413401971273	fix	2.0		61	dominance	172	1.0	1	-0.5899999999999999	108.93622935721851	0.5251296394844758
27.0	83.1792636591972	face	0.0		146	dominance	011	1.0	1		109.46135899670298	1.2250962240568697
27.0	84.40435988325407	rating	1.0		58	dominance	011	1.0	1		110.68645522075985	0.49173685063669836
27.0	84.89609673389077	fix	2.0		61	dominance	011	1.0	1	0.2400000000000002	111.17819207139655	0.5250641367938442
28.0	85.42116087068462	face	0.0		146	dominance	130	1.0	1		111.7032562081904	1.2251245984944035
28.0	86.64628546917902	rating	1.0		80	dominance	130	1.0	1		112.9283808066848	0.6750921640968954
28.0	87.32137763327592	fix	2.0		61	dominance	130	1.0	1	-1.31	113.6034729707817	0.5250743998876715
29.0	87.84645203316359	face	0.0		146	dominance	144	1.0	1		114.12854737066937	1.2251215799369675
29.0	89.07157361310055	rating	1.0		148	dominance	144	1.0	1		115.35366895060633	1.241809069617375
29.0	90.31338268271793	fix	2.0		60	dominance	144	1.0	1	-0.43999999999999995	116.59547802022371	0.5167561618563923
30.0	90.83013884457432	face	0.0		147	dominance	043	1.0	1		117.1122341820801	1.233501698391592
30.0	92.06364054296591	rating	1.0		70	dominance	043	1.0	1		118.3457358804717	0.5916963717845647
30.0	92.65533691475048	fix	2.0		60	dominance	043	1.0	1	-0.48	118.93743225225626	0.5083971733020007
31.0	93.16373408805248	face	0.0		148	dominance	006	1.0	1		119.44582942555826	1.241809673329044
31.0	94.40554376138152	rating	1.0		143	dominance	006	1.0	1		120.6876390988873	1.2001303412989728
31.0	95.6056741026805	fix	2.0		60	dominance	006	1.0	1	1.83	121.88776944018628	0.5167715564984974
32.0	96.122445659179	face	0.0		147	dominance	064	1.0	1		122.40454099668477	1.2334358938442165
32.0	97.35588155302321	rating	1.0		74	dominance	064	1.0	1		123.63797689052899	0.6250767845485825
32.0	97.98095833757179	fix	2.0		60	dominance	064	1.0	1	0.5499999999999998	124.26305367507757	0.5167640101044526
33.0	98.49772234767624	face	0.0		147	dominance	018	1.0	1		124.77981768518202	1.2334132546657202
33.0	99.73113560234196	rating	1.0		62	dominance	018	1.0	1		126.01323093984774	0.5250843611274831
33.0	100.25621996346945	fix	2.0		60	dominance	018	1.0	1	-0.8799999999999999	126.53831530097523	0.5085070487839403
34.0	100.76472701225339	face	0.0		148	dominance	091	1.0	1		127.04682234975917	1.2416919495981347
34.0	102.00641896185152	rating	1.0		88	dominance	091	1.0	1		128.2885142993573	0.7417660551773224
34.0	102.74818501702885	fix	2.0		61	dominance	091	1.0	1	-0.4900000000000002	129.03028035453463	0.5250740980327464
35.0	103.27325911506159	face	0.0		146	dominance	033	1.0	1		129.55535445256737	1.2251372764339976
35.0	104.49839639149559	rating	1.0		75	dominance	033	1.0	1		130.78049172900137	0.6334104172219668
35.0	105.13180680871756	fix	2.0		60	dominance	033	1.0	1	0.8200000000000003	131.41390214622334	0.5167283911305276
36.0	105.64853519984808	face	0.0		147	dominance	027	1.0	1		131.93063053735386	1.2334633627142466
36.0	106.88199856256233	rating	1.0		36	dominance	027	1.0	1		133.1640939000681	0.3083733870716969
36.0	107.19037194963403	fix	2.0		60	dominance	027	1.0	1	0.0	133.4724672871398	0.5084231328946771
37.0	107.6987950825287	face	0.0		148	dominance	100	1.0	1		133.98089042003448	1.2417852230155404
37.0	108.94058030554424	rating	1.0		66	dominance	100	1.0	1		135.22267564305002	0.5583929322292533
37.0	109.4989732377735	fix	2.0		60	dominance	100	1.0	1	-0.33999999999999986	135.78106857527928	0.5167863474280239
38.0	110.01575958520152	face	0.0		147	dominance	062	1.0	1		136.2978549227073	1.2334440439490209
38.0	111.24920362915054	rating	1.0		61	dominance	062	1.0	1		137.53129896665632	0.5167084686527232
38.0	111.76591209780327	fix	2.0		60	dominance	062	1.0	1	0.5899999999999999	138.04800743530905	0.5167513321648585
39.0	112.28266342996812	face	0.0		147	dominance	101	1.0	1		138.5647587674739	1.2335038113815244
39.0	113.51616724134965	rating	1.0		69	dominance	101	1.0	1		139.79826257885543	0.5833407036434437
39.0	114.09950794499309	fix	2.0		60	dominance	101	1.0	1	1.63	140.38160328249887	0.5000680684643157
40.0	114.59957601345741	cue	0.0		480						140.8816713509632	4.000469989353405
40.0	118.60004600281081	fix	1.0		120						144.8821413403166	1.0168055152662419
40.0	119.61685151807706	face	0.0		147	attractiveness	005	1.0	1		145.89894685558284	1.2334428365265921
40.0	120.85029435460365	rating	1.0		134	attractiveness	005	1.0	1		147.13238969210943	1.1251472678586651
40.0	121.97544162246231	fix	2.0		60	attractiveness	005	1.0	1	-3.01	148.2575369599681	0.5167658212394599
41.0	122.49220744370177	face	0.0		147	attractiveness	091	1.0	1		148.77430278120755	1.2334343845659532
41.0	123.72564182826773	rating	1.0		79	attractiveness	091	1.0	1		150.0077371657735	0.6667533998761428
41.0	124.39239522814387	fix	2.0		60	attractiveness	091	1.0	1	0.0	150.67449056564965	0.5167465024733247
42.0	124.9091417306172	face	0.0		147	attractiveness	102	1.0	1		151.19123706812297	1.2334850963261488
42.0	126.14262682694334	rating	1.0		95	attractiveness	102	1.0	1		152.42472216444912	0.8000658649179968
42.0	126.94269269186134	fix	2.0		61	attractiveness	102	1.0	1	-1.06	153.22478802936712	0.525080738858378
43.0	127.46777343071972	face	0.0		146	attractiveness	044	1.0	1		153.7498687682255	1.225124296638569
43.0	128.6928977273583	rating	1.0		47	attractiveness	044	1.0	1		154.97499306486407	0.40005481699881784
43.0	129.0929525443571	fix	2.0		60	attractiveness	044	1.0	1	0.0	155.37504788186288	0.5167365412344225
44.0	129.60968908559153	face	0.0		147	attractiveness	066	1.0	1		155.8917844230973	1.2334869074602466
44.0	130.84317599305177	rating	1.0		71	attractiveness	066	1.0	1		157.12527133055755	0.6000447953892944
44.0	131.44322078844107	fix	2.0		60	attractiveness	066	1.0	1	0.2599999999999998	157.72531612594685	0.5167769899007908
45.0	131.95999777834186	face	0.0		147	attractiveness	144	1.0	1		158.24209311584764	1.2334579293119532
45.0	133.1934557076538	rating	1.0		78	attractiveness	144	1.0	1		159.4755510451596	0.6583956187450895
45.0	133.8518513263989	fix	2.0		60	attractiveness	144	1.0	1	0.6399999999999997	160.13394666390468	0.5167513321648585
46.0	134.36860265856376	face	0.0		147	attractiveness	070	1.0	1		160.65069799606954	1.2334316678643518
46.0	135.6020343264281	rating	1.0		77	attractiveness	070	1.0	1		161.8841296639339	0.6500577600918405
46.0	136.25209208651995	fix	2.0		60	attractiveness	070	1.0	1	-1.69	162.53418742402573	0.516769141651821
47.0	136.76886122817177	face	0.0		147	attractiveness	117	1.0	1		163.05095656567755	1.233478153645592
47.0	138.00233938181736	rating	1.0		76	attractiveness	117	1.0	1		164.28443471932314	0.6417355979356216
47.0	138.644074979753	fix	2.0		60	attractiveness	117	1.0	1	-0.71	164.92617031725877	0.5167540488655504
48.0	139.16082902861854	face	0.0		147	attractiveness	038	1.0	1		165.44292436612432	1.2334428365265921
48.0	140.39427186514513	rating	1.0		98	attractiveness	038	1.0	1		166.6763672026509	0.8250960429431871
48.0	141.21936790808832	fix	2.0		60	attractiveness	038	1.0	1	-1.02	167.5014632455941	0.5167356356669188
49.0	141.73610354375523	face	0.0		147	attractiveness	061	1.0	1		168.01819888126101	1.2334636645709907
49.0	142.96956720832623	rating	1.0		96	attractiveness	061	1.0	1		169.251662545832	0.8084157978000803
49.0	143.7779830061263	fix	2.0		60	attractiveness	061	1.0	1	-0.7000000000000002	170.06007834363209	0.5167437857717232
50.0	144.29472679189803	face	0.0		147	attractiveness	136	1.0	1		170.5768221294038	1.2334793610680208
50.0	145.52820615296605	rating	1.0		98	attractiveness	136	1.0	1		171.81030149047183	0.8251096264511943
50.0	146.35331577941724	fix	2.0		60	attractiveness	136	1.0	1	-2.0300000000000002	172.63541111692302	0.516754350721385
51.0	146.87007013013863	face	0.0		147	attractiveness	137	1.0	1		173.1521654676444	1.233435893845126
51.0	148.10350602398375	rating	1.0		93	attractiveness	137	1.0	1		174.38560136148953	0.7834553484453863
51.0	148.88696137242914	fix	2.0		60	attractiveness	137	1.0	1	0.5099999999999998	175.16905670993492	0.516742578348385
52.0	149.40370395077753	face	0.0		147	attractiveness	101	1.0	1		175.6857992882833	1.2334352901334569
52.0	150.63713924091098	rating	1.0		78	attractiveness	101	1.0	1		176.91923457841676	0.6584378785464651
52.0	151.29557711945745	fix	2.0		60	attractiveness	101	1.0	1	-1.2200000000000002	177.57767245696323	0.5167477098957534
53.0	151.8123248293532	face	0.0		147	attractiveness	141	1.0	1		178.09442016685898	1.2334256307503892
53.0	153.0457504601036	rating	1.0		83	attractiveness	141	1.0	1		179.32784579760937	0.7000815916007923
53.0	153.74583205170438	fix	2.0		60	attractiveness	141	1.0	1	-1.79	180.02792738921016	0.5167582748454151
54.0	154.2625903265498	face	0.0		147	attractiveness	043	1.0	1		180.54468566405558	1.2334558163220208
54.0	155.49604614287182	rating	1.0		60	attractiveness	043	1.0	1		181.7781414803776	0.5083857027857448
54.0	156.00443184565756	fix	2.0		60	attractiveness	043	1.0	1	0.9000000000000004	182.28652718316334	0.5167694435076555
55.0	156.52120128916522	face	0.0		147	attractiveness	039	1.0	1		182.803296626671	1.2334546088986826
55.0	157.7546558980639	rating	1.0		74	attractiveness	039	1.0	1		184.03675123556968	0.6250710492904545
55.0	158.37972694735436	fix	2.0		60	attractiveness	039	1.0	1	0.4400000000000004	184.66182228486014	0.5167618971145203
56.0	158.89648884446888	face	0.0		147	attractiveness	011	1.0	1		185.17858418197466	1.2334413272474194
56.0	160.1299301717163	rating	1.0		69	attractiveness	011	1.0	1		186.41202550922208	0.5834001692201127
56.0	160.7133303409364	fix	2.0		60	attractiveness	011	1.0	1	-0.6499999999999999	186.9954256784422	0.5167350319561592
57.0	161.23006537289257	face	0.0		147	attractiveness	018	1.0	1		187.51216071039835	1.2334606460135547
57.0	162.46352601890612	rating	1.0		79	attractiveness	018	1.0	1		188.7456213564119	0.6667455516280825
57.0	163.1302715705342	fix	2.0		60	attractiveness	018	1.0	1	-0.3700000000000001	189.41236690803998	0.5167612934028512
58.0	163.64703286393706	face	0.0		147	attractiveness	099	1.0	1		189.92912820144284	1.2334503829197274
58.0	164.88048324685678	rating	1.0		71	attractiveness	099	1.0	1		191.16257858436256	0.600062906731182
58.0	165.48054615358797	fix	2.0		60	attractiveness	099	1.0	1	0.6500000000000004	191.76264149109375	0.5167564637122268
59.0	165.9973026173002	face	0.0		147	attractiveness	062	1.0	1		192.27939795480597	1.2334660794167576
59.0	167.23076869671695	rating	1.0		75	attractiveness	062	1.0	1		193.51286403422273	0.6333926077340948
59.0	167.86416130445104	fix	2.0		60	attractiveness	062	1.0	1	0.16999999999999993	194.14625664195682	0.5167615952595952
60.0	168.38092289971064	face	0.0		147	attractiveness	009	1.0	1		194.66301823721642	1.2334431383815172
60.0	169.61436603809216	rating	1.0		128	attractiveness	009	1.0	1		195.89646137559794	1.075139434702578
60.0	170.68950547279474	fix	2.0		60	attractiveness	009	1.0	1	1.5999999999999996	196.97160081030052	0.5167567655680614
61.0	171.2062622383628	face	0.0		147	attractiveness	092	1.0	1		197.48835757586858	1.2334434402373518
61.0	172.43970567860015	rating	1.0		113	attractiveness	092	1.0	1		198.72180101610593	0.9501083812956495
61.0	173.3898140598958	fix	2.0		60	attractiveness	092	1.0	1	-2.06	199.67190939740158	0.5167422764934599
62.0	173.90655633638926	face	0.0		147	attractiveness	034	1.0	1		200.18865167389504	1.2335001891124193
62.0	175.14005652550168	rating	1.0		69	attractiveness	034	1.0	1		201.42215186300746	0.5833283275587746
62.0	175.72338485306045	fix	2.0		60	attractiveness	034	1.0	1	-0.27	202.00548019056623	0.5167951012444973
63.0	176.24017995430495	face	0.0		147	attractiveness	042	1.0	1		202.52227529181073	1.2334250270387201
63.0	177.47360498134367	rating	1.0		114	attractiveness	042	1.0	1		203.75570031884945	0.9584610308793344
63.0	178.432066012223	fix	2.0		60	attractiveness	042	1.0	1	1.5	204.71416134972878	0.516742880205129
64.0	178.94880889242813	face	0.0		147	attractiveness	030	1.0	1		205.2309042299339	1.2334624571476525
64.0	180.18227134957579	rating	1.0		108	attractiveness	030	1.0	1		206.46436668708157	0.9084601404047135
64.0	181.0907314899805	fix	2.0		60	attractiveness	030	1.0	1	1.42	207.37282682748628	0.5167537470106254
65.0	181.60748523699112	face	0.0		147	attractiveness	033	1.0	1		207.8895805744969	1.2334464587947878
65.0	182.8409316957859	rating	1.0		66	attractiveness	033	1.0	1		209.1230270332917	0.5583736134631181
65.0	183.39930530924903	fix	2.0		60	attractiveness	033	1.0	1	0.009999999999999787	209.6814006467548	0.5167688397968959
66.0	183.91607414904593	face	0.0		147	attractiveness	126	1.0	1		210.1981694865517	1.2334383086899834
66.0	185.1495124577359	rating	1.0		88	attractiveness	126	1.0	1		211.4316077952417	0.7417739034262922
66.0	185.8912863611622	fix	2.0		60	attractiveness	126	1.0	1	1.4800000000000004	212.17338169866798	0.5167341263886556
67.0	186.40802048755086	face	0.0		147	attractiveness	130	1.0	1		212.69011582505664	1.2334488736405547
67.0	187.6414693611914	rating	1.0		105	attractiveness	130	1.0	1		213.9235646986972	0.8834423384641923
67.0	188.5249116996556	fix	2.0		61	attractiveness	130	1.0	1	-2.45	214.80700703716138	0.5250822481366413
68.0	189.04999394779225	face	0.0		146	attractiveness	124	1.0	1		215.33208928529803	1.225115542823005
68.0	190.27510949061525	rating	1.0		108	attractiveness	124	1.0	1		216.55720482812103	0.9084676867978487
68.0	191.1835771774131	fix	2.0		60	attractiveness	124	1.0	1	2.6900000000000004	217.46567251491888	0.5167205428815578
69.0	191.70029772029466	face	0.0		147	attractiveness	082	1.0	1		217.98239305780044	1.2334585330236223
69.0	192.93375625331828	rating	1.0		98	attractiveness	082	1.0	1		219.21585159082406	0.8250900058292245
69.0	193.7588462591475	fix	2.0		60	attractiveness	082	1.0	1	2.5999999999999996	220.04094159665328	0.5167621989703548
70.0	194.27560845811786	face	0.0		147	attractiveness	012	1.0	1		220.55770379562364	1.233465173849254
70.0	195.5090736319671	rating	1.0		68	attractiveness	012	1.0	1		221.7911689694729	0.5750656309792248
70.0	196.08413926294634	fix	2.0		60	attractiveness	012	1.0	1	-0.3599999999999999	222.36623460045212	0.5167561618563923
71.0	196.60089542480273	face	0.0		147	attractiveness	064	1.0	1		222.8829907623085	1.2334697016849532
71.0	197.83436512648768	rating	1.0		66	attractiveness	064	1.0	1		224.11646046399346	0.5583705949065916
71.0	198.39273572139427	fix	2.0		60	attractiveness	064	1.0	1	0.5899999999999999	224.67483105890005	0.5167631045378585
72.0	198.90949882593213	face	0.0		147	attractiveness	027	1.0	1		225.1915941634379	1.23346034415772
72.0	200.14295917008985	rating	1.0		126	attractiveness	027	1.0	1		226.42505450759563	1.058445907908208
72.0	201.20140507799806	fix	2.0		60	attractiveness	027	1.0	1	0.5700000000000003	227.48350041550384	0.516760387836257
73.0	201.71816546583432	face	0.0		147	attractiveness	172	1.0	1		228.0002608033401	1.2334431383815172
73.0	202.95160860421583	rating	1.0		73	attractiveness	172	1.0	1		229.23370394172161	0.6167322850687924
73.0	203.56834088928463	fix	2.0		60	attractiveness	172	1.0	1	-0.96	229.8504362267904	0.5167706509309937
74.0	204.08511154021562	face	0.0		147	attractiveness	100	1.0	1		230.3672068777214	1.2334461569389532
74.0	205.31855769715457	rating	1.0		82	attractiveness	100	1.0	1		231.60065303466035	0.6917473552157389
74.0	206.0103050523703	fix	2.0		60	attractiveness	100	1.0	1	-0.5299999999999998	232.2924003898761	0.5167350319561592
75.0	206.52704008432647	face	0.0		147	attractiveness	087	1.0	1		232.80913542183225	1.2334636645700812
75.0	207.76050374889655	rating	1.0		108	attractiveness	087	1.0	1		234.04259908640233	0.9084441420527583
75.0	208.6689478909493	fix	2.0		60	attractiveness	087	1.0	1	-0.6800000000000002	234.9510432284551	0.5167588785570842
76.0	209.1857067695064	face	0.0		147	attractiveness	024	1.0	1		235.46780210701218	1.2334875111728252
76.0	210.41919428067922	rating	1.0		81	attractiveness	024	1.0	1		236.701289618185	0.6833741794425805
76.0	211.1025684601218	fix	2.0		60	attractiveness	024	1.0	1	-1.1600000000000001	237.38466379762758	0.516754652578129
77.0	211.61932311269993	face	0.0		147	attractiveness	036	1.0	1		237.9014184502057	1.2334419309590885
77.0	212.85276504365902	rating	1.0		126	attractiveness	036	1.0	1		239.1348603811648	1.058457076569539
77.0	213.91122212022856	fix	2.0		60	attractiveness	036	1.0	1	3.3099999999999996	240.19331745773434	0.516748615463257
78.0	214.42797073569182	face	0.0		147	attractiveness	006	1.0	1		240.7100660731976	1.2334799647787804
78.0	215.6614507004706	rating	1.0		78	attractiveness	006	1.0	1		241.94354603797638	0.6583962224567586
78.0	216.31984692292735	fix	2.0		60	attractiveness	006	1.0	1	0.0	242.60194226043313	0.5167495210307607
79.0	216.83659644395811	face	0.0		147	attractiveness	121	1.0	1		243.1186917814639	1.2334582311677877
79.0	218.0700546751259	rating	1.0		195	attractiveness	121	1.0	1		244.35215001263168	1.6335230094045983
79.0	219.7035776845305	fix	2.0		60	attractiveness	121	1.0	1	-0.29000000000000004	245.98567302203628	0.5000843686739245
80.0	220.20366205320443	cue	0.0		480						246.4857573907102	4.0004328611003075
80.0	224.20409491430473	fix	1.0		120						250.4861902518105	1.0168012892854676
80.0	225.2208962035902	face	0.0		147	trustworthiness	042	1.0	1		251.50299154109598	1.233457023745359
80.0	226.45435322733556	rating	1.0		307	trustworthiness	042	1.0	1		252.73644856484134	2.566981331129682
80.0	229.02133455846524	fix	2.0		61	trustworthiness	042	1.0	1	1.2199999999999998	255.30342989597102	0.5250674572062053
81.0	229.54640201567145	face	0.0		146	trustworthiness	117	1.0	1		255.82849735317723	1.2251291263301027
81.0	230.77153114200155	rating	1.0		76	trustworthiness	117	1.0	1		257.05362647950733	0.6417398239154863
81.0	231.41327096591704	fix	2.0		60	trustworthiness	117	1.0	1	-0.8199999999999998	257.6953663034228	0.5167621989703548
82.0	231.9300331648874	face	0.0		147	trustworthiness	091	1.0	1		258.21212850239317	1.233439214257487
82.0	233.16347237914488	rating	1.0		78	trustworthiness	091	1.0	1		259.44556771665066	0.6584179560686607
82.0	233.82189033521354	fix	2.0		60	trustworthiness	091	1.0	1	0.41000000000000014	260.1039856727193	0.5167395597918585
83.0	234.3386298950054	face	0.0		147	trustworthiness	101	1.0	1		260.6207252325112	1.2334428365256827
83.0	235.57207273153108	rating	1.0		104	trustworthiness	101	1.0	1		261.85416806903686	0.8751346653825749
83.0	236.44720739691365	fix	2.0		60	trustworthiness	101	1.0	1	-2.46	262.72930273441943	0.5167612934037606
84.0	236.96396869031742	face	0.0		147	trustworthiness	137	1.0	1		263.2460640278232	1.2334183862130885
84.0	238.1973870765305	rating	1.0		98	trustworthiness	137	1.0	1		264.4794824140363	0.8251159654200819
84.0	239.02250304195059	fix	2.0		61	trustworthiness	137	1.0	1	-0.3799999999999999	265.30459837945637	0.5250716831869795
85.0	239.54757472513757	face	0.0		146	trustworthiness	043	1.0	1		265.82967006264334	1.225112524265569
85.0	240.77268724940313	rating	1.0		105	trustworthiness	043	1.0	1		267.0547825869089	0.8834314716577865
85.0	241.65611872106092	fix	2.0		60	trustworthiness	043	1.0	1	-0.73	267.9382140585667	0.5167688397968959
86.0	242.17288756085782	face	0.0		147	trustworthiness	087	1.0	1		268.4549828983636	1.233459740446051
86.0	243.40634730130387	rating	1.0		137	trustworthiness	087	1.0	1		269.68844263880965	1.1501068116458555
86.0	244.55645411294972	fix	2.0		60	trustworthiness	087	1.0	1	0.46999999999999975	270.8385494504555	0.5167941956769937
87.0	245.07324830862672	face	0.0		147	trustworthiness	006	1.0	1		271.3553436461325	1.2334319697201863
87.0	246.3066802783469	rating	1.0		118	trustworthiness	006	1.0	1		272.5887756158527	0.9918127673499839
87.0	247.2984930456969	fix	2.0		60	trustworthiness	006	1.0	1	0.9000000000000004	273.58058838320267	0.5167483136074225
88.0	247.8152413593043	face	0.0		147	trustworthiness	144	1.0	1		274.0973366968101	1.2334404216799157
88.0	249.04868178098423	rating	1.0		127	trustworthiness	144	1.0	1		275.33077711849	1.0667819554282687
88.0	250.1154637364125	fix	2.0		60	trustworthiness	144	1.0	1	1.4900000000000002	276.3975590739183	0.516772462064182
89.0	250.63223619847668	face	0.0		147	trustworthiness	126	1.0	1		276.91433153598246	1.2334380068350583
89.0	251.86567420531173	rating	1.0		101	trustworthiness	126	1.0	1		278.1477695428175	0.8500972428200839
89.0	252.71577144813182	fix	2.0		59	trustworthiness	126	1.0	1	1.0999999999999996	278.9978667856376	0.5167664249502195
90.0	253.23253787308204	face	0.0		147	trustworthiness	136	1.0	1		279.5146332105878	1.2334334789984496
90.0	254.4659713520805	rating	1.0		206	trustworthiness	136	1.0	1		280.74806668958627	1.7252125894365236
90.0	256.191183941517	fix	2.0		60	trustworthiness	136	1.0	1	0.3899999999999997	282.4732792790228	0.516760387836257
91.0	256.70794432935327	face	0.0		147	trustworthiness	027	1.0	1		282.99003966685905	1.2334500810629834
91.0	257.94139441041625	rating	1.0		76	trustworthiness	027	1.0	1		284.22348974792203	0.641749483298554
91.0	258.5831438937148	fix	2.0		60	trustworthiness	027	1.0	1	1.7599999999999998	284.8652392312206	0.5167350319561592
92.0	259.09987892567096	face	0.0		147	trustworthiness	141	1.0	1		285.38197426317674	1.2334579293119532
92.0	260.3333368549829	rating	1.0		75	trustworthiness	141	1.0	1		286.6154321924887	0.6333962300031999
92.0	260.9667330849861	fix	2.0		60	trustworthiness	141	1.0	1	1.0199999999999996	287.2488284224919	0.516766424951129
93.0	261.48349950993725	face	0.0		147	trustworthiness	092	1.0	1		287.765594847443	1.2334398179682466
93.0	262.7169393279055	rating	1.0		173	trustworthiness	092	1.0	1		288.9990346654113	1.450177959039138
93.0	264.16711728694463	fix	2.0		60	trustworthiness	092	1.0	1	1.29	290.4492126244504	0.5167395597918585
94.0	264.6838568467365	face	0.0		147	trustworthiness	033	1.0	1		290.96595218424227	1.2334712109632164
94.0	265.9173280576997	rating	1.0		64	trustworthiness	033	1.0	1		292.1994233952055	0.5417329114197855
94.0	266.4590609691195	fix	2.0		60	trustworthiness	033	1.0	1	-0.9300000000000002	292.74115630662527	0.516754652578129
95.0	266.9758156216976	face	0.0		147	trustworthiness	061	1.0	1		293.2579109592034	1.233444345803946
95.0	268.20925996750157	rating	1.0		74	trustworthiness	061	1.0	1		294.49135530500735	0.6250843309417178
95.0	268.8343442984433	fix	2.0		60	trustworthiness	061	1.0	1	-0.9900000000000002	295.11643963594906	0.5167501247415203
96.0	269.3510944231848	face	0.0		147	trustworthiness	039	1.0	1		295.6331897606906	1.2334521940538252
96.0	270.58454661723863	rating	1.0		72	trustworthiness	039	1.0	1		296.8666419547444	0.6084134433258441
96.0	271.1929600605645	fix	2.0		60	trustworthiness	039	1.0	1	2.67	297.47505539807025	0.516733824532821
97.0	271.7096938850973	face	0.0		147	trustworthiness	172	1.0	1		297.9917892226031	1.233447968073051
97.0	272.94314185317035	rating	1.0		88	trustworthiness	172	1.0	1		299.2252371906761	0.7417684700230893
97.0	273.68491032319344	fix	2.0		60	trustworthiness	172	1.0	1	2.17	299.9670056606992	0.5167419746376254
98.0	274.20165229783106	face	0.0		147	trustworthiness	130	1.0	1		300.48374763533684	1.233462759003487
98.0	275.43511505683455	rating	1.0		74	trustworthiness	130	1.0	1		301.7172103943403	0.625061691762312
98.0	276.06017674859686	fix	2.0		60	trustworthiness	130	1.0	1	2.83	302.34227208610264	0.5167474080408283
99.0	276.5769241566377	face	0.0		147	trustworthiness	005	1.0	1		302.85901949414347	1.2334932464309531
99.0	277.81041740306864	rating	1.0		154	trustworthiness	005	1.0	1		304.0925127405744	1.2917915468924548
99.0	279.1022089499611	fix	2.0		60	trustworthiness	005	1.0	1	-0.54	305.3843042874669	0.5167329189662269
100.0	279.6189418689273	face	0.0		147	trustworthiness	012	1.0	1		305.9010372064331	1.2334684942625245
100.0	280.85241036318985	rating	1.0		64	trustworthiness	012	1.0	1		307.1345057006956	0.5417301947172746
100.0	281.3941405579071	fix	2.0		61	trustworthiness	012	1.0	1	-0.96	307.6762358954129	0.5250731924661522
101.0	281.9192137503733	face	0.0		146	trustworthiness	018	1.0	1		308.20130908787905	1.225122183647727
101.0	283.144335934021	rating	1.0		59	trustworthiness	018	1.0	1		309.4264312715268	0.5000728981558495
101.0	283.64440883217685	fix	2.0		60	trustworthiness	018	1.0	1	2.41	309.92650416968263	0.5167510303090239
102.0	284.1611598624859	face	0.0		147	trustworthiness	070	1.0	1		310.44325519999165	1.2334401198249907
102.0	285.39459998231087	rating	1.0		71	trustworthiness	070	1.0	1		311.67669531981664	0.6000752828158511
102.0	285.9946752651267	fix	2.0		60	trustworthiness	070	1.0	1	-1.42	312.2767706026325	0.5167582748463246
103.0	286.51143353997304	face	0.0		147	trustworthiness	009	1.0	1		312.7935288774788	1.233462759003487
103.0	287.7448962989765	rating	1.0		87	trustworthiness	009	1.0	1		314.0269916364823	0.7333958979625095
103.0	288.47829219693904	fix	2.0		60	trustworthiness	009	1.0	1	2.38	314.7603875344448	0.5167606896920915
104.0	288.99505288663113	face	0.0		147	trustworthiness	102	1.0	1		315.2771482241369	1.2334497792071488
104.0	290.2285026658383	rating	1.0		101	trustworthiness	102	1.0	1		316.51059800334406	0.8501062984914824
104.0	291.07860896432976	fix	2.0		61	trustworthiness	102	1.0	1	2.8200000000000003	317.36070430183554	0.5251112262858442
105.0	291.6037201906156	face	0.0		146	trustworthiness	124	1.0	1		317.8858155281214	1.225094714777697
105.0	292.8288149053933	rating	1.0		118	trustworthiness	124	1.0	1		319.1109102428991	0.9917880151815552
105.0	293.82060292057486	fix	2.0		60	trustworthiness	124	1.0	1	1.17	320.10269825808064	0.5167552562888886
106.0	294.33735817686375	face	0.0		147	trustworthiness	030	1.0	1		320.6194535143695	1.233450986630487
106.0	295.57080916349423	rating	1.0		77	trustworthiness	030	1.0	1		321.852904501	0.6500788899920735
106.0	296.2208880534863	fix	2.0		60	trustworthiness	030	1.0	1	1.6100000000000003	322.5029833909921	0.5167416727817908
107.0	296.7376297262681	face	0.0		147	trustworthiness	024	1.0	1		323.0197250637739	1.233447364361382
107.0	297.9710770906295	rating	1.0		65	trustworthiness	024	1.0	1		324.25317242813526	0.5500807313119367
107.0	298.5211578219414	fix	2.0		60	trustworthiness	024	1.0	1	1.1900000000000004	324.8032531594472	0.5167377486577607
108.0	299.0378955705992	face	0.0		147	trustworthiness	064	1.0	1		325.31999090810496	1.2334506847746525
108.0	300.2713462553738	rating	1.0		81	trustworthiness	064	1.0	1		326.5534415928796	0.7250873193133884
108.0	300.9964335746872	fix	2.0		60	trustworthiness	064	1.0	1	2.74	327.278528912193	0.516760689691182
109.0	301.5131942643784	face	0.0		147	trustworthiness	099	1.0	1		327.7952896018842	1.2334654757050885
109.0	302.7466597400835	rating	1.0		65	trustworthiness	099	1.0	1		329.02875507758927	0.5500502438844705
109.0	303.29670998396796	fix	2.0		60	trustworthiness	099	1.0	1	0.6200000000000001	329.57880532147374	0.5167612934037606
110.0	303.8134712773717	face	0.0		147	trustworthiness	044	1.0	1		330.0955666148775	1.23344464766069
110.0	305.0469159250324	rating	1.0		80	trustworthiness	044	1.0	1		331.3290112625382	0.6750933715193241
110.0	305.72200929655173	fix	2.0		60	trustworthiness	044	1.0	1	0.6299999999999999	332.0041046340575	0.5167196373149636
111.0	306.2387289338667	face	0.0		147	trustworthiness	062	1.0	1		332.5208242713725	1.2334820777696223
111.0	307.4722110116363	rating	1.0		65	trustworthiness	062	1.0	1		333.7543063491421	0.5500608088341323
111.0	308.02227182047045	fix	2.0		60	trustworthiness	062	1.0	1	-0.45999999999999996	334.30436715797623	0.516757369278821
112.0	308.5390291897493	face	0.0		147	trustworthiness	034	1.0	1		334.82112452725505	1.233441629103254
112.0	309.7724708188525	rating	1.0		82	trustworthiness	034	1.0	1		336.0545661563583	0.6917398088226037
112.0	310.46421062767513	fix	2.0		60	trustworthiness	034	1.0	1	-0.8799999999999999	336.7463059651809	0.5167380505135952
113.0	310.9809486781887	face	0.0		147	trustworthiness	038	1.0	1		337.2630440156945	1.2334724183865546
113.0	312.2144210965753	rating	1.0		44	trustworthiness	038	1.0	1		338.49651643408106	0.375056635679357
113.0	312.58947773225464	fix	2.0		60	trustworthiness	038	1.0	1	0.0	338.8715730697604	0.5167516340197835
114.0	313.1062293662744	face	0.0		147	trustworthiness	100	1.0	1		339.3883247037802	1.2334458550840282
114.0	314.33967522135845	rating	1.0		201	trustworthiness	100	1.0	1		340.6217705588642	1.683528729570753
114.0	316.0232039509292	fix	2.0		60	trustworthiness	100	1.0	1	-0.2799999999999998	342.305299288435	0.5167374468010166
115.0	316.5399413977302	face	0.0		147	trustworthiness	011	1.0	1		342.822036735236	1.233465173849254
115.0	317.77340657157947	rating	1.0		71	trustworthiness	011	1.0	1		344.05550190908525	0.600065623433693
115.0	318.37347219501316	fix	2.0		60	trustworthiness	011	1.0	1	1.2800000000000002	344.65556753251894	0.5167658212394599
116.0	318.8902380162526	face	0.0		147	trustworthiness	082	1.0	1		345.1723333537584	1.2334570237444495
116.0	320.1236950399971	rating	1.0		78	trustworthiness	082	1.0	1		346.40579037750285	0.6584034669940593
116.0	320.78209850699113	fix	2.0		60	trustworthiness	082	1.0	1	1.8200000000000003	347.0641938444969	0.5167585767021592
117.0	321.2988570836933	face	0.0		147	trustworthiness	066	1.0	1		347.5809524211991	1.233436195700051
117.0	322.53229327939334	rating	1.0		89	trustworthiness	066	1.0	1		348.8143886168991	0.7501271567216463
117.0	323.282420436115	fix	2.0		60	trustworthiness	066	1.0	1	-0.69	349.56451577362077	0.516736843090257
118.0	323.79915727920525	face	0.0		147	trustworthiness	121	1.0	1		350.081252616711	1.2334452513714496
118.0	325.0326025305767	rating	1.0		47	trustworthiness	121	1.0	1		351.3146978680825	0.40003066854114877
118.0	325.43263319911784	fix	2.0		60	trustworthiness	121	1.0	1	0.0	351.7147285366236	0.5167522377323621
119.0	325.9493854368502	face	0.0		147	trustworthiness	036	1.0	1		352.231480774356	1.2334515903412466
119.0	327.18283702719145	rating	1.0		88	trustworthiness	036	1.0	1		353.46493236469723	0.7417654514665628
119.0	327.924602478658	fix	2.0		60	trustworthiness	036	1.0	1	2.87	354.2066978161638	0.5000390903151128
120.0	328.42464156897313	cue	0.0		3600						354.7067369064789	30.003521448810716
120.0	358.42816301778385	fix	1.0		120						384.7102583552896	1.0001137996059697
120.0	359.4282768173898	cue	0.0		480						385.7103721548956	4.000484176572172
120.0	363.428760993962	fix	1.0		120						389.71085633146777	1.0167967614506779
120.0	364.44555775541266	face	0.0		147	dominance	006	2.0	1		390.72765309291844	1.2334760406547502
120.0	365.6790337960674	rating	1.0		18176	dominance	006	2.0	1		391.9611291335732	151.49273267265198
120.0	517.1717664687194	fix	2.0		60	dominance	006	2.0	1	0.0	543.4538618062252	0.516772160209257
121.0	517.6885386289287	face	0.0		147	dominance	036	2.0	1		543.9706339664344	1.2334398179691561
121.0	518.9219784468978	rating	1.0		112	dominance	036	2.0	1		545.2040737844036	0.9417804838803931
121.0	519.8637589307782	fix	2.0		60	dominance	036	2.0	1	0.6699999999999999	546.145854268284	0.5167718583534224
122.0	520.3805307891316	face	0.0		147	dominance	126	2.0	1		546.6626261266374	1.2334425346707576
122.0	521.6139733238024	rating	1.0		120	dominance	126	2.0	1		547.8960686613082	1.0084374710404518
122.0	522.6224107948428	fix	2.0		60	dominance	126	2.0	1	1.5599999999999996	548.9045061323486	0.5167561618563923
123.0	523.1391669566992	face	0.0		147	dominance	121	2.0	1		549.421262294205	1.2334431383824267
123.0	524.3726100950817	rating	1.0		73	dominance	121	2.0	1		550.6547054325874	0.6167413407401909
123.0	524.9893514358218	fix	2.0		60	dominance	121	2.0	1	0.8600000000000003	551.2714467733276	0.5167899696962195
124.0	525.5061414055181	face	0.0		147	dominance	009	2.0	1		551.7882367430238	1.2334189899247576
124.0	526.7395603954428	rating	1.0		103	dominance	009	2.0	1		553.0216557329486	0.8667623951769201
124.0	527.6063227906197	fix	2.0		60	dominance	009	2.0	1	0.15000000000000036	553.8884181281255	0.5167534451547908
125.0	528.1230762357745	face	0.0		147	dominance	144	2.0	1		554.4051715732803	1.233450382918818
125.0	529.3565266186934	rating	1.0		55	dominance	144	2.0	1		555.6386219561991	0.4667640251982448
125.0	529.8232906438916	fix	2.0		60	dominance	144	2.0	1	-0.56	556.1053859813974	0.5167256744280166
126.0	530.3400163183196	face	0.0		147	dominance	137	2.0	1		556.6221116558254	1.2334455532281936
126.0	531.5734618715478	rating	1.0		80	dominance	137	2.0	1		557.8555572090536	0.6750722416190911
126.0	532.2485341131669	fix	2.0		60	dominance	137	2.0	1	1.33	558.5306294506727	0.5167504265982643
127.0	532.7652845397652	face	0.0		147	dominance	039	2.0	1		559.0473798772709	1.233468494261615
127.0	533.9987530340268	rating	1.0		68	dominance	039	2.0	1		560.2808483715326	0.5750731773723601
127.0	534.5738262113991	fix	2.0		60	dominance	039	2.0	1	-0.9300000000000002	560.8559215489049	0.5167353338119938
128.0	535.0905615452111	face	0.0		147	dominance	005	2.0	1		561.3726568827169	1.233450382918818
128.0	536.32401192813	rating	1.0		109	dominance	005	2.0	1		562.6061072656357	0.9167874341092102
128.0	537.2407993622392	fix	2.0		60	dominance	005	2.0	1	-2.74	563.5228946997449	0.5167498228856857
129.0	537.7575491851248	face	0.0		147	dominance	070	2.0	1		564.0396445226306	1.2334419309590885
129.0	538.9909911160839	rating	1.0		65	dominance	070	2.0	1		565.2730864535897	0.5500846554359669
129.0	539.5410757715199	fix	2.0		60	dominance	070	2.0	1	1.0599999999999996	565.8231711090257	0.5167344282444901
130.0	540.0578101997644	face	0.0		147	dominance	062	2.0	1		566.3399055372702	1.2334470625064569
130.0	541.2912572622708	rating	1.0		85	dominance	062	2.0	1		567.5733525997766	0.7167515736491623
130.0	542.00800883592	fix	2.0		60	dominance	062	2.0	1	0.8099999999999996	568.2901041734258	0.5167600859804224
131.0	542.5247689219004	face	0.0		147	dominance	024	2.0	1		568.8068642594062	1.2334549107554267
131.0	543.7582238326559	rating	1.0		81	dominance	024	2.0	1		570.0403191701616	0.6834113076965878
131.0	544.4416351403524	fix	2.0		60	dominance	024	2.0	1	2.92	570.7237304778582	0.5167386542243548
132.0	544.9583737945768	face	0.0		147	dominance	061	2.0	1		571.2404691320826	1.2334772480780885
132.0	546.1918510426549	rating	1.0		65	dominance	061	2.0	1		572.4739463801607	0.5500701663613654
132.0	546.7419212090163	fix	2.0		60	dominance	061	2.0	1	1.5099999999999998	573.024016546522	0.5167253725730916
133.0	547.2586465815893	face	0.0		147	dominance	012	2.0	1		573.5407419190951	1.2334642682817503
133.0	548.4921108498711	rating	1.0		99	dominance	012	2.0	1		574.7742061873769	0.8334263552042103
133.0	549.3255372050753	fix	2.0		60	dominance	012	2.0	1	2.3	575.6076325425811	0.516748615463257
134.0	549.8422858205386	face	0.0		147	dominance	038	2.0	1		576.1243811580443	1.2334518921979907
134.0	551.0757377127366	rating	1.0		62	dominance	038	2.0	1		577.3578330502423	0.5250710794753104
134.0	551.6008087922119	fix	2.0		60	dominance	038	2.0	1	-1.04	577.8829041297176	0.5167546525772195
135.0	552.1175634447891	face	0.0		147	dominance	130	2.0	1		578.3996587822949	1.2334515903421561
135.0	553.3510150351312	rating	1.0		96	dominance	130	2.0	1		579.633110372637	0.8084342109987119
135.0	554.15944924613	fix	2.0		60	dominance	130	2.0	1	-1.7599999999999998	580.4415445836357	0.5084481869189403
136.0	554.6678974330489	face	0.0		148	dominance	124	2.0	1		580.9499927705547	1.2417490003290368
136.0	555.9096464333779	rating	1.0		89	dominance	124	2.0	1		582.1917417708837	0.7500785579513831
136.0	556.6597249913293	fix	2.0		60	dominance	124	2.0	1	0.5800000000000001	582.9418203288351	0.5167682360843173
137.0	557.1764932274136	face	0.0		147	dominance	136	2.0	1		583.4585885649194	1.2334724183865546
137.0	558.4099656458002	rating	1.0		94	dominance	136	2.0	1		584.692060983306	0.7917654363736801
137.0	559.2017310821739	fix	2.0		60	dominance	136	2.0	1	0.41000000000000014	585.4838264196796	0.5167081667968887
138.0	559.7184392489708	face	0.0		147	dominance	043	2.0	1		586.0005345864765	1.233463362715156
138.0	560.9519026116859	rating	1.0		75	dominance	043	2.0	1		587.2339979491917	0.6334067949528617
138.0	561.5853094066388	fix	2.0		60	dominance	043	2.0	1	0.5599999999999996	587.8674047441446	0.5167631045378585
139.0	562.1020725111766	face	0.0		147	dominance	082	2.0	1		588.3841678486824	1.233442232814923
139.0	563.3355147439916	rating	1.0		77	dominance	082	2.0	1		589.6176100814973	0.6500737584447052
139.0	563.9855885024363	fix	2.0		60	dominance	082	2.0	1	0.4900000000000002	590.267683839942	0.5167462006174901
140.0	564.5023347030537	face	0.0		147	dominance	064	2.0	1		590.7844300405595	1.2334570237444495
140.0	565.7357917267982	rating	1.0		80	dominance	064	2.0	1		592.017887064304	0.6750888436845344
140.0	566.4108805704827	fix	2.0		60	dominance	064	2.0	1	-0.5899999999999999	592.6929759079885	0.5167501247424298
141.0	566.9276306952252	face	0.0		147	dominance	101	2.0	1		593.2097260327309	1.233444345803946
141.0	568.1610750410291	rating	1.0		90	dominance	101	2.0	1		594.4431703785349	0.7584254722760306
141.0	568.9195005133051	fix	2.0		60	dominance	101	2.0	1	2.08	595.2015958508109	0.5167612934037606
142.0	569.4362618067089	face	0.0		147	dominance	099	2.0	1		595.7183571442147	1.233444949515615
142.0	570.6697067562245	rating	1.0		122	dominance	099	2.0	1		596.9518020937303	1.0251231495867614
142.0	571.6948299058113	fix	2.0		60	dominance	099	2.0	1	0.8499999999999996	597.976925243317	0.5167655193836254
143.0	572.2115954251949	face	0.0		147	dominance	066	2.0	1		598.4936907627007	1.2334407235366598
143.0	573.4450361487316	rating	1.0		71	dominance	066	2.0	1		599.7271314862373	0.6000668308561217
143.0	574.0451029795877	fix	2.0		60	dominance	066	2.0	1	1.1500000000000004	600.3271983170935	0.516745596905821
144.0	574.5618485764935	face	0.0		147	dominance	091	2.0	1		600.8439439139993	1.2334527977645848
144.0	575.7953013742581	rating	1.0		58	dominance	091	2.0	1		602.0773967117639	0.4917353413584351
144.0	576.2870367156165	fix	2.0		60	dominance	091	2.0	1	-1.19	602.5691320531223	0.5167528414431217
145.0	576.8037895570596	face	0.0		147	dominance	027	2.0	1		603.0858848945654	1.233442232814923
145.0	578.0372317898746	rating	1.0		93	dominance	027	2.0	1		604.3193271273803	0.7834293888536195
145.0	578.8206611787282	fix	2.0		60	dominance	027	2.0	1	0.28000000000000025	605.102756516234	0.516757369278821
146.0	579.337418548007	face	0.0		147	dominance	033	2.0	1		605.6195138855128	1.2334458550840282
146.0	580.570864403091	rating	1.0		59	dominance	033	2.0	1		606.8529597405968	0.5000587109370827
146.0	581.0709231140281	fix	2.0		60	dominance	033	2.0	1	1.08	607.3530184515339	0.5167643119602872
147.0	581.5876874259884	face	0.0		147	dominance	117	2.0	1		607.8697827634942	1.2334476662172165
147.0	582.8211350922056	rating	1.0		63	dominance	117	2.0	1		609.1032304297114	0.5333995806022358
147.0	583.3545346728079	fix	2.0		60	dominance	117	2.0	1	0.3099999999999996	609.6366300103136	0.5167546525772195
148.0	583.8712893253851	face	0.0		147	dominance	011	2.0	1		610.1533846628909	1.2334389124016525
148.0	585.1047282377867	rating	1.0		436	dominance	011	2.0	1		611.3868235752925	3.6421005414995307
148.0	588.7468287792863	fix	2.0		60	dominance	011	2.0	1	0.34999999999999964	615.028924116792	0.5167389560801894
149.0	589.2635677353665	face	0.0		147	dominance	141	2.0	1		615.5456630728722	1.2334588348794568
149.0	590.4970265702459	rating	1.0		59	dominance	141	2.0	1		616.7791219077517	0.5000689740309099
149.0	590.9970955442768	fix	2.0		60	dominance	141	2.0	1	-1.88	617.2791908817826	0.5167579729913996
150.0	591.5138535172682	face	0.0		147	dominance	042	2.0	1		617.795948854774	1.233445553227284
150.0	592.7472990704955	rating	1.0		74	dominance	042	2.0	1		619.0293944080013	0.625068030732109
150.0	593.3723671012276	fix	2.0		60	dominance	042	2.0	1	-0.14000000000000012	619.6544624387334	0.5167591804138283
151.0	593.8891262816414	face	0.0		147	dominance	172	2.0	1		620.1712216191472	1.2334401198249907
151.0	595.1225664014664	rating	1.0		131	dominance	172	2.0	1		621.4046617389722	1.1001406345785654
151.0	596.222707036045	fix	2.0		60	dominance	172	2.0	1	0.6200000000000001	622.5048023735508	0.5167392579360239
152.0	596.739446293981	face	0.0		147	dominance	102	2.0	1		623.0215416314868	1.2334600423018856
152.0	597.9729063362829	rating	1.0		60	dominance	102	2.0	1		624.2550016737887	0.508407738252572
152.0	598.4813140745355	fix	2.0		60	dominance	102	2.0	1	-1.4500000000000002	624.7634094120413	0.5167253725730916
153.0	598.9980394471086	face	0.0		147	dominance	034	2.0	1		625.2801347846143	1.233462759003487
153.0	600.231502206112	rating	1.0		337	dominance	034	2.0	1		626.5135975436178	2.8170063096904414
153.0	603.0485085158025	fix	2.0		60	dominance	034	2.0	1	-0.6299999999999999	629.3306038533083	0.5167588785570842
154.0	603.5652673943596	face	0.0		147	dominance	018	2.0	1		629.8473627318654	1.2334238196162914
154.0	604.7986912139759	rating	1.0		64	dominance	018	2.0	1		631.0807865514817	0.5417428726586877
154.0	605.3404340866346	fix	2.0		61	dominance	018	2.0	1	-1.9	631.6225294241403	0.5250882852506038
155.0	605.8655223718852	face	0.0		146	dominance	100	2.0	1		632.1476177093909	1.2251058834399373
155.0	607.0906282553251	rating	1.0		65	dominance	100	2.0	1		633.3727235928309	0.5500825424460345
155.0	607.6407107977711	fix	2.0		61	dominance	100	2.0	1	-0.7400000000000002	633.9228061352769	0.525089492673942
156.0	608.1658002904451	face	0.0		146	dominance	044	2.0	1		634.4478956279509	1.2251089019973733
156.0	609.3909091924425	rating	1.0		372	dominance	044	2.0	1		635.6730045299482	3.108700960897295
156.0	612.4996101533397	fix	2.0		60	dominance	044	2.0	1	0.40000000000000036	638.7817054908455	0.516775480621618
157.0	613.0163856339614	face	0.0		147	dominance	030	2.0	1		639.2984809714671	1.2334283474519907
157.0	614.2498139814134	rating	1.0		42	dominance	030	2.0	1		640.5319093189191	0.3583896721875135
157.0	614.6082036536009	fix	2.0		60	dominance	030	2.0	1	0.7400000000000002	640.8902989911066	0.5167422764934599
158.0	615.1249459300943	face	0.0		147	dominance	092	2.0	1		641.4070412676001	1.233441629103254
158.0	616.3583875591976	rating	1.0		60	dominance	092	2.0	1		642.6404828967034	0.5083953621679029
158.0	616.8667829213655	fix	2.0		60	dominance	092	2.0	1	0.41000000000000014	643.1488782588713	0.5167649156719563
159.0	617.3835478370374	face	0.0		147	dominance	087	2.0	1		643.6656431745432	1.2334374031233892
159.0	618.6169852401608	rating	1.0		48	dominance	087	2.0	1		644.8990805776666	0.408384827403097
159.0	619.0253700675639	fix	2.0		60	dominance	087	2.0	1	1.0599999999999996	645.3074654050697	0.5000547868130525
160.0	619.525424854377	cue	0.0		480						645.8075201918828	4.000469083786811
160.0	623.5258939381638	fix	1.0		120						649.8079892756696	1.016814872793475
160.0	624.5427088109573	face	0.0		147	trustworthiness	006	2.0	1		650.824804148463	1.2334494773513143
160.0	625.7761582883086	rating	1.0		221	trustworthiness	006	2.0	1		652.0582536258144	1.8502200980974521
160.0	627.626378386406	fix	2.0		60	trustworthiness	006	2.0	1	1.5599999999999996	653.9084737239118	0.5167413709259563
161.0	628.143119757332	face	0.0		147	trustworthiness	038	2.0	1		654.4252150948378	1.2334693998291186
161.0	629.3765891571611	rating	1.0		59	trustworthiness	038	2.0	1		655.6586844946669	0.5000870853746164
161.0	629.8766762425357	fix	2.0		60	trustworthiness	038	2.0	1	0.5999999999999996	656.1587715800415	0.5167205428815578
162.0	630.3933967854173	face	0.0		147	trustworthiness	141	2.0	1		656.6754921229231	1.2334464587947878
162.0	631.6268432442121	rating	1.0		61	trustworthiness	141	2.0	1		657.9089385817178	0.5167422764934599
162.0	632.1435855207055	fix	2.0		60	trustworthiness	141	2.0	1	1.12	658.4256808582113	0.5167371449460916
163.0	632.6603226656516	face	0.0		147	trustworthiness	036	2.0	1		658.9424180031574	1.2334600423018856
163.0	633.8937827079535	rating	1.0		57	trustworthiness	036	2.0	1		660.1758780454593	0.4834050290974119
163.0	634.3771877370509	fix	2.0		60	trustworthiness	036	2.0	1	2.8	660.6592830745567	0.5167474080399188
164.0	634.8939351450908	face	0.0		147	trustworthiness	042	2.0	1		661.1760304825966	1.2334464587947878
164.0	636.1273816038856	rating	1.0		211	trustworthiness	042	2.0	1		662.4094769413914	1.766878036102753
164.0	637.8942596399884	fix	2.0		60	trustworthiness	042	2.0	1	0.40000000000000036	664.1763549774942	0.5167202410257232
165.0	638.4109798810141	face	0.0		147	trustworthiness	082	2.0	1		664.6930752185199	1.2334709091082914
165.0	639.6444507901224	rating	1.0		61	trustworthiness	082	2.0	1		665.9265461276282	0.5167407672142872
165.0	640.1611915573367	fix	2.0		60	trustworthiness	082	2.0	1	1.33	666.4432868948425	0.516739861647693
166.0	640.6779314189844	face	0.0		147	trustworthiness	126	2.0	1		666.9600267564902	1.2334494773513143
166.0	641.9113808963357	rating	1.0		55	trustworthiness	126	2.0	1		668.1934762338415	0.46673776375064335
166.0	642.3781186600863	fix	2.0		60	trustworthiness	126	2.0	1	0.2599999999999998	668.6602139975921	0.516760387836257
167.0	642.8948790479226	face	0.0		147	trustworthiness	102	2.0	1		669.1769743854284	1.2334374031233892
167.0	644.128316451046	rating	1.0		65	trustworthiness	102	2.0	1		670.4104117885518	0.5500707700730345
167.0	644.678387221119	fix	2.0		60	trustworthiness	102	2.0	1	2.13	670.9604825586248	0.5167374468019261
168.0	645.1951246679209	face	0.0		147	trustworthiness	005	2.0	1		671.4772200054267	1.2334530996204194
168.0	646.4285777675414	rating	1.0		67	trustworthiness	005	2.0	1		672.7106731050471	0.5667383372756376
168.0	646.995316104817	fix	2.0		60	trustworthiness	005	2.0	1	-0.7400000000000002	673.2774114423228	0.5167425783492945
169.0	647.5120586831663	face	0.0		147	trustworthiness	039	2.0	1		673.7941540206721	1.2334669849833517
169.0	648.7455256681496	rating	1.0		119	trustworthiness	039	2.0	1		675.0276210056554	1.0000908585716388
169.0	649.7456165267213	fix	2.0		60	trustworthiness	039	2.0	1	2.2800000000000002	676.0277118642271	0.5167830270147533
170.0	650.262399553736	face	0.0		147	trustworthiness	130	2.0	1		676.5444948912418	1.2334579293119532
170.0	651.495857483048	rating	1.0		294	trustworthiness	130	2.0	1		677.7779528205538	2.458601846572492
170.0	653.9544593296205	fix	2.0		60	trustworthiness	130	2.0	1	1.38	680.2365546671263	0.5167564637122268
171.0	654.4712157933327	face	0.0		147	trustworthiness	124	2.0	1		680.7533111308385	1.2334346864217878
171.0	655.7046504797545	rating	1.0		82	trustworthiness	124	2.0	1		681.9867458172603	0.6917491663498367
171.0	656.3963996461043	fix	2.0		60	trustworthiness	124	2.0	1	1.0300000000000002	682.6784949836101	0.5167462006174901
172.0	656.9131458467218	face	0.0		147	trustworthiness	033	2.0	1		683.1952411842276	1.2334781536446826
172.0	658.1466240003665	rating	1.0		67	trustworthiness	033	2.0	1		684.4287193378723	0.5667392428431413
172.0	658.7133632432096	fix	2.0		61	trustworthiness	033	2.0	1	-0.75	684.9954585807154	0.5250801351476184
173.0	659.2384433783573	face	0.0		146	trustworthiness	092	2.0	1		685.520538715863	1.225098638901727
173.0	660.463542017259	rating	1.0		64	trustworthiness	092	2.0	1		686.7456373547648	0.5417703415287178
173.0	661.0053123587877	fix	2.0		60	trustworthiness	092	2.0	1	-1.15	687.2874076962935	0.5167253725730916
174.0	661.5220377313608	face	0.0		147	trustworthiness	030	2.0	1		687.8041330688666	1.2334518921979907
174.0	662.7554896235588	rating	1.0		281	trustworthiness	030	2.0	1		689.0375849610646	2.3502785071787002
174.0	665.1057681307375	fix	2.0		60	trustworthiness	030	2.0	1	0.9699999999999998	691.3878634682433	0.5167546525772195
175.0	665.6225227833147	face	0.0		147	trustworthiness	034	2.0	1		691.9046181208205	1.2334518921979907
175.0	666.8559746755127	rating	1.0		76	trustworthiness	034	2.0	1		693.1380700130185	0.6417618593823136
175.0	667.497736534895	fix	2.0		60	trustworthiness	034	2.0	1	0.2400000000000002	693.7798318724008	0.5167392579360239
176.0	668.014475792831	face	0.0		147	trustworthiness	027	2.0	1		694.2965711303368	1.2334579293119532
176.0	669.247933722143	rating	1.0		70	trustworthiness	027	2.0	1		695.5300290596488	0.591721727665572
176.0	669.8396554498086	fix	2.0		60	trustworthiness	027	2.0	1	0.7999999999999998	696.1217507873143	0.5167567655680614
177.0	670.3564122153766	face	0.0		147	trustworthiness	144	2.0	1		696.6385075528824	1.2334470625055474
177.0	671.5898592778822	rating	1.0		71	trustworthiness	144	2.0	1		697.871954615388	0.600080716219054
177.0	672.1899399941012	fix	2.0		61	trustworthiness	144	2.0	1	2.2199999999999998	698.472035331607	0.525089492673942
178.0	672.7150294867752	face	0.0		146	trustworthiness	012	2.0	1		698.997124824281	1.2251058834399373
178.0	673.9401353702151	rating	1.0		54	trustworthiness	012	2.0	1		700.2222307077209	0.4583893401468231
178.0	674.3985247103619	fix	2.0		60	trustworthiness	012	2.0	1	-0.5	700.6806200478677	0.5167634063927835
179.0	674.9152881167547	face	0.0		147	trustworthiness	044	2.0	1		701.1973834542605	1.2334374031233892
179.0	676.1487255198781	rating	1.0		116	trustworthiness	044	2.0	1		702.4308208573839	0.9751415778782757
179.0	677.1238670977564	fix	2.0		60	trustworthiness	044	2.0	1	0.5300000000000002	703.4059624352622	0.5167407672151967
180.0	677.6406078649716	face	0.0		147	trustworthiness	061	2.0	1		703.9227032024774	1.2334371012666452
180.0	678.8740449662382	rating	1.0		59	trustworthiness	061	2.0	1		705.156140303744	0.5000891983654583
180.0	679.3741341646037	fix	2.0		60	trustworthiness	061	2.0	1	-0.6699999999999999	705.6562295021095	0.5167262781396857
181.0	679.8908604427434	face	0.0		147	trustworthiness	064	2.0	1		706.1729557802491	1.2334497792080583
181.0	681.1243102219514	rating	1.0		56	trustworthiness	064	2.0	1		707.4064055594572	0.475055699926088
181.0	681.5993659218775	fix	2.0		60	trustworthiness	064	2.0	1	1.1900000000000004	707.8814612593833	0.5167458987616556
182.0	682.1161118206392	face	0.0		147	trustworthiness	043	2.0	1		708.3982071581449	1.2334591367352914
182.0	683.3495709573745	rating	1.0		123	trustworthiness	043	2.0	1		709.6316662948802	1.0334534618468751
182.0	684.3830244192213	fix	2.0		60	trustworthiness	043	2.0	1	-0.16999999999999993	710.6651197567271	0.5167570674238959
183.0	684.8997814866452	face	0.0		147	trustworthiness	011	2.0	1		711.181876824151	1.2334600423018856
183.0	686.1332415289471	rating	1.0		97	trustworthiness	011	2.0	1		712.4153368664529	0.8167618065581337
183.0	686.9500033355052	fix	2.0		60	trustworthiness	011	2.0	1	0.21999999999999975	713.232098673011	0.5167528414431217
184.0	687.4667561769484	face	0.0		147	trustworthiness	117	2.0	1		713.7488515144541	1.2334449495165245
184.0	688.7002011264649	rating	1.0		66	trustworthiness	117	2.0	1		714.9822964639707	0.5584037990356592
184.0	689.2586049255005	fix	2.0		60	trustworthiness	117	2.0	1	-0.5099999999999998	715.5407002630063	0.5167377486568512
185.0	689.7753426741574	face	0.0		147	trustworthiness	070	2.0	1		716.0574380116632	1.2334561181778554
185.0	691.0087987923353	rating	1.0		100	trustworthiness	070	2.0	1		717.290894129841	0.8417675342707298
185.0	691.850566326606	fix	2.0		60	trustworthiness	070	2.0	1	-1.69	718.1326616641118	0.516754350721385
186.0	692.3673206773274	face	0.0		147	trustworthiness	062	2.0	1		718.6494160148332	1.233476946222254
186.0	693.6007976235496	rating	1.0		55	trustworthiness	062	2.0	1		719.8828929610554	0.4667024466316434
186.0	694.0675000701813	fix	2.0		60	trustworthiness	062	2.0	1	-0.6099999999999999	720.349595407687	0.5167588785579937
187.0	694.5842589487393	face	0.0		147	trustworthiness	018	2.0	1		720.866354286245	1.233450382918818
187.0	695.8177093316581	rating	1.0		59	trustworthiness	018	2.0	1		722.0998046691639	0.500057805369579
187.0	696.3177671370277	fix	2.0		60	trustworthiness	018	2.0	1	2.33	722.5998624745334	0.5167377486577607
188.0	696.8345048856854	face	0.0		147	trustworthiness	024	2.0	1		723.1166002231912	1.2334654757050885
188.0	698.0679703613905	rating	1.0		71	trustworthiness	024	2.0	1		724.3500656988963	0.6000683401343849
188.0	698.6680387015249	fix	2.0		60	trustworthiness	024	2.0	1	2.3099999999999996	724.9501340390307	0.5167694435076555
189.0	699.1848081450325	face	0.0		147	trustworthiness	121	2.0	1		725.4669034825383	1.233424121472126
189.0	700.4182322665047	rating	1.0		124	trustworthiness	121	2.0	1		726.7003276040105	1.0418097336996652
189.0	701.4600420002043	fix	2.0		60	trustworthiness	121	2.0	1	-0.2400000000000002	727.7421373377101	0.5167480117515879
190.0	701.9767900119559	face	0.0		147	trustworthiness	136	2.0	1		728.2588853494617	1.2334537033320885
190.0	703.210243715288	rating	1.0		55	trustworthiness	136	2.0	1		729.4923390527938	0.46670757817810227
190.0	703.6769512934661	fix	2.0		60	trustworthiness	136	2.0	1	0.33999999999999986	729.9590466309719	0.5167649156728658
191.0	704.193716209139	face	0.0		147	trustworthiness	087	2.0	1		730.4758115466448	1.233441629103254
191.0	705.4271578382422	rating	1.0		61	trustworthiness	087	2.0	1		731.709253175748	0.5167323152545578
191.0	705.9438901534968	fix	2.0		60	trustworthiness	087	2.0	1	0.9699999999999998	732.2259854910026	0.5167416727808813
192.0	706.4606318262777	face	0.0		147	trustworthiness	066	2.0	1		732.7427271637835	1.2334591367352914
192.0	707.694090963013	rating	1.0		45	trustworthiness	066	2.0	1		733.9761863005187	0.3833845330946133
192.0	708.0774754961076	fix	2.0		60	trustworthiness	066	2.0	1	0.5300000000000002	734.3595708336134	0.5167576711346555
193.0	708.5942331672422	face	0.0		147	trustworthiness	137	2.0	1		734.876328504748	1.2334398179682466
193.0	709.8276729852105	rating	1.0		41	trustworthiness	137	2.0	1		736.1097683227163	0.35004366343036963
193.0	710.1777166486409	fix	2.0		60	trustworthiness	137	2.0	1	0.0	736.4598119861466	0.5167510303090239
194.0	710.6944676789499	face	0.0		147	trustworthiness	100	2.0	1		736.9765630164557	1.2334540051870135
194.0	711.9279216841369	rating	1.0		64	trustworthiness	100	2.0	1		738.2100170216427	0.5417413633804244
194.0	712.4696630475173	fix	2.0		60	trustworthiness	100	2.0	1	0.3899999999999997	738.7517583850231	0.5167462006174901
195.0	712.9864092481348	face	0.0		147	trustworthiness	172	2.0	1		739.2685045856406	1.2334500810629834
195.0	714.2198593291978	rating	1.0		208	trustworthiness	172	2.0	1		740.5019546667036	1.7418753269475928
195.0	715.9617346561454	fix	2.0		60	trustworthiness	172	2.0	1	0.7800000000000002	742.2438299936512	0.5167549544330541
196.0	716.4784896105784	face	0.0		147	trustworthiness	101	2.0	1		742.7605849480842	1.2334355919892914
196.0	717.7119252025677	rating	1.0		78	trustworthiness	101	2.0	1		743.9940205400735	0.6584191634910894
196.0	718.3703443660588	fix	2.0		60	trustworthiness	101	2.0	1	-0.41999999999999993	744.6524397035646	0.5167489173190916
197.0	718.8870932833779	face	0.0		147	trustworthiness	009	2.0	1		745.1691886208837	1.2334518921979907
197.0	720.1205451755759	rating	1.0		69	trustworthiness	009	2.0	1		746.4026405130817	0.583407715613248
197.0	720.7039528911891	fix	2.0		60	trustworthiness	009	2.0	1	1.5999999999999996	746.9860482286949	0.5167582748463246
198.0	721.2207111660355	face	0.0		147	trustworthiness	091	2.0	1		747.5028065035413	1.2334401198240812
198.0	722.4541512858596	rating	1.0		78	trustworthiness	091	2.0	1		748.7362466233653	0.6584252006059614
198.0	723.1125764864655	fix	2.0		60	trustworthiness	091	2.0	1	2.42	749.3946718239713	0.5167474080408283
199.0	723.6293238945063	face	0.0		147	trustworthiness	099	2.0	1		749.9114192320121	1.2334422328140136
199.0	724.8627661273204	rating	1.0		56	trustworthiness	099	2.0	1		751.1448614648261	0.47506385003089235
199.0	725.3378299773512	fix	2.0		60	trustworthiness	099	2.0	1	0.9900000000000002	751.619925314857	0.500039694026782
200.0	725.837869671378	cue	0.0		480						752.1199650088838	4.000498061936014
200.0	729.838367733314	fix	1.0		120						756.1204630708198	1.0168009874305426
200.0	730.8551687207446	face	0.0		147	attractiveness	141	2.0	1		757.1372640582504	1.2334518921970812
200.0	732.0886206129417	rating	1.0		68	attractiveness	141	2.0	1		758.3707159504474	0.5750671402583976
200.0	732.6636877532001	fix	2.0		60	attractiveness	141	2.0	1	-0.8300000000000001	758.9457830907058	0.516748615463257
201.0	733.1804363686633	face	0.0		147	attractiveness	006	2.0	1		759.4625317061691	1.2334449495165245
201.0	734.4138813181798	rating	1.0		157	attractiveness	006	2.0	1		760.6959766556856	1.3168289694549458
201.0	735.7307102876348	fix	2.0		60	attractiveness	006	2.0	1	-1.5899999999999999	762.0128056251406	0.5167582748463246
202.0	736.2474685624811	face	0.0		147	attractiveness	011	2.0	1		762.5295638999869	1.2334461569389532
202.0	737.4809147194201	rating	1.0		362	attractiveness	011	2.0	1		763.7630100569259	3.0253516543662045
202.0	740.5062663737863	fix	2.0		60	attractiveness	011	2.0	1	0.009999999999999787	766.788361711292	0.5167664249502195
203.0	741.0230327987365	face	0.0		147	attractiveness	124	2.0	1		767.3051281362423	1.2334512884863216
203.0	742.2564840872228	rating	1.0		71	attractiveness	124	2.0	1		768.5385794247286	0.6000620011645879
203.0	742.8565460883874	fix	2.0		60	attractiveness	124	2.0	1	2.83	769.1386414258932	0.5167483136074225
204.0	743.3732944019948	face	0.0		147	attractiveness	043	2.0	1		769.6553897395006	1.2334537033320885
204.0	744.6067481053269	rating	1.0		66	attractiveness	043	2.0	1		770.8888434428327	0.5583932340850879
204.0	745.165141339412	fix	2.0		60	attractiveness	043	2.0	1	0.7999999999999998	771.4472366769178	0.516763406393693
205.0	745.6819047458057	face	0.0		147	attractiveness	018	2.0	1		771.9640000833115	1.2334805684904495
205.0	746.9153853142961	rating	1.0		460	attractiveness	018	2.0	1		773.1974806518019	3.8420875013325713
205.0	750.7574728156287	fix	2.0		60	attractiveness	018	2.0	1	-0.3500000000000001	777.0395681531345	0.5167591804129188
206.0	751.2742319960416	face	0.0		147	attractiveness	172	2.0	1		777.5563273335474	1.233439214257487
206.0	752.5076712102991	rating	1.0		57	attractiveness	172	2.0	1		778.7897665478049	0.483390841878645
206.0	752.9910620521778	fix	2.0		60	attractiveness	172	2.0	1	-0.6299999999999999	779.2731573896835	0.516763406393693
207.0	753.5078254585715	face	0.0		147	attractiveness	082	2.0	1		779.7899207960772	1.2334500810629834
207.0	754.7412755396344	rating	1.0		63	attractiveness	082	2.0	1		781.0233708771402	0.5333902230750027
207.0	755.2746657627094	fix	2.0		60	attractiveness	082	2.0	1	1.38	781.5567611002152	0.5167537470097159
208.0	755.7914195097192	face	0.0		147	attractiveness	130	2.0	1		782.0735148472249	1.2334428365265921
208.0	757.0248623462458	rating	1.0		61	attractiveness	130	2.0	1		783.3069576837515	0.5167392579360239
208.0	757.5416016041818	fix	2.0		60	attractiveness	130	2.0	1	-1.4500000000000002	783.8236969416876	0.5167416727817908
209.0	758.0583432769636	face	0.0		147	attractiveness	024	2.0	1		784.3404386144693	1.2334549107545172
209.0	759.2917981877181	rating	1.0		74	attractiveness	024	2.0	1		785.5738935252239	0.6250773882602516
209.0	759.9168755759783	fix	2.0		60	attractiveness	024	2.0	1	-1.94	786.1989709134841	0.5167712546417533
210.0	760.4336468306201	face	0.0		147	attractiveness	099	2.0	1		786.7157421681259	1.2334349882776223
210.0	761.6670818188977	rating	1.0		75	attractiveness	099	2.0	1		787.9491771564035	0.6334152469135006
210.0	762.3004970658112	fix	2.0		60	attractiveness	099	2.0	1	0.8200000000000003	788.582592403317	0.516760387836257
211.0	762.8172574536475	face	0.0		147	attractiveness	126	2.0	1		789.0993527911533	1.2334440439490209
211.0	764.0507014975965	rating	1.0		102	attractiveness	126	2.0	1		790.3327968351023	0.8584206123987315
211.0	764.9091221099952	fix	2.0		60	attractiveness	126	2.0	1	0.7199999999999998	791.191217447501	0.5167797066023923
212.0	765.4259018165976	face	0.0		147	attractiveness	064	2.0	1		791.7079971541034	1.2334340827101187
212.0	766.6593358993077	rating	1.0		63	attractiveness	064	2.0	1		792.9414312368135	0.5333935434873638
212.0	767.1927294427951	fix	2.0		60	attractiveness	064	2.0	1	1.4400000000000004	793.4748247803009	0.5167944975328282
213.0	767.7095239403279	face	0.0		147	attractiveness	066	2.0	1		793.9916192778337	1.2334072175508481
213.0	768.9429311578788	rating	1.0		76	attractiveness	066	2.0	1		795.2250264953846	0.6417531055676591
213.0	769.5846842634464	fix	2.0		60	attractiveness	066	2.0	1	1.33	795.8667796009522	0.5167332208211519
214.0	770.1014174842676	face	0.0		147	attractiveness	137	2.0	1		796.3835128217734	1.2334690979741936
214.0	771.3348865822418	rating	1.0		61	attractiveness	137	2.0	1		797.6169819197476	0.5167205428806483
214.0	771.8516071251224	fix	2.0		60	attractiveness	137	2.0	1	0.7800000000000002	798.1337024626282	0.5167504265982643
215.0	772.3683575517207	face	0.0		147	attractiveness	121	2.0	1		798.6504528892265	1.2334540051870135
215.0	773.6018115569077	rating	1.0		49	attractiveness	121	2.0	1		799.8839068944135	0.41671725265496207
215.0	774.0185288095627	fix	2.0		60	attractiveness	121	2.0	1	0.0	800.3006241470684	0.5167492191740166
216.0	774.5352780287367	face	0.0		147	attractiveness	117	2.0	1		800.8173733662425	1.2334521940538252
216.0	775.7687302227905	rating	1.0		63	attractiveness	117	2.0	1		802.0508255602963	0.5333932416315292
216.0	776.302123464422	fix	2.0		60	attractiveness	117	2.0	1	0.5	802.5842188019278	0.5167483136074225
217.0	776.8188717780295	face	0.0		147	attractiveness	070	2.0	1		803.1009671155352	1.2334582311677877
217.0	778.0523300091972	rating	1.0		73	attractiveness	070	2.0	1		804.334425346703	0.6167914487896269
217.0	778.6691214579869	fix	2.0		60	attractiveness	070	2.0	1	-2.15	804.9512167954927	0.5167075630861291
218.0	779.185829021073	face	0.0		147	attractiveness	136	2.0	1		805.4679243585788	1.2334416291023445
218.0	780.4192706501753	rating	1.0		72	attractiveness	136	2.0	1		806.7013659876811	0.6084061987885434
218.0	781.0276768489639	fix	2.0		60	attractiveness	136	2.0	1	-1.29	807.3097721864697	0.5167540488664599
219.0	781.5444308978304	face	0.0		147	attractiveness	033	2.0	1		807.8265262353361	1.2334476662172165
219.0	782.7778785640476	rating	1.0		89	attractiveness	033	2.0	1		809.0599739015533	0.7500855006328493
219.0	783.5279640646804	fix	2.0		60	attractiveness	033	2.0	1	-0.6000000000000001	809.8100594021862	0.5167733676316857
220.0	784.0447374323121	face	0.0		147	attractiveness	091	2.0	1		810.3268327698179	1.233439214257487
220.0	785.2781766465696	rating	1.0		101	attractiveness	091	2.0	1		811.5602719840754	0.8501521805610537
220.0	786.1283288271306	fix	2.0		60	attractiveness	091	2.0	1	2.0300000000000002	812.4104241646364	0.516713298344257
221.0	786.6450421254749	face	0.0		147	attractiveness	036	2.0	1		812.9271374629807	1.233435591988382
221.0	787.8784777174633	rating	1.0		80	attractiveness	036	2.0	1		814.1605730549691	0.6750855232712638
221.0	788.5535632407345	fix	2.0		60	attractiveness	036	2.0	1	3.2300000000000004	814.8356585782403	0.5167507284531894
222.0	789.0703139691877	face	0.0		147	attractiveness	027	2.0	1		815.3524093066935	1.2334606460135547
222.0	790.3037746152013	rating	1.0		84	attractiveness	027	2.0	1		816.5858699527071	0.7084173372650184
222.0	791.0121919524663	fix	2.0		60	attractiveness	027	2.0	1	0.54	817.2942872899721	0.5167422764925504
223.0	791.5289342289589	face	0.0		147	attractiveness	101	2.0	1		817.8110295664646	1.2334500810638929
223.0	792.7623843100228	rating	1.0		91	attractiveness	101	2.0	1		819.0444796475285	0.7667669531974752
223.0	793.5291512632202	fix	2.0		60	attractiveness	101	2.0	1	-0.9199999999999999	819.811246600726	0.5167380505135952
224.0	794.0458893137338	face	0.0		147	attractiveness	005	2.0	1		820.3279846512396	1.2334558163220208
224.0	795.2793451300558	rating	1.0		78	attractiveness	005	2.0	1		821.5614404675616	0.6584291247299916
224.0	795.9377742547858	fix	2.0		60	attractiveness	005	2.0	1	-3.09	822.2198695922916	0.5167377486577607
225.0	796.4545120034436	face	0.0		147	attractiveness	042	2.0	1		822.7366073409494	1.2334434402373518
225.0	797.687955443681	rating	1.0		94	attractiveness	042	2.0	1		823.9700507811867	0.7917726809100714
225.0	798.479728124591	fix	2.0		60	attractiveness	042	2.0	1	1.0300000000000002	824.7618234620968	0.5167643119611967
226.0	798.9964924365522	face	0.0		147	attractiveness	087	2.0	1		825.278587774058	1.2334829833362164
226.0	800.2299754198884	rating	1.0		51	attractiveness	087	2.0	1		826.5120707573942	0.43334074892209173
226.0	800.6633161688105	fix	2.0		60	attractiveness	087	2.0	1	0.4299999999999997	826.9454115063163	0.516742880205129
227.0	801.1800590490157	face	0.0		147	attractiveness	092	2.0	1		827.4621543865214	1.2334552126103517
227.0	802.413514261626	rating	1.0		62	attractiveness	092	2.0	1		828.6956095991318	0.5250867759723405
227.0	802.9386010375983	fix	2.0		60	attractiveness	092	2.0	1	-1.4300000000000002	829.2206963751041	0.516728089274693
228.0	803.455329126873	face	0.0		147	attractiveness	034	2.0	1		829.7374244643788	1.2334570237444495
228.0	804.6887861506175	rating	1.0		80	attractiveness	034	2.0	1		830.9708814881233	0.6750846177046697
228.0	805.3638707683222	fix	2.0		60	attractiveness	034	2.0	1	-0.7599999999999998	831.6459661058279	0.5167531432989563
229.0	805.8806239116211	face	0.0		147	attractiveness	009	2.0	1		832.1627192491269	1.2334443458048554
229.0	807.114068257426	rating	1.0		95	attractiveness	009	2.0	1		833.3961635949317	0.8000975597678917
229.0	807.9141658171939	fix	2.0		60	attractiveness	009	2.0	1	2.05	834.1962611546996	0.5167733676325952
230.0	808.4309391848265	face	0.0		147	attractiveness	100	2.0	1		834.7130345223322	1.2334229140487878
230.0	809.6643620988752	rating	1.0		39	attractiveness	100	2.0	1		835.946457436381	0.3333836426190828
230.0	809.9977457414943	fix	2.0		60	attractiveness	100	2.0	1	0.0	836.2798410790001	0.5167597841254974
231.0	810.5145055256198	face	0.0		147	attractiveness	062	2.0	1		836.7966008631256	1.2334334789984496
231.0	811.7479390046183	rating	1.0		56	attractiveness	062	2.0	1		838.030034342124	0.47507743353799015
231.0	812.2230164381563	fix	2.0		59	attractiveness	062	2.0	1	-0.41999999999999993	838.505111775662	0.5167495210307607
232.0	812.739765959187	face	0.0		147	attractiveness	038	2.0	1		839.0218612966928	1.233430460441923
232.0	813.973196419629	rating	1.0		79	attractiveness	038	2.0	1		840.2552917571347	0.666760342557609
232.0	814.6399567621866	fix	2.0		60	attractiveness	038	2.0	1	-0.33000000000000007	840.9220520996923	0.5167434839158886
233.0	815.1567002461024	face	0.0		147	attractiveness	039	2.0	1		841.4387955836082	1.2334530996204194
233.0	816.3901533457229	rating	1.0		51	attractiveness	039	2.0	1		842.6722486832286	0.4333899514049335
233.0	816.8235432971278	fix	2.0		60	attractiveness	039	2.0	1	1.0300000000000002	843.1056386346336	0.516754350721385
234.0	817.3402976478492	face	0.0		147	attractiveness	030	2.0	1		843.622392985355	1.2334443458048554
234.0	818.573741993654	rating	1.0		70	attractiveness	030	2.0	1		844.8558373311598	0.5917404427200381
234.0	819.1654824363741	fix	2.0		60	attractiveness	030	2.0	1	1.2599999999999998	845.4475777738799	0.5167534451547908
235.0	819.6822358815289	face	0.0		147	attractiveness	061	2.0	1		845.9643312190346	1.2334458550831187
235.0	820.915681736612	rating	1.0		54	attractiveness	061	2.0	1		847.1977770741178	0.4583959809724547
235.0	821.3740777175844	fix	2.0		60	attractiveness	061	2.0	1	-0.25	847.6561730550902	0.516739559790949
236.0	821.8908172773754	face	0.0		147	attractiveness	044	2.0	1		848.1729126148812	1.2334588348794568
236.0	823.1242761122548	rating	1.0		53	attractiveness	044	2.0	1		849.4063714497606	0.45006898912470206
236.0	823.5743451013795	fix	2.0		60	attractiveness	044	2.0	1	0.9400000000000004	849.8564404388853	0.5167419746376254
237.0	824.0910870760172	face	0.0		147	attractiveness	012	2.0	1		850.373182413523	1.2334482699288856
237.0	825.3245353459461	rating	1.0		145	attractiveness	012	2.0	1		851.6066306834518	1.216804549328117
237.0	826.5413398952742	fix	2.0		60	attractiveness	012	2.0	1	0.0	852.82343523278	0.5167534451547908
238.0	827.058093340429	face	0.0		147	attractiveness	102	2.0	1		853.3401886779347	1.2334506847746525
238.0	828.2915440252036	rating	1.0		137	attractiveness	102	2.0	1		854.5736393627094	1.150136091650893
238.0	829.4416801168545	fix	2.0		60	attractiveness	102	2.0	1	0.41000000000000014	855.7237754543603	0.5167483136074225
239.0	829.9584284304619	face	0.0		147	attractiveness	144	2.0	1		856.2405237679677	1.2335001891124193
239.0	831.1919286195744	rating	1.0		65	attractiveness	144	2.0	1		857.4740239570801	0.550026397282636
239.0	831.741955016857	fix	2.0		60	attractiveness	144	2.0	1	1.7800000000000002	858.0240503543628	0.5000463348524136
