trial_nr	onset	event_type	phase	response	nr_frames	face_age	face_sex	face_eth	attractiveness	expression	face_id	sub_id	ses	run	trial_type	catch	onset_abs	duration
-1.0	0.056081415565131465	fix	0.0		714												95.40361317041243	5.966234514984535
-1.0	2.005906643162234	pulse	0.0	t													97.35343839800953	
-1.0	4.005832085676957	pulse	0.0	t													99.35336384052425	
0.0	6.0223159305496665	face	0.0		145	31.0	female	west_asian	2.364902506963788	neutral	006	sub-01	1.0	4.0	006_neutral	0.0	101.36984768539696	1.2333172345506682
0.0	6.012637644586903	pulse	0.0	t		31.0	female	west_asian	2.364902506963788	neutral	006	sub-01	1.0	4.0	006_neutral	0.0	101.3601693994342	
0.0	7.255633165100335	fix	1.0		447	31.0	female	west_asian	2.364902506963788	neutral	006	sub-01	1.0	4.0	006_neutral	0.0	102.60316491994763	3.7581983047984977
0.0	8.005726739272177	pulse	1.0	t		31.0	female	west_asian	2.364902506963788	neutral	006	sub-01	1.0	4.0	006_neutral	0.0	103.35325849411947	
0.0	10.005666066987033	pulse	1.0	t		31.0	female	west_asian	2.364902506963788	neutral	006	sub-01	1.0	4.0	006_neutral	0.0	105.35319782183433	
1.0	11.013831469898832	face	0.0		147	21.0	female	white	4.060485475527258	neutral	134	sub-01	1.0	4.0	134_neutral	0.0	106.36136322474613	1.2416555987538231
1.0	12.005604790997495	pulse	0.0	t		21.0	female	white	4.060485475527258	neutral	134	sub-01	1.0	4.0	134_neutral	0.0	107.35313654584479	
1.0	12.255487068652656	fix	1.0		448	21.0	female	white	4.060485475527258	neutral	134	sub-01	1.0	4.0	134_neutral	0.0	107.60301882349995	3.7665264060278787
1.0	14.005547439085603	pulse	1.0	t		21.0	female	white	4.060485475527258	neutral	134	sub-01	1.0	4.0	134_neutral	0.0	109.3530791939329	
2.0	16.022013474680534	face	0.0		147	27.0	male	black	3.5523278949462798	smiling	042	sub-01	1.0	4.0	042_smiling	0.0	111.36954522952783	1.2333226678902065
2.0	16.00820886962356	pulse	0.0	t		27.0	male	black	3.5523278949462798	smiling	042	sub-01	1.0	4.0	042_smiling	0.0	111.35574062447085	
2.0	17.25533614257074	fix	1.0		447	27.0	male	black	3.5523278949462798	smiling	042	sub-01	1.0	4.0	042_smiling	0.0	112.60286789741804	3.7582082659191656
2.0	18.005425188958725	pulse	1.0	t		27.0	male	black	3.5523278949462798	smiling	042	sub-01	1.0	4.0	042_smiling	0.0	113.35295694380602	
2.0	20.00536632778676	pulse	1.0	t		27.0	male	black	3.5523278949462798	smiling	042	sub-01	1.0	4.0	042_smiling	0.0	115.35289808263406	
3.0	21.013544408489906	face	0.0		147	23.0	male	east_asian	2.9733386390768017	smiling	045	sub-01	1.0	4.0	045_smiling	0.0	116.3610761633372	1.2416332616940053
3.0	22.00528573325846	pulse	0.0	t		23.0	male	east_asian	2.9733386390768017	smiling	045	sub-01	1.0	4.0	045_smiling	0.0	117.35281748810576	
3.0	22.25517767018391	fix	1.0		448	23.0	male	east_asian	2.9733386390768017	smiling	045	sub-01	1.0	4.0	045_smiling	0.0	117.60270942503121	3.766533650479687
3.0	24.005246492477454	pulse	1.0	t		23.0	male	east_asian	2.9733386390768017	smiling	045	sub-01	1.0	4.0	045_smiling	0.0	119.35277824732475	
4.0	26.0217113206636	face	0.0		147	34.0	male	white	2.329486669319538	neutral	131	sub-01	1.0	4.0	131_neutral	0.0	121.3692430755109	1.2333287049332284
4.0	26.007803180314113	pulse	0.0	t		34.0	male	white	2.329486669319538	neutral	131	sub-01	1.0	4.0	131_neutral	0.0	121.35533493516141	
4.0	27.255040025596827	fix	1.0		447	34.0	male	white	2.329486669319538	neutral	131	sub-01	1.0	4.0	131_neutral	0.0	122.60257178044412	3.766507087489117
4.0	28.005127562724738	pulse	1.0	t		34.0	male	white	2.329486669319538	neutral	131	sub-01	1.0	4.0	131_neutral	0.0	123.35265931757203	
4.0	30.005070210812846	pulse	1.0	t		34.0	male	white	2.329486669319538	neutral	131	sub-01	1.0	4.0	131_neutral	0.0	125.35260196566014	
5.0	31.021547113085944	face	0.0		146	29.0	male	white	1.883406287306009	smiling	143	sub-01	1.0	4.0	143_smiling	1.0	126.36907886793324	1.2333332327152675
5.0	32.00501074593649	pulse	0.0	t		29.0	male	white	1.883406287306009	smiling	143	sub-01	1.0	4.0	143_smiling	1.0	127.35254250078378	
5.0	32.25488034580121	fix	1.0		239	29.0	male	white	1.883406287306009	smiling	143	sub-01	1.0	4.0	143_smiling	1.0	127.60241210064851	2.0083027456475975
5.0	34.00495550699088	pulse	1.0	t		29.0	male	white	1.883406287306009	smiling	143	sub-01	1.0	4.0	143_smiling	1.0	129.35248726183818	
5.0	34.26318309144881	rating	2.0		236	29.0	male	white	1.883406287306009	smiling	143	sub-01	1.0	4.0	143_smiling	1.0	129.6107148462961	1.9915885875734602
5.0	34.871598729805555	response	2.0	b		29.0	male	white	1.883406287306009	smiling	143	sub-01	1.0	4.0	143_smiling	1.0	130.21913048465285	
5.0	36.00489392914915	pulse	2.0	t		29.0	male	white	1.883406287306009	smiling	143	sub-01	1.0	4.0	143_smiling	1.0	131.35242568399644	
5.0	36.25477167902227	fix	3.0		448	29.0	male	white	1.883406287306009	smiling	143	sub-01	1.0	4.0	143_smiling	1.0	131.60230343386957	3.766535461591957
5.0	38.004836577237256	pulse	3.0	t		29.0	male	white	1.883406287306009	smiling	143	sub-01	1.0	4.0	143_smiling	1.0	133.35236833208455	
6.0	40.021307140614226	face	0.0		147	23.0	male	black	2.7584560286510147	neutral	096	sub-01	1.0	4.0	096_neutral	1.0	135.36883889546152	1.2333133104730223
6.0	40.00797040641373	pulse	0.0	t		23.0	male	black	2.7584560286510147	neutral	096	sub-01	1.0	4.0	096_neutral	1.0	135.35550216126103	
6.0	41.25462045108725	fix	1.0		238	23.0	male	black	2.7584560286510147	neutral	096	sub-01	1.0	4.0	096_neutral	1.0	136.60215220593454	1.999920009176094
6.0	42.00471251599811	pulse	1.0	t		23.0	male	black	2.7584560286510147	neutral	096	sub-01	1.0	4.0	096_neutral	1.0	137.3522442708454	
6.0	43.25454046026334	rating	2.0		238	23.0	male	black	2.7584560286510147	neutral	096	sub-01	1.0	4.0	096_neutral	1.0	138.60207221511064	1.9999655888532288
6.0	44.004656371495	pulse	2.0	t		23.0	male	black	2.7584560286510147	neutral	096	sub-01	1.0	4.0	096_neutral	1.0	139.3521881263423	
6.0	45.25450604911657	fix	3.0		447	23.0	male	black	2.7584560286510147	neutral	096	sub-01	1.0	4.0	096_neutral	1.0	140.60203780396387	3.766540291227102
6.0	46.00459449180107	pulse	3.0	t		23.0	male	black	2.7584560286510147	neutral	096	sub-01	1.0	4.0	096_neutral	1.0	141.35212624664837	
6.0	48.004540158412055	pulse	3.0	t		23.0	male	black	2.7584560286510147	neutral	096	sub-01	1.0	4.0	096_neutral	1.0	143.35207191325935	
7.0	49.02104634034367	face	0.0		146	28.0	male	east_asian	1.5563072025467568	smiling	005	sub-01	1.0	4.0	005_smiling	0.0	144.36857809519097	1.2333124049164326
7.0	50.00447767501373	pulse	0.0	t		28.0	male	east_asian	1.5563072025467568	smiling	005	sub-01	1.0	4.0	005_smiling	0.0	145.35200942986103	
7.0	50.254358745260106	fix	1.0		448	28.0	male	east_asian	1.5563072025467568	smiling	005	sub-01	1.0	4.0	005_smiling	0.0	145.6018905001074	3.7665330467752938
7.0	52.00441971939745	pulse	1.0	t		28.0	male	east_asian	1.5563072025467568	smiling	005	sub-01	1.0	4.0	005_smiling	0.0	147.35195147424474	
8.0	54.0208917920354	face	0.0		147	23.0	female	white	4.005173099880621	smiling	086	sub-01	1.0	4.0	086_smiling	0.0	149.3684235468827	1.233314216029612
8.0	54.00730331312934	pulse	0.0	t		23.0	female	white	4.005173099880621	smiling	086	sub-01	1.0	4.0	086_smiling	0.0	149.35483506797664	
8.0	55.25420600806501	fix	1.0		447	23.0	female	white	4.005173099880621	smiling	086	sub-01	1.0	4.0	086_smiling	0.0	150.6017377629123	3.758210077032345
8.0	56.004293243340726	pulse	1.0	t		23.0	female	white	4.005173099880621	smiling	086	sub-01	1.0	4.0	086_smiling	0.0	151.35182499818802	
8.0	58.004241022916176	pulse	1.0	t		23.0	female	white	4.005173099880621	smiling	086	sub-01	1.0	4.0	086_smiling	0.0	153.35177277776347	
9.0	59.01241608509736	face	0.0		147	54.0	female	white	2.286908077994429	smiling	136	sub-01	1.0	4.0	136_smiling	0.0	154.35994783994465	1.2416317524330225
9.0	60.004183369153	pulse	0.0	t		54.0	female	white	2.286908077994429	smiling	136	sub-01	1.0	4.0	136_smiling	0.0	155.3517151240003	
9.0	60.25404783753038	fix	1.0		449	54.0	female	white	2.286908077994429	smiling	136	sub-01	1.0	4.0	136_smiling	0.0	155.60157959237767	3.7665481393833034
9.0	62.00413024317186	pulse	1.0	t		54.0	female	white	2.286908077994429	smiling	136	sub-01	1.0	4.0	136_smiling	0.0	157.35166199801915	
10.0	64.02059597691368	face	0.0		147	30.0	male	white	2.7190608834062875	neutral	004	sub-01	1.0	4.0	004_neutral	0.0	159.36812773176098	1.2333172345515777
10.0	64.0066081475934	pulse	0.0	t		30.0	male	white	2.7190608834062875	neutral	004	sub-01	1.0	4.0	004_neutral	0.0	159.3541399024407	
10.0	65.25391321146526	fix	1.0		447	30.0	male	white	2.7190608834062875	neutral	004	sub-01	1.0	4.0	004_neutral	0.0	160.60144496631256	3.766540291227102
10.0	66.00400135229756	pulse	1.0	t		30.0	male	white	2.7190608834062875	neutral	004	sub-01	1.0	4.0	004_neutral	0.0	161.35153310714486	
10.0	68.00394520779446	pulse	1.0	t		30.0	male	white	2.7190608834062875	neutral	004	sub-01	1.0	4.0	004_neutral	0.0	163.35147696264175	
11.0	69.02045350269236	face	0.0		146	37.0	male	white	3.898925586947871	smiling	101	sub-01	1.0	4.0	101_smiling	0.0	164.36798525753966	1.2333000289772826
11.0	70.0038778947619	pulse	0.0	t		37.0	male	white	3.898925586947871	smiling	101	sub-01	1.0	4.0	101_smiling	0.0	165.3514096496092	
11.0	70.25375353166964	fix	1.0		449	37.0	male	white	3.898925586947871	smiling	101	sub-01	1.0	4.0	101_smiling	0.0	165.60128528651694	3.7665457245666403
11.0	72.00382778730273	pulse	1.0	t		37.0	male	white	3.898925586947871	smiling	101	sub-01	1.0	4.0	101_smiling	0.0	167.35135954215002	
12.0	74.02029925623629	face	0.0		147	20.0	male	black	3.1070433744528456	neutral	082	sub-01	1.0	4.0	082_neutral	1.0	169.36783101108358	1.233318743811651
12.0	74.00650914008293	pulse	0.0	t		20.0	male	black	3.1070433744528456	neutral	082	sub-01	1.0	4.0	082_neutral	1.0	169.35404089493022	
12.0	75.25361800004794	fix	1.0		238	20.0	male	black	3.1070433744528456	neutral	082	sub-01	1.0	4.0	082_neutral	1.0	170.60114975489523	1.9999381203060693
12.0	76.00371127236667	pulse	1.0	t		20.0	male	black	3.1070433744528456	neutral	082	sub-01	1.0	4.0	082_neutral	1.0	171.35124302721397	
12.0	77.253556120354	rating	2.0		238	20.0	male	black	3.1070433744528456	neutral	082	sub-01	1.0	4.0	082_neutral	1.0	172.6010878752013	1.9999399314192488
12.0	78.00365150563812	pulse	2.0	t		20.0	male	black	3.1070433744528456	neutral	082	sub-01	1.0	4.0	082_neutral	1.0	173.3511832604854	
12.0	79.25349605177325	fix	3.0		447	20.0	male	black	3.1070433744528456	neutral	082	sub-01	1.0	4.0	082_neutral	1.0	174.60102780662055	3.7665433097490677
12.0	80.00359173890956	pulse	3.0	t		20.0	male	black	3.1070433744528456	neutral	082	sub-01	1.0	4.0	082_neutral	1.0	175.35112349375686	
12.0	82.00352050179845	pulse	3.0	t		20.0	male	black	3.1070433744528456	neutral	082	sub-01	1.0	4.0	082_neutral	1.0	177.35105225664574	
13.0	83.02003936152232	face	0.0		146	31.0	male	west_asian	1.9538400318344609	smiling	070	sub-01	1.0	4.0	070_smiling	0.0	178.36757111636962	1.2333124049164326
13.0	84.00347069619147	pulse	0.0	t		31.0	male	west_asian	1.9538400318344609	smiling	070	sub-01	1.0	4.0	070_smiling	0.0	179.35100245103877	
13.0	84.25335176643875	fix	1.0		449	31.0	male	west_asian	1.9538400318344609	smiling	070	sub-01	1.0	4.0	070_smiling	0.0	179.60088352128605	3.766516444905392
13.0	86.00342270169676	pulse	1.0	t		31.0	male	west_asian	1.9538400318344609	smiling	070	sub-01	1.0	4.0	070_smiling	0.0	181.35095445654406	
14.0	88.01986821134415	face	0.0		147	24.0	female	white	3.5503382411460405	neutral	002	sub-01	1.0	4.0	002_neutral	0.0	183.36739996619144	1.2333145178818086
14.0	88.0061016396603	pulse	0.0	t		24.0	female	white	3.5503382411460405	neutral	002	sub-01	1.0	4.0	002_neutral	0.0	183.3536333945076	
14.0	89.25318272922595	fix	1.0		447	24.0	female	white	3.5503382411460405	neutral	002	sub-01	1.0	4.0	002_neutral	0.0	184.60071448407325	3.7665590060614704
14.0	90.0032753978403	pulse	1.0	t		24.0	female	white	3.5503382411460405	neutral	002	sub-01	1.0	4.0	002_neutral	0.0	185.3508071526876	
14.0	92.00323344038952	pulse	1.0	t		24.0	female	white	3.5503382411460405	neutral	002	sub-01	1.0	4.0	002_neutral	0.0	187.35076519523682	
15.0	93.01974173528743	face	0.0		146	22.0	female	west_asian	3.8205332272184642	smiling	066	sub-01	1.0	4.0	066_smiling	0.0	188.36727349013472	1.233307575282197
15.0	94.00317186254779	pulse	0.0	t		22.0	female	west_asian	3.8205332272184642	smiling	066	sub-01	1.0	4.0	066_smiling	0.0	189.35070361739508	
15.0	94.25304931056962	fix	1.0		449	22.0	female	west_asian	3.8205332272184642	smiling	066	sub-01	1.0	4.0	066_smiling	0.0	189.60058106541692	3.766540593078389
15.0	96.00311783101097	pulse	1.0	t		22.0	female	west_asian	3.8205332272184642	smiling	066	sub-01	1.0	4.0	066_smiling	0.0	191.35064958585826	
16.0	98.01958990364801	face	0.0		147	26.0	female	white	4.854755272582572	smiling	027	sub-01	1.0	4.0	027_smiling	0.0	193.3671216584953	1.2333042549089441
16.0	98.00579133563497	pulse	0.0	t		26.0	female	white	4.854755272582572	smiling	027	sub-01	1.0	4.0	027_smiling	0.0	193.35332309048226	
16.0	99.25289415855696	fix	1.0		447	26.0	female	white	4.854755272582572	smiling	027	sub-01	1.0	4.0	027_smiling	0.0	194.60042591340425	3.758210680736738
16.0	100.00298954384016	pulse	1.0	t		26.0	female	white	4.854755272582572	smiling	027	sub-01	1.0	4.0	027_smiling	0.0	195.35052129868745	
16.0	102.00294849194597	pulse	1.0	t		26.0	female	white	4.854755272582572	smiling	027	sub-01	1.0	4.0	027_smiling	0.0	197.35048024679327	
17.0	103.0111048392937	face	0.0		147	40.0	female	west_asian	1.5777954635893354	neutral	038	sub-01	1.0	4.0	038_neutral	0.0	198.358636594141	1.2416513728230711
17.0	104.00287665113137	pulse	0.0	t		40.0	female	west_asian	1.5777954635893354	neutral	038	sub-01	1.0	4.0	038_neutral	0.0	199.35040840597867	
17.0	104.25275621211676	fix	1.0		448	40.0	female	west_asian	1.5777954635893354	neutral	038	sub-01	1.0	4.0	038_neutral	0.0	199.60028796696406	3.7665393856705123
17.0	106.00281296032426	pulse	1.0	t		40.0	female	west_asian	1.5777954635893354	neutral	038	sub-01	1.0	4.0	038_neutral	0.0	201.35034471517156	
18.0	108.01929559778728	face	0.0		147	31.0	female	white	2.1822522881018704	smiling	102	sub-01	1.0	4.0	102_smiling	0.0	203.36682735263457	1.2333175364037743
18.0	108.00567029291688	pulse	0.0	t		31.0	female	white	2.1822522881018704	smiling	102	sub-01	1.0	4.0	102_smiling	0.0	203.35320204776417	
18.0	109.25261313419105	fix	1.0		447	31.0	female	white	2.1822522881018704	smiling	102	sub-01	1.0	4.0	102_smiling	0.0	204.60014488903835	3.7582698437608997
18.0	110.0026979546492	pulse	1.0	t		31.0	female	white	2.1822522881018704	smiling	102	sub-01	1.0	4.0	102_smiling	0.0	205.3502297094965	
18.0	112.00262973606004	pulse	1.0	t		31.0	female	white	2.1822522881018704	smiling	102	sub-01	1.0	4.0	102_smiling	0.0	207.35016149090734	
19.0	113.01088297795195	face	0.0		147	26.0	male	west_asian	2.2081177875049742	smiling	142	sub-01	1.0	4.0	142_smiling	0.0	208.35841473279925	1.241576815339613
19.0	114.00259683417426	pulse	0.0	t		26.0	male	west_asian	2.2081177875049742	smiling	142	sub-01	1.0	4.0	142_smiling	0.0	209.35012858902155	
19.0	114.25245979329156	fix	1.0		448	26.0	male	west_asian	2.2081177875049742	smiling	142	sub-01	1.0	4.0	142_smiling	0.0	209.59999154813886	3.766506785636011
19.0	116.00252257854117	pulse	1.0	t		26.0	male	west_asian	2.2081177875049742	smiling	142	sub-01	1.0	4.0	142_smiling	0.0	211.35005433338847	
20.0	118.01896657892758	face	0.0		147	48.0	male	white	1.8929566255471548	neutral	021	sub-01	1.0	4.0	021_neutral	0.0	213.36649833377487	1.233329308638531
20.0	118.00537508149955	pulse	0.0	t		48.0	male	white	1.8929566255471548	neutral	021	sub-01	1.0	4.0	021_neutral	0.0	213.35290683634685	
20.0	119.2522958875661	fix	1.0		447	48.0	male	white	1.8929566255471548	neutral	021	sub-01	1.0	4.0	021_neutral	0.0	214.5998276424134	3.75821671777976
20.0	120.00240304508407	pulse	1.0	t		48.0	male	white	1.8929566255471548	neutral	021	sub-01	1.0	4.0	021_neutral	0.0	215.34993479993136	
20.0	122.0023441839121	pulse	1.0	t		48.0	male	white	1.8929566255471548	neutral	021	sub-01	1.0	4.0	021_neutral	0.0	217.3498759387594	
21.0	123.01051260534587	face	0.0		147	23.0	female	white	4.005173099880621	neutral	086	sub-01	1.0	4.0	086_neutral	0.0	218.35804436019316	1.241644430224369
21.0	124.0022632875316	pulse	0.0	t		23.0	female	white	4.005173099880621	neutral	086	sub-01	1.0	4.0	086_neutral	0.0	219.3497950423789	
21.0	124.25215703557024	fix	1.0		449	23.0	female	white	4.005173099880621	neutral	086	sub-01	1.0	4.0	086_neutral	0.0	219.59968879041753	3.7665430078959616
21.0	126.00224215788057	pulse	1.0	t		23.0	female	white	4.005173099880621	neutral	086	sub-01	1.0	4.0	086_neutral	0.0	221.34977391272787	
22.0	128.0187000434662	face	0.0		147	28.0	female	east_asian	3.5766016713091924	smiling	127	sub-01	1.0	4.0	127_smiling	0.0	223.3662317983135	1.2333111975076463
22.0	128.00496607181594	pulse	0.0	t		28.0	female	east_asian	3.5766016713091924	smiling	127	sub-01	1.0	4.0	127_smiling	0.0	223.35249782666324	
22.0	129.25201124097384	fix	1.0		447	28.0	female	east_asian	3.5766016713091924	smiling	127	sub-01	1.0	4.0	127_smiling	0.0	224.59954299582114	3.7583033493519906
22.0	130.0021108521887	pulse	1.0	t		28.0	female	east_asian	3.5766016713091924	smiling	127	sub-01	1.0	4.0	127_smiling	0.0	225.349642607036	
22.0	132.0020474632338	pulse	1.0	t		28.0	female	east_asian	3.5766016713091924	smiling	127	sub-01	1.0	4.0	127_smiling	0.0	227.3495792180811	
23.0	133.01031459032583	face	0.0		147	25.0	female	black	3.858336649423	neutral	126	sub-01	1.0	4.0	126_neutral	0.0	228.35784634517313	1.2415505542003302
23.0	134.0020139576436	pulse	0.0	t		25.0	female	black	3.858336649423	neutral	126	sub-01	1.0	4.0	126_neutral	0.0	229.3495457124909	
23.0	134.25186514452616	fix	1.0		1194	25.0	female	black	3.858336649423	neutral	126	sub-01	1.0	4.0	126_neutral	0.0	229.59939689937346	10.016356765110686
23.0	136.00191585568973	pulse	1.0	t		25.0	female	black	3.858336649423	neutral	126	sub-01	1.0	4.0	126_neutral	0.0	231.34944761053703	
23.0	138.00187208712578	pulse	1.0	t		25.0	female	black	3.858336649423	neutral	126	sub-01	1.0	4.0	126_neutral	0.0	233.34940384197307	
23.0	140.00182047040562	pulse	1.0	t		25.0	female	black	3.858336649423	neutral	126	sub-01	1.0	4.0	126_neutral	0.0	235.34935222525291	
23.0	142.00174017773043	pulse	1.0	t		25.0	female	black	3.858336649423	neutral	126	sub-01	1.0	4.0	126_neutral	0.0	237.34927193257772	
23.0	144.00170304991389	pulse	1.0	t		25.0	female	black	3.858336649423	neutral	126	sub-01	1.0	4.0	126_neutral	0.0	239.34923480476118	
24.0	144.26822190963685	face	0.0		147	19.0	male	white	3.2522881018702745	neutral	018	sub-01	1.0	4.0	018_neutral	0.0	239.61575366448415	1.2333033493523544
24.0	145.5015252589892	fix	1.0		447	19.0	male	white	3.2522881018702745	neutral	018	sub-01	1.0	4.0	018_neutral	0.0	240.8490570138365	3.76654934679118
24.0	146.00162517205536	pulse	1.0	t		19.0	male	white	3.2522881018702745	neutral	018	sub-01	1.0	4.0	018_neutral	0.0	241.34915692690265	
24.0	148.00157476274399	pulse	1.0	t		19.0	male	white	3.2522881018702745	neutral	018	sub-01	1.0	4.0	018_neutral	0.0	243.34910651759128	
25.0	149.26807460578038	face	0.0		146	25.0	female	west_asian	2.6756864305610826	neutral	064	sub-01	1.0	4.0	064_neutral	0.0	244.61560636062768	1.2332985197172093
25.0	150.00151288305005	pulse	0.0	t		25.0	female	west_asian	2.6756864305610826	neutral	064	sub-01	1.0	4.0	064_neutral	0.0	245.34904463789735	
25.0	150.5013731254976	fix	1.0		447	25.0	female	west_asian	2.6756864305610826	neutral	064	sub-01	1.0	4.0	064_neutral	0.0	245.8489048803449	3.7665526671653424
25.0	152.0014534181737	pulse	1.0	t		25.0	female	west_asian	2.6756864305610826	neutral	064	sub-01	1.0	4.0	064_neutral	0.0	247.348985173021	
25.0	154.0014772644945	pulse	1.0	t		25.0	female	west_asian	2.6756864305610826	neutral	064	sub-01	1.0	4.0	064_neutral	0.0	249.3490090193418	
26.0	154.26792579266294	face	0.0		147	21.0	male	east_asian/white	3.501790688420215	neutral	036	sub-01	1.0	4.0	036_neutral	0.0	249.61545754751023	1.2333114993607524
26.0	155.5012372920237	fix	1.0		447	21.0	male	east_asian/white	3.501790688420215	neutral	036	sub-01	1.0	4.0	036_neutral	0.0	250.84876904687098	3.758210680736738
26.0	156.00135078843778	pulse	1.0	t		21.0	male	east_asian/white	3.501790688420215	neutral	036	sub-01	1.0	4.0	036_neutral	0.0	251.34888254328507	
26.0	158.00126144019669	pulse	1.0	t		21.0	male	east_asian/white	3.501790688420215	neutral	036	sub-01	1.0	4.0	036_neutral	0.0	253.34879319504398	
27.0	159.25944797276043	face	0.0		147	19.0	male	white	2.894548348587346	smiling	063	sub-01	1.0	4.0	063_smiling	0.0	254.60697972760772	1.2416305450242362
27.0	160.00121736978053	pulse	0.0	t		19.0	male	white	2.894548348587346	smiling	063	sub-01	1.0	4.0	063_smiling	0.0	255.34874912462783	
27.0	160.50107851778466	fix	1.0		447	19.0	male	white	2.894548348587346	smiling	063	sub-01	1.0	4.0	063_smiling	0.0	255.84861027263196	3.758218227040743
27.0	162.0011569993476	pulse	1.0	t		19.0	male	white	2.894548348587346	smiling	063	sub-01	1.0	4.0	063_smiling	0.0	257.3486887541949	
27.0	164.00110206225327	pulse	1.0	t		19.0	male	white	2.894548348587346	smiling	063	sub-01	1.0	4.0	063_smiling	0.0	259.34863381710056	
28.0	164.2592967448254	face	0.0		148	29.0	male	east_asian	2.899323517707918	neutral	067	sub-01	1.0	4.0	067_neutral	0.0	259.6068284996727	1.2416332616940053
28.0	165.5009300065194	fix	1.0		447	29.0	male	east_asian	2.899323517707918	neutral	067	sub-01	1.0	4.0	067_neutral	0.0	260.8484617613667	3.7665390838183157
28.0	166.00104561589887	pulse	1.0	t		29.0	male	east_asian	2.899323517707918	neutral	067	sub-01	1.0	4.0	067_neutral	0.0	261.34857737074617	
28.0	168.00101693994293	pulse	1.0	t		29.0	male	east_asian	2.899323517707918	neutral	067	sub-01	1.0	4.0	067_neutral	0.0	263.3485486947902	
29.0	169.26746909033773	face	0.0		146	27.0	male	black	3.5523278949462798	neutral	042	sub-01	1.0	4.0	042_neutral	1.0	264.615000845185	1.2333277993775482
29.0	170.00091702687678	pulse	0.0	t		27.0	male	black	3.5523278949462798	neutral	042	sub-01	1.0	4.0	042_neutral	1.0	265.3484487817241	
29.0	170.50079688971528	fix	1.0		238	27.0	male	black	3.5523278949462798	neutral	042	sub-01	1.0	4.0	042_neutral	1.0	265.84832864456257	1.999924536958133
29.0	172.00087084349525	pulse	1.0	t		27.0	male	black	3.5523278949462798	neutral	042	sub-01	1.0	4.0	042_neutral	1.0	267.34840259834255	
29.0	172.5007214266734	rating	2.0		238	27.0	male	black	3.5523278949462798	neutral	042	sub-01	1.0	4.0	042_neutral	1.0	267.8482531815207	1.9999378184538728
29.0	174.0007941730455	pulse	2.0	t		27.0	male	black	3.5523278949462798	neutral	042	sub-01	1.0	4.0	042_neutral	1.0	269.3483259278928	
29.0	174.50065924512728	fix	3.0		447	27.0	male	black	3.5523278949462798	neutral	042	sub-01	1.0	4.0	042_neutral	1.0	269.8481909999746	3.766557798652684
29.0	176.0007386322468	pulse	3.0	t		27.0	male	black	3.5523278949462798	neutral	042	sub-01	1.0	4.0	042_neutral	1.0	271.3482703870941	
29.0	178.00068097848362	pulse	3.0	t		27.0	male	black	3.5523278949462798	neutral	042	sub-01	1.0	4.0	042_neutral	1.0	273.3482127333309	
30.0	178.26721704377997	face	0.0		147	35.0	female	white	2.1440509351372863	smiling	020	sub-01	1.0	4.0	020_smiling	1.0	273.61474879862726	1.2332976141606196
30.0	179.50051465794058	fix	1.0		238	35.0	female	white	2.1440509351372863	smiling	020	sub-01	1.0	4.0	020_smiling	1.0	274.8480464127879	1.9999480814276467
30.0	180.0006495858588	pulse	1.0	t		35.0	female	white	2.1440509351372863	smiling	020	sub-01	1.0	4.0	020_smiling	1.0	275.3481813407061	
30.0	181.50046273936823	rating	2.0		238	35.0	female	white	2.1440509351372863	smiling	020	sub-01	1.0	4.0	020_smiling	1.0	276.8479944942155	1.9999453647578775
30.0	182.0005608413221	pulse	2.0	t		35.0	female	white	2.1440509351372863	smiling	020	sub-01	1.0	4.0	020_smiling	1.0	277.3480925961694	
30.0	183.5004081041261	fix	3.0		447	35.0	female	white	2.1440509351372863	smiling	020	sub-01	1.0	4.0	020_smiling	1.0	278.8479398589734	3.766538781966119
30.0	184.00050620608	pulse	3.0	t		35.0	female	white	2.1440509351372863	smiling	020	sub-01	1.0	4.0	020_smiling	1.0	279.3480379609273	
30.0	186.00043496896888	pulse	3.0	t		35.0	female	white	2.1440509351372863	smiling	020	sub-01	1.0	4.0	020_smiling	1.0	281.34796672381617	
31.0	187.26694688609223	face	0.0		146	27.0	female	white	4.181058495821727	neutral	039	sub-01	1.0	4.0	039_neutral	0.0	282.6144786409395	1.233314216029612
31.0	188.00038818188386	pulse	0.0	t		27.0	female	white	4.181058495821727	neutral	039	sub-01	1.0	4.0	039_neutral	0.0	283.34791993673116	
31.0	188.50026110212184	fix	1.0		447	27.0	female	white	4.181058495821727	neutral	039	sub-01	1.0	4.0	039_neutral	0.0	283.84779285696914	3.766537876410439
31.0	190.00032418922456	pulse	1.0	t		27.0	female	white	4.181058495821727	neutral	039	sub-01	1.0	4.0	039_neutral	0.0	285.34785594407185	
31.0	192.00025083914898	pulse	1.0	t		27.0	female	white	4.181058495821727	neutral	039	sub-01	1.0	4.0	039_neutral	0.0	287.34778259399627	
32.0	192.26679897853228	face	0.0		147	21.0	female	black	2.4994031038599283	smiling	129	sub-01	1.0	4.0	129_smiling	0.0	287.6143307333796	1.2333111975076463
32.0	193.50011017603993	fix	1.0		447	21.0	female	black	2.4994031038599283	smiling	129	sub-01	1.0	4.0	129_smiling	0.0	288.8476419308872	3.758197399241908
32.0	194.0002085798451	pulse	1.0	t		21.0	female	black	2.4994031038599283	smiling	129	sub-01	1.0	4.0	129_smiling	0.0	289.3477403346924	
32.0	196.00015092608191	pulse	1.0	t		21.0	female	black	2.4994031038599283	smiling	129	sub-01	1.0	4.0	129_smiling	0.0	291.3476826809292	
33.0	197.25830757528183	face	0.0		147	37.0	female	white	2.175885395941106	neutral	120	sub-01	1.0	4.0	120_neutral	0.0	292.60583933012913	1.2416546931972334
33.0	198.00009387602313	pulse	0.0	t		37.0	female	white	2.175885395941106	neutral	120	sub-01	1.0	4.0	120_neutral	0.0	293.3476256308704	
33.0	198.49996226847907	fix	1.0		447	37.0	female	white	2.175885395941106	neutral	120	sub-01	1.0	4.0	120_neutral	0.0	293.84749402332636	3.7582140011109004
33.0	200.00002927965943	pulse	1.0	t		37.0	female	white	2.175885395941106	neutral	120	sub-01	1.0	4.0	120_neutral	0.0	295.3475610345067	
33.0	201.9999752481217	pulse	1.0	t		37.0	female	white	2.175885395941106	neutral	120	sub-01	1.0	4.0	120_neutral	0.0	297.347507002969	
34.0	202.25817626958997	face	0.0		148	33.0	female	white	3.5455630720254674	smiling	113	sub-01	1.0	4.0	113_smiling	0.0	297.60570802443726	1.2416399024414204
34.0	203.4998161720314	fix	1.0		447	33.0	female	white	3.5455630720254674	smiling	113	sub-01	1.0	4.0	113_smiling	0.0	298.8473479268787	3.766527915287952
34.0	203.99991759435852	pulse	1.0	t		33.0	female	white	3.5455630720254674	smiling	113	sub-01	1.0	4.0	113_smiling	0.0	299.3474493492058	
34.0	205.999854809108	pulse	1.0	t		33.0	female	white	3.5455630720254674	smiling	113	sub-01	1.0	4.0	113_smiling	0.0	301.3473865639553	
35.0	207.26634408731934	face	0.0		146	19.0	male	white	3.2522881018702745	smiling	018	sub-01	1.0	4.0	018_smiling	0.0	302.61387584216664	1.2333232715945996
35.0	207.999782364589	pulse	0.0	t		19.0	male	white	3.2522881018702745	smiling	018	sub-01	1.0	4.0	018_smiling	0.0	303.3473141194363	
35.0	208.49966735891394	fix	1.0		447	19.0	male	white	3.2522881018702745	smiling	018	sub-01	1.0	4.0	018_smiling	0.0	303.84719911376123	3.7582469029966887
35.0	209.9997352756509	pulse	1.0	t		19.0	male	white	3.2522881018702745	smiling	018	sub-01	1.0	4.0	018_smiling	0.0	305.3472670304982	
35.0	211.9996791311487	pulse	1.0	t		19.0	male	white	3.2522881018702745	smiling	018	sub-01	1.0	4.0	018_smiling	0.0	307.347210885996	
36.0	212.25791426191063	face	0.0		148	28.0	female	white	5.676880222841227	neutral	124	sub-01	1.0	4.0	124_neutral	0.0	307.6054460167579	1.241593417207696
36.0	213.49950767911832	fix	1.0		447	28.0	female	white	5.676880222841227	neutral	124	sub-01	1.0	4.0	124_neutral	0.0	308.8470394339656	3.7665529690184485
36.0	213.99961664775037	pulse	1.0	t		28.0	female	white	5.676880222841227	neutral	124	sub-01	1.0	4.0	124_neutral	0.0	309.34714840259767	
36.0	215.9995508439779	pulse	1.0	t		28.0	female	white	5.676880222841227	neutral	124	sub-01	1.0	4.0	124_neutral	0.0	311.3470825988252	
37.0	217.26606064813677	face	0.0		146	24.0	female	white	3.5503382411460405	smiling	002	sub-01	1.0	4.0	002_smiling	0.0	312.61359240298407	1.2333048586124278
37.0	217.99949922725773	pulse	0.0	t		24.0	female	white	3.5503382411460405	smiling	002	sub-01	1.0	4.0	002_smiling	0.0	313.347030982105	
37.0	218.4993655067492	fix	1.0		447	24.0	female	white	3.5503382411460405	smiling	002	sub-01	1.0	4.0	002_smiling	0.0	313.8468972615965	3.758288558595268
37.0	219.99943342348615	pulse	1.0	t		24.0	female	white	3.5503382411460405	smiling	002	sub-01	1.0	4.0	002_smiling	0.0	315.34696517833345	
37.0	221.9993745623142	pulse	1.0	t		24.0	female	white	3.5503382411460405	smiling	002	sub-01	1.0	4.0	002_smiling	0.0	317.3469063171615	
38.0	222.25765406534447	face	0.0		148	23.0	male	black	2.7584560286510147	smiling	096	sub-01	1.0	4.0	096_smiling	0.0	317.60518582019176	1.2415596097653179
38.0	223.4992136751098	fix	1.0		448	23.0	male	black	2.7584560286510147	smiling	096	sub-01	1.0	4.0	096_smiling	0.0	318.8467454299571	3.7666278283550128
38.0	223.99930664557724	pulse	1.0	t		23.0	male	black	2.7584560286510147	smiling	096	sub-01	1.0	4.0	096_smiling	0.0	319.34683840042453	
38.0	225.99924386032671	pulse	1.0	t		23.0	male	black	2.7584560286510147	smiling	096	sub-01	1.0	4.0	096_smiling	0.0	321.346775615174	
39.0	227.2658415034648	face	0.0		147	25.0	male	west_asian	2.1313171508157582	neutral	008	sub-01	1.0	4.0	008_neutral	0.0	322.6133732583121	1.2415526671657062
39.0	227.99920190287594	pulse	0.0	t		25.0	male	west_asian	2.1313171508157582	neutral	008	sub-01	1.0	4.0	008_neutral	0.0	323.34673365772323	
39.0	228.5073941706305	fix	1.0		447	25.0	male	west_asian	2.1313171508157582	neutral	008	sub-01	1.0	4.0	008_neutral	0.0	323.8549259254778	3.74990793509005
39.0	229.9991418342952	pulse	1.0	t		25.0	male	west_asian	2.1313171508157582	neutral	008	sub-01	1.0	4.0	008_neutral	0.0	325.3466735891425	
39.0	231.99907240829725	pulse	1.0	t		25.0	male	west_asian	2.1313171508157582	neutral	008	sub-01	1.0	4.0	008_neutral	0.0	327.34660416314455	
40.0	232.25730210572056	fix	0.0		720												327.60483386056785	5.999811644248439
40.0	233.99902471565474	pulse	0.0	t													329.34655647050204	
40.0	235.99895257298704	pulse	0.0	t													331.34648432783433	
