trial_nr	onset	event_type	phase	response	nr_frames	face_age	face_sex	face_eth	attractiveness	expression	face_id	sub_id	ses	run	trial_type	catch	rating_type	onset_abs	duration
-1.0	0.05886854168784339	fix	0.0		713													19.86110904843372	5.957997743302258
-1.0	0.7003950106591219	pulse	0.0	t														20.502635517404997	
-1.0	1.4003967010648921	pulse	0.0	t														21.202637207810767	
-1.0	2.1003872227302054	pulse	0.0	t														21.90262772947608	
-1.0	2.80071461731859	pulse	0.0	t														22.602955124064465	
-1.0	3.500361021506251	pulse	0.0	t														23.302601528252126	
-1.0	4.200350033890572	pulse	0.0	t														24.002590540636447	
-1.0	4.900342970431666	pulse	0.0	t														24.70258347717754	
-1.0	5.600335303257452	pulse	0.0	t														25.402575810003327	
0.0	6.016866284990101	face	0.0		144	25.0	female	black	3.858336649423	neutral	126	sub-17	2.0	4.0	126_neutral	0.0		25.819106791735976	1.233332789997803
0.0	6.3003357862180565	pulse	0.0	t		25.0	female	black	3.858336649423	neutral	126	sub-17	2.0	4.0	126_neutral	0.0		26.10257629296393	
0.0	7.000317554033245	pulse	0.0	t		25.0	female	black	3.858336649423	neutral	126	sub-17	2.0	4.0	126_neutral	0.0		26.80255806077912	
0.0	7.250199074987904	fix	1.0		444	25.0	female	black	3.858336649423	neutral	126	sub-17	2.0	4.0	126_neutral	0.0		27.05243958173378	3.7582713469018927
0.0	7.700320753720007	pulse	1.0	t		25.0	female	black	3.858336649423	neutral	126	sub-17	2.0	4.0	126_neutral	0.0		27.502561260465882	
0.0	8.400308860538644	pulse	1.0	t		25.0	female	black	3.858336649423	neutral	126	sub-17	2.0	4.0	126_neutral	0.0		28.20254936728452	
0.0	9.100310550944414	pulse	1.0	t		25.0	female	black	3.858336649423	neutral	126	sub-17	2.0	4.0	126_neutral	0.0		28.90255105769029	
0.0	9.800272094304091	pulse	1.0	t		25.0	female	black	3.858336649423	neutral	126	sub-17	2.0	4.0	126_neutral	0.0		29.602512601049966	
0.0	10.500285557151074	pulse	1.0	t		25.0	female	black	3.858336649423	neutral	126	sub-17	2.0	4.0	126_neutral	0.0		30.30252606389695	
1.0	11.008470421889797	face	0.0		146	20.0	male	black	3.1070433744528456	smiling	082	sub-17	2.0	4.0	082_smiling	1.0	attractiveness	30.81071092863567	1.2416694890416693
1.0	11.200274267670466	pulse	0.0	t		20.0	male	black	3.1070433744528456	smiling	082	sub-17	2.0	4.0	082_smiling	1.0	attractiveness	31.00251477441634	
1.0	11.900279580368078	pulse	0.0	t		20.0	male	black	3.1070433744528456	smiling	082	sub-17	2.0	4.0	082_smiling	1.0	attractiveness	31.702520087113953	
1.0	12.250139910931466	fix	1.0		177	20.0	male	black	3.1070433744528456	smiling	082	sub-17	2.0	4.0	082_smiling	1.0	attractiveness	32.05238041767734	1.508341528751771
1.0	12.600302098930115	pulse	1.0	t		20.0	male	black	3.1070433744528456	smiling	082	sub-17	2.0	4.0	082_smiling	1.0	attractiveness	32.40254260567599	
1.0	13.30026001999795	pulse	1.0	t		20.0	male	black	3.1070433744528456	smiling	082	sub-17	2.0	4.0	082_smiling	1.0	attractiveness	33.102500526743825	
1.0	13.758481439683237	rating	2.0		293	20.0	male	black	3.1070433744528456	smiling	082	sub-17	2.0	4.0	082_smiling	1.0	attractiveness	33.56072194642911	2.491612588913995
1.0	14.000236656240304	pulse	2.0	t		20.0	male	black	3.1070433744528456	smiling	082	sub-17	2.0	4.0	082_smiling	1.0	attractiveness	33.80247716298618	
1.0	14.575237667464535	response	2.0	g		20.0	male	black	3.1070433744528456	smiling	082	sub-17	2.0	4.0	082_smiling	1.0	attractiveness	34.37747817421041	
1.0	14.700221442617476	pulse	2.0	t		20.0	male	black	3.1070433744528456	smiling	082	sub-17	2.0	4.0	082_smiling	1.0	attractiveness	34.50246194936335	
1.0	15.40027112835378	pulse	2.0	t		20.0	male	black	3.1070433744528456	smiling	082	sub-17	2.0	4.0	082_smiling	1.0	attractiveness	35.202511635099654	
1.0	16.100218786275946	pulse	2.0	t		20.0	male	black	3.1070433744528456	smiling	082	sub-17	2.0	4.0	082_smiling	1.0	attractiveness	35.90245929302182	
1.0	16.250094028597232	fix	3.0		444	20.0	male	black	3.1070433744528456	smiling	082	sub-17	2.0	4.0	082_smiling	1.0	attractiveness	36.05233453534311	3.7582761766243493
1.0	16.800207798660267	pulse	3.0	t		20.0	male	black	3.1070433744528456	smiling	082	sub-17	2.0	4.0	082_smiling	1.0	attractiveness	36.60244830540614	
1.0	17.500200131486054	pulse	3.0	t		20.0	male	black	3.1070433744528456	smiling	082	sub-17	2.0	4.0	082_smiling	1.0	attractiveness	37.30244063823193	
1.0	18.200189445735305	pulse	3.0	t		20.0	male	black	3.1070433744528456	smiling	082	sub-17	2.0	4.0	082_smiling	1.0	attractiveness	38.00242995248118	
1.0	18.90018781569961	pulse	3.0	t		20.0	male	black	3.1070433744528456	smiling	082	sub-17	2.0	4.0	082_smiling	1.0	attractiveness	38.702428322445485	
1.0	19.60017139466072	pulse	3.0	t		20.0	male	black	3.1070433744528456	smiling	082	sub-17	2.0	4.0	082_smiling	1.0	attractiveness	39.402411901406595	
2.0	20.00837020522158	face	0.0		146	20.0	male	black	2.609629924393156	smiling	043	sub-17	2.0	4.0	043_smiling	0.0		39.810610711967456	1.2416755261801882
2.0	20.300167349763797	pulse	0.0	t		20.0	male	black	2.609629924393156	smiling	043	sub-17	2.0	4.0	043_smiling	0.0		40.10240785650967	
2.0	21.000154852867126	pulse	0.0	t		20.0	male	black	2.609629924393156	smiling	043	sub-17	2.0	4.0	043_smiling	0.0		40.802395359613	
2.0	21.25004573140177	fix	1.0		444	20.0	male	black	2.609629924393156	smiling	043	sub-17	2.0	4.0	043_smiling	0.0		41.052286238147644	3.7582634986174526
2.0	21.70015171355044	pulse	1.0	t		20.0	male	black	2.609629924393156	smiling	043	sub-17	2.0	4.0	043_smiling	0.0		41.502392220296315	
2.0	22.40014947979944	pulse	1.0	t		20.0	male	black	2.609629924393156	smiling	043	sub-17	2.0	4.0	043_smiling	0.0		42.20238998654531	
2.0	23.10013094576425	pulse	1.0	t		20.0	male	black	2.609629924393156	smiling	043	sub-17	2.0	4.0	043_smiling	0.0		42.902371452510124	
2.0	23.800131126874476	pulse	1.0	t		20.0	male	black	2.609629924393156	smiling	043	sub-17	2.0	4.0	043_smiling	0.0		43.60237163362035	
2.0	24.50011983740842	pulse	1.0	t		20.0	male	black	2.609629924393156	smiling	043	sub-17	2.0	4.0	043_smiling	0.0		44.302360344154295	
3.0	25.008309230019222	face	0.0		146	22.0	male	black	2.767608436132113	neutral	044	sub-17	2.0	4.0	044_neutral	0.0		44.8105497367651	1.241670394607354
3.0	25.200109755372978	pulse	0.0	t		22.0	male	black	2.767608436132113	neutral	044	sub-17	2.0	4.0	044_neutral	0.0		45.00235026211885	
3.0	25.900138311088085	pulse	0.0	t		22.0	male	black	2.767608436132113	neutral	044	sub-17	2.0	4.0	044_neutral	0.0		45.70237881783396	
3.0	26.249979624626576	fix	1.0		444	22.0	male	black	2.767608436132113	neutral	044	sub-17	2.0	4.0	044_neutral	0.0		46.05222013137245	3.7582752710441127
3.0	26.600620860393974	pulse	1.0	t		22.0	male	black	2.767608436132113	neutral	044	sub-17	2.0	4.0	044_neutral	0.0		46.40286136713985	
3.0	27.30008765940147	pulse	1.0	t		22.0	male	black	2.767608436132113	neutral	044	sub-17	2.0	4.0	044_neutral	0.0		47.102328166147345	
3.0	28.000080294077634	pulse	1.0	t		22.0	male	black	2.767608436132113	neutral	044	sub-17	2.0	4.0	044_neutral	0.0		47.80232080082351	
3.0	28.70007866404194	pulse	1.0	t		22.0	male	black	2.767608436132113	neutral	044	sub-17	2.0	4.0	044_neutral	0.0		48.502319170787814	
3.0	29.40007250616327	pulse	1.0	t		22.0	male	black	2.767608436132113	neutral	044	sub-17	2.0	4.0	044_neutral	0.0		49.202313012909144	
4.0	30.00825489567069	face	0.0		146	20.0	female	white	3.9502586549940313	smiling	091	sub-17	2.0	4.0	091_smiling	0.0		49.810495402416564	1.2416688853263622
4.0	30.10007781884633	pulse	0.0	t		20.0	female	white	3.9502586549940313	smiling	091	sub-17	2.0	4.0	091_smiling	0.0		49.902318325592205	
4.0	30.80004690864007	pulse	0.0	t		20.0	female	white	3.9502586549940313	smiling	091	sub-17	2.0	4.0	091_smiling	0.0		50.602287415385945	
4.0	31.24992378099705	fix	1.0		444	20.0	female	white	3.9502586549940313	smiling	091	sub-17	2.0	4.0	091_smiling	0.0		51.052164287742926	3.7666038199386094
4.0	31.500037732184865	pulse	1.0	t		20.0	female	white	3.9502586549940313	smiling	091	sub-17	2.0	4.0	091_smiling	0.0		51.30227823893074	
4.0	32.200027046419564	pulse	1.0	t		20.0	female	white	3.9502586549940313	smiling	091	sub-17	2.0	4.0	091_smiling	0.0		52.00226755316544	
4.0	32.90003326468286	pulse	1.0	t		20.0	female	white	3.9502586549940313	smiling	091	sub-17	2.0	4.0	091_smiling	0.0		52.702273771428736	
4.0	33.599997826619074	pulse	1.0	t		20.0	female	white	3.9502586549940313	smiling	091	sub-17	2.0	4.0	091_smiling	0.0		53.40223833336495	
4.0	34.30000495046261	pulse	1.0	t		20.0	female	white	3.9502586549940313	smiling	091	sub-17	2.0	4.0	091_smiling	0.0		54.10224545720848	
5.0	35.01652760093566	face	0.0		146	21.0	male	black	2.969757262236371	smiling	137	sub-17	2.0	4.0	137_smiling	0.0		54.818768107681535	1.233340034566936
5.0	35.002586616479675	pulse	0.0	t		21.0	male	black	2.969757262236371	smiling	137	sub-17	2.0	4.0	137_smiling	0.0		54.80482712322555	
5.0	35.69999293652654	pulse	0.0	t		21.0	male	black	2.969757262236371	smiling	137	sub-17	2.0	4.0	137_smiling	0.0		55.50223344327242	
5.0	36.249867635502596	fix	1.0		443	21.0	male	black	2.969757262236371	smiling	137	sub-17	2.0	4.0	137_smiling	0.0		56.05210814224847	3.766604725518846
5.0	36.39999734365847	pulse	1.0	t		21.0	male	black	2.969757262236371	smiling	137	sub-17	2.0	4.0	137_smiling	0.0		56.202237850404344	
5.0	37.099973376170965	pulse	1.0	t		21.0	male	black	2.969757262236371	smiling	137	sub-17	2.0	4.0	137_smiling	0.0		56.90221388291684	
5.0	37.79996450156614	pulse	1.0	t		21.0	male	black	2.969757262236371	smiling	137	sub-17	2.0	4.0	137_smiling	0.0		57.60220500831201	
5.0	38.49995200466947	pulse	1.0	t		21.0	male	black	2.969757262236371	smiling	137	sub-17	2.0	4.0	137_smiling	0.0		58.30219251141534	
5.0	39.19994705420686	pulse	1.0	t		21.0	male	black	2.969757262236371	smiling	137	sub-17	2.0	4.0	137_smiling	0.0		59.002187560952734	
5.0	39.89995025389362	pulse	1.0	t		21.0	male	black	2.969757262236371	smiling	137	sub-17	2.0	4.0	137_smiling	0.0		59.702190760639496	
6.0	40.01647236102144	face	0.0		146	19.0	male	white	2.243931555909272	neutral	130	sub-17	2.0	4.0	130_neutral	0.0		59.81871286776732	1.2333306769869523
6.0	40.59994952943816	pulse	0.0	t		19.0	male	white	2.243931555909272	neutral	130	sub-17	2.0	4.0	130_neutral	0.0		60.40219003618404	
6.0	41.249803038008395	fix	1.0		443	19.0	male	white	2.243931555909272	neutral	130	sub-17	2.0	4.0	130_neutral	0.0		61.05204354475427	3.7666134793835226
6.0	41.29991922294721	pulse	1.0	t		19.0	male	white	2.243931555909272	neutral	130	sub-17	2.0	4.0	130_neutral	0.0		61.102159729693085	
6.0	41.99991034832783	pulse	1.0	t		19.0	male	white	2.243931555909272	neutral	130	sub-17	2.0	4.0	130_neutral	0.0		61.802150855073705	
6.0	42.69990630344546	pulse	1.0	t		19.0	male	white	2.243931555909272	neutral	130	sub-17	2.0	4.0	130_neutral	0.0		62.502146810191334	
6.0	43.399918860712205	pulse	1.0	t		19.0	male	white	2.243931555909272	neutral	130	sub-17	2.0	4.0	130_neutral	0.0		63.20215936745808	
6.0	44.099870140926214	pulse	1.0	t		19.0	male	white	2.243931555909272	neutral	130	sub-17	2.0	4.0	130_neutral	0.0		63.90211064767209	
6.0	44.79989235763787	pulse	1.0	t		19.0	male	white	2.243931555909272	neutral	130	sub-17	2.0	4.0	130_neutral	0.0		64.60213286438375	
7.0	45.01641651739192	face	0.0		145	40.0	male	black	2.408674890569041	smiling	061	sub-17	2.0	4.0	061_smiling	1.0	dominance	64.81865702413779	1.2333333937131101
7.0	45.499895255459705	pulse	0.0	t		40.0	male	black	2.408674890569041	smiling	061	sub-17	2.0	4.0	061_smiling	1.0	dominance	65.30213576220558	
7.0	46.19987098612182	pulse	0.0	t		40.0	male	black	2.408674890569041	smiling	061	sub-17	2.0	4.0	061_smiling	1.0	dominance	66.0021114928677	
7.0	46.24974991110503	fix	1.0		177	40.0	male	black	2.408674890569041	smiling	061	sub-17	2.0	4.0	061_smiling	1.0	dominance	66.0519904178509	1.4999791718291817
7.0	46.899870261666365	pulse	1.0	t		40.0	male	black	2.408674890569041	smiling	061	sub-17	2.0	4.0	061_smiling	1.0	dominance	66.70211076841224	
7.0	47.59984840718971	pulse	1.0	t		40.0	male	black	2.408674890569041	smiling	061	sub-17	2.0	4.0	061_smiling	1.0	dominance	67.40208891393559	
7.0	47.74972908293421	rating	2.0		295	40.0	male	black	2.408674890569041	smiling	061	sub-17	2.0	4.0	061_smiling	1.0	dominance	67.55196958968008	2.4999746439716546
7.0	48.29986971832113	pulse	2.0	t		40.0	male	black	2.408674890569041	smiling	061	sub-17	2.0	4.0	061_smiling	1.0	dominance	68.10211022506701	
7.0	48.99984393970226	pulse	2.0	t		40.0	male	black	2.408674890569041	smiling	061	sub-17	2.0	4.0	061_smiling	1.0	dominance	68.80208444644813	
7.0	49.2414962228504	response	2.0	w		40.0	male	black	2.408674890569041	smiling	061	sub-17	2.0	4.0	061_smiling	1.0	dominance	69.04373672959628	
7.0	49.699823896356975	pulse	2.0	t		40.0	male	black	2.408674890569041	smiling	061	sub-17	2.0	4.0	061_smiling	1.0	dominance	69.50206440310285	
7.0	50.249703726905864	fix	3.0		443	40.0	male	black	2.408674890569041	smiling	061	sub-17	2.0	4.0	061_smiling	1.0	dominance	70.05194423365174	3.758277082204586
7.0	50.399914936569985	pulse	3.0	t		40.0	male	black	2.408674890569041	smiling	061	sub-17	2.0	4.0	061_smiling	1.0	dominance	70.20215544331586	
7.0	51.09982214558113	pulse	3.0	t		40.0	male	black	2.408674890569041	smiling	061	sub-17	2.0	4.0	061_smiling	1.0	dominance	70.902062652327	
7.0	51.79980300783063	pulse	3.0	t		40.0	male	black	2.408674890569041	smiling	061	sub-17	2.0	4.0	061_smiling	1.0	dominance	71.60204351457651	
7.0	52.499796246222104	pulse	3.0	t		40.0	male	black	2.408674890569041	smiling	061	sub-17	2.0	4.0	061_smiling	1.0	dominance	72.30203675296798	
7.0	53.19978405117581	pulse	3.0	t		40.0	male	black	2.408674890569041	smiling	061	sub-17	2.0	4.0	061_smiling	1.0	dominance	73.00202455792169	
7.0	53.89978211928974	pulse	3.0	t		40.0	male	black	2.408674890569041	smiling	061	sub-17	2.0	4.0	061_smiling	1.0	dominance	73.70202262603561	
8.0	54.00798080911045	face	0.0		147	27.0	female	white	3.504576203740549	neutral	144	sub-17	2.0	4.0	144_neutral	0.0		73.81022131585632	1.241665866735275
8.0	54.5997747539659	pulse	0.0	t		27.0	female	white	3.504576203740549	neutral	144	sub-17	2.0	4.0	144_neutral	0.0		74.40201526071178	
8.0	55.249646675845725	fix	1.0		443	27.0	female	white	3.504576203740549	neutral	144	sub-17	2.0	4.0	144_neutral	0.0		75.0518871825916	3.7583679412928177
8.0	55.2997809722292	pulse	1.0	t		27.0	female	white	3.504576203740549	neutral	144	sub-17	2.0	4.0	144_neutral	0.0		75.10202147897508	
8.0	55.999765758620924	pulse	1.0	t		27.0	female	white	3.504576203740549	neutral	144	sub-17	2.0	4.0	144_neutral	0.0		75.8020062653668	
8.0	56.69974752642156	pulse	1.0	t		27.0	female	white	3.504576203740549	neutral	144	sub-17	2.0	4.0	144_neutral	0.0		76.50198803316744	
8.0	57.39975555583078	pulse	1.0	t		27.0	female	white	3.504576203740549	neutral	144	sub-17	2.0	4.0	144_neutral	0.0		77.20199606257665	
8.0	58.09973158835783	pulse	1.0	t		27.0	female	white	3.504576203740549	neutral	144	sub-17	2.0	4.0	144_neutral	0.0		77.9019720951037	
8.0	58.79974474933988	pulse	1.0	t		27.0	female	white	3.504576203740549	neutral	144	sub-17	2.0	4.0	144_neutral	0.0		78.60198525608575	
9.0	59.00801461713854	face	0.0		146	28.0	male	east_asian	1.5563072025467568	smiling	005	sub-17	2.0	4.0	005_smiling	0.0		78.81025512388442	1.2415804410848068
9.0	59.49971383913362	pulse	0.0	t		28.0	male	east_asian	1.5563072025467568	smiling	005	sub-17	2.0	4.0	005_smiling	0.0		79.3019543458795	
9.0	60.19971311467816	pulse	0.0	t		28.0	male	east_asian	1.5563072025467568	smiling	005	sub-17	2.0	4.0	005_smiling	0.0		80.00195362142404	
9.0	60.24959505822335	fix	1.0		445	28.0	male	east_asian	1.5563072025467568	smiling	005	sub-17	2.0	4.0	005_smiling	0.0		80.05183556496922	3.766604725518846
9.0	60.89973472767451	pulse	1.0	t		28.0	male	east_asian	1.5563072025467568	smiling	005	sub-17	2.0	4.0	005_smiling	0.0		80.70197523442039	
9.0	61.5996778577246	pulse	1.0	t		28.0	male	east_asian	1.5563072025467568	smiling	005	sub-17	2.0	4.0	005_smiling	0.0		81.40191836447048	
9.0	62.29970188558218	pulse	1.0	t		28.0	male	east_asian	1.5563072025467568	smiling	005	sub-17	2.0	4.0	005_smiling	0.0		82.10194239232806	
9.0	62.99967429580283	pulse	1.0	t		28.0	male	east_asian	1.5563072025467568	smiling	005	sub-17	2.0	4.0	005_smiling	0.0		82.80191480254871	
9.0	63.699665723062935	pulse	1.0	t		28.0	male	east_asian	1.5563072025467568	smiling	005	sub-17	2.0	4.0	005_smiling	0.0		83.50190622980881	
10.0	64.0161997837422	face	0.0		145	27.0	male	black	3.5523278949462798	neutral	042	sub-17	2.0	4.0	042_neutral	1.0	dominance	83.81844029048807	1.2333324881328736
10.0	64.39967526175315	pulse	0.0	t		27.0	male	black	3.5523278949462798	neutral	042	sub-17	2.0	4.0	042_neutral	1.0	dominance	84.20191576849902	
10.0	65.09965370912687	pulse	0.0	t		27.0	male	black	3.5523278949462798	neutral	042	sub-17	2.0	4.0	042_neutral	1.0	dominance	84.90189421587274	
10.0	65.24953227187507	fix	1.0		177	27.0	male	black	3.5523278949462798	neutral	042	sub-17	2.0	4.0	042_neutral	1.0	dominance	85.05177277862094	1.4999843034165679
10.0	65.79965358838672	pulse	1.0	t		27.0	male	black	3.5523278949462798	neutral	042	sub-17	2.0	4.0	042_neutral	1.0	dominance	85.6018940951326	
10.0	66.49964048777474	pulse	1.0	t		27.0	male	black	3.5523278949462798	neutral	042	sub-17	2.0	4.0	042_neutral	1.0	dominance	86.30188099452062	
10.0	66.74951657529164	rating	2.0		295	27.0	male	black	3.5523278949462798	neutral	042	sub-17	2.0	4.0	042_neutral	1.0	dominance	86.55175708203751	2.499969210533891
10.0	67.1996331224509	pulse	2.0	t		27.0	male	black	3.5523278949462798	neutral	042	sub-17	2.0	4.0	042_neutral	1.0	dominance	87.00187362919678	
10.0	67.70286088416469	response	2.0	g		27.0	male	black	3.5523278949462798	neutral	042	sub-17	2.0	4.0	042_neutral	1.0	dominance	87.50510139091057	
10.0	67.89960764568241	pulse	2.0	t		27.0	male	black	3.5523278949462798	neutral	042	sub-17	2.0	4.0	042_neutral	1.0	dominance	87.70184815242828	
10.0	68.59963167353999	pulse	2.0	t		27.0	male	black	3.5523278949462798	neutral	042	sub-17	2.0	4.0	042_neutral	1.0	dominance	88.40187218028586	
10.0	69.24948578582553	fix	3.0		443	27.0	male	black	3.5523278949462798	neutral	042	sub-17	2.0	4.0	042_neutral	1.0	dominance	89.0517262925714	3.7665944623731775
10.0	69.29965268282103	pulse	3.0	t		27.0	male	black	3.5523278949462798	neutral	042	sub-17	2.0	4.0	042_neutral	1.0	dominance	89.10189318956691	
10.0	69.99959279429459	pulse	3.0	t		27.0	male	black	3.5523278949462798	neutral	042	sub-17	2.0	4.0	042_neutral	1.0	dominance	89.80183330104046	
10.0	70.69958512712037	pulse	3.0	t		27.0	male	black	3.5523278949462798	neutral	042	sub-17	2.0	4.0	042_neutral	1.0	dominance	90.50182563386625	
10.0	71.39958802495676	pulse	3.0	t		27.0	male	black	3.5523278949462798	neutral	042	sub-17	2.0	4.0	042_neutral	1.0	dominance	91.20182853170263	
10.0	72.09956224632333	pulse	3.0	t		27.0	male	black	3.5523278949462798	neutral	042	sub-17	2.0	4.0	042_neutral	1.0	dominance	91.9018027530692	
10.0	72.79956031443726	pulse	3.0	t		27.0	male	black	3.5523278949462798	neutral	042	sub-17	2.0	4.0	042_neutral	1.0	dominance	92.60180082118313	
11.0	73.0160802481987	face	0.0		145	36.0	female	white	2.7548746518105847	smiling	011	sub-17	2.0	4.0	011_smiling	0.0		92.81832075494458	1.2333475810009986
11.0	73.49955777883588	pulse	0.0	t		36.0	female	white	2.7548746518105847	smiling	011	sub-17	2.0	4.0	011_smiling	0.0		93.30179828558175	
11.0	74.19955162094266	pulse	0.0	t		36.0	female	white	2.7548746518105847	smiling	011	sub-17	2.0	4.0	011_smiling	0.0		94.00179212768853	
11.0	74.2494278291997	fix	1.0		444	36.0	female	white	2.7548746518105847	smiling	011	sub-17	2.0	4.0	011_smiling	0.0		94.05166833594558	3.7583259831008036
11.0	74.89954938719166	pulse	1.0	t		36.0	female	white	2.7548746518105847	smiling	011	sub-17	2.0	4.0	011_smiling	0.0		94.70178989393753	
11.0	75.5995254197187	pulse	1.0	t		36.0	female	white	2.7548746518105847	smiling	011	sub-17	2.0	4.0	011_smiling	0.0		95.40176592646458	
11.0	76.29952590269386	pulse	1.0	t		36.0	female	white	2.7548746518105847	smiling	011	sub-17	2.0	4.0	011_smiling	0.0		96.10176640943973	
11.0	76.99951642435917	pulse	1.0	t		36.0	female	white	2.7548746518105847	smiling	011	sub-17	2.0	4.0	011_smiling	0.0		96.80175693110505	
11.0	77.6995039274625	pulse	1.0	t		36.0	female	white	2.7548746518105847	smiling	011	sub-17	2.0	4.0	011_smiling	0.0		97.50174443420838	
12.0	78.0077538123005	face	0.0		146	27.0	female	white	3.504576203740549	smiling	144	sub-17	2.0	4.0	144_smiling	0.0		97.80999431904638	1.2416254178533563
12.0	78.39952101260133	pulse	0.0	t		27.0	female	white	3.504576203740549	smiling	144	sub-17	2.0	4.0	144_smiling	0.0		98.2017615193472	
12.0	79.09948919681483	pulse	0.0	t		27.0	female	white	3.504576203740549	smiling	144	sub-17	2.0	4.0	144_smiling	0.0		98.9017297035607	
12.0	79.24937923015386	fix	1.0		444	27.0	female	white	3.504576203740549	smiling	144	sub-17	2.0	4.0	144_smiling	0.0		99.05161973689974	3.7666017069423106
12.0	79.79948303893616	pulse	1.0	t		27.0	female	white	3.504576203740549	smiling	144	sub-17	2.0	4.0	144_smiling	0.0		99.60172354568203	
12.0	80.49947144760517	pulse	1.0	t		27.0	female	white	3.504576203740549	smiling	144	sub-17	2.0	4.0	144_smiling	0.0		100.30171195435105	
12.0	81.19948702344846	pulse	1.0	t		27.0	female	white	3.504576203740549	smiling	144	sub-17	2.0	4.0	144_smiling	0.0		101.00172753019433	
12.0	81.89946396154119	pulse	1.0	t		27.0	female	white	3.504576203740549	smiling	144	sub-17	2.0	4.0	144_smiling	0.0		101.70170446828706	
12.0	82.59944572934182	pulse	1.0	t		27.0	female	white	3.504576203740549	smiling	144	sub-17	2.0	4.0	144_smiling	0.0		102.4016862360877	
13.0	83.01598093709617	face	0.0		145	31.0	female	white	2.1822522881018704	smiling	102	sub-17	2.0	4.0	102_smiling	0.0		102.81822144384205	1.2333352048444794
13.0	83.29944500488637	pulse	0.0	t		31.0	female	white	2.1822522881018704	smiling	102	sub-17	2.0	4.0	102_smiling	0.0		103.10168551163224	
13.0	83.99943522471585	pulse	0.0	t		31.0	female	white	2.1822522881018704	smiling	102	sub-17	2.0	4.0	102_smiling	0.0		103.80167573146173	
13.0	84.24931614194065	fix	1.0		444	31.0	female	white	2.1822522881018704	smiling	102	sub-17	2.0	4.0	102_smiling	0.0		104.05155664868653	3.7666083478106884
13.0	84.69943540582608	pulse	1.0	t		31.0	female	white	2.1822522881018704	smiling	102	sub-17	2.0	4.0	102_smiling	0.0		104.50167591257195	
13.0	85.39942864421755	pulse	1.0	t		31.0	female	white	2.1822522881018704	smiling	102	sub-17	2.0	4.0	102_smiling	0.0		105.20166915096343	
13.0	86.09941343059472	pulse	1.0	t		31.0	female	white	2.1822522881018704	smiling	102	sub-17	2.0	4.0	102_smiling	0.0		105.9016539373406	
13.0	86.79941149870865	pulse	1.0	t		31.0	female	white	2.1822522881018704	smiling	102	sub-17	2.0	4.0	102_smiling	0.0		106.60165200545453	
13.0	87.49939507766976	pulse	1.0	t		31.0	female	white	2.1822522881018704	smiling	102	sub-17	2.0	4.0	102_smiling	0.0		107.30163558441564	
14.0	88.01592448975134	face	0.0		145	24.0	female	east_asian	2.9076800636689217	neutral	034	sub-17	2.0	4.0	034_neutral	0.0		107.81816499649722	1.2333315825671889
14.0	88.19939193835307	pulse	0.0	t		24.0	female	east_asian	2.9076800636689217	neutral	034	sub-17	2.0	4.0	034_neutral	0.0		108.00163244509895	
14.0	88.89937793216086	pulse	0.0	t		24.0	female	east_asian	2.9076800636689217	neutral	034	sub-17	2.0	4.0	034_neutral	0.0		108.70161843890673	
14.0	89.24925607231853	fix	1.0		444	24.0	female	east_asian	2.9076800636689217	neutral	034	sub-17	2.0	4.0	034_neutral	0.0		109.0514965790644	3.766613177518593
14.0	89.59936483154888	pulse	1.0	t		24.0	female	east_asian	2.9076800636689217	neutral	034	sub-17	2.0	4.0	034_neutral	0.0		109.40160533829476	
14.0	90.29936259781243	pulse	1.0	t		24.0	female	east_asian	2.9076800636689217	neutral	034	sub-17	2.0	4.0	034_neutral	0.0		110.10160310455831	
14.0	90.99935613805428	pulse	1.0	t		24.0	female	east_asian	2.9076800636689217	neutral	034	sub-17	2.0	4.0	034_neutral	0.0		110.80159664480016	
14.0	91.69934635786922	pulse	1.0	t		24.0	female	east_asian	2.9076800636689217	neutral	034	sub-17	2.0	4.0	034_neutral	0.0		111.50158686461509	
14.0	92.39934774642461	pulse	1.0	t		24.0	female	east_asian	2.9076800636689217	neutral	034	sub-17	2.0	4.0	034_neutral	0.0		112.20158825317048	
15.0	93.01586924983712	face	0.0		145	24.0	female	east_asian	4.409868682849185	smiling	030	sub-17	2.0	4.0	030_smiling	0.0		112.818109756583	1.233335506709409
15.0	93.09932891050994	pulse	0.0	t		24.0	female	east_asian	4.409868682849185	smiling	030	sub-17	2.0	4.0	030_smiling	0.0		112.90156941725581	
15.0	93.79933603435347	pulse	0.0	t		24.0	female	east_asian	4.409868682849185	smiling	030	sub-17	2.0	4.0	030_smiling	0.0		113.60157654109935	
15.0	94.24920475654653	fix	1.0		444	24.0	female	east_asian	4.409868682849185	smiling	030	sub-17	2.0	4.0	030_smiling	0.0		114.05144526329241	3.7666004995116964
15.0	94.49931750030373	pulse	1.0	t		24.0	female	east_asian	4.409868682849185	smiling	030	sub-17	2.0	4.0	030_smiling	0.0		114.30155800704961	
15.0	95.19931526655273	pulse	1.0	t		24.0	female	east_asian	4.409868682849185	smiling	030	sub-17	2.0	4.0	030_smiling	0.0		115.0015557732986	
15.0	95.89929552508693	pulse	1.0	t		24.0	female	east_asian	4.409868682849185	smiling	030	sub-17	2.0	4.0	030_smiling	0.0		115.7015360318328	
15.0	96.59935637954914	pulse	1.0	t		24.0	female	east_asian	4.409868682849185	smiling	030	sub-17	2.0	4.0	030_smiling	0.0		116.40159688629501	
15.0	97.29929226501554	pulse	1.0	t		24.0	female	east_asian	4.409868682849185	smiling	030	sub-17	2.0	4.0	030_smiling	0.0		117.10153277176141	
16.0	98.01580525605823	face	0.0		146	47.0	male	east_asian	2.171110226820533	neutral	024	sub-17	2.0	4.0	024_neutral	0.0		117.8180457628041	1.233336714140023
16.0	98.002393125862	pulse	0.0	t		47.0	male	east_asian	2.171110226820533	neutral	024	sub-17	2.0	4.0	024_neutral	0.0		117.80463363260787	
16.0	98.69926938423305	pulse	0.0	t		47.0	male	east_asian	2.171110226820533	neutral	024	sub-17	2.0	4.0	024_neutral	0.0		118.50150989097892	
16.0	99.24914197019825	fix	1.0		444	47.0	male	east_asian	2.171110226820533	neutral	024	sub-17	2.0	4.0	024_neutral	0.0		119.05138247694413	3.766590236366028
16.0	99.39926020776329	pulse	1.0	t		47.0	male	east_asian	2.171110226820533	neutral	024	sub-17	2.0	4.0	024_neutral	0.0		119.20150071450917	
16.0	100.09925042757823	pulse	1.0	t		47.0	male	east_asian	2.171110226820533	neutral	024	sub-17	2.0	4.0	024_neutral	0.0		119.9014909343241	
16.0	100.79924577898055	pulse	1.0	t		47.0	male	east_asian	2.171110226820533	neutral	024	sub-17	2.0	4.0	024_neutral	0.0		120.60148628572642	
16.0	101.49923841365671	pulse	1.0	t		47.0	male	east_asian	2.171110226820533	neutral	024	sub-17	2.0	4.0	024_neutral	0.0		121.30147892040259	
16.0	102.19922742604103	pulse	1.0	t		47.0	male	east_asian	2.171110226820533	neutral	024	sub-17	2.0	4.0	024_neutral	0.0		122.00146793278691	
16.0	102.89922036258213	pulse	1.0	t		47.0	male	east_asian	2.171110226820533	neutral	024	sub-17	2.0	4.0	024_neutral	0.0		122.701460869328	
17.0	103.01573220656428	face	0.0		147	34.0	male	white	2.651014723438122	smiling	121	sub-17	2.0	4.0	121_smiling	0.0		122.81797271331016	1.2416876004717778
17.0	103.59921873254643	pulse	0.0	t		34.0	male	white	2.651014723438122	smiling	121	sub-17	2.0	4.0	121_smiling	0.0		123.40145923929231	
17.0	104.25741980703606	fix	1.0		443	34.0	male	white	2.651014723438122	smiling	121	sub-17	2.0	4.0	121_smiling	0.0		124.05966031378193	3.766608649661066
17.0	104.299200802212	pulse	1.0	t		34.0	male	white	2.651014723438122	smiling	121	sub-17	2.0	4.0	121_smiling	0.0		124.10144130895787	
17.0	104.9991949461837	pulse	1.0	t		34.0	male	white	2.651014723438122	smiling	121	sub-17	2.0	4.0	121_smiling	0.0		124.80143545292958	
17.0	105.69918124185642	pulse	1.0	t		34.0	male	white	2.651014723438122	smiling	121	sub-17	2.0	4.0	121_smiling	0.0		125.5014217486023	
17.0	106.39918534710887	pulse	1.0	t		34.0	male	white	2.651014723438122	smiling	121	sub-17	2.0	4.0	121_smiling	0.0		126.20142585385474	
17.0	107.09916681305913	pulse	1.0	t		34.0	male	white	2.651014723438122	smiling	121	sub-17	2.0	4.0	121_smiling	0.0		126.901407319805	
17.0	107.79916125888121	pulse	1.0	t		34.0	male	white	2.651014723438122	smiling	121	sub-17	2.0	4.0	121_smiling	0.0		127.60140176562709	
18.0	108.02402845669712	face	0.0		145	27.0	female	white	4.181058495821727	smiling	039	sub-17	2.0	4.0	039_smiling	0.0		127.826268963443	1.2333385252859443
18.0	108.49915540285292	pulse	0.0	t		27.0	female	white	4.181058495821727	smiling	039	sub-17	2.0	4.0	039_smiling	0.0		128.3013959095988	
18.0	109.19915739510907	pulse	0.0	t		27.0	female	white	4.181058495821727	smiling	039	sub-17	2.0	4.0	039_smiling	0.0		129.00139790185494	
18.0	109.25736698198307	fix	1.0		444	27.0	female	white	4.181058495821727	smiling	039	sub-17	2.0	4.0	039_smiling	0.0		129.05960748872894	3.7583957121823914
18.0	109.89914640750794	pulse	1.0	t		27.0	female	white	4.181058495821727	smiling	039	sub-17	2.0	4.0	039_smiling	0.0		129.70138691425382	
18.0	110.59912877902389	pulse	1.0	t		27.0	female	white	4.181058495821727	smiling	039	sub-17	2.0	4.0	039_smiling	0.0		130.40136928576976	
18.0	111.2991452604474	pulse	1.0	t		27.0	female	white	4.181058495821727	smiling	039	sub-17	2.0	4.0	039_smiling	0.0		131.10138576719328	
18.0	111.99912099110952	pulse	1.0	t		27.0	female	white	4.181058495821727	smiling	039	sub-17	2.0	4.0	039_smiling	0.0		131.8013614978554	
18.0	112.69913385022664	pulse	1.0	t		27.0	female	white	4.181058495821727	smiling	039	sub-17	2.0	4.0	039_smiling	0.0		132.50137435697252	
19.0	113.01576269416546	face	0.0		146	25.0	female	west_asian	2.6756864305610826	neutral	064	sub-17	2.0	4.0	064_neutral	0.0		132.81800320091133	1.2415475386223989
19.0	113.39911441061122	pulse	0.0	t		25.0	female	west_asian	2.6756864305610826	neutral	064	sub-17	2.0	4.0	064_neutral	0.0		133.2013549173571	
19.0	114.09908833012742	pulse	0.0	t		25.0	female	west_asian	2.6756864305610826	neutral	064	sub-17	2.0	4.0	064_neutral	0.0		133.9013288368733	
19.0	114.25731023278786	fix	1.0		444	25.0	female	west_asian	2.6756864305610826	neutral	064	sub-17	2.0	4.0	064_neutral	0.0		134.05955073953373	3.7666004995116964
19.0	114.7990918316791	pulse	1.0	t		25.0	female	west_asian	2.6756864305610826	neutral	064	sub-17	2.0	4.0	064_neutral	0.0		134.60133233842498	
19.0	115.49907480691036	pulse	1.0	t		25.0	female	west_asian	2.6756864305610826	neutral	064	sub-17	2.0	4.0	064_neutral	0.0		135.30131531365623	
19.0	116.19907378060452	pulse	1.0	t		25.0	female	west_asian	2.6756864305610826	neutral	064	sub-17	2.0	4.0	064_neutral	0.0		136.0013142873504	
19.0	116.89907305613451	pulse	1.0	t		25.0	female	west_asian	2.6756864305610826	neutral	064	sub-17	2.0	4.0	064_neutral	0.0		136.7013135628804	
19.0	117.5990575406613	pulse	1.0	t		25.0	female	west_asian	2.6756864305610826	neutral	064	sub-17	2.0	4.0	064_neutral	0.0		137.40129804740718	
20.0	118.02391073229956	face	0.0		145	25.0	female	west_asian	2.6756864305610826	smiling	064	sub-17	2.0	4.0	064_smiling	0.0		137.82615123904543	1.2333451661397703
20.0	118.29904685491056	pulse	0.0	t		25.0	female	west_asian	2.6756864305610826	smiling	064	sub-17	2.0	4.0	064_smiling	0.0		138.10128736165643	
20.0	118.99903586730943	pulse	0.0	t		25.0	female	west_asian	2.6756864305610826	smiling	064	sub-17	2.0	4.0	064_smiling	0.0		138.8012763740553	
20.0	119.25725589843933	fix	1.0		1185	25.0	female	west_asian	2.6756864305610826	smiling	064	sub-17	2.0	4.0	064_smiling	0.0		139.0594964051852	10.016534543668968
20.0	119.69904087814211	pulse	1.0	t		25.0	female	west_asian	2.6756864305610826	smiling	064	sub-17	2.0	4.0	064_smiling	0.0		139.501281384888	
20.0	120.39902626823459	pulse	1.0	t		25.0	female	west_asian	2.6756864305610826	smiling	064	sub-17	2.0	4.0	064_smiling	0.0		140.20126677498047	
20.0	121.099011960192	pulse	1.0	t		25.0	female	west_asian	2.6756864305610826	smiling	064	sub-17	2.0	4.0	064_smiling	0.0		140.90125246693788	
20.0	121.79900127444125	pulse	1.0	t		25.0	female	west_asian	2.6756864305610826	smiling	064	sub-17	2.0	4.0	064_smiling	0.0		141.60124178118713	
20.0	122.49899541839841	pulse	1.0	t		25.0	female	west_asian	2.6756864305610826	smiling	064	sub-17	2.0	4.0	064_smiling	0.0		142.30123592514428	
20.0	123.19898352521705	pulse	1.0	t		25.0	female	west_asian	2.6756864305610826	smiling	064	sub-17	2.0	4.0	064_smiling	0.0		143.00122403196292	
20.0	123.89899698806403	pulse	1.0	t		25.0	female	west_asian	2.6756864305610826	smiling	064	sub-17	2.0	4.0	064_smiling	0.0		143.7012374948099	
20.0	124.59896758715331	pulse	1.0	t		25.0	female	west_asian	2.6756864305610826	smiling	064	sub-17	2.0	4.0	064_smiling	0.0		144.40120809389919	
20.0	125.29895961811417	pulse	1.0	t		25.0	female	west_asian	2.6756864305610826	smiling	064	sub-17	2.0	4.0	064_smiling	0.0		145.10120012486004	
20.0	125.99896342151624	pulse	1.0	t		25.0	female	west_asian	2.6756864305610826	smiling	064	sub-17	2.0	4.0	064_smiling	0.0		145.8012039282621	
20.0	126.69895364133117	pulse	1.0	t		25.0	female	west_asian	2.6756864305610826	smiling	064	sub-17	2.0	4.0	064_smiling	0.0		146.50119414807705	
20.0	127.39895563358732	pulse	1.0	t		25.0	female	west_asian	2.6756864305610826	smiling	064	sub-17	2.0	4.0	064_smiling	0.0		147.2011961403332	
20.0	128.09893257168005	pulse	1.0	t		25.0	female	west_asian	2.6756864305610826	smiling	064	sub-17	2.0	4.0	064_smiling	0.0		147.90117307842593	
20.0	128.7989239989256	pulse	1.0	t		25.0	female	west_asian	2.6756864305610826	smiling	064	sub-17	2.0	4.0	064_smiling	0.0		148.60116450567148	
21.0	129.2737904421083	face	0.0		145	40.0	female	west_asian	1.5777954635893354	neutral	038	sub-17	2.0	4.0	038_neutral	0.0		149.07603094885417	1.2333285639761016
21.0	129.498925387481	pulse	0.0	t		40.0	female	west_asian	1.5777954635893354	neutral	038	sub-17	2.0	4.0	038_neutral	0.0		149.30116589422687	
21.0	130.19889538284042	pulse	0.0	t		40.0	female	west_asian	1.5777954635893354	neutral	038	sub-17	2.0	4.0	038_neutral	0.0		150.0011358895863	
21.0	130.5071190060844	fix	1.0		444	40.0	female	west_asian	1.5777954635893354	neutral	038	sub-17	2.0	4.0	038_neutral	0.0		150.30935951283027	3.7666074422450038
21.0	130.89894235186512	pulse	1.0	t		40.0	female	west_asian	1.5777954635893354	neutral	038	sub-17	2.0	4.0	038_neutral	0.0		150.701182858611	
21.0	131.59889876365196	pulse	1.0	t		40.0	female	west_asian	1.5777954635893354	neutral	038	sub-17	2.0	4.0	038_neutral	0.0		151.40113927039783	
21.0	132.2988811351679	pulse	1.0	t		40.0	female	west_asian	1.5777954635893354	neutral	038	sub-17	2.0	4.0	038_neutral	0.0		152.10112164191378	
21.0	132.99888614601514	pulse	1.0	t		40.0	female	west_asian	1.5777954635893354	neutral	038	sub-17	2.0	4.0	038_neutral	0.0		152.801126652761	
21.0	133.69885100980173	pulse	1.0	t		40.0	female	west_asian	1.5777954635893354	neutral	038	sub-17	2.0	4.0	038_neutral	0.0		153.5010915165476	
22.0	134.2737264483294	face	0.0		145	34.0	male	white	2.651014723438122	neutral	121	sub-17	2.0	4.0	121_neutral	0.0		154.07596695507527	1.2333303751220228
22.0	134.39886900050624	pulse	0.0	t		34.0	male	white	2.651014723438122	neutral	121	sub-17	2.0	4.0	121_neutral	0.0		154.2011095072521	
22.0	135.0988489571755	pulse	0.0	t		34.0	male	white	2.651014723438122	neutral	121	sub-17	2.0	4.0	121_neutral	0.0		154.90108946392138	
22.0	135.50705682345142	fix	1.0		444	34.0	male	white	2.651014723438122	neutral	121	sub-17	2.0	4.0	121_neutral	0.0		155.3092973301973	3.7582761766243493
22.0	135.79884491227858	pulse	1.0	t		34.0	male	white	2.651014723438122	neutral	121	sub-17	2.0	4.0	121_neutral	0.0		155.60108541902446	
22.0	136.49883483024314	pulse	1.0	t		34.0	male	white	2.651014723438122	neutral	121	sub-17	2.0	4.0	121_neutral	0.0		156.30107533698902	
22.0	137.19882293706178	pulse	1.0	t		34.0	male	white	2.651014723438122	neutral	121	sub-17	2.0	4.0	121_neutral	0.0		157.00106344380765	
22.0	137.89881677916856	pulse	1.0	t		34.0	male	white	2.651014723438122	neutral	121	sub-17	2.0	4.0	121_neutral	0.0		157.70105728591443	
22.0	138.5988308457163	pulse	1.0	t		34.0	male	white	2.651014723438122	neutral	121	sub-17	2.0	4.0	121_neutral	0.0		158.40107135246217	
23.0	139.26533300007577	face	0.0		146	31.0	female	west_asian	2.364902506963788	smiling	006	sub-17	2.0	4.0	006_smiling	0.0		159.06757350682165	1.2416706964722835
23.0	139.29882589526824	pulse	0.0	t		31.0	female	west_asian	2.364902506963788	smiling	006	sub-17	2.0	4.0	006_smiling	0.0		159.1010664020141	
23.0	139.99879407948174	pulse	0.0	t		31.0	female	west_asian	2.364902506963788	smiling	006	sub-17	2.0	4.0	006_smiling	0.0		159.80103458622762	
23.0	140.50700369654805	fix	1.0		443	31.0	female	west_asian	2.364902506963788	smiling	006	sub-17	2.0	4.0	006_smiling	0.0		160.30924420329393	3.766608649661066
23.0	140.6987861104426	pulse	1.0	t		31.0	female	west_asian	2.364902506963788	smiling	006	sub-17	2.0	4.0	006_smiling	0.0		160.50102661718847	
23.0	141.39878508413676	pulse	1.0	t		31.0	female	west_asian	2.364902506963788	smiling	006	sub-17	2.0	4.0	006_smiling	0.0		161.20102559088264	
23.0	142.0987626259448	pulse	1.0	t		31.0	female	west_asian	2.364902506963788	smiling	006	sub-17	2.0	4.0	006_smiling	0.0		161.90100313269068	
23.0	142.79878454079153	pulse	1.0	t		31.0	female	west_asian	2.364902506963788	smiling	006	sub-17	2.0	4.0	006_smiling	0.0		162.6010250475374	
23.0	143.49877113831462	pulse	1.0	t		31.0	female	west_asian	2.364902506963788	smiling	006	sub-17	2.0	4.0	006_smiling	0.0		163.3010116450605	
23.0	144.1987510949839	pulse	1.0	t		31.0	female	west_asian	2.364902506963788	smiling	006	sub-17	2.0	4.0	006_smiling	0.0		164.00099160172977	
24.0	144.27361234620912	face	0.0		146	47.0	male	east_asian	2.171110226820533	smiling	024	sub-17	2.0	4.0	024_smiling	0.0		164.075852852955	1.2333339974138653
24.0	144.8987388999376	pulse	0.0	t		47.0	male	east_asian	2.171110226820533	smiling	024	sub-17	2.0	4.0	024_smiling	0.0		164.70097940668347	
24.0	145.50694634362299	fix	1.0		443	47.0	male	east_asian	2.171110226820533	smiling	024	sub-17	2.0	4.0	024_smiling	0.0		165.30918685036886	3.766611366387224
24.0	145.59885227760242	pulse	1.0	t		47.0	male	east_asian	2.171110226820533	smiling	024	sub-17	2.0	4.0	024_smiling	0.0		165.4010927843483	
24.0	146.29882619711861	pulse	1.0	t		47.0	male	east_asian	2.171110226820533	smiling	024	sub-17	2.0	4.0	024_smiling	0.0		166.1010667038645	
24.0	146.9987210299878	pulse	1.0	t		47.0	male	east_asian	2.171110226820533	smiling	024	sub-17	2.0	4.0	024_smiling	0.0		166.80096153673367	
24.0	147.6986982699309	pulse	1.0	t		47.0	male	east_asian	2.171110226820533	smiling	024	sub-17	2.0	4.0	024_smiling	0.0		167.50093877667678	
24.0	148.39871867549664	pulse	1.0	t		47.0	male	east_asian	2.171110226820533	smiling	024	sub-17	2.0	4.0	024_smiling	0.0		168.2009591822425	
24.0	149.09868867087062	pulse	1.0	t		47.0	male	east_asian	2.171110226820533	smiling	024	sub-17	2.0	4.0	024_smiling	0.0		168.9009291776165	
25.0	149.2735577100102	face	0.0		146	32.0	male	white	2.389176283326701	neutral	092	sub-17	2.0	4.0	092_neutral	0.0		169.07579821675608	1.2416646593192127
25.0	149.79872416930448	pulse	0.0	t		32.0	male	white	2.389176283326701	neutral	092	sub-17	2.0	4.0	092_neutral	0.0		169.60096467605035	
25.0	150.4986730346427	pulse	0.0	t		32.0	male	white	2.389176283326701	neutral	092	sub-17	2.0	4.0	092_neutral	0.0		170.30091354138858	
25.0	150.51522236932942	fix	1.0		443	32.0	male	white	2.389176283326701	neutral	092	sub-17	2.0	4.0	092_neutral	0.0		170.3174628760753	3.7582773840549635
25.0	151.19965606361802	pulse	1.0	t		32.0	male	white	2.389176283326701	neutral	092	sub-17	2.0	4.0	092_neutral	0.0		171.0018965703639	
25.0	151.89865709657897	pulse	1.0	t		32.0	male	white	2.389176283326701	neutral	092	sub-17	2.0	4.0	092_neutral	0.0		171.70089760332485	
25.0	152.5986545609776	pulse	1.0	t		32.0	male	white	2.389176283326701	neutral	092	sub-17	2.0	4.0	092_neutral	0.0		172.40089506772347	
25.0	153.2986438752123	pulse	1.0	t		32.0	male	white	2.389176283326701	neutral	092	sub-17	2.0	4.0	092_neutral	0.0		173.10088438195817	
25.0	153.99862081330502	pulse	1.0	t		32.0	male	white	2.389176283326701	neutral	092	sub-17	2.0	4.0	092_neutral	0.0		173.8008613200509	
26.0	154.27349975338439	face	0.0		145	19.0	female	white	4.298846000795861	neutral	100	sub-17	2.0	4.0	100_neutral	0.0		174.07574026013026	1.2333318844175665
26.0	154.69862491857202	pulse	0.0	t		19.0	female	white	4.298846000795861	neutral	100	sub-17	2.0	4.0	100_neutral	0.0		174.5008654253179	
26.0	155.39862268482102	pulse	0.0	t		19.0	female	white	4.298846000795861	neutral	100	sub-17	2.0	4.0	100_neutral	0.0		175.2008631915669	
26.0	155.50683163780195	fix	1.0		444	19.0	female	white	4.298846000795861	neutral	100	sub-17	2.0	4.0	100_neutral	0.0		175.30907214454783	3.7666101589420578
26.0	156.09862196036556	pulse	1.0	t		19.0	female	white	4.298846000795861	neutral	100	sub-17	2.0	4.0	100_neutral	0.0		175.90086246711144	
26.0	156.7986004077393	pulse	1.0	t		19.0	female	white	4.298846000795861	neutral	100	sub-17	2.0	4.0	100_neutral	0.0		176.60084091448516	
26.0	157.49858851455792	pulse	1.0	t		19.0	female	white	4.298846000795861	neutral	100	sub-17	2.0	4.0	100_neutral	0.0		177.3008290213038	
26.0	158.19858356409532	pulse	1.0	t		19.0	female	white	4.298846000795861	neutral	100	sub-17	2.0	4.0	100_neutral	0.0		178.0008240708412	
26.0	158.89857559507072	pulse	1.0	t		19.0	female	white	4.298846000795861	neutral	100	sub-17	2.0	4.0	100_neutral	0.0		178.7008161018166	
27.0	159.273441796744	face	0.0		145	19.0	male	white	3.2522881018702745	smiling	018	sub-17	2.0	4.0	018_smiling	0.0		179.07568230348988	1.2333342992787948
27.0	159.59857577618095	pulse	0.0	t		19.0	male	white	3.2522881018702745	smiling	018	sub-17	2.0	4.0	018_smiling	0.0		179.40081628292683	
27.0	160.2985593551275	pulse	0.0	t		19.0	male	white	3.2522881018702745	smiling	018	sub-17	2.0	4.0	018_smiling	0.0		180.10079986187338	
27.0	160.5067760960228	fix	1.0		444	19.0	male	white	3.2522881018702745	smiling	018	sub-17	2.0	4.0	018_smiling	0.0		180.30901660276868	3.7666095552413026
27.0	160.99855591396044	pulse	1.0	t		19.0	male	white	3.2522881018702745	smiling	018	sub-17	2.0	4.0	018_smiling	0.0		180.80079642070632	
27.0	161.698539492907	pulse	1.0	t		19.0	male	white	3.2522881018702745	smiling	018	sub-17	2.0	4.0	018_smiling	0.0		181.50077999965288	
27.0	162.3985647281952	pulse	1.0	t		19.0	male	white	3.2522881018702745	smiling	018	sub-17	2.0	4.0	018_smiling	0.0		182.20080523494107	
27.0	163.0985292901314	pulse	1.0	t		19.0	male	white	3.2522881018702745	smiling	018	sub-17	2.0	4.0	018_smiling	0.0		182.90076979687728	
27.0	163.79852675453003	pulse	1.0	t		19.0	male	white	3.2522881018702745	smiling	018	sub-17	2.0	4.0	018_smiling	0.0		183.6007672612759	
28.0	164.2733856512641	face	0.0		145	22.0	female	west_asian	3.8205332272184642	neutral	066	sub-17	2.0	4.0	066_neutral	0.0		184.07562615800998	1.2333152822538977
28.0	164.49852120035212	pulse	0.0	t		22.0	female	west_asian	3.8205332272184642	neutral	066	sub-17	2.0	4.0	066_neutral	0.0		184.300761707098	
28.0	165.19851202388236	pulse	0.0	t		22.0	female	west_asian	3.8205332272184642	neutral	066	sub-17	2.0	4.0	066_neutral	0.0		185.00075253062823	
28.0	165.506700933518	fix	1.0		444	22.0	female	west_asian	3.8205332272184642	neutral	066	sub-17	2.0	4.0	066_neutral	0.0		185.30894144026388	3.766627666685963
28.0	165.89851431800344	pulse	1.0	t		22.0	female	west_asian	3.8205332272184642	neutral	066	sub-17	2.0	4.0	066_neutral	0.0		185.7007548247493	
28.0	166.59850151924184	pulse	1.0	t		22.0	female	west_asian	3.8205332272184642	neutral	066	sub-17	2.0	4.0	066_neutral	0.0		186.4007420259877	
28.0	167.2984802684805	pulse	1.0	t		22.0	female	west_asian	3.8205332272184642	neutral	066	sub-17	2.0	4.0	066_neutral	0.0		187.10072077522636	
28.0	167.99847139387566	pulse	1.0	t		22.0	female	west_asian	3.8205332272184642	neutral	066	sub-17	2.0	4.0	066_neutral	0.0		187.80071190062154	
28.0	168.69846614154812	pulse	1.0	t		22.0	female	west_asian	3.8205332272184642	neutral	066	sub-17	2.0	4.0	066_neutral	0.0		188.500706648294	
29.0	169.27332860020397	face	0.0		145	37.0	male	white	3.898925586947871	smiling	101	sub-17	2.0	4.0	101_smiling	0.0		189.07556910694984	1.2333270546951098
29.0	169.39847085053043	pulse	0.0	t		37.0	male	white	3.898925586947871	smiling	101	sub-17	2.0	4.0	101_smiling	0.0		189.2007113572763	
29.0	170.09845110905007	pulse	0.0	t		37.0	male	white	3.898925586947871	smiling	101	sub-17	2.0	4.0	101_smiling	0.0		189.90069161579595	
29.0	170.50665565489908	fix	1.0		444	37.0	male	white	3.898925586947871	smiling	101	sub-17	2.0	4.0	101_smiling	0.0		190.30889616164495	3.7582982122257818
29.0	170.79844434744155	pulse	1.0	t		37.0	male	white	3.898925586947871	smiling	101	sub-17	2.0	4.0	101_smiling	0.0		190.60068485418742	
29.0	171.49843124682957	pulse	1.0	t		37.0	male	white	3.898925586947871	smiling	101	sub-17	2.0	4.0	101_smiling	0.0		191.30067175357544	
29.0	172.19842237222474	pulse	1.0	t		37.0	male	white	3.898925586947871	smiling	101	sub-17	2.0	4.0	101_smiling	0.0		192.00066287897062	
29.0	172.89844307964086	pulse	1.0	t		37.0	male	white	3.898925586947871	smiling	101	sub-17	2.0	4.0	101_smiling	0.0		192.70068358638673	
29.0	173.59840311371954	pulse	1.0	t		37.0	male	white	3.898925586947871	smiling	101	sub-17	2.0	4.0	101_smiling	0.0		193.40064362046542	
30.0	174.26495386712486	face	0.0		146	26.0	female	white	4.854755272582572	smiling	027	sub-17	2.0	4.0	027_smiling	0.0		194.06719437387073	1.2416405107214814
30.0	174.29840178554878	pulse	0.0	t		26.0	female	white	4.854755272582572	smiling	027	sub-17	2.0	4.0	027_smiling	0.0		194.10064229229465	
30.0	174.9983920053637	pulse	0.0	t		26.0	female	white	4.854755272582572	smiling	027	sub-17	2.0	4.0	027_smiling	0.0		194.8006325121096	
30.0	175.50659437784634	fix	1.0		443	26.0	female	white	4.854755272582572	smiling	027	sub-17	2.0	4.0	027_smiling	0.0		195.30883488459222	3.766623138813884
30.0	175.6983837344742	pulse	1.0	t		26.0	female	white	4.854755272582572	smiling	027	sub-17	2.0	4.0	027_smiling	0.0		195.50062424122007	
30.0	176.3983842174348	pulse	1.0	t		26.0	female	white	4.854755272582572	smiling	027	sub-17	2.0	4.0	027_smiling	0.0		196.20062472418067	
30.0	177.09836417410406	pulse	1.0	t		26.0	female	white	4.854755272582572	smiling	027	sub-17	2.0	4.0	027_smiling	0.0		196.90060468084994	
30.0	177.79836043107207	pulse	1.0	t		26.0	female	white	4.854755272582572	smiling	027	sub-17	2.0	4.0	027_smiling	0.0		197.60060093781794	
30.0	178.49835336761316	pulse	1.0	t		26.0	female	white	4.854755272582572	smiling	027	sub-17	2.0	4.0	027_smiling	0.0		198.30059387435904	
30.0	179.1983647174493	pulse	1.0	t		26.0	female	white	4.854755272582572	smiling	027	sub-17	2.0	4.0	027_smiling	0.0		199.00060522419517	
31.0	179.27321751666022	face	0.0		146	31.0	male	west_asian	1.9538400318344609	neutral	070	sub-17	2.0	4.0	070_neutral	1.0	trustworthiness	199.0754580234061	1.2333297714212677
31.0	179.89835705027508	pulse	0.0	t		31.0	male	west_asian	1.9538400318344609	neutral	070	sub-17	2.0	4.0	070_neutral	1.0	trustworthiness	199.70059755702096	
31.0	180.5065472880815	fix	1.0		177	31.0	male	west_asian	1.9538400318344609	neutral	070	sub-17	2.0	4.0	070_neutral	1.0	trustworthiness	200.30878779482737	1.5083330767520238
31.0	180.59833096979128	pulse	1.0	t		31.0	male	west_asian	1.9538400318344609	neutral	070	sub-17	2.0	4.0	070_neutral	1.0	trustworthiness	200.40057147653715	
31.0	181.29833718805457	pulse	1.0	t		31.0	male	west_asian	1.9538400318344609	neutral	070	sub-17	2.0	4.0	070_neutral	1.0	trustworthiness	201.10057769480045	
31.0	181.99831080570584	pulse	1.0	t		31.0	male	west_asian	1.9538400318344609	neutral	070	sub-17	2.0	4.0	070_neutral	1.0	trustworthiness	201.80055131245172	
31.0	182.01488036483352	rating	2.0		294	31.0	male	west_asian	1.9538400318344609	neutral	070	sub-17	2.0	4.0	070_neutral	1.0	trustworthiness	201.8171208715794	2.491616513056215
31.0	182.69831823139975	pulse	2.0	t		31.0	male	west_asian	1.9538400318344609	neutral	070	sub-17	2.0	4.0	070_neutral	1.0	trustworthiness	202.50055873814563	
31.0	183.12653864288586	response	2.0	w		31.0	male	west_asian	1.9538400318344609	neutral	070	sub-17	2.0	4.0	070_neutral	1.0	trustworthiness	202.92877914963174	
31.0	183.39829335834656	pulse	2.0	t		31.0	male	west_asian	1.9538400318344609	neutral	070	sub-17	2.0	4.0	070_neutral	1.0	trustworthiness	203.20053386509244	
31.0	184.09831829176983	pulse	2.0	t		31.0	male	west_asian	1.9538400318344609	neutral	070	sub-17	2.0	4.0	070_neutral	1.0	trustworthiness	203.9005587985157	
31.0	184.50649687788973	fix	3.0		444	31.0	male	west_asian	1.9538400318344609	neutral	070	sub-17	2.0	4.0	070_neutral	1.0	trustworthiness	204.3087373846356	3.7666116682376014
31.0	184.79829402243195	pulse	3.0	t		31.0	male	west_asian	1.9538400318344609	neutral	070	sub-17	2.0	4.0	070_neutral	1.0	trustworthiness	204.60053452917782	
31.0	185.4982866571081	pulse	3.0	t		31.0	male	west_asian	1.9538400318344609	neutral	070	sub-17	2.0	4.0	070_neutral	1.0	trustworthiness	205.30052716385399	
31.0	186.19826721749268	pulse	3.0	t		31.0	male	west_asian	1.9538400318344609	neutral	070	sub-17	2.0	4.0	070_neutral	1.0	trustworthiness	206.00050772423856	
31.0	186.89824928715825	pulse	3.0	t		31.0	male	west_asian	1.9538400318344609	neutral	070	sub-17	2.0	4.0	070_neutral	1.0	trustworthiness	206.70048979390413	
31.0	187.59824524227588	pulse	3.0	t		31.0	male	west_asian	1.9538400318344609	neutral	070	sub-17	2.0	4.0	070_neutral	1.0	trustworthiness	207.40048574902175	
32.0	188.27310854612733	face	0.0		145	28.0	male	east_asian	1.5563072025467568	neutral	005	sub-17	2.0	4.0	005_neutral	0.0		208.0753490528732	1.2333352048444794
32.0	188.29824512152118	pulse	0.0	t		28.0	male	east_asian	1.5563072025467568	neutral	005	sub-17	2.0	4.0	005_neutral	0.0		208.10048562826705	
32.0	188.99823171905882	pulse	0.0	t		28.0	male	east_asian	1.5563072025467568	neutral	005	sub-17	2.0	4.0	005_neutral	0.0		208.8004722258047	
32.0	189.5064437509718	fix	1.0		443	28.0	male	east_asian	1.5563072025467568	neutral	005	sub-17	2.0	4.0	005_neutral	0.0		209.3086842577177	3.76660593294946
32.0	189.69822465559992	pulse	1.0	t		28.0	male	east_asian	1.5563072025467568	neutral	005	sub-17	2.0	4.0	005_neutral	0.0		209.5004651623458	
32.0	190.39822091256792	pulse	1.0	t		28.0	male	east_asian	1.5563072025467568	neutral	005	sub-17	2.0	4.0	005_neutral	0.0		210.2004614193138	
32.0	191.09821596210531	pulse	1.0	t		28.0	male	east_asian	1.5563072025467568	neutral	005	sub-17	2.0	4.0	005_neutral	0.0		210.9004564688512	
32.0	191.79819471132942	pulse	1.0	t		28.0	male	east_asian	1.5563072025467568	neutral	005	sub-17	2.0	4.0	005_neutral	0.0		211.6004352180753	
32.0	192.49819096829742	pulse	1.0	t		28.0	male	east_asian	1.5563072025467568	neutral	005	sub-17	2.0	4.0	005_neutral	0.0		212.3004314750433	
32.0	193.1981833011232	pulse	1.0	t		28.0	male	east_asian	1.5563072025467568	neutral	005	sub-17	2.0	4.0	005_neutral	0.0		213.00042380786908	
33.0	193.27304968392127	face	0.0		146	21.0	male	east_asian/white	3.501790688420215	neutral	036	sub-17	2.0	4.0	036_neutral	0.0		213.07529019066715	1.2333352048444794
33.0	193.89818650080997	pulse	0.0	t		21.0	male	east_asian/white	3.501790688420215	neutral	036	sub-17	2.0	4.0	036_neutral	0.0		213.70042700755585	
33.0	194.50638488876575	fix	1.0		443	21.0	male	east_asian/white	3.501790688420215	neutral	036	sub-17	2.0	4.0	036_neutral	0.0		214.30862539551163	3.7583286998269614
33.0	194.598171890917	pulse	1.0	t		21.0	male	east_asian/white	3.501790688420215	neutral	036	sub-17	2.0	4.0	036_neutral	0.0		214.40041239766288	
33.0	195.2981590921554	pulse	1.0	t		21.0	male	east_asian/white	3.501790688420215	neutral	036	sub-17	2.0	4.0	036_neutral	0.0		215.10039959890128	
33.0	195.9981514249812	pulse	1.0	t		21.0	male	east_asian/white	3.501790688420215	neutral	036	sub-17	2.0	4.0	036_neutral	0.0		215.80039193172706	
33.0	196.69813681507367	pulse	1.0	t		21.0	male	east_asian/white	3.501790688420215	neutral	036	sub-17	2.0	4.0	036_neutral	0.0		216.50037732181954	
33.0	197.39814303333696	pulse	1.0	t		21.0	male	east_asian/white	3.501790688420215	neutral	036	sub-17	2.0	4.0	036_neutral	0.0		217.20038354008284	
33.0	198.09812540486746	pulse	1.0	t		21.0	male	east_asian/white	3.501790688420215	neutral	036	sub-17	2.0	4.0	036_neutral	0.0		217.90036591161333	
34.0	198.2647135885927	face	0.0		147	24.0	male	white	3.1153999204138483	neutral	012	sub-17	2.0	4.0	012_neutral	0.0		218.0669540953386	1.2499485333100893
34.0	198.79812226555077	pulse	0.0	t		24.0	male	white	3.1153999204138483	neutral	012	sub-17	2.0	4.0	012_neutral	0.0		218.60036277229665	
34.0	199.4981251633726	pulse	0.0	t		24.0	male	white	3.1153999204138483	neutral	012	sub-17	2.0	4.0	012_neutral	0.0		219.30036567011848	
34.0	199.5146621219028	fix	1.0		443	24.0	male	white	3.1153999204138483	neutral	012	sub-17	2.0	4.0	012_neutral	0.0		219.31690262864868	3.7582752710441127
34.0	200.19810361076088	pulse	1.0	t		24.0	male	white	3.1153999204138483	neutral	012	sub-17	2.0	4.0	012_neutral	0.0		220.00034411750676	
34.0	200.89811254573578	pulse	1.0	t		24.0	male	white	3.1153999204138483	neutral	012	sub-17	2.0	4.0	012_neutral	0.0		220.70035305248166	
34.0	201.59808646525198	pulse	1.0	t		24.0	male	white	3.1153999204138483	neutral	012	sub-17	2.0	4.0	012_neutral	0.0		221.40032697199786	
34.0	202.29807698693185	pulse	1.0	t		24.0	male	white	3.1153999204138483	neutral	012	sub-17	2.0	4.0	012_neutral	0.0		222.10031749367772	
34.0	202.99808290333021	pulse	1.0	t		24.0	male	white	3.1153999204138483	neutral	012	sub-17	2.0	4.0	012_neutral	0.0		222.8003234100761	
35.0	203.27293739294691	face	0.0		145	54.0	female	white	2.286908077994429	smiling	136	sub-17	2.0	4.0	136_smiling	0.0		223.0751778996928	1.2333291677059606
35.0	203.6980740287254	pulse	0.0	t		54.0	female	white	2.286908077994429	smiling	136	sub-17	2.0	4.0	136_smiling	0.0		223.50031453547126	
35.0	204.398073002405	pulse	0.0	t		54.0	female	white	2.286908077994429	smiling	136	sub-17	2.0	4.0	136_smiling	0.0		224.20031350915087	
35.0	204.50626656065288	fix	1.0		444	54.0	female	white	2.286908077994429	smiling	136	sub-17	2.0	4.0	136_smiling	0.0		224.30850706739875	3.766611970102531
35.0	205.09806895752263	pulse	1.0	t		54.0	female	white	2.286908077994429	smiling	136	sub-17	2.0	4.0	136_smiling	0.0		224.9003094642685	
35.0	205.79802627487516	pulse	1.0	t		54.0	female	white	2.286908077994429	smiling	136	sub-17	2.0	4.0	136_smiling	0.0		225.60026678162103	
35.0	206.49803279500338	pulse	1.0	t		54.0	female	white	2.286908077994429	smiling	136	sub-17	2.0	4.0	136_smiling	0.0		226.30027330174926	
35.0	207.19801939252648	pulse	1.0	t		54.0	female	white	2.286908077994429	smiling	136	sub-17	2.0	4.0	136_smiling	0.0		227.00025989927235	
35.0	207.89803557208506	pulse	1.0	t		54.0	female	white	2.286908077994429	smiling	136	sub-17	2.0	4.0	136_smiling	0.0		227.70027607883094	
36.0	208.2728785307554	face	0.0		145	28.0	male	white	3.9076800636689217	smiling	033	sub-17	2.0	4.0	033_smiling	0.0		228.07511903750128	1.233335506694857
36.0	208.59803937548713	pulse	0.0	t		28.0	male	white	3.9076800636689217	smiling	033	sub-17	2.0	4.0	033_smiling	0.0		228.400279882233	
36.0	209.29798884455522	pulse	0.0	t		28.0	male	white	3.9076800636689217	smiling	033	sub-17	2.0	4.0	033_smiling	0.0		229.1002293513011	
36.0	209.50621403745026	fix	1.0		444	28.0	male	white	3.9076800636689217	smiling	033	sub-17	2.0	4.0	033_smiling	0.0		229.30845454419614	3.766610460821539
36.0	209.99799083681137	pulse	1.0	t		28.0	male	white	3.9076800636689217	smiling	033	sub-17	2.0	4.0	033_smiling	0.0		229.80023134355724	
36.0	210.697986791929	pulse	1.0	t		28.0	male	white	3.9076800636689217	smiling	033	sub-17	2.0	4.0	033_smiling	0.0		230.50022729867487	
36.0	211.39799089718144	pulse	1.0	t		28.0	male	white	3.9076800636689217	smiling	033	sub-17	2.0	4.0	033_smiling	0.0		231.20023140392732	
36.0	212.09796421298233	pulse	1.0	t		28.0	male	white	3.9076800636689217	smiling	033	sub-17	2.0	4.0	033_smiling	0.0		231.9002047197282	
36.0	212.79796016809996	pulse	1.0	t		28.0	male	white	3.9076800636689217	smiling	033	sub-17	2.0	4.0	033_smiling	0.0		232.60020067484584	
37.0	213.2728244982718	face	0.0		145	26.0	female	white	4.854755272582572	neutral	027	sub-17	2.0	4.0	027_neutral	1.0	trustworthiness	233.07506500501768	1.2333324881328736
37.0	213.4979413321853	pulse	0.0	t		26.0	female	white	4.854755272582572	neutral	027	sub-17	2.0	4.0	027_neutral	1.0	trustworthiness	233.30018183893117	
37.0	214.19795117274043	pulse	0.0	t		26.0	female	white	4.854755272582572	neutral	027	sub-17	2.0	4.0	027_neutral	1.0	trustworthiness	234.0001916794863	
37.0	214.50615698640468	fix	1.0		177	26.0	female	white	4.854755272582572	neutral	027	sub-17	2.0	4.0	027_neutral	1.0	trustworthiness	234.30839749315055	1.4999794736795593
37.0	214.89795739100373	pulse	1.0	t		26.0	female	white	4.854755272582572	neutral	027	sub-17	2.0	4.0	027_neutral	1.0	trustworthiness	234.7001978977496	
37.0	215.59794157368015	pulse	1.0	t		26.0	female	white	4.854755272582572	neutral	027	sub-17	2.0	4.0	027_neutral	1.0	trustworthiness	235.40018208042602	
37.0	216.00613646008424	rating	2.0		294	26.0	female	white	4.854755272582572	neutral	027	sub-17	2.0	4.0	027_neutral	1.0	trustworthiness	235.8083769668301	2.4999689086835133
37.0	216.29790673933167	pulse	2.0	t		26.0	female	white	4.854755272582572	neutral	027	sub-17	2.0	4.0	027_neutral	1.0	trustworthiness	236.10014724607754	
37.0	216.9979214095947	pulse	2.0	t		26.0	female	white	4.854755272582572	neutral	027	sub-17	2.0	4.0	027_neutral	1.0	trustworthiness	236.80016191634058	
37.0	217.2395625240315	response	2.0	b		26.0	female	white	4.854755272582572	neutral	027	sub-17	2.0	4.0	027_neutral	1.0	trustworthiness	237.04180303077737	
37.0	217.69789080125338	pulse	2.0	t		26.0	female	white	4.854755272582572	neutral	027	sub-17	2.0	4.0	027_neutral	1.0	trustworthiness	237.50013130799925	
37.0	218.39790396223543	pulse	2.0	t		26.0	female	white	4.854755272582572	neutral	027	sub-17	2.0	4.0	027_neutral	1.0	trustworthiness	238.2001444689813	
37.0	218.50610536876775	fix	3.0		444	26.0	female	white	4.854755272582572	neutral	027	sub-17	2.0	4.0	027_neutral	1.0	trustworthiness	238.30834587551362	3.7666122719529085
37.0	219.0978972006269	pulse	3.0	t		26.0	female	white	4.854755272582572	neutral	027	sub-17	2.0	4.0	027_neutral	1.0	trustworthiness	238.90013770737278	
37.0	219.79787474243494	pulse	3.0	t		26.0	female	white	4.854755272582572	neutral	027	sub-17	2.0	4.0	027_neutral	1.0	trustworthiness	239.60011524918082	
37.0	220.49787190498319	pulse	3.0	t		26.0	female	white	4.854755272582572	neutral	027	sub-17	2.0	4.0	027_neutral	1.0	trustworthiness	240.30011241172906	
37.0	221.1978464282147	pulse	3.0	t		26.0	female	white	4.854755272582572	neutral	027	sub-17	2.0	4.0	027_neutral	1.0	trustworthiness	241.00008693496056	
37.0	221.89787075792265	pulse	3.0	t		26.0	female	white	4.854755272582572	neutral	027	sub-17	2.0	4.0	027_neutral	1.0	trustworthiness	241.70011126466852	
38.0	222.27271764072066	face	0.0		145	30.0	female	black	2.7345801830481498	neutral	062	sub-17	2.0	4.0	062_neutral	0.0		242.07495814746653	1.2333358085743384
38.0	222.5978528275882	pulse	0.0	t		30.0	female	black	2.7345801830481498	neutral	062	sub-17	2.0	4.0	062_neutral	0.0		242.4000933343341	
38.0	223.29784153812216	pulse	0.0	t		30.0	female	black	2.7345801830481498	neutral	062	sub-17	2.0	4.0	062_neutral	0.0		243.10008204486803	
38.0	223.506053449295	fix	1.0		444	30.0	female	black	2.7345801830481498	neutral	062	sub-17	2.0	4.0	062_neutral	0.0		243.30829395604087	3.758292175072711
38.0	223.9978308523714	pulse	1.0	t		30.0	female	black	2.7345801830481498	neutral	062	sub-17	2.0	4.0	062_neutral	0.0		243.80007135911728	
38.0	224.69781865732512	pulse	1.0	t		30.0	female	black	2.7345801830481498	neutral	062	sub-17	2.0	4.0	062_neutral	0.0		244.500059164071	
38.0	225.39782608301903	pulse	1.0	t		30.0	female	black	2.7345801830481498	neutral	062	sub-17	2.0	4.0	062_neutral	0.0		245.2000665897649	
38.0	226.09780362482707	pulse	1.0	t		30.0	female	black	2.7345801830481498	neutral	062	sub-17	2.0	4.0	062_neutral	0.0		245.90004413157294	
38.0	226.79779988179507	pulse	1.0	t		30.0	female	black	2.7345801830481498	neutral	062	sub-17	2.0	4.0	062_neutral	0.0		246.60004038854095	
39.0	227.2643456243677	face	0.0		146	28.0	female	white	5.676880222841227	neutral	124	sub-17	2.0	4.0	124_neutral	0.0		247.06658613111358	1.2416501701518428
39.0	227.49779342203692	pulse	0.0	t		28.0	female	white	5.676880222841227	neutral	124	sub-17	2.0	4.0	124_neutral	0.0		247.3000339287828	
39.0	228.19778062328987	pulse	0.0	t		28.0	female	white	5.676880222841227	neutral	124	sub-17	2.0	4.0	124_neutral	0.0		248.00002113003575	
39.0	228.50599579451955	fix	1.0		444	28.0	female	white	5.676880222841227	neutral	124	sub-17	2.0	4.0	124_neutral	0.0		248.30823630126542	3.7499569853098365
39.0	228.89779318055662	pulse	1.0	t		28.0	female	white	5.676880222841227	neutral	124	sub-17	2.0	4.0	124_neutral	0.0		248.7000336873025	
39.0	229.59775955363875	pulse	1.0	t		28.0	female	white	5.676880222841227	neutral	124	sub-17	2.0	4.0	124_neutral	0.0		249.40000006038463	
39.0	230.29776456447144	pulse	1.0	t		28.0	female	white	5.676880222841227	neutral	124	sub-17	2.0	4.0	124_neutral	0.0		250.1000050712173	
39.0	230.9977538787207	pulse	1.0	t		28.0	female	white	5.676880222841227	neutral	124	sub-17	2.0	4.0	124_neutral	0.0		250.79999438546656	
39.0	231.69774198552477	pulse	1.0	t		28.0	female	white	5.676880222841227	neutral	124	sub-17	2.0	4.0	124_neutral	0.0		251.49998249227065	
40.0	232.25595277982939	fix	0.0		720													252.05819328657526	5.999929667217657
40.0	232.3977412610693	pulse	0.0	t														252.1999817678152	
40.0	233.0977112564433	pulse	0.0	t														252.89995176318916	
40.0	233.79772320999473	pulse	0.0	t														253.5999637167406	
40.0	234.4977116186783	pulse	0.0	t														254.29995212542417	
40.0	235.19770244220854	pulse	0.0	t														254.9999429489544	
40.0	235.89771318832936	pulse	0.0	t														255.69995369507524	
40.0	236.5976913338527	pulse	0.0	t														256.3999318405986	
40.0	237.2976878926711	pulse	0.0	t														257.09992839941697	
40.0	237.99766905677097	pulse	0.0	t														257.79990956351685	
