trial_nr	onset	event_type	phase	response	nr_frames	trial_type	stim_name	task_probe	onset_abs	duration
0.0	0.05509954957233276	baseline	0.0		701		baseline	0.0	19.70247420477972	5.849673178934609
0.0	0.704969660306233	pulse	0.0	t			baseline	0.0	20.35234431551362	
0.0	1.404939957530587	pulse	0.0	t			baseline	0.0	21.052314612737973	
0.0	2.1049419497867348	pulse	0.0	t			baseline	0.0	21.75231660499412	
0.0	2.8049267361784587	pulse	0.0	t			baseline	0.0	22.452301391385845	
0.0	3.5049148429970955	pulse	0.0	t			baseline	0.0	23.152289498204482	
0.0	4.204906270242645	pulse	0.0	t			baseline	0.0	23.85228092545003	
0.0	4.904900112349424	pulse	0.0	t			baseline	0.0	24.55227476755681	
0.0	5.6048882191680605	pulse	0.0	t			baseline	0.0	25.252262874375447	
0.0	5.904772728506941	ISI	1.0		2		baseline	0.0	25.552147383714328	0.12524005213344935
1.0	6.030012780640391	number	0.0		45	character	number-30.jpg	0.0	25.677387435847777	0.3747044060874032
1.0	6.304834367794683	pulse	0.0	t		character	number-30.jpg	0.0	25.95220902300207	
1.0	6.404717186727794	ISI	1.0		235	character	number-30.jpg	0.0	26.05209184193518	2.016640193774947
1.0	7.00482639875554	pulse	1.0	t		character	number-30.jpg	0.0	26.652201053962926	
1.0	7.704821146442555	pulse	1.0	t		character	number-30.jpg	0.0	27.35219580164994	
2.0	8.42135738050274	limb	0.0		45	body	limb-96.jpg	0.0	28.068732035710127	0.38331519170606043
2.0	8.413443885598099	pulse	0.0	t		body	limb-96.jpg	0.0	28.060818540805485	
2.0	8.804672572208801	ISI	1.0		234	body	limb-96.jpg	0.0	28.452047227416188	2.016680944521795
2.0	9.10480279350304	pulse	1.0	t		body	limb-96.jpg	0.0	28.752177448710427	
2.0	9.804793013317976	pulse	1.0	t		body	limb-96.jpg	0.0	29.452167668525362	
2.0	10.50478383686277	pulse	1.0	t		body	limb-96.jpg	0.0	30.152158492070157	
3.0	10.821353516730596	number	0.0		46	character	number-86.jpg	0.0	30.468728171937983	0.3832925523893209
3.0	11.204646069119917	ISI	1.0		234	character	number-86.jpg	0.0	30.852020724327303	2.0167135451338254
3.0	11.252747959282715	pulse	1.0	t		character	number-86.jpg	0.0	30.9001226144901	
3.0	11.904768804364721	pulse	1.0	t		character	number-86.jpg	0.0	31.552143459572108	
3.0	12.60483328110422	pulse	1.0	t		character	number-86.jpg	0.0	32.252207936311606	
4.0	13.221359614253743	house	0.0		46	place	house-68.jpg	0.0	32.86873426946113	0.3832508960622363
4.0	13.304755582998041	pulse	0.0	t		place	house-68.jpg	0.0	32.95213023820543	
4.0	13.604610510315979	ISI	1.0		235	place	house-68.jpg	0.0	33.251985165523365	2.0166860760946292
4.0	14.004746708393213	pulse	1.0	t		place	house-68.jpg	0.0	33.6521213636006	
4.0	14.704735117062228	pulse	1.0	t		place	house-68.jpg	0.0	34.352109772269614	
4.0	15.404731977745541	pulse	1.0	t		place	house-68.jpg	0.0	35.05210663295293	
5.0	15.621296586410608	car	0.0		46	object	car-102.jpg	0.0	35.268671241617994	0.38330643784138374
5.0	16.004603024251992	ISI	1.0		353	object	car-102.jpg	0.0	35.65197767945938	3.0166567959240638
5.0	16.104731555155013	pulse	1.0	t		object	car-102.jpg	0.0	35.7521062103624	
5.0	16.804714832251193	pulse	1.0	t		object	car-102.jpg	0.0	36.45208948745858	
5.0	17.504705957631813	pulse	1.0	t		object	car-102.jpg	0.0	37.1520806128392	
5.0	18.204693158884766	pulse	1.0	t		object	car-102.jpg	0.0	37.85206781409215	
5.0	18.904704810571275	pulse	1.0	t		object	car-102.jpg	0.0	38.55207946577866	
6.0	19.021259820176056	limb	0.0		46	body	limb-7.jpg	0.0	38.66863447538344	0.38333964215416927
6.0	19.404599462330225	ISI	1.0		236	body	limb-7.jpg	0.0	39.05197411753761	2.0166661535040475
6.0	19.60475600560312	pulse	1.0	t		body	limb-7.jpg	0.0	39.25213066081051	
6.0	20.304741093845223	pulse	1.0	t		body	limb-7.jpg	0.0	39.95211574905261	
6.0	21.004737652663607	pulse	1.0	t		body	limb-7.jpg	0.0	40.65211230787099	
7.0	21.421265615834272	limb	0.0		46	body	limb-7.jpg	1.0	41.06864027104166	0.38327745952119585
7.0	21.704660256422358	pulse	0.0	t		body	limb-7.jpg	1.0	41.352034911629744	
7.0	21.80454307535547	ISI	1.0		234	body	limb-7.jpg	1.0	41.451917730562855	2.0166570977889933
7.0	21.879656981269363	response	1.0	b		body	limb-7.jpg	1.0	41.52703163647675	
7.0	22.404650476237293	pulse	1.0	t		body	limb-7.jpg	1.0	42.05202513144468	
7.0	23.104641601632466	pulse	1.0	t		body	limb-7.jpg	1.0	42.75201625683985	
8.0	23.82120017314446	car	0.0		45	object	car-137.jpg	0.0	43.46857482835185	0.3833124749799026
8.0	23.81298814123147	pulse	0.0	t		object	car-137.jpg	0.0	43.46036279643886	
8.0	24.204512648124364	ISI	1.0		354	object	car-137.jpg	0.0	43.85188730333175	3.016653475497151
8.0	24.504629285846022	pulse	1.0	t		object	car-137.jpg	0.0	44.15200394105341	
8.0	25.204615883369115	pulse	1.0	t		object	car-137.jpg	0.0	44.8519905385765	
8.0	25.904623309063027	pulse	1.0	t		object	car-137.jpg	0.0	45.55199796427041	
8.0	26.60458817286417	pulse	1.0	t		object	car-137.jpg	0.0	46.251962828071555	
9.0	27.221166123621515	adult	0.0		46	face	adult-44.jpg	0.0	46.8685407788289	0.3833420570153976
9.0	27.304597409704	pulse	0.0	t		face	adult-44.jpg	0.0	46.95197206491139	
9.0	27.604508180636913	ISI	1.0		355	face	adult-44.jpg	0.0	47.2518828358443	3.016655890358379
9.0	28.00465615115536	pulse	1.0	t		face	adult-44.jpg	0.0	47.652030806362745	
9.0	28.704648483981146	pulse	1.0	t		face	adult-44.jpg	0.0	48.35202313918853	
9.0	29.40463689265016	pulse	1.0	t		face	adult-44.jpg	0.0	49.052011547857546	
9.0	30.104626810614718	pulse	1.0	t		face	adult-44.jpg	0.0	49.752001465822104	
10.0	30.62116407099529	number	0.0		46	character	number-127.jpg	0.0	50.26853872620268	0.3832705167878885
10.0	30.80456480909197	pulse	0.0	t		character	number-127.jpg	0.0	50.45193946429936	
10.0	31.00443458778318	ISI	1.0		235	character	number-127.jpg	0.0	50.651809242990566	2.016663738657371
10.0	31.504548991768388	pulse	1.0	t		character	number-127.jpg	0.0	51.151923646975774	
10.0	32.2045374004374	pulse	1.0	t		character	number-127.jpg	0.0	51.85191205564479	
10.0	32.90452973326319	pulse	1.0	t		character	number-127.jpg	0.0	52.551904388470575	
11.0	33.02109832644055	adult	0.0		46	face	adult-122.jpg	0.0	52.66847298164794	0.3833103619836038
11.0	33.404408688424155	ISI	1.0		235	face	adult-122.jpg	0.0	53.05178334363154	2.0166570977744414
11.0	33.60453021622379	pulse	1.0	t		face	adult-122.jpg	0.0	53.25190487143118	
11.0	34.304572355526034	pulse	1.0	t		face	adult-122.jpg	0.0	53.95194701073342	
11.0	35.00490518355218	pulse	1.0	t		face	adult-122.jpg	0.0	54.65227983875957	
12.0	35.4210657861986	car	0.0		46	object	car-87.jpg	0.0	55.06844044140598	0.3833130787097616
12.0	35.70449997011747	pulse	0.0	t		object	car-87.jpg	0.0	55.351874625324854	
12.0	35.80437886490836	ISI	1.0		235	object	car-87.jpg	0.0	55.451753520115744	2.01669996153214
12.0	36.40449049178278	pulse	1.0	t		object	car-87.jpg	0.0	56.05186514699017	
12.0	37.10455557225214	pulse	1.0	t		object	car-87.jpg	0.0	56.751930227459525	
13.0	37.8210788264405	adult	0.0		45	face	adult-58.jpg	0.0	57.468453481647884	0.38329979697300587
13.0	37.812260664766654	pulse	0.0	t		face	adult-58.jpg	0.0	57.45963531997404	
13.0	38.204378623413504	ISI	1.0		594	face	adult-58.jpg	0.0	57.85175327862089	5.016618761888822
13.0	38.504527258031885	pulse	1.0	t		face	adult-58.jpg	0.0	58.15190191323927	
13.0	39.20452743914211	pulse	1.0	t		face	adult-58.jpg	0.0	58.8519020943495	
13.0	39.90451796082198	pulse	1.0	t		face	adult-58.jpg	0.0	59.55189261602936	
13.0	40.60450818063691	pulse	1.0	t		face	adult-58.jpg	0.0	60.2518828358443	
13.0	41.30451077660837	pulse	1.0	t		face	adult-58.jpg	0.0	60.951885431815754	
13.0	42.00449344998924	pulse	1.0	t		face	adult-58.jpg	0.0	61.65186810519663	
13.0	42.704486084665405	pulse	1.0	t		face	adult-58.jpg	0.0	62.35186073987279	
14.0	43.220997385302326	car	0.0		46	object	car-117.jpg	0.0	62.86837204050971	0.3832955709658563
14.0	43.40441140513576	pulse	0.0	t		object	car-117.jpg	0.0	63.05178606034315	
14.0	43.60429295626818	ISI	1.0		235	object	car-117.jpg	0.0	63.25166761147557	2.016663134942064
14.0	44.10440947324969	pulse	1.0	t		object	car-117.jpg	0.0	63.751784128457075	
14.0	44.80439003363426	pulse	1.0	t		object	car-117.jpg	0.0	64.45176468884165	
14.0	45.50438387574104	pulse	1.0	t		object	car-117.jpg	0.0	65.15175853094843	
15.0	45.620956091210246	car	0.0		46	object	car-117.jpg	1.0	65.26833074641763	0.38330523039621767
15.0	46.004261321606464	ISI	1.0		234	object	car-117.jpg	1.0	65.65163597681385	2.008343943627551
15.0	46.204390395854716	pulse	1.0	t		object	car-117.jpg	1.0	65.8517650510621	
15.0	46.387693935859716	response	1.0	b		object	car-117.jpg	1.0	66.0350685910671	
15.0	46.90436703209707	pulse	1.0	t		object	car-117.jpg	1.0	66.55174168730446	
15.0	47.604358761193	pulse	1.0	t		object	car-117.jpg	1.0	67.25173341640038	
16.0	48.012605265234015	adult	0.0		47	face	adult-56.jpg	0.0	67.6599799204414	0.391631968159345
16.0	48.304352603299776	pulse	0.0	t		face	adult-56.jpg	0.0	67.95172725850716	
16.0	48.40423723339336	ISI	1.0		230	face	adult-56.jpg	0.0	68.05161188860075	2.016692716963007
16.0	49.00432290053868	pulse	1.0	t		face	adult-56.jpg	0.0	68.65169755574607	
16.0	49.70441394073714	pulse	1.0	t		face	adult-56.jpg	0.0	69.35178859594453	
17.0	50.42092995035637	limb	0.0		45	body	limb-18.jpg	0.0	70.06830460556375	0.3833151916915085
17.0	50.40846323769074	pulse	0.0	t		body	limb-18.jpg	0.0	70.05583789289813	
17.0	50.804245142047876	ISI	1.0		354	body	limb-18.jpg	0.0	70.45161979725526	3.0166495513549307
17.0	51.10439287108602	pulse	1.0	t		body	limb-18.jpg	0.0	70.7517675262934	
17.0	51.804383392765885	pulse	1.0	t		body	limb-18.jpg	0.0	71.45175804797327	
17.0	52.50437783858797	pulse	1.0	t		body	limb-18.jpg	0.0	72.15175249379536	
17.0	53.204366549121914	pulse	1.0	t		body	limb-18.jpg	0.0	72.8517412043293	
18.0	53.820894693402806	limb	0.0		46	body	limb-14.jpg	0.0	73.46826934861019	0.38330553226114716
18.0	53.90451464038051	pulse	0.0	t		body	limb-14.jpg	0.0	73.5518892955879	
18.0	54.20420022566395	ISI	1.0		954	body	limb-14.jpg	0.0	73.85157488087134	8.01659280214517
18.0	54.60436177976953	pulse	1.0	t		body	limb-14.jpg	0.0	74.25173643497692	
18.0	55.30434234015411	pulse	1.0	t		body	limb-14.jpg	0.0	74.9517169953615	
18.0	56.00432984325744	pulse	1.0	t		body	limb-14.jpg	0.0	75.65170449846482	
18.0	56.704327609506436	pulse	1.0	t		body	limb-14.jpg	0.0	76.35170226471382	
18.0	57.40433262033912	pulse	1.0	t		body	limb-14.jpg	0.0	77.0517072755465	
18.0	58.10430986029678	pulse	1.0	t		body	limb-14.jpg	0.0	77.75168451550417	
18.0	58.80430158939271	pulse	1.0	t		body	limb-14.jpg	0.0	78.4516762446001	
18.0	59.504285772069125	pulse	1.0	t		body	limb-14.jpg	0.0	79.15166042727651	
18.0	60.20428414203343	pulse	1.0	t		body	limb-14.jpg	0.0	79.85165879724082	
18.0	60.90428251201229	pulse	1.0	t		body	limb-14.jpg	0.0	80.55165716721967	
18.0	61.60426699653908	pulse	1.0	t		body	limb-14.jpg	0.0	81.25164165174647	
19.0	62.22079302780912	house	0.0		46	place	house-134.jpg	0.0	81.86816768301651	0.38332364372035954
19.0	62.30424091605528	pulse	0.0	t		place	house-134.jpg	0.0	81.95161557126266	
19.0	62.60411667152948	ISI	1.0		474	place	house-134.jpg	0.0	82.25149132673687	4.016632345475955
19.0	63.004249549179804	pulse	1.0	t		place	house-134.jpg	0.0	82.65162420438719	
19.0	63.70424188199104	pulse	1.0	t		place	house-134.jpg	0.0	83.35161653719842	
19.0	64.40424206310126	pulse	1.0	t		place	house-134.jpg	0.0	84.05161671830865	
19.0	65.10423530150729	pulse	1.0	t		place	house-134.jpg	0.0	84.75160995671467	
19.0	65.8048361789406	pulse	1.0	t		place	house-134.jpg	0.0	85.45221083414799	
19.0	66.50419913897349	pulse	1.0	t		place	house-134.jpg	0.0	86.15157379418088	
20.0	66.62074901700544	adult	0.0		46	face	adult-108.jpg	0.0	86.26812367221282	0.3832904393784702
20.0	67.00403945638391	ISI	1.0		353	face	adult-108.jpg	0.0	86.6514141115913	3.0166667572339065
20.0	67.20421018695924	pulse	1.0	t		face	adult-108.jpg	0.0	86.85158484216663	
20.0	67.90419587891665	pulse	1.0	t		face	adult-108.jpg	0.0	87.55157053412404	
20.0	68.6041873061622	pulse	1.0	t		face	adult-108.jpg	0.0	88.25156196136959	
20.0	69.30419956157857	pulse	1.0	t		face	adult-108.jpg	0.0	88.95157421678596	
21.0	70.02070621361781	limb	0.0		45	body	limb-76.jpg	0.0	89.6680808688252	0.3833079471223755
21.0	70.00940074655227	pulse	0.0	t		body	limb-76.jpg	0.0	89.65677540175966	
21.0	70.40401416074019	ISI	1.0		234	body	limb-76.jpg	0.0	90.05138881594758	2.016672492507496
21.0	70.70418241606967	pulse	1.0	t		body	limb-76.jpg	0.0	90.35155707127706	
21.0	71.4041593541624	pulse	1.0	t		body	limb-76.jpg	0.0	91.05153400936979	
21.0	72.10414957399189	pulse	1.0	t		body	limb-76.jpg	0.0	91.75152422919928	
22.0	72.42068665324769	car	0.0		46	object	car-44.jpg	0.0	92.06806130845507	0.3833022118342342
22.0	72.80398886508192	ISI	1.0		234	object	car-44.jpg	0.0	92.4513635202893	2.0166601163509768
22.0	72.84564398569637	pulse	1.0	t		object	car-44.jpg	0.0	92.49301864090376	
22.0	73.50413544705953	pulse	1.0	t		object	car-44.jpg	0.0	93.15151010226691	
22.0	74.20412536502408	pulse	1.0	t		object	car-44.jpg	0.0	93.85150002023147	
23.0	74.8206489814329	car	0.0		46	object	car-32.jpg	0.0	94.46802363664028	0.3833100601332262
23.0	74.90408328609192	pulse	0.0	t		object	car-32.jpg	0.0	94.5514579412993	
23.0	75.20395904156612	ISI	1.0		233	object	car-32.jpg	0.0	94.85133369677351	2.016667964649969
23.0	75.60411395480332	pulse	1.0	t		object	car-32.jpg	0.0	95.25148861001071	
23.0	76.30410025047604	pulse	1.0	t		object	car-32.jpg	0.0	95.95147490568343	
23.0	77.00409348886751	pulse	1.0	t		object	car-32.jpg	0.0	96.6514681440749	
24.0	77.22062700621609	house	0.0		46	place	house-66.jpg	0.0	96.86800166142348	0.3833049285458401
24.0	77.60393193476193	ISI	1.0		354	place	house-66.jpg	0.0	97.25130658996932	3.0166498532053083
24.0	77.70412777987076	pulse	1.0	t		place	house-66.jpg	0.0	97.35150243507815	
24.0	78.40408026751538	pulse	1.0	t		place	house-66.jpg	0.0	98.05145492272277	
24.0	79.10406777061871	pulse	1.0	t		place	house-66.jpg	0.0	98.7514424258261	
24.0	79.80405949972919	pulse	1.0	t		place	house-66.jpg	0.0	99.45143415493658	
24.0	80.50405303997104	pulse	1.0	t		place	house-66.jpg	0.0	100.15142769517843	
25.0	80.62058178796724	limb	0.0		46	body	limb-88.jpg	0.0	100.26795644317463	0.38331156941421796
25.0	81.00389335738146	ISI	1.0		233	body	limb-88.jpg	0.0	100.65126801258884	2.0166628330771346
25.0	81.20404839137336	pulse	1.0	t		body	limb-88.jpg	0.0	100.85142304658075	
25.0	81.90403438518115	pulse	1.0	t		body	limb-88.jpg	0.0	101.55140904038853	
25.0	82.60402188828448	pulse	1.0	t		body	limb-88.jpg	0.0	102.25139654349186	
26.0	83.02055619045859	car	0.0		46	object	car-128.jpg	0.0	102.66793084566598	0.38331156941421796
26.0	83.30398524279008	pulse	0.0	t		object	car-128.jpg	0.0	102.95135989799746	
26.0	83.40386775987281	ISI	1.0		353	object	car-128.jpg	0.0	103.0512424150802	3.0166700776608195
26.0	84.00400896878273	pulse	1.0	t		object	car-128.jpg	0.0	103.65138362399011	
26.0	84.70400401832012	pulse	1.0	t		object	car-128.jpg	0.0	104.3513786735275	
26.0	85.40399514371529	pulse	1.0	t		object	car-128.jpg	0.0	105.05136979892268	
26.0	86.10399079696799	pulse	1.0	t		object	car-128.jpg	0.0	105.75136545217538	
27.0	86.42053783753363	limb	0.0		46	body	limb-60.jpg	0.0	106.06791249274102	0.3833040229656035
27.0	86.80384186049923	ISI	1.0		353	body	limb-60.jpg	0.0	106.45121651570662	3.0166398919100175
27.0	86.86054638613132	pulse	1.0	t		body	limb-60.jpg	0.0	106.5079210413387	
27.0	87.50397817933117	pulse	1.0	t		body	limb-60.jpg	0.0	107.15135283453856	
27.0	88.20396115456242	pulse	1.0	t		body	limb-60.jpg	0.0	107.85133580976981	
27.0	88.90395861896104	pulse	1.0	t		body	limb-60.jpg	0.0	108.55133327416843	
27.0	89.60395276293275	pulse	1.0	t		body	limb-60.jpg	0.0	109.25132741814014	
28.0	89.82048175240925	number	0.0		46	character	number-57.jpg	0.0	109.46785640761664	0.38332334185543004
28.0	90.20380509426468	ISI	1.0		353	character	number-57.jpg	0.0	109.85117974947207	3.0166386844794033
28.0	90.30395052918175	pulse	1.0	t		character	number-57.jpg	0.0	109.95132518438913	
28.0	91.00392897655547	pulse	1.0	t		character	number-57.jpg	0.0	110.65130363176286	
28.0	91.70392251681187	pulse	1.0	t		character	number-57.jpg	0.0	111.35129717201926	
28.0	92.40391847191495	pulse	1.0	t		character	number-57.jpg	0.0	112.05129312712234	
28.0	93.10391231403628	pulse	1.0	t		character	number-57.jpg	0.0	112.75128696924367	
29.0	93.22044377874408	car	0.0		46	object	car-109.jpg	0.0	112.86781843395147	0.38330643784138374
29.0	93.60375021658547	ISI	1.0		233	object	car-109.jpg	0.0	113.25112487179285	2.016670983226504
29.0	93.8039034394169	pulse	1.0	t		object	car-109.jpg	0.0	113.45127809462429	
29.0	94.50388943323924	pulse	1.0	t		object	car-109.jpg	0.0	114.15126408844662	
29.0	95.2038820679154	pulse	1.0	t		object	car-109.jpg	0.0	114.85125672312279	
30.0	95.62042119981197	number	0.0		46	character	number-31.jpg	0.0	115.26779585501936	0.38330040068831295
30.0	95.90384059269854	pulse	0.0	t		character	number-31.jpg	0.0	115.55121524790593	
30.0	96.00372160050028	ISI	1.0		714	character	number-31.jpg	0.0	115.65109625570767	6.016637477048789
30.0	96.60386824284797	pulse	1.0	t		character	number-31.jpg	0.0	116.25124289805535	
30.0	97.30385967009352	pulse	1.0	t		character	number-31.jpg	0.0	116.9512343253009	
30.0	98.0038535122003	pulse	1.0	t		character	number-31.jpg	0.0	117.65122816740768	
30.0	98.70384524131077	pulse	1.0	t		character	number-31.jpg	0.0	118.35121989651816	
30.0	99.40383304626448	pulse	1.0	t		character	number-31.jpg	0.0	119.05120770147187	
30.0	100.10383715153148	pulse	1.0	t		character	number-31.jpg	0.0	119.75121180673887	
30.0	100.80382073047804	pulse	1.0	t		character	number-31.jpg	0.0	120.45119538568542	
30.0	101.50381819487666	pulse	1.0	t		character	number-31.jpg	0.0	121.15119285008404	
31.0	102.02035907754907	house	0.0		46	place	house-116.jpg	0.0	121.66773373275646	0.3832871189515572
31.0	102.20376766394475	pulse	0.0	t		place	house-116.jpg	0.0	121.85114231915213	
31.0	102.40364619650063	ISI	1.0		233	place	house-116.jpg	0.0	122.05102085170802	2.016667662799591
31.0	102.90381674596574	pulse	1.0	t		place	house-116.jpg	0.0	122.55119140117313	
31.0	103.60380817321129	pulse	1.0	t		place	house-116.jpg	0.0	123.25118282841868	
31.0	104.30378088529687	pulse	1.0	t		place	house-116.jpg	0.0	123.95115554050426	
32.0	104.42031385930022	number	0.0		46	character	number-107.jpg	0.0	124.06768851450761	0.38330523039621767
32.0	104.80361908969644	ISI	1.0		234	character	number-107.jpg	0.0	124.45099374490383	2.0166857742442517
32.0	105.00377684039995	pulse	1.0	t		character	number-107.jpg	0.0	124.65115149560734	
32.0	105.7037655509339	pulse	1.0	t		character	number-107.jpg	0.0	125.35114020614128	
32.0	106.40375516704808	pulse	1.0	t		character	number-107.jpg	0.0	126.05112982225546	
33.0	106.82030486394069	car	0.0		46	object	car-2.jpg	0.0	126.46767951914808	0.3832883263967233
33.0	107.10371127696999	pulse	0.0	t		object	car-2.jpg	0.0	126.75108593217738	
33.0	107.20359319033741	ISI	1.0		594	object	car-2.jpg	0.0	126.8509678455448	5.016630232465104
33.0	107.80374013453547	pulse	1.0	t		object	car-2.jpg	0.0	127.45111478974286	
33.0	108.50372069492005	pulse	1.0	t		object	car-2.jpg	0.0	128.15109535012743	
33.0	109.20373355405172	pulse	1.0	t		object	car-2.jpg	0.0	128.8511082092591	
33.0	109.90371743486321	pulse	1.0	t		object	car-2.jpg	0.0	129.5510920900706	
33.0	110.60370705096284	pulse	1.0	t		object	car-2.jpg	0.0	130.25108170617023	
33.0	111.3037096469343	pulse	1.0	t		object	car-2.jpg	0.0	130.95108430214168	
33.0	112.00369382961071	pulse	1.0	t		object	car-2.jpg	0.0	131.6510684848181	
34.0	112.22022342280252	adult	0.0		46	face	adult-103.jpg	0.0	131.8675980780099	0.3833013062685495
34.0	112.60352472907107	ISI	1.0		354	face	adult-103.jpg	0.0	132.25089938427845	3.0166610219312133
34.0	112.70368646428687	pulse	1.0	t		face	adult-103.jpg	0.0	132.35106111949426	
34.0	113.40367185437935	pulse	1.0	t		face	adult-103.jpg	0.0	133.05104650958674	
34.0	114.1036690169276	pulse	1.0	t		face	adult-103.jpg	0.0	133.75104367213498	
34.0	114.80367010361806	pulse	1.0	t		face	adult-103.jpg	0.0	134.45104475882545	
34.0	115.503652475134	pulse	1.0	t		face	adult-103.jpg	0.0	135.1510271303414	
35.0	115.62018575100228	house	0.0		46	place	house-20.jpg	0.0	135.26756040620967	0.3833106638339814
35.0	116.00349641483626	ISI	1.0		232	place	house-20.jpg	0.0	135.65087107004365	2.016662531212205
35.0	116.2036454116751	pulse	1.0	t		place	house-20.jpg	0.0	135.85102006688248	
35.0	116.90364227235841	pulse	1.0	t		place	house-20.jpg	0.0	136.5510169275658	
35.0	117.60363702003087	pulse	1.0	t		place	house-20.jpg	0.0	137.25101167523826	
36.0	118.02015894604847	adult	0.0		46	face	adult-33.jpg	0.0	137.66753360125585	0.38331790841766633
36.0	118.30359735597449	pulse	0.0	t		face	adult-33.jpg	0.0	137.95097201118188	
36.0	118.40347685446613	ISI	1.0		593	face	adult-33.jpg	0.0	138.05085150967352	5.016618460038444
36.0	119.00361202623753	pulse	1.0	t		face	adult-33.jpg	0.0	138.65098668144492	
36.0	119.70360405719839	pulse	1.0	t		face	adult-33.jpg	0.0	139.35097871240578	
36.0	120.40359548444394	pulse	1.0	t		face	adult-33.jpg	0.0	140.05097013965133	
36.0	121.10358087455097	pulse	1.0	t		face	adult-33.jpg	0.0	140.75095552975836	
36.0	121.80358196124143	pulse	1.0	t		face	adult-33.jpg	0.0	141.45095661644882	
36.0	122.50357399220229	pulse	1.0	t		face	adult-33.jpg	0.0	142.15094864740968	
36.0	123.2035624008713	pulse	1.0	t		face	adult-33.jpg	0.0	142.8509370560787	
37.0	123.42009531450458	number	0.0		46	character	number-100.jpg	0.0	143.06746996971196	0.38330613597645424
37.0	123.80340145048103	ISI	1.0		352	character	number-100.jpg	0.0	143.45077610568842	3.016656494073686
37.0	123.9036627986643	pulse	1.0	t		character	number-100.jpg	0.0	143.5510374538717	
37.0	124.60354555722733	pulse	1.0	t		character	number-100.jpg	0.0	144.25092021243472	
37.0	125.30353970119904	pulse	1.0	t		character	number-100.jpg	0.0	144.95091435640643	
37.0	126.00353112844459	pulse	1.0	t		character	number-100.jpg	0.0	145.65090578365198	
37.0	126.70352527240175	pulse	1.0	t		character	number-100.jpg	0.0	146.35089992760913	
38.0	126.82005794455472	adult	0.0		46	face	adult-129.jpg	0.0	146.4674325997621	0.383304324830533
38.0	127.20336226938525	ISI	1.0		713	face	adult-129.jpg	0.0	146.85073692459264	6.016637477048789
38.0	127.40352484981122	pulse	1.0	t		face	adult-129.jpg	0.0	147.0508995050186	
38.0	128.10350601389655	pulse	1.0	t		face	adult-129.jpg	0.0	147.75088066910394	
38.0	128.80350045971863	pulse	1.0	t		face	adult-129.jpg	0.0	148.45087511492602	
38.0	129.50349188697874	pulse	1.0	t		face	adult-129.jpg	0.0	149.15086654218612	
38.0	130.20347848450183	pulse	1.0	t		face	adult-129.jpg	0.0	149.85085313970922	
38.0	130.9034723266086	pulse	1.0	t		face	adult-129.jpg	0.0	150.550846981816	
38.0	131.6034640557191	pulse	1.0	t		face	adult-129.jpg	0.0	151.25083871092647	
38.0	132.30344854024588	pulse	1.0	t		face	adult-129.jpg	0.0	151.95082319545327	
38.0	133.00344992878672	pulse	1.0	t		face	adult-129.jpg	0.0	152.6508245839941	
39.0	133.21999974643404	number	0.0		46	character	number-37.jpg	0.0	152.86737440164143	0.38329164682363626
39.0	133.60329139325768	ISI	1.0		472	character	number-37.jpg	0.0	153.25066604846506	4.016657399639371
39.0	133.70344799690065	pulse	1.0	t		character	number-37.jpg	0.0	153.35082265210804	
39.0	134.40343157586176	pulse	1.0	t		character	number-37.jpg	0.0	154.05080623106915	
39.0	135.10342904026038	pulse	1.0	t		character	number-37.jpg	0.0	154.75080369546777	
39.0	135.80341986379062	pulse	1.0	t		character	number-37.jpg	0.0	155.450794518998	
39.0	136.5034046501678	pulse	1.0	t		character	number-37.jpg	0.0	156.15077930537518	
39.0	137.20340060528542	pulse	1.0	t		character	number-37.jpg	0.0	156.8507752604928	
40.0	137.61994879289705	limb	0.0		46	body	limb-118.jpg	0.0	157.26732344810443	0.3832901375280926
40.0	137.9033615449298	pulse	0.0	t		body	limb-118.jpg	0.0	157.55073620013718	
40.0	138.00323893042514	ISI	1.0		354	body	limb-118.jpg	0.0	157.65061358563253	3.016654682927765
40.0	138.60338979877997	pulse	1.0	t		body	limb-118.jpg	0.0	158.25076445398736	
40.0	139.30338273532107	pulse	1.0	t		body	limb-118.jpg	0.0	158.95075739052845	
40.0	140.00337567186216	pulse	1.0	t		body	limb-118.jpg	0.0	159.65075032706955	
40.0	140.70336317495094	pulse	1.0	t		body	limb-118.jpg	0.0	160.35073783015832	
41.0	141.0198936133529	house	0.0		46	place	house-9.jpg	0.0	160.6672682685603	0.3833076452719979
41.0	141.4032012586249	ISI	1.0		354	place	house-9.jpg	0.0	161.0505759138323	3.0166320436110254
41.0	141.44544469940593	pulse	1.0	t		place	house-9.jpg	0.0	161.0928193546133	
41.0	142.10335599075188	pulse	1.0	t		place	house-9.jpg	0.0	161.75073064595927	
41.0	142.80335164400458	pulse	1.0	t		place	house-9.jpg	0.0	162.45072629921196	
41.0	143.50332918581262	pulse	1.0	t		place	house-9.jpg	0.0	163.15070384102	
41.0	144.20332393348508	pulse	1.0	t		place	house-9.jpg	0.0	163.85069858869247	
42.0	144.41983330223593	car	0.0		46	object	car-66.jpg	0.0	164.06720795744332	0.38333420871640556
42.0	144.80316751095233	ISI	1.0		234	object	car-66.jpg	0.0	164.45054216615972	2.0166661535185995
42.0	144.9033201904531	pulse	1.0	t		object	car-66.jpg	0.0	164.55069484566047	
42.0	145.60330558056012	pulse	1.0	t		object	car-66.jpg	0.0	165.2506802357675	
42.0	146.30329761152097	pulse	1.0	t		object	car-66.jpg	0.0	165.95067226672836	
43.0	146.81983366447093	adult	0.0		46	face	adult-13.jpg	0.0	166.46720831967832	0.38330100440362
43.0	147.00325070286635	pulse	0.0	t		face	adult-13.jpg	0.0	166.65062535807374	
43.0	147.20313466887455	ISI	1.0		474	face	adult-13.jpg	0.0	166.85050932408194	4.016640193760395
43.0	147.70327835301578	pulse	1.0	t		face	adult-13.jpg	0.0	167.35065300822316	
43.0	148.40328487312945	pulse	1.0	t		face	adult-13.jpg	0.0	168.05065952833684	
43.0	149.10326754652488	pulse	1.0	t		face	adult-13.jpg	0.0	168.75064220173226	
43.0	149.80326621833956	pulse	1.0	t		face	adult-13.jpg	0.0	169.45064087354694	
43.0	150.50325040101598	pulse	1.0	t		face	adult-13.jpg	0.0	170.15062505622336	
44.0	151.21977486263495	number	0.0		45	character	number-36.jpg	0.0	170.86714951784234	0.3833052304107696
44.0	151.20645359152695	pulse	0.0	t		character	number-36.jpg	0.0	170.85382824673434	
44.0	151.60308009304572	ISI	1.0		473	character	number-36.jpg	0.0	171.2504547482531	4.01666162564652
44.0	151.90323717966385	pulse	1.0	t		character	number-36.jpg	0.0	171.55061183487123	
44.0	152.60322679576348	pulse	1.0	t		character	number-36.jpg	0.0	172.25060145097086	
44.0	153.30322003415495	pulse	1.0	t		character	number-36.jpg	0.0	172.95059468936233	
44.0	154.00321961154987	pulse	1.0	t		character	number-36.jpg	0.0	173.65059426675725	
44.0	154.70321073694504	pulse	1.0	t		character	number-36.jpg	0.0	174.35058539215242	
44.0	155.40318435461086	pulse	1.0	t		character	number-36.jpg	0.0	175.05055900981824	
45.0	155.61974171869224	house	0.0		46	place	house-105.jpg	0.0	175.26711637389963	0.38327444094466045
45.0	156.0030161596369	ISI	1.0		233	place	house-105.jpg	0.0	175.6503908148443	2.0166839630983304
45.0	156.10321472145733	pulse	1.0	t		place	house-105.jpg	0.0	175.75058937666472	
45.0	156.8031820001197	pulse	1.0	t		place	house-105.jpg	0.0	176.4505566553271	
45.0	157.50317101250403	pulse	1.0	t		place	house-105.jpg	0.0	177.1505456677114	
46.0	158.01970012273523	number	0.0		46	character	number-50.jpg	0.0	177.66707477794262	0.38327957251749467
46.0	158.20312470757926	pulse	0.0	t		character	number-50.jpg	0.0	177.85049936278665	
46.0	158.40297969525272	ISI	1.0		234	character	number-50.jpg	0.0	178.0503543504601	2.0166972448205343
46.0	158.9031710728741	pulse	1.0	t		character	number-50.jpg	0.0	178.5505457280815	
46.0	159.60314861468214	pulse	1.0	t		character	number-50.jpg	0.0	179.25052326988953	
46.0	160.30313702335116	pulse	1.0	t		character	number-50.jpg	0.0	179.95051167855854	
47.0	160.41967694007326	number	0.0		46	character	number-50.jpg	1.0	180.06705159528065	0.38330009883793537
47.0	160.8029770389112	ISI	1.0		474	character	number-50.jpg	1.0	180.45035169411858	4.016625704607577
47.0	160.79508708888898	response	1.0	b		character	number-50.jpg	1.0	180.44246174409636	
47.0	161.0031136595935	pulse	1.0	t		character	number-50.jpg	1.0	180.6504883148009	
47.0	161.70313014100248	pulse	1.0	t		character	number-50.jpg	1.0	181.35050479620986	
47.0	162.40311160695273	pulse	1.0	t		character	number-50.jpg	1.0	182.05048626216012	
47.0	163.10308643204917	pulse	1.0	t		character	number-50.jpg	1.0	182.75046108725655	
47.0	163.80310593203467	pulse	1.0	t		character	number-50.jpg	1.0	183.45048058724205	
47.0	164.50308377570764	pulse	1.0	t		character	number-50.jpg	1.0	184.15045843091502	
48.0	164.81960274351877	adult	0.0		46	face	adult-141.jpg	0.0	184.46697739872616	0.38332545485172886
48.0	165.2029281983705	ISI	1.0		229	face	adult-141.jpg	0.0	184.8503028535779	2.016665247938363
48.0	165.28744043597544	pulse	1.0	t		face	adult-141.jpg	0.0	184.93481509118283	
48.0	165.90307176177157	pulse	1.0	t		face	adult-141.jpg	0.0	185.55044641697896	
48.0	166.60306439644773	pulse	1.0	t		face	adult-141.jpg	0.0	186.25043905165512	
49.0	167.21959344630886	house	0.0		46	place	house-108.jpg	0.0	186.86696810151625	0.383304324830533
49.0	167.30302231753012	pulse	0.0	t		place	house-108.jpg	0.0	186.9503969727375	
49.0	167.6028977711394	ISI	1.0		231	place	house-108.jpg	0.0	187.25027242634678	2.016669172080583
49.0	168.00304966581461	pulse	1.0	t		place	house-108.jpg	0.0	187.650424321022	
49.0	168.7030429042061	pulse	1.0	t		place	house-108.jpg	0.0	188.35041755941347	
49.0	169.40303342588595	pulse	1.0	t		place	house-108.jpg	0.0	189.05040808109334	
50.0	169.61956694321998	limb	0.0		46	body	limb-138.jpg	0.0	189.26694159842737	0.3833046266954625
50.0	170.00287156991544	ISI	1.0		473	body	limb-138.jpg	0.0	189.65024622512283	4.016626308322884
50.0	170.10304326642654	pulse	1.0	t		body	limb-138.jpg	0.0	189.75041792163393	
50.0	170.80301839337335	pulse	1.0	t		body	limb-138.jpg	0.0	190.45039304858074	
50.0	171.5030083113379	pulse	1.0	t		body	limb-138.jpg	0.0	191.1503829665453	
50.0	172.20299822930247	pulse	1.0	t		body	limb-138.jpg	0.0	191.85037288450985	
50.0	172.9029984104127	pulse	1.0	t		body	limb-138.jpg	0.0	192.55037306562008	
50.0	173.60298651723133	pulse	1.0	t		body	limb-138.jpg	0.0	193.25036117243872	
51.0	174.01949787823833	number	0.0		46	character	number-6.jpg	0.0	193.6668725334457	0.38332303999050055
51.0	174.30294081600732	pulse	0.0	t		character	number-6.jpg	0.0	193.9503154712147	
51.0	174.40282091822883	ISI	1.0		353	character	number-6.jpg	0.0	194.0501955734362	3.016654682927765
51.0	175.00296182528837	pulse	1.0	t		character	number-6.jpg	0.0	194.65033648049575	
51.0	175.7029598934023	pulse	1.0	t		character	number-6.jpg	0.0	195.35033454860968	
51.0	176.40294981136685	pulse	1.0	t		character	number-6.jpg	0.0	196.05032446657424	
51.0	177.10295995377237	pulse	1.0	t		character	number-6.jpg	0.0	196.75033460897976	
52.0	177.4194756011566	house	0.0		46	place	house-96.jpg	0.0	197.06685025636398	0.3833076452719979
52.0	177.8027832464286	ISI	1.0		230	place	house-96.jpg	0.0	197.45015790163598	2.016669172080583
52.0	177.88213553278183	pulse	1.0	t		place	house-96.jpg	0.0	197.52951018798922	
52.0	178.50292469683336	pulse	1.0	t		place	house-96.jpg	0.0	198.15029935204075	
52.0	179.20292095380137	pulse	1.0	t		place	house-96.jpg	0.0	198.85029560900875	
53.0	179.81945241850917	limb	0.0		46	body	limb-128.jpg	0.0	199.46682707371656	0.3833019099693047
53.0	179.90287736557366	pulse	0.0	t		body	limb-128.jpg	0.0	199.55025202078104	
53.0	180.20275432847848	ISI	1.0		234	body	limb-128.jpg	0.0	199.85012898368586	2.016667059084284
53.0	180.60290833615	pulse	1.0	t		body	limb-128.jpg	0.0	200.25028299135738	
53.0	181.30290036711085	pulse	1.0	t		body	limb-128.jpg	0.0	200.95027502231824	
53.0	182.00288666278357	pulse	1.0	t		body	limb-128.jpg	0.0	201.65026131799095	
54.0	182.21942138756276	car	0.0		46	object	car-129.jpg	0.0	201.86679604277015	0.3833076452719979
54.0	182.60272903283476	ISI	1.0		234	object	car-129.jpg	0.0	202.25010368804215	2.016669172080583
54.0	182.70288080675527	pulse	1.0	t		object	car-129.jpg	0.0	202.35025546196266	
54.0	183.40288008229982	pulse	1.0	t		object	car-129.jpg	0.0	203.0502547375072	
54.0	184.10288086712535	pulse	1.0	t		object	car-129.jpg	0.0	203.75025552233274	
55.0	184.61939820491534	car	0.0		46	object	car-98.jpg	0.0	204.26677286012273	0.38330251368461177
55.0	184.80282218602952	pulse	0.0	t		object	car-98.jpg	0.0	204.4501968412369	
55.0	185.00270071859995	ISI	1.0		834	object	car-98.jpg	0.0	204.65007537380734	7.016601556009846
55.0	185.50285104360955	pulse	1.0	t		object	car-98.jpg	0.0	205.15022569881694	
55.0	186.2028409615741	pulse	1.0	t		object	car-98.jpg	0.0	205.8502156167815	
55.0	186.90282393680536	pulse	1.0	t		object	car-98.jpg	0.0	206.55019859201275	
55.0	187.6028220049193	pulse	1.0	t		object	car-98.jpg	0.0	207.25019666012668	
55.0	188.30281282844953	pulse	1.0	t		object	car-98.jpg	0.0	207.95018748365692	
55.0	189.0028111984284	pulse	1.0	t		object	car-98.jpg	0.0	208.65018585363578	
55.0	189.70279779595148	pulse	1.0	t		object	car-98.jpg	0.0	209.35017245115887	
55.0	190.40278861948173	pulse	1.0	t		object	car-98.jpg	0.0	210.0501632746891	
55.0	191.10278668759565	pulse	1.0	t		object	car-98.jpg	0.0	210.75016134280304	
55.0	191.80278022785205	pulse	1.0	t		object	car-98.jpg	0.0	211.45015488305944	
56.0	192.0193022746098	house	0.0		46	place	house-23.jpg	0.0	211.66667692981719	0.3833037211152259
56.0	192.40260599572503	ISI	1.0		234	place	house-23.jpg	0.0	212.0499806509324	2.0166740018030396
56.0	192.50277135324723	pulse	1.0	t		place	house-23.jpg	0.0	212.1501460084546	
56.0	193.20275704520463	pulse	1.0	t		place	house-23.jpg	0.0	212.85013170041202	
56.0	193.90275149102672	pulse	1.0	t		place	house-23.jpg	0.0	213.5501261462341	
57.0	194.41927999752806	house	0.0		46	place	house-30.jpg	0.0	214.06665465273545	0.38330885270261206
57.0	194.60270760094863	pulse	0.0	t		place	house-30.jpg	0.0	214.25008225615602	
57.0	194.80258885023068	ISI	1.0		594	place	house-30.jpg	0.0	214.44996350543806	5.016629628749797
57.0	195.30273857152497	pulse	1.0	t		place	house-30.jpg	0.0	214.95011322673236	
57.0	196.00273180991644	pulse	1.0	t		place	house-30.jpg	0.0	215.65010646512383	
57.0	196.70271901115484	pulse	1.0	t		place	house-30.jpg	0.0	216.35009366636223	
57.0	197.40270923098433	pulse	1.0	t		place	house-30.jpg	0.0	217.05008388619171	
57.0	198.10269854521903	pulse	1.0	t		place	house-30.jpg	0.0	217.7500732004264	
57.0	198.80269450033666	pulse	1.0	t		place	house-30.jpg	0.0	218.45006915554404	
57.0	199.50268351272098	pulse	1.0	t		place	house-30.jpg	0.0	219.15005816792836	
58.0	199.81921847898047	house	0.0		46	place	house-42.jpg	0.0	219.46659313418786	0.3833079471223755
58.0	200.20252642610285	ISI	1.0		234	place	house-42.jpg	0.0	219.84990108131024	2.016663738657371
58.0	200.2500191679428	pulse	1.0	t		place	house-42.jpg	0.0	219.8973938231502	
58.0	200.90267874338315	pulse	1.0	t		place	house-42.jpg	0.0	220.55005339859053	
58.0	201.6026623223297	pulse	1.0	t		place	house-42.jpg	0.0	221.2500369775371	
59.0	202.21919016476022	number	0.0		46	character	number-20.jpg	0.0	221.8665648199676	0.38330583411152475
59.0	202.30261571554	pulse	0.0	t		character	number-20.jpg	0.0	221.9499903707474	
59.0	202.60249599887175	ISI	1.0		473	character	number-20.jpg	0.0	222.24987065407913	4.016645627212711
59.0	203.00265332698473	pulse	1.0	t		character	number-20.jpg	0.0	222.6500279821921	
59.0	203.70264022637275	pulse	1.0	t		character	number-20.jpg	0.0	223.35001488158014	
59.0	204.40263738890644	pulse	1.0	t		character	number-20.jpg	0.0	224.05001204411383	
59.0	205.10261915672163	pulse	1.0	t		character	number-20.jpg	0.0	224.74999381192902	
59.0	205.8026111876825	pulse	1.0	t		character	number-20.jpg	0.0	225.44998584288987	
59.0	206.50260442607396	pulse	1.0	t		character	number-20.jpg	0.0	226.14997908128134	
60.0	206.61914162608446	house	0.0		46	place	house-27.jpg	0.0	226.26651628129184	0.3832985895423917
60.0	207.00244021562685	ISI	1.0		234	place	house-27.jpg	0.0	226.64981487083423	2.0166746055037947
60.0	207.2026030979032	pulse	1.0	t		place	house-27.jpg	0.0	226.84997775311058	
60.0	207.9025881861453	pulse	1.0	t		place	house-27.jpg	0.0	227.54996284135268	
60.0	208.60258625425922	pulse	1.0	t		place	house-27.jpg	0.0	228.2499609094666	
61.0	209.01911482113064	adult	0.0		46	face	adult-55.jpg	0.0	228.66648947633803	0.38330945641791914
61.0	209.30253693074337	pulse	0.0	t		face	adult-55.jpg	0.0	228.94991158595076	
61.0	209.40242427754856	ISI	1.0		234	face	adult-55.jpg	0.0	229.04979893275595	2.0166549847781425
61.0	210.0025672976044	pulse	1.0	t		face	adult-55.jpg	0.0	229.6499419528118	
61.0	210.7025602341455	pulse	1.0	t		face	adult-55.jpg	0.0	230.34993488935288	
62.0	211.4190792623267	adult	0.0		45	face	adult-65.jpg	0.0	231.0664539175341	0.38331428612582386
62.0	211.4107129812619	pulse	0.0	t		face	adult-65.jpg	0.0	231.05808763646928	
62.0	211.80239354845253	ISI	1.0		475	face	adult-65.jpg	0.0	231.44976820365991	4.016642910486553
62.0	212.10254127749067	pulse	1.0	t		face	adult-65.jpg	0.0	231.74991593269806	
62.0	212.80253451588214	pulse	1.0	t		face	adult-65.jpg	0.0	232.44990917108953	
62.0	213.50253379142669	pulse	1.0	t		face	adult-65.jpg	0.0	233.14990844663407	
62.0	214.2025068053772	pulse	1.0	t		face	adult-65.jpg	0.0	233.84988146058458	
62.0	214.90251000506396	pulse	1.0	t		face	adult-65.jpg	0.0	234.54988466027135	
62.0	215.6025035453058	pulse	1.0	t		face	adult-65.jpg	0.0	235.2498782005132	
63.0	215.81903645893908	adult	0.0		46	face	adult-4.jpg	0.0	235.46641111414647	0.3832650833646767
63.0	216.20230154230376	ISI	1.0		235	face	adult-4.jpg	0.0	235.84967619751114	2.0166727943724254
63.0	216.30242765834555	pulse	1.0	t		face	adult-4.jpg	0.0	235.94980231355294	
63.0	217.00241606702912	pulse	1.0	t		face	adult-4.jpg	0.0	236.6497907222365	
63.0	217.70239904226037	pulse	1.0	t		face	adult-4.jpg	0.0	237.34977369746775	
64.0	218.21897433667618	limb	0.0		46	body	limb-130.jpg	0.0	237.86634899188357	0.3833079471223755
64.0	218.40240073266614	pulse	0.0	t		body	limb-130.jpg	0.0	238.04977538787352	
64.0	218.60228228379856	ISI	1.0		354	body	limb-130.jpg	0.0	238.24965693900594	3.016650155070238
64.0	219.1023921599117	pulse	1.0	t		body	limb-130.jpg	0.0	238.74976681511907	
64.0	219.80239143545623	pulse	1.0	t		body	limb-130.jpg	0.0	239.44976609066362	
64.0	220.50237441070203	pulse	1.0	t		body	limb-130.jpg	0.0	240.14974906590942	
64.0	221.20237791223917	pulse	1.0	t		body	limb-130.jpg	0.0	240.84975256744656	
65.0	221.6189324388688	limb	0.0		46	body	limb-8.jpg	0.0	241.26630709407618	0.38333511429664213
65.0	221.90239107322122	pulse	0.0	t		body	limb-8.jpg	0.0	241.5497657284286	
65.0	222.00226755316544	ISI	1.0		359	body	limb-8.jpg	0.0	241.64964220837282	3.0000081501493696
65.0	222.60241932708595	pulse	1.0	t		body	limb-8.jpg	0.0	242.24979398229334	
65.0	223.3024192063458	pulse	1.0	t		body	limb-8.jpg	0.0	242.9497938615532	
65.0	224.0024042945879	pulse	1.0	t		body	limb-8.jpg	0.0	243.6497789497953	
65.0	224.70239874041	pulse	1.0	t		body	limb-8.jpg	0.0	244.34977339561738	
66.0	225.0022757033148	baseline	0.0		708		baseline	0.0	244.6496503585222	5.899933349865023
66.0	225.40239409179776	pulse	0.0	t			baseline	0.0	245.04976874700515	
66.0	226.1023812930507	pulse	0.0	t			baseline	0.0	245.7497559482581	
66.0	226.80237241843133	pulse	0.0	t			baseline	0.0	246.44974707363872	
66.0	227.5023623363959	pulse	0.0	t			baseline	0.0	247.14973699160328	
66.0	228.20235195249552	pulse	0.0	t			baseline	0.0	247.8497266077029	
66.0	228.90235062432475	pulse	0.0	t			baseline	0.0	248.54972527953214	
66.0	229.60234869243868	pulse	0.0	t			baseline	0.0	249.24972334764607	
66.0	230.30233257325017	pulse	0.0	t			baseline	0.0	249.94970722845756	
66.0	230.90220905317983	ISI	1.0		12		baseline	0.0	250.54958370838722	0.10000054334523156
