trial_nr	onset	event_type	phase	response	nr_frames	face_age	face_sex	face_eth	attractiveness	expression	face_id	sub_id	ses	run	trial_type	catch	rating_type	onset_abs	duration
-1.0	0.05462663653361233	fix	0.0		714													142.4196176066016	5.966275173406757
-1.0	0.7045022278261968	pulse	0.0	t														143.0694931978942	
-1.0	1.4044887349973578	pulse	0.0	t														143.76947970506535	
-1.0	2.1044595458142794	pulse	0.0	t														144.46945051588227	
-1.0	2.8044457511323344	pulse	0.0	t														145.16943672120033	
-1.0	3.504425013832588	pulse	0.0	t														145.86941598390058	
-1.0	4.20440518209125	pulse	0.0	t														146.56939615215924	
-1.0	4.904401046705061	pulse	0.0	t														147.26939201677305	
-1.0	5.604367329727211	pulse	0.0	t														147.9693582997952	
0.0	6.020901809940369	face	0.0		141	20.0	male	black	2.609629924393156	smiling	043	sub-01	1.0	1.0	043_smiling	0.0		148.38589278000836	1.2333130387514757
0.0	6.304357157281629	pulse	0.0	t		20.0	male	black	2.609629924393156	smiling	043	sub-01	1.0	1.0	043_smiling	0.0		148.66934812734962	
0.0	7.004335514422564	pulse	0.0	t		20.0	male	black	2.609629924393156	smiling	043	sub-01	1.0	1.0	043_smiling	0.0		149.36932648449056	
0.0	7.254214848691845	fix	1.0		445	20.0	male	black	2.609629924393156	smiling	043	sub-01	1.0	1.0	043_smiling	0.0		149.61920581875984	3.76655535334703
0.0	7.704319003064484	pulse	1.0	t		20.0	male	black	2.609629924393156	smiling	043	sub-01	1.0	1.0	043_smiling	0.0		150.06930997313248	
0.0	8.404293134262844	pulse	1.0	t		20.0	male	black	2.609629924393156	smiling	043	sub-01	1.0	1.0	043_smiling	0.0		150.76928410433084	
0.0	9.104285074788095	pulse	1.0	t		20.0	male	black	2.609629924393156	smiling	043	sub-01	1.0	1.0	043_smiling	0.0		151.4692760448561	
0.0	9.804268563430014	pulse	1.0	t		20.0	male	black	2.609629924393156	smiling	043	sub-01	1.0	1.0	043_smiling	0.0		152.169259533498	
0.0	10.504243298335496	pulse	1.0	t		20.0	male	black	2.609629924393156	smiling	043	sub-01	1.0	1.0	043_smiling	0.0		152.8692342684035	
1.0	11.020770202038875	face	0.0		145	22.0	female	west_asian	3.8205332272184642	neutral	066	sub-01	1.0	1.0	066_neutral	0.0		153.38576117210687	1.2333320554889724
1.0	11.204241577773246	pulse	0.0	t		22.0	female	west_asian	3.8205332272184642	neutral	066	sub-01	1.0	1.0	066_neutral	0.0		153.56923254784124	
1.0	11.904216010825621	pulse	0.0	t		22.0	female	west_asian	3.8205332272184642	neutral	066	sub-01	1.0	1.0	066_neutral	0.0		154.2692069808936	
1.0	12.254102257527848	fix	1.0		445	22.0	female	west_asian	3.8205332272184642	neutral	066	sub-01	1.0	1.0	066_neutral	0.0		154.61909322759584	3.7665535422302128
1.0	12.604202517996782	pulse	1.0	t		22.0	female	west_asian	3.8205332272184642	neutral	066	sub-01	1.0	1.0	066_neutral	0.0		154.96919348806478	
1.0	13.304166989901205	pulse	1.0	t		22.0	female	west_asian	3.8205332272184642	neutral	066	sub-01	1.0	1.0	066_neutral	0.0		155.6691579599692	
1.0	14.004152289660851	pulse	1.0	t		22.0	female	west_asian	3.8205332272184642	neutral	066	sub-01	1.0	1.0	066_neutral	0.0		156.36914325972884	
1.0	14.704139400538224	pulse	1.0	t		22.0	female	west_asian	3.8205332272184642	neutral	066	sub-01	1.0	1.0	066_neutral	0.0		157.06913037060622	
1.0	15.404127718827112	pulse	1.0	t		22.0	female	west_asian	3.8205332272184642	neutral	066	sub-01	1.0	1.0	066_neutral	0.0		157.7691186888951	
2.0	16.02065579975806	face	0.0		145	20.0	male	black	2.609629924393156	neutral	043	sub-01	1.0	1.0	043_neutral	0.0		158.38564676982605	1.2333154535745052
2.0	16.104111811175244	pulse	0.0	t		20.0	male	black	2.609629924393156	neutral	043	sub-01	1.0	1.0	043_neutral	0.0		158.46910278124324	
2.0	16.804073264548606	pulse	0.0	t		20.0	male	black	2.609629924393156	neutral	043	sub-01	1.0	1.0	043_neutral	0.0		159.1690642346166	
2.0	17.253971253332566	fix	1.0		445	20.0	male	black	2.609629924393156	neutral	043	sub-01	1.0	1.0	043_neutral	0.0		159.61896222340056	3.7665472033168044
2.0	17.504071543987266	pulse	1.0	t		20.0	male	black	2.609629924393156	neutral	043	sub-01	1.0	1.0	043_neutral	0.0		159.86906251405526	
2.0	18.204053523363655	pulse	1.0	t		20.0	male	black	2.609629924393156	neutral	043	sub-01	1.0	1.0	043_neutral	0.0		160.56904449343165	
2.0	18.904025843445197	pulse	1.0	t		20.0	male	black	2.609629924393156	neutral	043	sub-01	1.0	1.0	043_neutral	0.0		161.2690168135132	
2.0	19.60400601170386	pulse	1.0	t		20.0	male	black	2.609629924393156	neutral	043	sub-01	1.0	1.0	043_neutral	0.0		161.96899698177185	
2.0	20.303985878110325	pulse	1.0	t		20.0	male	black	2.609629924393156	neutral	043	sub-01	1.0	1.0	043_neutral	0.0		162.66897684817832	
3.0	21.02051845664937	face	0.0		146	27.0	female	white	3.504576203740549	neutral	144	sub-01	1.0	1.0	144_neutral	0.0		163.38550942671736	1.2333054924265525
3.0	21.006805577398154	pulse	0.0	t		27.0	female	white	3.504576203740549	neutral	144	sub-01	1.0	1.0	144_neutral	0.0		163.37179654746615	
3.0	21.703994812958626	pulse	0.0	t		27.0	female	white	3.504576203740549	neutral	144	sub-01	1.0	1.0	144_neutral	0.0		164.06898578302662	
3.0	22.253823949075922	fix	1.0		443	27.0	female	white	3.504576203740549	neutral	144	sub-01	1.0	1.0	144_neutral	0.0		164.61881491914392	3.7582317572887405
3.0	22.403946305183126	pulse	1.0	t		27.0	female	white	3.504576203740549	neutral	144	sub-01	1.0	1.0	144_neutral	0.0		164.76893727525112	
3.0	23.103897797408536	pulse	1.0	t		27.0	female	white	3.504576203740549	neutral	144	sub-01	1.0	1.0	144_neutral	0.0		165.46888876747653	
3.0	23.8039027176128	pulse	1.0	t		27.0	female	white	3.504576203740549	neutral	144	sub-01	1.0	1.0	144_neutral	0.0		166.1688936876808	
3.0	24.503882584018356	pulse	1.0	t		27.0	female	white	3.504576203740549	neutral	144	sub-01	1.0	1.0	144_neutral	0.0		166.86887355408635	
3.0	25.203876939367547	pulse	1.0	t		27.0	female	white	3.504576203740549	neutral	144	sub-01	1.0	1.0	144_neutral	0.0		167.56886790943554	
3.0	25.903836883476288	pulse	1.0	t		27.0	female	white	3.504576203740549	neutral	144	sub-01	1.0	1.0	144_neutral	0.0		168.26882785354428	
4.0	26.012055706364663	face	0.0		147	40.0	male	white	1.868682849184242	smiling	172	sub-01	1.0	1.0	172_smiling	0.0		168.37704667643266	1.2416496144887788
4.0	26.60389130756994	pulse	0.0	t		40.0	male	white	1.868682849184242	smiling	172	sub-01	1.0	1.0	172_smiling	0.0		168.96888227763793	
4.0	27.25370532085344	fix	1.0		443	40.0	male	white	1.868682849184242	smiling	172	sub-01	1.0	1.0	172_smiling	0.0		169.61869629092143	3.7665357329033213
4.0	27.30382227379232	pulse	1.0	t		40.0	male	white	1.868682849184242	smiling	172	sub-01	1.0	1.0	172_smiling	0.0		169.6688132438603	
4.0	28.003787349402046	pulse	1.0	t		40.0	male	white	1.868682849184242	smiling	172	sub-01	1.0	1.0	172_smiling	0.0		170.36877831947004	
4.0	28.70376570654298	pulse	1.0	t		40.0	male	white	1.868682849184242	smiling	172	sub-01	1.0	1.0	172_smiling	0.0		171.06875667661097	
4.0	29.403757647068232	pulse	1.0	t		40.0	male	white	1.868682849184242	smiling	172	sub-01	1.0	1.0	172_smiling	0.0		171.76874861713623	
4.0	30.10373509864985	pulse	1.0	t		40.0	male	white	1.868682849184242	smiling	172	sub-01	1.0	1.0	172_smiling	0.0		172.46872606871784	
4.0	30.803711946526164	pulse	1.0	t		40.0	male	white	1.868682849184242	smiling	172	sub-01	1.0	1.0	172_smiling	0.0		173.16870291659416	
5.0	31.020241053756763	face	0.0		145	28.0	male	east_asian	1.5563072025467568	neutral	005	sub-01	1.0	1.0	005_neutral	1.0	attractiveness	173.38523202382476	1.2333254147233674
5.0	31.50370207593369	pulse	0.0	t		28.0	male	east_asian	1.5563072025467568	neutral	005	sub-01	1.0	1.0	005_neutral	1.0	attractiveness	173.86869304600168	
5.0	32.20368013122152	pulse	0.0	t		28.0	male	east_asian	1.5563072025467568	neutral	005	sub-01	1.0	1.0	005_neutral	1.0	attractiveness	174.5686711012895	
5.0	32.25356646848013	fix	1.0		177	28.0	male	east_asian	1.5563072025467568	neutral	005	sub-01	1.0	1.0	005_neutral	1.0	attractiveness	174.61855743854812	1.5083086543363606
5.0	32.90366029948018	pulse	1.0	t		28.0	male	east_asian	1.5563072025467568	neutral	005	sub-01	1.0	1.0	005_neutral	1.0	attractiveness	175.26865126954817	
5.0	33.60363533623877	pulse	1.0	t		28.0	male	east_asian	1.5563072025467568	neutral	005	sub-01	1.0	1.0	005_neutral	1.0	attractiveness	175.96862630630676	
5.0	33.76187512281649	rating	2.0		294	28.0	male	east_asian	1.5563072025467568	neutral	005	sub-01	1.0	1.0	005_neutral	1.0	attractiveness	176.12686609288448	2.491584489706838
5.0	34.3036263712047	pulse	2.0	t		28.0	male	east_asian	1.5563072025467568	neutral	005	sub-01	1.0	1.0	005_neutral	1.0	attractiveness	176.6686173412727	
5.0	35.00360804872889	pulse	2.0	t		28.0	male	east_asian	1.5563072025467568	neutral	005	sub-01	1.0	1.0	005_neutral	1.0	attractiveness	177.36859901879689	
5.0	35.586936225407044	response	2.0	e		28.0	male	east_asian	1.5563072025467568	neutral	005	sub-01	1.0	1.0	005_neutral	1.0	attractiveness	177.95192719547504	
5.0	35.70359546145937	pulse	2.0	t		28.0	male	east_asian	1.5563072025467568	neutral	005	sub-01	1.0	1.0	005_neutral	1.0	attractiveness	178.06858643152736	
5.0	36.25345961252333	fix	3.0		443	28.0	male	east_asian	1.5563072025467568	neutral	005	sub-01	1.0	1.0	005_neutral	1.0	attractiveness	178.61845058259132	3.7665456940521835
5.0	36.40356838524622	pulse	3.0	t		28.0	male	east_asian	1.5563072025467568	neutral	005	sub-01	1.0	1.0	005_neutral	1.0	attractiveness	178.7685593553142	
5.0	37.10356424986094	pulse	3.0	t		28.0	male	east_asian	1.5563072025467568	neutral	005	sub-01	1.0	1.0	005_neutral	1.0	attractiveness	179.46855521992893	
5.0	37.803532343999905	pulse	3.0	t		28.0	male	east_asian	1.5563072025467568	neutral	005	sub-01	1.0	1.0	005_neutral	1.0	attractiveness	180.1685233140679	
5.0	38.5035143233772	pulse	3.0	t		28.0	male	east_asian	1.5563072025467568	neutral	005	sub-01	1.0	1.0	005_neutral	1.0	attractiveness	180.8685052934452	
5.0	39.203503849078515	pulse	3.0	t		28.0	male	east_asian	1.5563072025467568	neutral	005	sub-01	1.0	1.0	005_neutral	1.0	attractiveness	181.5684948191465	
5.0	39.90350333592778	pulse	3.0	t		28.0	male	east_asian	1.5563072025467568	neutral	005	sub-01	1.0	1.0	005_neutral	1.0	attractiveness	182.26849430599577	
6.0	40.02000530657551	face	0.0		146	24.0	female	black	3.0955033824114606	neutral	099	sub-01	1.0	1.0	099_neutral	0.0		182.3849962766435	1.2333239054587466
6.0	40.603470826361445	pulse	0.0	t		24.0	female	black	3.0955033824114606	neutral	099	sub-01	1.0	1.0	099_neutral	0.0		182.96846179642944	
6.0	41.25332921203426	fix	1.0		443	24.0	female	black	3.0955033824114606	neutral	099	sub-01	1.0	1.0	099_neutral	0.0		183.61832018210225	3.758354611452887
6.0	41.303448881649274	pulse	1.0	t		24.0	female	black	3.0955033824114606	neutral	099	sub-01	1.0	1.0	099_neutral	0.0		183.66843985171727	
6.0	42.00342331470165	pulse	1.0	t		24.0	female	black	3.0955033824114606	neutral	099	sub-01	1.0	1.0	099_neutral	0.0		184.36841428476964	
6.0	42.70340287925501	pulse	1.0	t		24.0	female	black	3.0955033824114606	neutral	099	sub-01	1.0	1.0	099_neutral	0.0		185.068393849323	
6.0	43.403385160484504	pulse	1.0	t		24.0	female	black	3.0955033824114606	neutral	099	sub-01	1.0	1.0	099_neutral	0.0		185.7683761305525	
6.0	44.10336563059627	pulse	1.0	t		24.0	female	black	3.0955033824114606	neutral	099	sub-01	1.0	1.0	099_neutral	0.0		186.46835660066426	
6.0	44.803344289590314	pulse	1.0	t		24.0	female	black	3.0955033824114606	neutral	099	sub-01	1.0	1.0	099_neutral	0.0		187.1683352596583	
7.0	45.01168382348715	face	0.0		146	30.0	female	black	2.7345801830481498	smiling	062	sub-01	1.0	1.0	062_smiling	0.0		187.37667479355514	1.2415252510591017
7.0	45.503333815291626	pulse	0.0	t		30.0	female	black	2.7345801830481498	smiling	062	sub-01	1.0	1.0	062_smiling	0.0		187.86832478535962	
7.0	46.203323642846044	pulse	0.0	t		30.0	female	black	2.7345801830481498	smiling	062	sub-01	1.0	1.0	062_smiling	0.0		188.56831461291404	
7.0	46.25320907454625	fix	1.0		445	30.0	female	black	2.7345801830481498	smiling	062	sub-01	1.0	1.0	062_smiling	0.0		188.61820004461424	3.7665499199938495
7.0	46.90330743334107	pulse	1.0	t		30.0	female	black	2.7345801830481498	smiling	062	sub-01	1.0	1.0	062_smiling	0.0		189.26829840340906	
7.0	47.60328126268723	pulse	1.0	t		30.0	female	black	2.7345801830481498	smiling	062	sub-01	1.0	1.0	062_smiling	0.0		189.96827223275523	
7.0	48.303259921681274	pulse	1.0	t		30.0	female	black	2.7345801830481498	smiling	062	sub-01	1.0	1.0	062_smiling	0.0		190.66825089174927	
7.0	49.00324039179304	pulse	1.0	t		30.0	female	black	2.7345801830481498	smiling	062	sub-01	1.0	1.0	062_smiling	0.0		191.36823136186104	
7.0	49.703216635963145	pulse	1.0	t		30.0	female	black	2.7345801830481498	smiling	062	sub-01	1.0	1.0	062_smiling	0.0		192.06820760603114	
8.0	50.0197589945401	face	0.0		145	26.0	female	white	4.854755272582572	neutral	027	sub-01	1.0	1.0	027_neutral	0.0		192.3847499646081	1.2333042850141283
8.0	50.403210991312335	pulse	0.0	t		26.0	female	white	4.854755272582572	neutral	027	sub-01	1.0	1.0	027_neutral	0.0		192.76820196138033	
8.0	51.10319085771789	pulse	0.0	t		26.0	female	white	4.854755272582572	neutral	027	sub-01	1.0	1.0	027_neutral	0.0		193.46818182778588	
8.0	51.253063279554226	fix	1.0		444	26.0	female	white	4.854755272582572	neutral	027	sub-01	1.0	1.0	027_neutral	0.0		193.61805424962222	3.7582293424648014
8.0	51.80317827044837	pulse	1.0	t		26.0	female	white	4.854755272582572	neutral	027	sub-01	1.0	1.0	027_neutral	0.0		194.16816924051636	
8.0	52.50314787385287	pulse	1.0	t		26.0	female	white	4.854755272582572	neutral	027	sub-01	1.0	1.0	027_neutral	0.0		194.86813884392086	
8.0	53.20312743840623	pulse	1.0	t		26.0	female	white	4.854755272582572	neutral	027	sub-01	1.0	1.0	027_neutral	0.0		195.56811840847422	
8.0	53.9031202844908	pulse	1.0	t		26.0	female	white	4.854755272582572	neutral	027	sub-01	1.0	1.0	027_neutral	0.0		196.2681112545588	
8.0	54.60307690821628	pulse	1.0	t		26.0	female	white	4.854755272582572	neutral	027	sub-01	1.0	1.0	027_neutral	0.0		196.96806787828427	
9.0	55.01129262201903	face	0.0		146	40.0	male	black	2.408674890569041	smiling	061	sub-01	1.0	1.0	061_smiling	0.0		197.37628359208702	1.2416535385773386
9.0	55.30307518765403	pulse	0.0	t		40.0	male	black	2.408674890569041	smiling	061	sub-01	1.0	1.0	061_smiling	0.0		197.66806615772202	
9.0	56.003058978149056	pulse	0.0	t		40.0	male	black	2.408674890569041	smiling	061	sub-01	1.0	1.0	061_smiling	0.0		198.36804994821705	
9.0	56.252946160596366	fix	1.0		445	40.0	male	black	2.408674890569041	smiling	061	sub-01	1.0	1.0	061_smiling	0.0		198.61793713066436	3.766535129197109
9.0	56.70304608902643	pulse	1.0	t		40.0	male	black	2.408674890569041	smiling	061	sub-01	1.0	1.0	061_smiling	0.0		199.06803705909442	
9.0	57.4030138813132	pulse	1.0	t		40.0	male	black	2.408674890569041	smiling	061	sub-01	1.0	1.0	061_smiling	0.0		199.7680048513812	
9.0	58.10313833529926	pulse	1.0	t		40.0	male	black	2.408674890569041	smiling	061	sub-01	1.0	1.0	061_smiling	0.0		200.46812930536726	
9.0	58.80301526983658	pulse	1.0	t		40.0	male	black	2.408674890569041	smiling	061	sub-01	1.0	1.0	061_smiling	0.0		201.16800623990457	
9.0	59.50295408423699	pulse	1.0	t		40.0	male	black	2.408674890569041	smiling	061	sub-01	1.0	1.0	061_smiling	0.0		201.86794505430498	
10.0	60.019481289793475	face	0.0		145	24.0	female	east_asian	2.9076800636689217	neutral	034	sub-01	1.0	1.0	034_neutral	0.0		202.38447225986147	1.2333326591951845
10.0	60.20294542105603	pulse	0.0	t		24.0	female	east_asian	2.9076800636689217	neutral	034	sub-01	1.0	1.0	034_neutral	0.0		202.56793639112402	
10.0	60.90292106151992	pulse	0.0	t		24.0	female	east_asian	2.9076800636689217	neutral	034	sub-01	1.0	1.0	034_neutral	0.0		203.2679120315879	
10.0	61.25281394898866	fix	1.0		445	24.0	female	east_asian	2.9076800636689217	neutral	034	sub-01	1.0	1.0	034_neutral	0.0		203.61780491905665	3.7582356813773004
10.0	61.60291390760449	pulse	1.0	t		24.0	female	east_asian	2.9076800636689217	neutral	034	sub-01	1.0	1.0	034_neutral	0.0		203.96790487767248	
10.0	62.302882907302774	pulse	1.0	t		24.0	female	east_asian	2.9076800636689217	neutral	034	sub-01	1.0	1.0	034_neutral	0.0		204.66787387737077	
10.0	63.00287062188636	pulse	1.0	t		24.0	female	east_asian	2.9076800636689217	neutral	034	sub-01	1.0	1.0	034_neutral	0.0		205.36786159195435	
10.0	63.70285652535222	pulse	1.0	t		24.0	female	east_asian	2.9076800636689217	neutral	034	sub-01	1.0	1.0	034_neutral	0.0		206.0678474954202	
10.0	64.40284273067027	pulse	1.0	t		24.0	female	east_asian	2.9076800636689217	neutral	034	sub-01	1.0	1.0	034_neutral	0.0		206.76783370073827	
11.0	65.01104963036596	face	0.0		146	21.0	male	black	2.969757262236371	smiling	137	sub-01	1.0	1.0	137_smiling	0.0		207.37604060043395	1.2416185236306774
11.0	65.1028204841059	pulse	0.0	t		21.0	male	black	2.969757262236371	smiling	137	sub-01	1.0	1.0	137_smiling	0.0		207.4678114541739	
11.0	65.80280457645313	pulse	0.0	t		21.0	male	black	2.969757262236371	smiling	137	sub-01	1.0	1.0	137_smiling	0.0		208.16779554652112	
11.0	66.25266815399664	fix	1.0		444	21.0	male	black	2.969757262236371	smiling	137	sub-01	1.0	1.0	137_smiling	0.0		208.61765912406463	3.7665505237000616
11.0	66.50278082062323	pulse	1.0	t		21.0	male	black	2.969757262236371	smiling	137	sub-01	1.0	1.0	137_smiling	0.0		208.86777179069122	
11.0	67.20275646108803	pulse	1.0	t		21.0	male	black	2.969757262236371	smiling	137	sub-01	1.0	1.0	137_smiling	0.0		209.56774743115602	
11.0	67.90273994972904	pulse	1.0	t		21.0	male	black	2.969757262236371	smiling	137	sub-01	1.0	1.0	137_smiling	0.0		210.26773091979703	
11.0	68.60271800501778	pulse	1.0	t		21.0	male	black	2.969757262236371	smiling	137	sub-01	1.0	1.0	137_smiling	0.0		210.96770897508577	
11.0	69.30270088995348	pulse	1.0	t		21.0	male	black	2.969757262236371	smiling	137	sub-01	1.0	1.0	137_smiling	0.0		211.66769186002148	
12.0	70.0192186776967	face	0.0		146	25.0	female	black	3.858336649423	neutral	126	sub-01	1.0	1.0	126_neutral	0.0		212.3842096477647	1.2333347721660175
12.0	70.00574848824454	pulse	0.0	t		25.0	female	black	3.858336649423	neutral	126	sub-01	1.0	1.0	126_neutral	0.0		212.37073945831253	
12.0	70.70267571541444	pulse	0.0	t		25.0	female	black	3.858336649423	neutral	126	sub-01	1.0	1.0	126_neutral	0.0		213.06766668548244	
12.0	71.25255344986272	fix	1.0		443	25.0	female	black	3.858336649423	neutral	126	sub-01	1.0	1.0	126_neutral	0.0		213.6175444199307	3.7582220979929843
12.0	71.40265014846591	pulse	1.0	t		25.0	female	black	3.858336649423	neutral	126	sub-01	1.0	1.0	126_neutral	0.0		213.7676411185339	
12.0	72.10263333525472	pulse	1.0	t		25.0	female	black	3.858336649423	neutral	126	sub-01	1.0	1.0	126_neutral	0.0		214.46762430532272	
12.0	72.80260716460089	pulse	1.0	t		25.0	female	black	3.858336649423	neutral	126	sub-01	1.0	1.0	126_neutral	0.0		215.16759813466888	
12.0	73.50260182180318	pulse	1.0	t		25.0	female	black	3.858336649423	neutral	126	sub-01	1.0	1.0	126_neutral	0.0		215.86759279187117	
12.0	74.20257625485556	pulse	1.0	t		25.0	female	black	3.858336649423	neutral	126	sub-01	1.0	1.0	126_neutral	0.0		216.56756722492355	
12.0	74.90255974349748	pulse	1.0	t		25.0	female	black	3.858336649423	neutral	126	sub-01	1.0	1.0	126_neutral	0.0		217.26755071356547	
13.0	75.0107755478557	face	0.0		147	27.0	male	black	3.5523278949462798	smiling	042	sub-01	1.0	1.0	042_smiling	0.0		217.3757665179237	1.2416302958972665
13.0	75.60313365657748	pulse	0.0	t		27.0	male	black	3.5523278949462798	smiling	042	sub-01	1.0	1.0	042_smiling	0.0		217.96812462664548	
13.0	76.25240584375297	fix	1.0		443	27.0	male	black	3.5523278949462798	smiling	042	sub-01	1.0	1.0	042_smiling	0.0		218.61739681382096	3.7665505237000616
13.0	76.30252068372101	pulse	1.0	t		27.0	male	black	3.5523278949462798	smiling	042	sub-01	1.0	1.0	042_smiling	0.0		218.667511653789	
13.0	77.00249964456816	pulse	1.0	t		27.0	male	black	3.5523278949462798	smiling	042	sub-01	1.0	1.0	042_smiling	0.0		219.36749061463615	
13.0	77.70248162394455	pulse	1.0	t		27.0	male	black	3.5523278949462798	smiling	042	sub-01	1.0	1.0	042_smiling	0.0		220.06747259401254	
13.0	78.40247235705829	pulse	1.0	t		27.0	male	black	3.5523278949462798	smiling	042	sub-01	1.0	1.0	042_smiling	0.0		220.76746332712628	
13.0	79.10244860122839	pulse	1.0	t		27.0	male	black	3.5523278949462798	smiling	042	sub-01	1.0	1.0	042_smiling	0.0		221.46743957129638	
13.0	79.80242182686834	pulse	1.0	t		27.0	male	black	3.5523278949462798	smiling	042	sub-01	1.0	1.0	042_smiling	0.0		222.16741279693633	
14.0	80.01895636745303	face	0.0		145	20.0	female	white	3.9502586549940313	neutral	091	sub-01	1.0	1.0	091_neutral	0.0		222.38394733752102	1.2333332629004872
14.0	80.50242372854245	pulse	0.0	t		20.0	female	white	3.9502586549940313	neutral	091	sub-01	1.0	1.0	091_neutral	0.0		222.86741469861045	
14.0	81.20238729488665	pulse	0.0	t		20.0	female	white	3.9502586549940313	neutral	091	sub-01	1.0	1.0	091_neutral	0.0		223.56737826495464	
14.0	81.25228963035352	fix	1.0		445	20.0	female	white	3.9502586549940313	neutral	091	sub-01	1.0	1.0	091_neutral	0.0		223.6172806004215	3.7665360347564274
14.0	81.90238829100235	pulse	1.0	t		20.0	female	white	3.9502586549940313	neutral	091	sub-01	1.0	1.0	091_neutral	0.0		224.26737926107035	
14.0	82.60236362961314	pulse	1.0	t		20.0	female	white	3.9502586549940313	neutral	091	sub-01	1.0	1.0	091_neutral	0.0		224.96735459968113	
14.0	83.30233534598847	pulse	1.0	t		20.0	female	white	3.9502586549940313	neutral	091	sub-01	1.0	1.0	091_neutral	0.0		225.66732631605646	
14.0	84.00231883463039	pulse	1.0	t		20.0	female	white	3.9502586549940313	neutral	091	sub-01	1.0	1.0	091_neutral	0.0		226.36730980469838	
14.0	84.70228904174019	pulse	1.0	t		20.0	female	white	3.9502586549940313	neutral	091	sub-01	1.0	1.0	091_neutral	0.0		227.06728001180818	
15.0	85.01882566510994	face	0.0		145	31.0	female	east_asian	3.395941106247513	smiling	087	sub-01	1.0	1.0	087_smiling	1.0	attractiveness	227.38381663517794	1.2333208869285954
15.0	85.4022846045018	pulse	0.0	t		31.0	female	east_asian	3.395941106247513	smiling	087	sub-01	1.0	1.0	087_smiling	1.0	attractiveness	227.7672755745698	
15.0	86.10225964125948	pulse	0.0	t		31.0	female	east_asian	3.395941106247513	smiling	087	sub-01	1.0	1.0	087_smiling	1.0	attractiveness	228.46725061132747	
15.0	86.25214655203854	fix	1.0		177	31.0	female	east_asian	3.395941106247513	smiling	087	sub-01	1.0	1.0	087_smiling	1.0	attractiveness	228.61713752210653	1.4999575896563329
15.0	86.80230350049806	pulse	1.0	t		31.0	female	east_asian	3.395941106247513	smiling	087	sub-01	1.0	1.0	087_smiling	1.0	attractiveness	229.16729447056605	
15.0	87.502225712984	pulse	1.0	t		31.0	female	east_asian	3.395941106247513	smiling	087	sub-01	1.0	1.0	087_smiling	1.0	attractiveness	229.867216683052	
15.0	87.75210414169487	rating	2.0		295	31.0	female	east_asian	3.395941106247513	smiling	087	sub-01	1.0	1.0	087_smiling	1.0	attractiveness	230.11709511176286	2.499934346975351
15.0	88.20221010718524	pulse	2.0	t		31.0	female	east_asian	3.395941106247513	smiling	087	sub-01	1.0	1.0	087_smiling	1.0	attractiveness	230.56720107725323	
15.0	88.40218861525227	response	2.0	e		31.0	female	east_asian	3.395941106247513	smiling	087	sub-01	1.0	1.0	087_smiling	1.0	attractiveness	230.76717958532026	
15.0	88.90217910688352	pulse	2.0	t		31.0	female	east_asian	3.395941106247513	smiling	087	sub-01	1.0	1.0	087_smiling	1.0	attractiveness	231.26717007695152	
15.0	89.60214418249325	pulse	2.0	t		31.0	female	east_asian	3.395941106247513	smiling	087	sub-01	1.0	1.0	087_smiling	1.0	attractiveness	231.96713515256124	
15.0	90.25203848867022	fix	3.0		443	31.0	female	east_asian	3.395941106247513	smiling	087	sub-01	1.0	1.0	087_smiling	1.0	attractiveness	232.61702945873822	3.7665686348791496
15.0	90.30215181937365	pulse	3.0	t		31.0	female	east_asian	3.395941106247513	smiling	087	sub-01	1.0	1.0	087_smiling	1.0	attractiveness	232.66714278944164	
15.0	91.00212957280837	pulse	3.0	t		31.0	female	east_asian	3.395941106247513	smiling	087	sub-01	1.0	1.0	087_smiling	1.0	attractiveness	233.36712054287636	
15.0	91.70211306145029	pulse	3.0	t		31.0	female	east_asian	3.395941106247513	smiling	087	sub-01	1.0	1.0	087_smiling	1.0	attractiveness	234.06710403151828	
15.0	92.40210409641622	pulse	3.0	t		31.0	female	east_asian	3.395941106247513	smiling	087	sub-01	1.0	1.0	087_smiling	1.0	attractiveness	234.76709506648422	
15.0	93.10208788691125	pulse	3.0	t		31.0	female	east_asian	3.395941106247513	smiling	087	sub-01	1.0	1.0	087_smiling	1.0	attractiveness	235.46707885697924	
15.0	93.80205899958037	pulse	3.0	t		31.0	female	east_asian	3.395941106247513	smiling	087	sub-01	1.0	1.0	087_smiling	1.0	attractiveness	236.16704996964836	
16.0	94.01860712354937	face	0.0		145	31.0	male	west_asian	1.9538400318344609	neutral	070	sub-01	1.0	1.0	070_neutral	0.0		236.38359809361737	1.2333054924265525
16.0	94.50204550675244	pulse	0.0	t		31.0	male	west_asian	1.9538400318344609	neutral	070	sub-01	1.0	1.0	070_neutral	0.0		236.86703647682043	
16.0	95.20202748612883	pulse	0.0	t		31.0	male	west_asian	1.9538400318344609	neutral	070	sub-01	1.0	1.0	070_neutral	0.0		237.56701845619682	
16.0	95.25191261597593	fix	1.0		445	31.0	male	west_asian	1.9538400318344609	neutral	070	sub-01	1.0	1.0	070_neutral	0.0		237.61690358604392	3.758232059140937
16.0	95.90200916365302	pulse	1.0	t		31.0	male	west_asian	1.9538400318344609	neutral	070	sub-01	1.0	1.0	070_neutral	0.0		238.267000133721	
16.0	96.60197514482115	pulse	1.0	t		31.0	male	west_asian	1.9538400318344609	neutral	070	sub-01	1.0	1.0	070_neutral	0.0		238.96696611488915	
16.0	97.30196346311095	pulse	1.0	t		31.0	male	west_asian	1.9538400318344609	neutral	070	sub-01	1.0	1.0	070_neutral	0.0		239.66695443317894	
16.0	98.0019490647237	pulse	1.0	t		31.0	male	west_asian	1.9538400318344609	neutral	070	sub-01	1.0	1.0	070_neutral	0.0		240.3669400347917	
16.0	98.70193496818956	pulse	1.0	t		31.0	male	west_asian	1.9538400318344609	neutral	070	sub-01	1.0	1.0	070_neutral	0.0		241.06692593825755	
17.0	99.01014467511686	face	0.0		146	40.0	female	west_asian	1.5777954635893354	neutral	038	sub-01	1.0	1.0	038_neutral	0.0		241.37513564518486	1.2416315033096907
17.0	99.40192690871481	pulse	0.0	t		40.0	female	west_asian	1.5777954635893354	neutral	038	sub-01	1.0	1.0	038_neutral	0.0		241.7669178787828	
17.0	100.10189741767772	pulse	0.0	t		40.0	female	west_asian	1.5777954635893354	neutral	038	sub-01	1.0	1.0	038_neutral	0.0		242.4668883877457	
17.0	100.25177617842655	fix	1.0		444	40.0	female	west_asian	1.5777954635893354	neutral	038	sub-01	1.0	1.0	038_neutral	0.0		242.61676714849455	3.7665544477886215
17.0	100.80188151002585	pulse	1.0	t		40.0	female	west_asian	1.5777954635893354	neutral	038	sub-01	1.0	1.0	038_neutral	0.0		243.16687248009384	
17.0	101.50187013016784	pulse	1.0	t		40.0	female	west_asian	1.5777954635893354	neutral	038	sub-01	1.0	1.0	038_neutral	0.0		243.86686110023584	
17.0	102.2018493928681	pulse	1.0	t		40.0	female	west_asian	1.5777954635893354	neutral	038	sub-01	1.0	1.0	038_neutral	0.0		244.5668403629361	
17.0	102.9018259388913	pulse	1.0	t		40.0	female	west_asian	1.5777954635893354	neutral	038	sub-01	1.0	1.0	038_neutral	0.0		245.2668169089593	
17.0	103.601795844148	pulse	1.0	t		40.0	female	west_asian	1.5777954635893354	neutral	038	sub-01	1.0	1.0	038_neutral	0.0		245.966786814216	
18.0	104.01833062621517	face	0.0		145	24.0	female	east_asian	4.409868682849185	smiling	030	sub-01	1.0	1.0	030_smiling	0.0		246.38332159628317	1.2333142461629905
18.0	104.30180046249916	pulse	0.0	t		24.0	female	east_asian	4.409868682849185	smiling	030	sub-01	1.0	1.0	030_smiling	0.0		246.66679143256715	
18.0	105.00176765107972	pulse	0.0	t		24.0	female	east_asian	4.409868682849185	smiling	030	sub-01	1.0	1.0	030_smiling	0.0		247.3667586211477	
18.0	105.25164487237817	fix	1.0		444	24.0	female	east_asian	4.409868682849185	smiling	030	sub-01	1.0	1.0	030_smiling	0.0		247.61663584244616	3.7583697041027335
18.0	105.70175023416232	pulse	1.0	t		24.0	female	east_asian	4.409868682849185	smiling	030	sub-01	1.0	1.0	030_smiling	0.0		248.0667412042303	
18.0	106.40172708203863	pulse	1.0	t		24.0	female	east_asian	4.409868682849185	smiling	030	sub-01	1.0	1.0	030_smiling	0.0		248.76671805210663	
18.0	107.10170875956192	pulse	1.0	t		24.0	female	east_asian	4.409868682849185	smiling	030	sub-01	1.0	1.0	030_smiling	0.0		249.4666997296299	
18.0	107.80169737970482	pulse	1.0	t		24.0	female	east_asian	4.409868682849185	smiling	030	sub-01	1.0	1.0	030_smiling	0.0		250.1666883497728	
18.0	108.50166305902076	pulse	1.0	t		24.0	female	east_asian	4.409868682849185	smiling	030	sub-01	1.0	1.0	030_smiling	0.0		250.86665402908875	
19.0	109.0100145764809	face	0.0		146	32.0	male	white	2.389176283326701	neutral	092	sub-01	1.0	1.0	092_neutral	0.0		251.3750055465489	1.2415161954686482
19.0	109.20167009219495	pulse	0.0	t		32.0	male	white	2.389176283326701	neutral	092	sub-01	1.0	1.0	092_neutral	0.0		251.56666106226294	
19.0	109.90165176971914	pulse	0.0	t		32.0	male	white	2.389176283326701	neutral	092	sub-01	1.0	1.0	092_neutral	0.0		252.26664273978713	
19.0	110.25153077194955	fix	1.0		444	32.0	male	white	2.389176283326701	neutral	092	sub-01	1.0	1.0	092_neutral	0.0		252.61652174201754	3.7665366384626395
19.0	110.60162258053515	pulse	1.0	t		32.0	male	white	2.389176283326701	neutral	092	sub-01	1.0	1.0	092_neutral	0.0		252.96661355060314	
19.0	111.30159973026366	pulse	1.0	t		32.0	male	white	2.389176283326701	neutral	092	sub-01	1.0	1.0	092_neutral	0.0		253.66659070033165	
19.0	112.00158231334717	pulse	1.0	t		32.0	male	white	2.389176283326701	neutral	092	sub-01	1.0	1.0	092_neutral	0.0		254.36657328341516	
19.0	112.70157455572553	pulse	1.0	t		32.0	male	white	2.389176283326701	neutral	092	sub-01	1.0	1.0	092_neutral	0.0		255.06656552579352	
19.0	113.40154597024775	pulse	1.0	t		32.0	male	white	2.389176283326701	neutral	092	sub-01	1.0	1.0	092_neutral	0.0		255.76653694031575	
20.0	114.01806741041219	face	0.0		145	19.0	male	white	2.243931555909272	smiling	130	sub-01	1.0	1.0	130_smiling	0.0		256.3830583804802	1.2333311499305637
20.0	114.10153066630119	pulse	0.0	t		19.0	male	white	2.243931555909272	smiling	130	sub-01	1.0	1.0	130_smiling	0.0		256.4665216363692	
20.0	114.80151536235462	pulse	0.0	t		19.0	male	white	2.243931555909272	smiling	130	sub-01	1.0	1.0	130_smiling	0.0		257.1665063324226	
20.0	115.25139856034275	fix	1.0		1185	19.0	male	white	2.243931555909272	smiling	130	sub-01	1.0	1.0	130_smiling	0.0		257.61638953041074	10.008036835723033
20.0	115.50150700102677	pulse	1.0	t		19.0	male	white	2.243931555909272	smiling	130	sub-01	1.0	1.0	130_smiling	0.0		257.86649797109476	
20.0	116.20147117107808	pulse	1.0	t		19.0	male	white	2.243931555909272	smiling	130	sub-01	1.0	1.0	130_smiling	0.0		258.5664621411461	
20.0	116.90146401716174	pulse	1.0	t		19.0	male	white	2.243931555909272	smiling	130	sub-01	1.0	1.0	130_smiling	0.0		259.26645498722974	
20.0	117.60143573353707	pulse	1.0	t		19.0	male	white	2.243931555909272	smiling	130	sub-01	1.0	1.0	130_smiling	0.0		259.96642670360507	
20.0	118.30141499623733	pulse	1.0	t		19.0	male	white	2.243931555909272	smiling	130	sub-01	1.0	1.0	130_smiling	0.0		260.6664059663053	
20.0	119.00139999414387	pulse	1.0	t		19.0	male	white	2.243931555909272	smiling	130	sub-01	1.0	1.0	130_smiling	0.0		261.36639096421186	
20.0	119.70138951984518	pulse	1.0	t		19.0	male	white	2.243931555909272	smiling	130	sub-01	1.0	1.0	130_smiling	0.0		262.0663804899132	
20.0	120.40137995110581	pulse	1.0	t		19.0	male	white	2.243931555909272	smiling	130	sub-01	1.0	1.0	130_smiling	0.0		262.7663709211738	
20.0	121.10134231003849	pulse	1.0	t		19.0	male	white	2.243931555909272	smiling	130	sub-01	1.0	1.0	130_smiling	0.0		263.4663332801065	
20.0	121.80132368570958	pulse	1.0	t		19.0	male	white	2.243931555909272	smiling	130	sub-01	1.0	1.0	130_smiling	0.0		264.16631465577757	
20.0	122.50130928732233	pulse	1.0	t		19.0	male	white	2.243931555909272	smiling	130	sub-01	1.0	1.0	130_smiling	0.0		264.8663002573903	
20.0	123.20129096484561	pulse	1.0	t		19.0	male	white	2.243931555909272	smiling	130	sub-01	1.0	1.0	130_smiling	0.0		265.5662819349136	
20.0	123.90128109425314	pulse	1.0	t		19.0	male	white	2.243931555909272	smiling	130	sub-01	1.0	1.0	130_smiling	0.0		266.26627206432113	
20.0	124.60125281062847	pulse	1.0	t		19.0	male	white	2.243931555909272	smiling	130	sub-01	1.0	1.0	130_smiling	0.0		266.96624378069646	
21.0	125.25943539606578	face	0.0		146	21.0	male	east_asian/white	3.501790688420215	neutral	036	sub-01	1.0	1.0	036_neutral	0.0		267.6244263661338	1.2416517274596117
21.0	125.301237808535	pulse	0.0	t		21.0	male	east_asian/white	3.501790688420215	neutral	036	sub-01	1.0	1.0	036_neutral	0.0		267.666228778603	
21.0	126.001213750852	pulse	0.0	t		21.0	male	east_asian/white	3.501790688420215	neutral	036	sub-01	1.0	1.0	036_neutral	0.0		268.36620472092	
21.0	126.5010871235254	fix	1.0		443	21.0	male	east_asian/white	3.501790688420215	neutral	036	sub-01	1.0	1.0	036_neutral	0.0		268.8660780935934	3.766553240376197
21.0	126.70120961546672	pulse	1.0	t		21.0	male	east_asian/white	3.501790688420215	neutral	036	sub-01	1.0	1.0	036_neutral	0.0		269.0662005855347	
21.0	127.40118555778372	pulse	1.0	t		21.0	male	east_asian/white	3.501790688420215	neutral	036	sub-01	1.0	1.0	036_neutral	0.0		269.7661765278517	
21.0	128.1011599908361	pulse	1.0	t		21.0	male	east_asian/white	3.501790688420215	neutral	036	sub-01	1.0	1.0	036_neutral	0.0		270.4661509609041	
21.0	128.80114166835938	pulse	1.0	t		21.0	male	east_asian/white	3.501790688420215	neutral	036	sub-01	1.0	1.0	036_neutral	0.0		271.16613263842737	
21.0	129.5011200255003	pulse	1.0	t		21.0	male	east_asian/white	3.501790688420215	neutral	036	sub-01	1.0	1.0	036_neutral	0.0		271.8661109955683	
21.0	130.20110985305473	pulse	1.0	t		21.0	male	east_asian/white	3.501790688420215	neutral	036	sub-01	1.0	1.0	036_neutral	0.0		272.5661008231227	
22.0	130.2676403639016	face	0.0		146	22.0	male	black	2.767608436132113	smiling	044	sub-01	1.0	1.0	044_smiling	1.0	trustworthiness	272.6326313339696	1.2333172646931416
22.0	130.9010900213134	pulse	0.0	t		22.0	male	black	2.767608436132113	smiling	044	sub-01	1.0	1.0	044_smiling	1.0	trustworthiness	273.2660809913814	
22.0	131.50095762859473	fix	1.0		177	22.0	male	black	2.767608436132113	smiling	044	sub-01	1.0	1.0	044_smiling	1.0	trustworthiness	273.8659485986627	1.4999636267148162
22.0	131.60107018957297	pulse	1.0	t		22.0	male	black	2.767608436132113	smiling	044	sub-01	1.0	1.0	044_smiling	1.0	trustworthiness	273.96606115964096	
22.0	132.30104583003686	pulse	1.0	t		22.0	male	black	2.767608436132113	smiling	044	sub-01	1.0	1.0	044_smiling	1.0	trustworthiness	274.66603680010485	
22.0	133.00092125530955	rating	2.0		294	22.0	male	black	2.767608436132113	smiling	044	sub-01	1.0	1.0	044_smiling	1.0	trustworthiness	275.36591222537754	2.4999340451231546
22.0	132.9970828927535	pulse	2.0	t		22.0	male	black	2.767608436132113	smiling	044	sub-01	1.0	1.0	044_smiling	1.0	trustworthiness	275.3620738628215	
22.0	133.70103122035198	pulse	2.0	t		22.0	male	black	2.767608436132113	smiling	044	sub-01	1.0	1.0	044_smiling	1.0	trustworthiness	276.06602219042	
22.0	134.40099871078564	pulse	2.0	t		22.0	male	black	2.767608436132113	smiling	044	sub-01	1.0	1.0	044_smiling	1.0	trustworthiness	276.76598968085364	
22.0	134.4011592965735	response	2.0	y		22.0	male	black	2.767608436132113	smiling	044	sub-01	1.0	1.0	044_smiling	1.0	trustworthiness	276.7661502666415	
22.0	135.10098280313377	pulse	2.0	t		22.0	male	black	2.767608436132113	smiling	044	sub-01	1.0	1.0	044_smiling	1.0	trustworthiness	277.46597377320177	
22.0	135.5008553004327	fix	3.0		444	22.0	male	black	2.767608436132113	smiling	044	sub-01	1.0	1.0	044_smiling	1.0	trustworthiness	277.8658462705007	3.7665478070230165
22.0	135.80097112142266	pulse	3.0	t		22.0	male	black	2.767608436132113	smiling	044	sub-01	1.0	1.0	044_smiling	1.0	trustworthiness	278.16596209149066	
22.0	136.50093257479693	pulse	3.0	t		22.0	male	black	2.767608436132113	smiling	044	sub-01	1.0	1.0	044_smiling	1.0	trustworthiness	278.8659235448649	
22.0	137.20091757270347	pulse	3.0	t		22.0	male	black	2.767608436132113	smiling	044	sub-01	1.0	1.0	044_smiling	1.0	trustworthiness	279.56590854277147	
22.0	137.90091343731729	pulse	3.0	t		22.0	male	black	2.767608436132113	smiling	044	sub-01	1.0	1.0	044_smiling	1.0	trustworthiness	280.2659044073853	
22.0	138.60087489069156	pulse	3.0	t		22.0	male	black	2.767608436132113	smiling	044	sub-01	1.0	1.0	044_smiling	1.0	trustworthiness	280.96586586075955	
23.0	139.26740310745572	face	0.0		145	25.0	female	west_asian	2.6756864305610826	smiling	064	sub-01	1.0	1.0	064_smiling	0.0		281.6323940775237	1.2333402055191982
23.0	139.30089550725006	pulse	0.0	t		25.0	female	west_asian	2.6756864305610826	smiling	064	sub-01	1.0	1.0	064_smiling	0.0		281.66588647731805	
23.0	140.0008491124463	pulse	0.0	t		25.0	female	west_asian	2.6756864305610826	smiling	064	sub-01	1.0	1.0	064_smiling	0.0		282.3658400825143	
23.0	140.50074331297492	fix	1.0		443	25.0	female	west_asian	2.6756864305610826	smiling	064	sub-01	1.0	1.0	064_smiling	0.0		282.8657342830429	3.766547203317714
23.0	140.70083984556004	pulse	1.0	t		25.0	female	west_asian	2.6756864305610826	smiling	064	sub-01	1.0	1.0	064_smiling	0.0		283.06583081562803	
23.0	141.40079677113863	pulse	1.0	t		25.0	female	west_asian	2.6756864305610826	smiling	064	sub-01	1.0	1.0	064_smiling	0.0		283.7657877412066	
23.0	142.10080078578358	pulse	1.0	t		25.0	female	west_asian	2.6756864305610826	smiling	064	sub-01	1.0	1.0	064_smiling	0.0		284.46579175585157	
23.0	142.80078789666095	pulse	1.0	t		25.0	female	west_asian	2.6756864305610826	smiling	064	sub-01	1.0	1.0	064_smiling	0.0		285.16577886672894	
23.0	143.50075719821234	pulse	1.0	t		25.0	female	west_asian	2.6756864305610826	smiling	064	sub-01	1.0	1.0	064_smiling	0.0		285.86574816828033	
23.0	144.20082097974864	pulse	1.0	t		25.0	female	west_asian	2.6756864305610826	smiling	064	sub-01	1.0	1.0	064_smiling	0.0		286.56581194981663	
24.0	144.26729051629263	face	0.0		146	31.0	female	white	2.1822522881018704	smiling	102	sub-01	1.0	1.0	102_smiling	0.0		286.6322814863606	1.2333139443098844
24.0	144.90073474035034	pulse	0.0	t		31.0	female	white	2.1822522881018704	smiling	102	sub-01	1.0	1.0	102_smiling	0.0		287.26572571041834	
24.0	145.50060446060252	fix	1.0		443	31.0	female	white	2.1822522881018704	smiling	102	sub-01	1.0	1.0	102_smiling	0.0		287.8655954306705	3.766552938523091
24.0	145.60071792713916	pulse	1.0	t		31.0	female	white	2.1822522881018704	smiling	102	sub-01	1.0	1.0	102_smiling	0.0		287.96570889720715	
24.0	146.3006905490738	pulse	1.0	t		31.0	female	white	2.1822522881018704	smiling	102	sub-01	1.0	1.0	102_smiling	0.0		288.6656815191418	
24.0	147.00066135988982	pulse	1.0	t		31.0	female	white	2.1822522881018704	smiling	102	sub-01	1.0	1.0	102_smiling	0.0		289.3656523299578	
24.0	147.70064484853174	pulse	1.0	t		31.0	female	white	2.1822522881018704	smiling	102	sub-01	1.0	1.0	102_smiling	0.0		290.06563581859973	
24.0	148.40062048899563	pulse	1.0	t		31.0	female	white	2.1822522881018704	smiling	102	sub-01	1.0	1.0	102_smiling	0.0		290.7656114590636	
24.0	149.1006133350802	pulse	1.0	t		31.0	female	white	2.1822522881018704	smiling	102	sub-01	1.0	1.0	102_smiling	0.0		291.4656043051482	
25.0	149.2671573991256	face	0.0		146	36.0	female	white	2.7548746518105847	smiling	011	sub-01	1.0	1.0	011_smiling	0.0		291.6321483691936	1.2333166609869295
25.0	149.80059199407424	pulse	0.0	t		36.0	female	white	2.7548746518105847	smiling	011	sub-01	1.0	1.0	011_smiling	0.0		292.16558296414223	
25.0	150.50047406011254	fix	1.0		444	36.0	female	white	2.7548746518105847	smiling	011	sub-01	1.0	1.0	011_smiling	0.0		292.86546503018053	3.7665556552010457
25.0	150.50787187306742	pulse	1.0	t		36.0	female	white	2.7548746518105847	smiling	011	sub-01	1.0	1.0	011_smiling	0.0		292.8728628431354	
25.0	151.20056470656436	pulse	1.0	t		36.0	female	white	2.7548746518105847	smiling	011	sub-01	1.0	1.0	011_smiling	0.0		293.56555567663236	
25.0	151.9005361210866	pulse	1.0	t		36.0	female	white	2.7548746518105847	smiling	011	sub-01	1.0	1.0	011_smiling	0.0		294.2655270911546	
25.0	152.60051659119836	pulse	1.0	t		36.0	female	white	2.7548746518105847	smiling	011	sub-01	1.0	1.0	011_smiling	0.0		294.96550756126635	
25.0	153.30050611689967	pulse	1.0	t		36.0	female	white	2.7548746518105847	smiling	011	sub-01	1.0	1.0	011_smiling	0.0		295.66549708696766	
25.0	154.00048145551045	pulse	1.0	t		36.0	female	white	2.7548746518105847	smiling	011	sub-01	1.0	1.0	011_smiling	0.0		296.36547242557845	
26.0	154.26702971531358	face	0.0		145	54.0	female	white	2.286908077994429	smiling	136	sub-01	1.0	1.0	136_smiling	0.0		296.6320206853816	1.2332961349839024
26.0	154.7004797349491	pulse	0.0	t		54.0	female	white	2.286908077994429	smiling	136	sub-01	1.0	1.0	136_smiling	0.0		297.0654707050171	
26.0	155.40044450870573	pulse	0.0	t		54.0	female	white	2.286908077994429	smiling	136	sub-01	1.0	1.0	136_smiling	0.0		297.7654354787737	
26.0	155.5003258502975	fix	1.0		444	54.0	female	white	2.286908077994429	smiling	136	sub-01	1.0	1.0	136_smiling	0.0		297.8653168203655	3.7665544477886215
26.0	156.10044127887886	pulse	1.0	t		54.0	female	white	2.286908077994429	smiling	136	sub-01	1.0	1.0	136_smiling	0.0		298.46543224894685	
26.0	156.80040243039912	pulse	1.0	t		54.0	female	white	2.286908077994429	smiling	136	sub-01	1.0	1.0	136_smiling	0.0		299.1653934004671	
26.0	157.50039889871914	pulse	1.0	t		54.0	female	white	2.286908077994429	smiling	136	sub-01	1.0	1.0	136_smiling	0.0		299.86538986878713	
26.0	158.20036397432887	pulse	1.0	t		54.0	female	white	2.286908077994429	smiling	136	sub-01	1.0	1.0	136_smiling	0.0		300.56535494439686	
26.0	158.9003550092957	pulse	1.0	t		54.0	female	white	2.286908077994429	smiling	136	sub-01	1.0	1.0	136_smiling	0.0		301.2653459793637	
27.0	159.2668802980861	face	0.0		145	21.0	male	black	2.969757262236371	neutral	137	sub-01	1.0	1.0	137_neutral	0.0		301.6318712681541	1.233316962839126
27.0	159.60033910164293	pulse	0.0	t		21.0	male	black	2.969757262236371	neutral	137	sub-01	1.0	1.0	137_neutral	0.0		301.9653300717109	
27.0	160.3003195717547	pulse	0.0	t		21.0	male	black	2.969757262236371	neutral	137	sub-01	1.0	1.0	137_neutral	0.0		302.6653105418227	
27.0	160.50019726092523	fix	1.0		444	21.0	male	black	2.969757262236371	neutral	137	sub-01	1.0	1.0	137_neutral	0.0		302.8651882309932	3.7583401225101625
27.0	161.00030064557268	pulse	1.0	t		21.0	male	black	2.969757262236371	neutral	137	sub-01	1.0	1.0	137_neutral	0.0		303.3652916156407	
27.0	161.7002714563896	pulse	1.0	t		21.0	male	black	2.969757262236371	neutral	137	sub-01	1.0	1.0	137_neutral	0.0		304.0652624264576	
27.0	162.40027094323887	pulse	1.0	t		21.0	male	black	2.969757262236371	neutral	137	sub-01	1.0	1.0	137_neutral	0.0		304.76526191330686	
27.0	163.10024658370367	pulse	1.0	t		21.0	male	black	2.969757262236371	neutral	137	sub-01	1.0	1.0	137_neutral	0.0		305.46523755377166	
27.0	163.80022735566854	pulse	1.0	t		21.0	male	black	2.969757262236371	neutral	137	sub-01	1.0	1.0	137_neutral	0.0		306.16521832573653	
28.0	164.2585373834354	face	0.0		146	19.0	female	white	4.298846000795861	smiling	100	sub-01	1.0	1.0	100_smiling	1.0	dominance	306.6235283535034	1.2415412492673568
28.0	164.50022261657614	pulse	0.0	t		19.0	female	white	4.298846000795861	smiling	100	sub-01	1.0	1.0	100_smiling	1.0	dominance	306.86521358664413	
28.0	165.2002030866879	pulse	0.0	t		19.0	female	white	4.298846000795861	smiling	100	sub-01	1.0	1.0	100_smiling	1.0	dominance	307.5651940567559	
28.0	165.50007863270275	fix	1.0		177	19.0	female	white	4.298846000795861	smiling	100	sub-01	1.0	1.0	100_smiling	1.0	dominance	307.86506960277075	1.4999494396251976
28.0	165.90017389750483	pulse	1.0	t		19.0	female	white	4.298846000795861	smiling	100	sub-01	1.0	1.0	100_smiling	1.0	dominance	308.2651648675728	
28.0	166.60013655829061	pulse	1.0	t		19.0	female	white	4.298846000795861	smiling	100	sub-01	1.0	1.0	100_smiling	1.0	dominance	308.9651275283586	
28.0	167.00002807232795	rating	2.0		294	19.0	female	white	4.298846000795861	smiling	100	sub-01	1.0	1.0	100_smiling	1.0	dominance	309.36501904239594	2.499936459946184
28.0	167.3001372525523	pulse	2.0	t		19.0	female	white	4.298846000795861	smiling	100	sub-01	1.0	1.0	100_smiling	1.0	dominance	309.6651282226203	
28.0	168.00011772266407	pulse	2.0	t		19.0	female	white	4.298846000795861	smiling	100	sub-01	1.0	1.0	100_smiling	1.0	dominance	310.36510869273206	
28.0	168.1584212002217	response	2.0	w		19.0	female	white	4.298846000795861	smiling	100	sub-01	1.0	1.0	100_smiling	1.0	dominance	310.5234121702897	
28.0	168.70008128900918	pulse	2.0	t		19.0	female	white	4.298846000795861	smiling	100	sub-01	1.0	1.0	100_smiling	1.0	dominance	311.06507225907717	
28.0	169.40007685176988	pulse	2.0	t		19.0	female	white	4.298846000795861	smiling	100	sub-01	1.0	1.0	100_smiling	1.0	dominance	311.7650678218379	
28.0	169.49996453227413	fix	3.0		444	19.0	female	white	4.298846000795861	smiling	100	sub-01	1.0	1.0	100_smiling	1.0	dominance	311.8649555023421	3.7665472033168044
28.0	170.10006184967642	pulse	3.0	t		19.0	female	white	4.298846000795861	smiling	100	sub-01	1.0	1.0	100_smiling	1.0	dominance	312.4650528197444	
28.0	170.80003718828812	pulse	3.0	t		19.0	female	white	4.298846000795861	smiling	100	sub-01	1.0	1.0	100_smiling	1.0	dominance	313.1650281583561	
28.0	171.50001765839988	pulse	3.0	t		19.0	female	white	4.298846000795861	smiling	100	sub-01	1.0	1.0	100_smiling	1.0	dominance	313.8650086284679	
28.0	172.19999963777627	pulse	3.0	t		19.0	female	white	4.298846000795861	smiling	100	sub-01	1.0	1.0	100_smiling	1.0	dominance	314.56499060784427	
28.0	172.89998674865365	pulse	3.0	t		19.0	female	white	4.298846000795861	smiling	100	sub-01	1.0	1.0	100_smiling	1.0	dominance	315.26497771872164	
29.0	173.26651173559094	face	0.0		145	27.0	female	white	3.504576203740549	smiling	144	sub-01	1.0	1.0	144_smiling	0.0		315.63150270565893	1.2333178683993538
29.0	173.59998291512056	pulse	0.0	t		27.0	female	white	3.504576203740549	smiling	144	sub-01	1.0	1.0	144_smiling	0.0		315.96497388518856	
29.0	174.29994678331877	pulse	0.0	t		27.0	female	white	3.504576203740549	smiling	144	sub-01	1.0	1.0	144_smiling	0.0		316.66493775338677	
29.0	174.4998296039903	fix	1.0		444	27.0	female	white	3.504576203740549	smiling	144	sub-01	1.0	1.0	144_smiling	0.0		316.8648205740583	3.766557164464757
29.0	174.9999363090201	pulse	1.0	t		27.0	female	white	3.504576203740549	smiling	144	sub-01	1.0	1.0	144_smiling	0.0		317.3649272790881	
29.0	175.69991134577867	pulse	1.0	t		27.0	female	white	3.504576203740549	smiling	144	sub-01	1.0	1.0	144_smiling	0.0		318.06490231584667	
29.0	176.39988819365408	pulse	1.0	t		27.0	female	white	3.504576203740549	smiling	144	sub-01	1.0	1.0	144_smiling	0.0		318.76487916372207	
29.0	177.099884360121	pulse	1.0	t		27.0	female	white	3.504576203740549	smiling	144	sub-01	1.0	1.0	144_smiling	0.0		319.464875330189	
29.0	177.79985517093792	pulse	1.0	t		27.0	female	white	3.504576203740549	smiling	144	sub-01	1.0	1.0	144_smiling	0.0		320.1648461410059	
30.0	178.26638676845505	face	0.0		145	34.0	male	white	2.651014723438122	smiling	121	sub-01	1.0	1.0	121_smiling	0.0		320.63137773852304	1.2333088128098098
30.0	178.49984167810908	pulse	0.0	t		34.0	male	white	2.651014723438122	smiling	121	sub-01	1.0	1.0	121_smiling	0.0		320.86483264817707	
30.0	179.1998197333969	pulse	0.0	t		34.0	male	white	2.651014723438122	smiling	121	sub-01	1.0	1.0	121_smiling	0.0		321.5648107034649	
30.0	179.49969558126486	fix	1.0		444	34.0	male	white	2.651014723438122	smiling	121	sub-01	1.0	1.0	121_smiling	0.0		321.86468655133285	3.7665538440824093
30.0	179.8998068442752	pulse	1.0	t		34.0	male	white	2.651014723438122	smiling	121	sub-01	1.0	1.0	121_smiling	0.0		322.2647978143432	
30.0	180.5997827865922	pulse	1.0	t		34.0	male	white	2.651014723438122	smiling	121	sub-01	1.0	1.0	121_smiling	0.0		322.9647737566602	
30.0	181.29976174743933	pulse	1.0	t		34.0	male	white	2.651014723438122	smiling	121	sub-01	1.0	1.0	121_smiling	0.0		323.6647527175073	
30.0	181.99974614163966	pulse	1.0	t		34.0	male	white	2.651014723438122	smiling	121	sub-01	1.0	1.0	121_smiling	0.0		324.36473711170765	
30.0	182.6997380821649	pulse	1.0	t		34.0	male	white	2.651014723438122	smiling	121	sub-01	1.0	1.0	121_smiling	0.0		325.0647290522329	
31.0	183.26624942534727	face	0.0		145	28.0	female	white	5.676880222841227	neutral	124	sub-01	1.0	1.0	124_neutral	0.0		325.63124039541526	1.2333314517827603
31.0	183.3997125152173	pulse	0.0	t		28.0	female	white	5.676880222841227	neutral	124	sub-01	1.0	1.0	124_neutral	0.0		325.7647034852853	
31.0	184.09969479644678	pulse	0.0	t		28.0	female	white	5.676880222841227	neutral	124	sub-01	1.0	1.0	124_neutral	0.0		326.4646857665148	
31.0	184.49958087713003	fix	1.0		444	28.0	female	white	5.676880222841227	neutral	124	sub-01	1.0	1.0	124_neutral	0.0		326.864571847198	3.766554145936425
31.0	184.79967647397098	pulse	1.0	t		28.0	female	white	5.676880222841227	neutral	124	sub-01	1.0	1.0	124_neutral	0.0		327.16466744403897	
31.0	185.49965513296502	pulse	1.0	t		28.0	female	white	5.676880222841227	neutral	124	sub-01	1.0	1.0	124_neutral	0.0		327.864646103033	
31.0	186.19963379195906	pulse	1.0	t		28.0	female	white	5.676880222841227	neutral	124	sub-01	1.0	1.0	124_neutral	0.0		328.56462476202705	
31.0	186.8996251287781	pulse	1.0	t		28.0	female	white	5.676880222841227	neutral	124	sub-01	1.0	1.0	124_neutral	0.0		329.2646160988461	
31.0	187.59960952297843	pulse	1.0	t		28.0	female	white	5.676880222841227	neutral	124	sub-01	1.0	1.0	124_neutral	0.0		329.9646004930464	
32.0	188.26613502306645	face	0.0		144	23.0	male	white	2.6275368085953046	smiling	141	sub-01	1.0	1.0	141_smiling	0.0		330.63112599313445	1.233301266483977
32.0	188.299628026567	pulse	0.0	t		23.0	male	white	2.6275368085953046	smiling	141	sub-01	1.0	1.0	141_smiling	0.0		330.664618996635	
32.0	188.99957680211537	pulse	0.0	t		23.0	male	white	2.6275368085953046	smiling	141	sub-01	1.0	1.0	141_smiling	0.0		331.36456777218336	
32.0	189.35787720077224	response	0.0	e		23.0	male	white	2.6275368085953046	smiling	141	sub-01	1.0	1.0	141_smiling	0.0		331.72286817084023	
32.0	189.49943628955043	fix	1.0		443	23.0	male	white	2.6275368085953046	smiling	141	sub-01	1.0	1.0	141_smiling	0.0		331.8644272596184	3.7665665219083166
32.0	189.69953704807722	pulse	1.0	t		23.0	male	white	2.6275368085953046	smiling	141	sub-01	1.0	1.0	141_smiling	0.0		332.0645280181452	
32.0	190.39953985530974	pulse	1.0	t		23.0	male	white	2.6275368085953046	smiling	141	sub-01	1.0	1.0	141_smiling	0.0		332.76453082537773	
32.0	191.09950493091947	pulse	1.0	t		23.0	male	white	2.6275368085953046	smiling	141	sub-01	1.0	1.0	141_smiling	0.0		333.46449590098746	
32.0	191.79948660844275	pulse	1.0	t		23.0	male	white	2.6275368085953046	smiling	141	sub-01	1.0	1.0	141_smiling	0.0		334.16447757851074	
32.0	192.4994646637315	pulse	1.0	t		23.0	male	white	2.6275368085953046	smiling	141	sub-01	1.0	1.0	141_smiling	0.0		334.8644556337995	
32.0	193.1994608301984	pulse	1.0	t		23.0	male	white	2.6275368085953046	smiling	141	sub-01	1.0	1.0	141_smiling	0.0		335.5644518002664	
33.0	193.26600281145875	face	0.0		146	40.0	male	black	2.408674890569041	neutral	061	sub-01	1.0	1.0	061_neutral	0.0		335.63099378152674	1.2333000590724623
33.0	193.89944039475085	pulse	0.0	t		40.0	male	black	2.408674890569041	neutral	061	sub-01	1.0	1.0	061_neutral	0.0		336.26443136481885	
33.0	194.4993028705312	fix	1.0		443	40.0	male	black	2.408674890569041	neutral	061	sub-01	1.0	1.0	061_neutral	0.0		336.8642938405992	3.7665680311729375
33.0	194.5994184500396	pulse	1.0	t		40.0	male	black	2.408674890569041	neutral	061	sub-01	1.0	1.0	061_neutral	0.0		336.9644094201076	
33.0	195.29940254238682	pulse	1.0	t		40.0	male	black	2.408674890569041	neutral	061	sub-01	1.0	1.0	061_neutral	0.0		337.6643935124548	
33.0	195.999384219911	pulse	1.0	t		40.0	male	black	2.408674890569041	neutral	061	sub-01	1.0	1.0	061_neutral	0.0		338.364375189979	
33.0	196.69936408631656	pulse	1.0	t		40.0	male	black	2.408674890569041	neutral	061	sub-01	1.0	1.0	061_neutral	0.0		339.06435505638456	
33.0	197.39933912307515	pulse	1.0	t		40.0	male	black	2.408674890569041	neutral	061	sub-01	1.0	1.0	061_neutral	0.0		339.76433009314314	
33.0	198.09933227101192	pulse	1.0	t		40.0	male	black	2.408674890569041	neutral	061	sub-01	1.0	1.0	061_neutral	0.0		340.4643232410799	
34.0	198.26587090170415	face	0.0		146	36.0	female	white	2.7548746518105847	neutral	011	sub-01	1.0	1.0	011_neutral	0.0		340.63086187177214	1.2333181702515503
34.0	198.79932089115482	pulse	0.0	t		36.0	female	white	2.7548746518105847	neutral	011	sub-01	1.0	1.0	011_neutral	0.0		341.1643118612228	
34.0	199.4991890719557	fix	1.0		445	36.0	female	white	2.7548746518105847	neutral	011	sub-01	1.0	1.0	011_neutral	0.0		341.8641800420237	3.7748692901113827
34.0	199.50659141270535	pulse	1.0	t		36.0	female	white	2.7548746518105847	neutral	011	sub-01	1.0	1.0	011_neutral	0.0		341.87158238277334	
34.0	200.19927639802427	pulse	1.0	t		36.0	female	white	2.7548746518105847	neutral	011	sub-01	1.0	1.0	011_neutral	0.0		342.56426736809226	
34.0	200.8992598866662	pulse	1.0	t		36.0	female	white	2.7548746518105847	neutral	011	sub-01	1.0	1.0	011_neutral	0.0		343.2642508567342	
34.0	201.5992370363956	pulse	1.0	t		36.0	female	white	2.7548746518105847	neutral	011	sub-01	1.0	1.0	011_neutral	0.0		343.9642280064636	
34.0	202.29922203430215	pulse	1.0	t		36.0	female	white	2.7548746518105847	neutral	011	sub-01	1.0	1.0	011_neutral	0.0		344.66421300437014	
34.0	202.99919314697127	pulse	1.0	t		36.0	female	white	2.7548746518105847	neutral	011	sub-01	1.0	1.0	011_neutral	0.0		345.36418411703926	
35.0	203.27405836206708	face	0.0		145	27.0	male	black	3.5523278949462798	neutral	042	sub-01	1.0	1.0	042_neutral	0.0		345.6390493321351	1.2333148498692026
35.0	203.69917935229023	pulse	0.0	t		27.0	male	black	3.5523278949462798	neutral	042	sub-01	1.0	1.0	042_neutral	0.0		346.0641703223582	
35.0	204.39915740757806	pulse	0.0	t		27.0	male	black	3.5523278949462798	neutral	042	sub-01	1.0	1.0	042_neutral	0.0		346.76414837764605	
35.0	204.50737321193628	fix	1.0		444	27.0	male	black	3.5523278949462798	neutral	042	sub-01	1.0	1.0	042_neutral	0.0		346.8723641820043	3.7665517311115764
35.0	205.0991427073377	pulse	1.0	t		27.0	male	black	3.5523278949462798	neutral	042	sub-01	1.0	1.0	042_neutral	0.0		347.4641336774057	
35.0	205.79911412185993	pulse	1.0	t		27.0	male	black	3.5523278949462798	neutral	042	sub-01	1.0	1.0	042_neutral	0.0		348.1641050919279	
35.0	206.4990945919717	pulse	1.0	t		27.0	male	black	3.5523278949462798	neutral	042	sub-01	1.0	1.0	042_neutral	0.0		348.8640855620397	
35.0	207.1990961917927	pulse	1.0	t		27.0	male	black	3.5523278949462798	neutral	042	sub-01	1.0	1.0	042_neutral	0.0		349.5640871618607	
35.0	207.899065191491	pulse	1.0	t		27.0	male	black	3.5523278949462798	neutral	042	sub-01	1.0	1.0	042_neutral	0.0		350.264056161559	
36.0	208.27392494304786	face	0.0		145	28.0	male	white	3.9076800636689217	neutral	033	sub-01	1.0	1.0	033_neutral	0.0		350.63891591311585	1.2333172646931416
36.0	208.5990483782798	pulse	0.0	t		28.0	male	white	3.9076800636689217	neutral	033	sub-01	1.0	1.0	033_neutral	0.0		350.9640393483478	
36.0	209.29902884839157	pulse	0.0	t		28.0	male	white	3.9076800636689217	neutral	033	sub-01	1.0	1.0	033_neutral	0.0		351.66401981845956	
36.0	209.507242207741	fix	1.0		444	28.0	male	white	3.9076800636689217	neutral	033	sub-01	1.0	1.0	033_neutral	0.0		351.872233177809	3.766548712581425
36.0	209.99899482956062	pulse	1.0	t		28.0	male	white	3.9076800636689217	neutral	033	sub-01	1.0	1.0	033_neutral	0.0		352.3639857996286	
36.0	210.69898465711412	pulse	1.0	t		28.0	male	white	3.9076800636689217	neutral	033	sub-01	1.0	1.0	033_neutral	0.0		353.0639756271821	
36.0	211.39897388096324	pulse	1.0	t		28.0	male	white	3.9076800636689217	neutral	033	sub-01	1.0	1.0	033_neutral	0.0		353.76396485103123	
36.0	212.0989661233416	pulse	1.0	t		28.0	male	white	3.9076800636689217	neutral	033	sub-01	1.0	1.0	033_neutral	0.0		354.4639570934096	
36.0	212.79893723601072	pulse	1.0	t		28.0	male	white	3.9076800636689217	neutral	033	sub-01	1.0	1.0	033_neutral	0.0		355.1639282060787	
37.0	213.27379092032243	face	0.0		145	37.0	male	white	3.898925586947871	smiling	101	sub-01	1.0	1.0	101_smiling	0.0		355.6387818903904	1.2333456388732884
37.0	213.49894034509634	pulse	0.0	t		37.0	male	white	3.898925586947871	smiling	101	sub-01	1.0	1.0	101_smiling	0.0		355.86393131516434	
37.0	214.19890934479463	pulse	0.0	t		37.0	male	white	3.898925586947871	smiling	101	sub-01	1.0	1.0	101_smiling	0.0		356.5639003148626	
37.0	214.50713655919571	fix	1.0		444	37.0	male	white	3.898925586947871	smiling	101	sub-01	1.0	1.0	101_smiling	0.0		356.8721275292637	3.7665284884324137
37.0	214.89889796493753	pulse	1.0	t		37.0	male	white	3.898925586947871	smiling	101	sub-01	1.0	1.0	101_smiling	0.0		357.2638889350055	
37.0	215.59886394610567	pulse	1.0	t		37.0	male	white	3.898925586947871	smiling	101	sub-01	1.0	1.0	101_smiling	0.0		357.96385491617366	
37.0	216.29883717174653	pulse	1.0	t		37.0	male	white	3.898925586947871	smiling	101	sub-01	1.0	1.0	101_smiling	0.0		358.6638281418145	
37.0	216.99882156594686	pulse	1.0	t		37.0	male	white	3.898925586947871	smiling	101	sub-01	1.0	1.0	101_smiling	0.0		359.36381253601485	
37.0	217.69880354532324	pulse	1.0	t		37.0	male	white	3.898925586947871	smiling	101	sub-01	1.0	1.0	101_smiling	0.0		360.06379451539124	
38.0	218.27366504762813	face	0.0		145	34.0	male	white	2.651014723438122	neutral	121	sub-01	1.0	1.0	121_neutral	1.0	dominance	360.6386560176961	1.2333157554276113
38.0	218.3987960895547	pulse	0.0	t		34.0	male	white	2.651014723438122	neutral	121	sub-01	1.0	1.0	121_neutral	1.0	dominance	360.7637870596227	
38.0	219.0987720318717	pulse	0.0	t		34.0	male	white	2.651014723438122	neutral	121	sub-01	1.0	1.0	121_neutral	1.0	dominance	361.4637630019397	
38.0	219.50698080305574	fix	1.0		177	34.0	male	white	2.651014723438122	neutral	121	sub-01	1.0	1.0	121_neutral	1.0	dominance	361.87197177312373	1.4999600044793624
38.0	219.79875702977824	pulse	1.0	t		34.0	male	white	2.651014723438122	neutral	121	sub-01	1.0	1.0	121_neutral	1.0	dominance	362.16374799984624	
38.0	220.49875138512743	pulse	1.0	t		34.0	male	white	2.651014723438122	neutral	121	sub-01	1.0	1.0	121_neutral	1.0	dominance	362.8637423551954	
38.0	221.0069408075351	rating	2.0		294	34.0	male	white	2.651014723438122	neutral	121	sub-01	1.0	1.0	121_neutral	1.0	dominance	363.3719317776031	2.4999355543877755
38.0	221.1987381941526	pulse	2.0	t		34.0	male	white	2.651014723438122	neutral	121	sub-01	1.0	1.0	121_neutral	1.0	dominance	363.5637291642206	
38.0	221.89359833208073	pulse	2.0	t		34.0	male	white	2.651014723438122	neutral	121	sub-01	1.0	1.0	121_neutral	1.0	dominance	364.2585893021487	
38.0	222.34869392741257	response	2.0	e		34.0	male	white	2.651014723438122	neutral	121	sub-01	1.0	1.0	121_neutral	1.0	dominance	364.71368489748056	
38.0	222.59868645655115	pulse	2.0	t		34.0	male	white	2.651014723438122	neutral	121	sub-01	1.0	1.0	121_neutral	1.0	dominance	364.96367742661914	
38.0	223.29866209701504	pulse	2.0	t		34.0	male	white	2.651014723438122	neutral	121	sub-01	1.0	1.0	121_neutral	1.0	dominance	365.66365306708303	
38.0	223.50687636192288	fix	3.0		444	34.0	male	white	2.651014723438122	neutral	121	sub-01	1.0	1.0	121_neutral	1.0	dominance	365.87186733199087	3.7665469014636983
38.0	223.9986476986278	pulse	3.0	t		34.0	male	white	2.651014723438122	neutral	121	sub-01	1.0	1.0	121_neutral	1.0	dominance	366.3636386686958	
38.0	224.69862635762183	pulse	3.0	t		34.0	male	white	2.651014723438122	neutral	121	sub-01	1.0	1.0	121_neutral	1.0	dominance	367.0636173276898	
38.0	225.39862101482322	pulse	3.0	t		34.0	male	white	2.651014723438122	neutral	121	sub-01	1.0	1.0	121_neutral	1.0	dominance	367.7636119848912	
38.0	226.098583675609	pulse	3.0	t		34.0	male	white	2.651014723438122	neutral	121	sub-01	1.0	1.0	121_neutral	1.0	dominance	368.463574645677	
38.0	226.79856233460305	pulse	3.0	t		34.0	male	white	2.651014723438122	neutral	121	sub-01	1.0	1.0	121_neutral	1.0	dominance	369.16355330467104	
39.0	227.27342326338658	face	0.0		145	28.0	female	white	5.676880222841227	smiling	124	sub-01	1.0	1.0	124_smiling	0.0		369.63841423345457	1.2333242073118527
39.0	227.4985548788345	pulse	0.0	t		28.0	female	white	5.676880222841227	smiling	124	sub-01	1.0	1.0	124_smiling	0.0		369.8635458489025	
39.0	228.19853383968166	pulse	0.0	t		28.0	female	white	5.676880222841227	smiling	124	sub-01	1.0	1.0	124_smiling	0.0		370.56352480974965	
39.0	228.50674747069843	fix	1.0		444	28.0	female	white	5.676880222841227	smiling	124	sub-01	1.0	1.0	124_smiling	0.0		370.8717384407664	3.749904538993178
39.0	228.89851642276426	pulse	1.0	t		28.0	female	white	5.676880222841227	smiling	124	sub-01	1.0	1.0	124_smiling	0.0		371.26350739283225	
39.0	229.5984947799052	pulse	1.0	t		28.0	female	white	5.676880222841227	smiling	124	sub-01	1.0	1.0	124_smiling	0.0		371.9634857499732	
39.0	230.29848068337105	pulse	1.0	t		28.0	female	white	5.676880222841227	smiling	124	sub-01	1.0	1.0	124_smiling	0.0		372.66347165343905	
39.0	230.99845873865888	pulse	1.0	t		28.0	female	white	5.676880222841227	smiling	124	sub-01	1.0	1.0	124_smiling	0.0		373.3634497087269	
39.0	231.69843407726967	pulse	1.0	t		28.0	female	white	5.676880222841227	smiling	124	sub-01	1.0	1.0	124_smiling	0.0		374.06342504733766	
40.0	232.2566520096916	fix	0.0		720													374.6216429797596	5.999849375361009
40.0	232.3984242066772	pulse	0.0	t														374.7634151767452	
40.0	233.09840528049517	pulse	0.0	t														375.46339625056316	
40.0	233.79837488389967	pulse	0.0	t														376.16336585396766	
40.0	234.49836229663015	pulse	0.0	t														376.86335326669814	
40.0	235.19835242603767	pulse	0.0	t														377.56334339610567	
40.0	235.8983301794724	pulse	0.0	t														378.2633211495404	
40.0	236.5982994810238	pulse	0.0	t														378.9632904510918	
40.0	237.29829142154904	pulse	0.0	t														379.66328239161703	
40.0	237.9982773250149	pulse	0.0	t														380.3632682950829	
