trial_nr	onset	event_type	phase	response	nr_frames	trial_type	stim_name	task_probe	onset_abs	duration
0.0	0.05383852156319335	baseline	0.0		41.0		baseline	0.0	71.58865551152121	0.34847507479207707
0.0	0.4023135963552704	ISI	1.0		11.0		baseline	0.0	71.93713058631329	0.09999876239544392
1.0	0.5023123587507143	baseline	0.0		48.0		baseline	0.0	72.03712934870873	0.3999920310334346
1.0	0.7024251920774987	pulse	0.0	t			baseline	0.0	72.23724218203552	
1.0	0.902304389784149	ISI	1.0		11.0		baseline	0.0	72.43712137974217	0.10001294957055507
2.0	1.002317339354704	baseline	0.0		48.0		baseline	0.0	72.53713432931272	0.39995882700441143
2.0	1.4022761663591155	ISI	1.0		11.0		baseline	0.0	72.93709315631713	0.09999996981514414
2.0	1.4067448249252266	pulse	1.0	t			baseline	0.0	72.94156181488324	
3.0	1.5022761361742596	baseline	0.0		48.0		baseline	0.0	73.03709312613228	0.39999263474237523
3.0	1.9022687709166348	ISI	1.0		11.0		baseline	0.0	73.43708576087465	0.0999975549757437
4.0	2.0022663258923785	baseline	0.0		48.0		baseline	0.0	73.5370833158504	0.3999908236137344
4.0	2.102391565452308	pulse	0.0	t			baseline	0.0	73.63720855541033	
4.0	2.402257149506113	ISI	1.0		11.0		baseline	0.0	73.93707413946413	0.09999755497665319
5.0	2.502254704482766	baseline	0.0		48.0		baseline	0.0	74.03707169444078	0.39999172917850956
5.0	2.8023635835115783	pulse	0.0	t			baseline	0.0	74.3371805734696	
5.0	2.9022464336612757	ISI	1.0		11.0		baseline	0.0	74.43706342361929	0.09999634755604347
6.0	3.002242781217319	baseline	0.0		48.0		baseline	0.0	74.53705977117534	0.39999444587192556
6.0	3.4022372270892447	ISI	1.0		11.0		baseline	0.0	74.93705421704726	0.09999876239544392
7.0	3.5022359894846886	baseline	0.0		47.0		baseline	0.0	75.0370529794427	0.39998961619403417
7.0	3.506231037858015	pulse	0.0	t			baseline	0.0	75.04104802781603	
7.0	3.902225605678723	ISI	1.0		11.0		baseline	0.0	75.43704259563674	0.0999981586865033
8.0	4.002223764365226	baseline	0.0		48.0		baseline	0.0	75.53704075432324	0.3999902199038843
8.0	4.20233478656246	pulse	0.0	t			baseline	0.0	75.73715177652048	
8.0	4.40221398426911	ISI	1.0		11.0		baseline	0.0	75.93703097422713	0.10000117723393487
9.0	4.502215161503045	baseline	0.0		48.0		baseline	0.0	76.03703215146106	0.3999914273235845
9.0	4.90220658882663	ISI	1.0		11.0		baseline	0.0	76.43702357878465	0.09999514013725275
9.0	4.906719620049444	pulse	1.0	t			baseline	0.0	76.44153661000746	
10.0	5.0022017289638825	baseline	0.0		48.0		baseline	0.0	76.5370187189219	0.39999263474237523
10.0	5.402194363706258	ISI	1.0		11.0		baseline	0.0	76.93701135366427	0.09999936610529403
11.0	5.502193729811552	baseline	0.0		48.0		baseline	0.0	77.03701071976957	0.3999893143400186
11.0	5.602311121146158	pulse	0.0	t			baseline	0.0	77.13712811110418	
11.0	5.90218304415157	ISI	1.0		11.0		baseline	0.0	77.43700003410959	0.0999975549757437
12.0	6.002180599127314	baseline	0.0		48.0		baseline	0.0	77.53699758908533	0.39999052175880934
12.0	6.3022934022692425	pulse	0.0	t			baseline	0.0	77.83711039222726	
12.0	6.402171120886123	ISI	1.0		11.0		baseline	0.0	77.93698811084414	0.09999966796021909
13.0	6.5021707888463425	baseline	0.0		48.0		baseline	0.0	78.03698777880436	0.39999172917850956
13.0	6.902162518024852	ISI	1.0		11.0		baseline	0.0	78.43697950798287	0.1000002716691597
14.0	7.002162789694012	baseline	0.0		47.0		baseline	0.0	78.53697977965203	0.3999899180489592
14.0	7.006280391119617	pulse	0.0	t			baseline	0.0	78.54109738107763	
14.0	7.402152707742971	ISI	1.0		11.0		baseline	0.0	78.93696969770099	0.09999664941187802
15.0	7.502149357154849	baseline	0.0		48.0		baseline	0.0	79.03696634711287	0.3999923328874502
15.0	7.7022633979013335	pulse	0.0	t			baseline	0.0	79.23708038785935	
15.0	7.902141690042299	ISI	1.0		11.0		baseline	0.0	79.43695868000032	0.09999876239544392
16.0	8.002140452437743	baseline	0.0		48.0		baseline	0.0	79.53695744239576	0.3999929365982098
16.0	8.402133389035953	ISI	1.0		11.0		baseline	0.0	79.93695037899397	0.0999975549757437
16.0	8.406696528156317	pulse	1.0	t			baseline	0.0	79.94151351811433	
17.0	8.502130944011697	baseline	0.0		48.0		baseline	0.0	80.03694793396971	0.3999902199038843
17.0	8.90212116391558	ISI	1.0		11.0		baseline	0.0	80.4369381538736	0.0999954419930873
18.0	9.002116605908668	baseline	0.0		48.0		baseline	0.0	80.53693359586669	0.39999263474237523
18.0	9.102239128774272	pulse	0.0	t			baseline	0.0	80.63705611873229	
18.0	9.402109240651043	ISI	1.0		11.0		baseline	0.0	80.93692623060906	0.09999876239544392
19.0	9.502108003046487	baseline	0.0		48.0		baseline	0.0	81.0369249930045	0.3999914273235845
19.0	9.802233785944736	pulse	0.0	t			baseline	0.0	81.33705077590275	
19.0	9.902099430370072	ISI	1.0		11.0		baseline	0.0	81.43691642032809	0.09999936610438453
20.0	10.002098796474456	baseline	0.0		48.0		baseline	0.0	81.53691578643247	0.39999172917850956
20.0	10.402090525652966	ISI	1.0		11.0		baseline	0.0	81.93690751561098	0.10001174215176434
21.0	10.50210226780473	baseline	0.0		47.0		baseline	0.0	82.03691925776275	0.3999775420024889
21.0	10.506320085026346	pulse	0.0	t			baseline	0.0	82.04113707498436	
21.0	10.90207980980722	ISI	1.0		11.0		baseline	0.0	82.43689679976524	0.09999785683066875
22.0	11.002077666637888	baseline	0.0		48.0		baseline	0.0	82.5368946565959	0.39999172917850956
22.0	11.202191103674522	pulse	0.0	t			baseline	0.0	82.73700809363254	
22.0	11.402069395816397	ISI	1.0		11.0		baseline	0.0	82.93688638577441	0.09999876239544392
23.0	11.502068158211841	baseline	0.0		48.0		baseline	0.0	83.03688514816986	0.3999914273235845
23.0	11.902059585535426	ISI	1.0		5.0		baseline	0.0	83.43687657549344	0.12510915824441327
23.0	11.954736267945918	pulse	1.0	t			baseline	0.0	83.48955325790394	
24.0	12.02716874377984	car	0.0		45.0	object	car-5.jpg	0.0	83.56198573373786	0.37483001801138016
24.0	12.40199876179122	ISI	1.0		7.0	object	car-5.jpg	0.0	83.93681575174924	0.11669827589594206
25.0	12.518697037687161	car	0.0		46.0	object	car-13.jpg	0.0	84.05351402764518	0.3832931212418771
25.0	12.602115217376195	pulse	0.0	t		object	car-13.jpg	0.0	84.13693220733421	
25.0	12.901990158929038	ISI	1.0		8.0	object	car-13.jpg	0.0	84.43680714888706	0.11668589984947175
26.0	13.01867605877851	car	0.0		46.0	object	car-91.jpg	0.0	84.55349304873653	0.3833021768859908
26.0	13.302123156157904	pulse	0.0	t		object	car-91.jpg	0.0	84.83694014611592	
26.0	13.401978235664501	ISI	1.0		6.0	object	car-91.jpg	0.0	84.93679522562252	0.11669435178373533
27.0	13.518672587448236	car	0.0		46.0	object	car-14.jpg	0.0	85.05348957740625	0.38330911954653857
27.0	13.901981706994775	ISI	1.0		7.0	object	car-14.jpg	0.0	85.43679869695279	0.11669163509031932
28.0	14.018673342085094	car	0.0		45.0	object	car-139.jpg	0.0	85.55349033204311	0.3832834618879133
28.0	14.01053050680548	pulse	0.0	t		object	car-139.jpg	0.0	85.5453474967635	
28.0	14.401956803973007	ISI	1.0		7.0	object	car-139.jpg	0.0	85.93677379393102	0.11669887960579217
29.0	14.5186556835788	car	0.0		46.0	object	car-84.jpg	0.0	86.05347267353682	0.383292517532027
29.0	14.70206689042152	pulse	0.0	t		object	car-84.jpg	0.0	86.23688388037954	
29.0	14.901948201110827	ISI	1.0		8.0	object	car-84.jpg	0.0	86.43676519106884	0.11669676662222628
30.0	15.018644967733053	car	0.0		46.0	object	car-138.jpg	0.0	86.55346195769107	0.38329281938695203
30.0	15.401937787120005	ISI	1.0		7.0	object	car-138.jpg	0.0	86.93675477707802	0.11667654235043301
30.0	15.434255872057292	pulse	1.0	t		object	car-138.jpg	0.0	86.96907286201531	
31.0	15.518614329470438	car	0.0		46.0	object	car-130.jpg	0.0	87.05343131942846	0.3833118362399546
31.0	15.901926165710393	ISI	1.0		7.0	object	car-130.jpg	0.0	87.43674315566841	0.11669948331473279
32.0	16.018625649025125	car	0.0		46.0	object	car-104.jpg	0.0	87.55344263898314	0.3832904045493706
32.0	16.102040508310893	pulse	0.0	t		object	car-104.jpg	0.0	87.63685749826891	
32.0	16.401916053574496	ISI	1.0		8.0	object	car-104.jpg	0.0	87.93673304353251	0.11670189815322374
33.0	16.51861795172772	car	0.0		46.0	object	car-83.jpg	0.0	88.05343494168574	0.3832876878559546
33.0	16.802024600562618	pulse	0.0	t		object	car-83.jpg	0.0	88.33684159052063	
33.0	16.901905639583674	ISI	1.0		5.0	object	car-83.jpg	0.0	88.43672262954169	0.1166973703311669
34.0	17.01860300991484	car	0.0		46.0	object	car-74.jpg	0.0	88.55341999987286	0.38329131011323625
34.0	17.401894320028077	ISI	1.0		7.0	object	car-74.jpg	0.0	88.9367113099861	0.11669616291237617
35.0	17.518590482940454	car	0.0		45.0	object	car-73.jpg	0.0	89.05340747289847	0.38329342309680214
35.0	17.51059978248304	pulse	0.0	t		object	car-73.jpg	0.0	89.04541677244106	
35.0	17.901883906037256	ISI	1.0		11.0	object	car-73.jpg	0.0	89.43670089599527	0.09999815868559381
36.0	18.00188206472285	baseline	0.0		48.0		baseline	0.0	89.53669905468087	0.40006568360604433
36.0	18.202073380300135	pulse	0.0	t			baseline	0.0	89.73689037025815	
36.0	18.401947748328894	ISI	1.0		11.0		baseline	0.0	89.93676473828691	0.09999725312172814
37.0	18.501945001450622	baseline	0.0		48.0		baseline	0.0	90.03676199140864	0.3999920310325251
37.0	18.901937032483147	ISI	1.0		11.0		baseline	0.0	90.43675402244116	0.09999302715459635
37.0	18.90653488490716	pulse	1.0	t			baseline	0.0	90.44135187486518	
38.0	19.001930059637743	baseline	0.0		48.0		baseline	0.0	90.53674704959576	0.3999908236137344
38.0	19.401920883251478	ISI	1.0		11.0		baseline	0.0	90.9367378732095	0.1000023846527256
39.0	19.501923267904203	baseline	0.0		48.0		baseline	0.0	91.03674025786222	0.39999172917850956
39.0	19.60203824440032	pulse	0.0	t			baseline	0.0	91.13685523435834	
39.0	19.901914997082713	ISI	1.0		11.0		baseline	0.0	91.43673198704073	0.10001113844191423
40.0	20.001926135524627	baseline	0.0		48.0		baseline	0.0	91.53674312548264	0.3999796549860548
40.0	20.302020525523403	pulse	0.0	t			baseline	0.0	91.83683751548142	
40.0	20.401905790510682	ISI	1.0		11.0		baseline	0.0	91.9367227804687	0.09999483828323719
41.0	20.50190062879392	baseline	0.0		48.0		baseline	0.0	92.03671761875194	0.3999920310325251
41.0	20.901892659826444	ISI	1.0		11.0		baseline	0.0	92.43670964978446	0.09999996981514414
42.0	21.00189262964159	baseline	0.0		47.0		baseline	0.0	92.5367096195996	0.3999887106301685
42.0	21.00608780775201	pulse	0.0	t			baseline	0.0	92.54090479771003	
42.0	21.401881340271757	ISI	1.0		11.0		baseline	0.0	92.93669833022977	0.09999936610438453
43.0	21.50188070637614	baseline	0.0		48.0		baseline	0.0	93.03669769633416	0.3999929365973003
43.0	21.701992332284135	pulse	0.0	t			baseline	0.0	93.23680932224215	
43.0	21.90187364297344	ISI	1.0		11.0		baseline	0.0	93.43669063293146	0.09999755497665319
44.0	22.001871197950095	baseline	0.0		48.0		baseline	0.0	93.53668818790811	0.39999172917850956
44.0	22.401862927128604	ISI	1.0		11.0		baseline	0.0	93.93667991708662	0.09999815868559381
44.0	22.406426368103894	pulse	1.0	t			baseline	0.0	93.94124335806191	
45.0	22.5018610858142	baseline	0.0		48.0		baseline	0.0	94.03667807577222	0.39999172917760006
45.0	22.9018528149918	ISI	1.0		11.0		baseline	0.0	94.43666980494982	0.09999634755695297
46.0	23.00184916254875	baseline	0.0		48.0		baseline	0.0	94.53666615250677	0.39999233288835967
46.0	23.101965346464567	pulse	0.0	t			baseline	0.0	94.63678233642258	
46.0	23.40184149543711	ISI	1.0		11.0		baseline	0.0	94.93665848539513	0.09999906424945948
47.0	23.50184055968657	baseline	0.0		48.0		baseline	0.0	95.03665754964459	0.39999052175971883
47.0	23.801949740571217	pulse	0.0	t			baseline	0.0	95.33676673052923	
47.0	23.90183108144629	ISI	1.0		6.0		baseline	0.0	95.4366480714043	0.11666295888335299
48.0	24.018494040329642	house	0.0		46.0	place	house-27.jpg	0.0	95.55331103028766	0.3832559931006472
48.0	24.40175003343029	ISI	1.0		7.0	place	house-27.jpg	0.0	95.9365670233883	0.11669586105745111
49.0	24.51844589448774	house	0.0		45.0	place	house-63.jpg	0.0	96.05326288444576	0.3832937249517272
49.0	24.510410217664685	pulse	0.0	t		place	house-63.jpg	0.0	96.0452272076227	
49.0	24.901739619439468	ISI	1.0		7.0	place	house-63.jpg	0.0	96.43655660939748	0.11669827589594206
50.0	25.01843789533541	house	0.0		46.0	place	house-68.jpg	0.0	96.55325488529343	0.3832916119681613
50.0	25.20185212072647	pulse	0.0	t		place	house-68.jpg	0.0	96.73666911068449	
50.0	25.40172950730357	ISI	1.0		2.0	place	house-68.jpg	0.0	96.93654649726159	0.11669646476730122
51.0	25.518425972070872	house	0.0		46.0	place	house-115.jpg	0.0	97.05324296202889	0.3832958379352931
51.0	25.901721810006165	ISI	1.0		7.0	place	house-115.jpg	0.0	97.43653879996418	0.11670129444337363
51.0	25.934170296219236	pulse	1.0	t		place	house-115.jpg	0.0	97.46898728617725	
52.0	26.01842310444954	house	0.0		46.0	place	house-115.jpg	1.0	97.55324009440756	0.3832873860010295
52.0	26.40171049045057	ISI	1.0		8.0	place	house-115.jpg	1.0	97.93652748040859	0.11669133323539427
53.0	26.518401823685963	house	0.0		45.0	place	house-66.jpg	0.0	98.05321881364398	0.3832964416451432
53.0	26.510441912419083	response	0.0	b		place	house-66.jpg	0.0	98.0452589023771	
53.0	26.60181849410037	pulse	0.0	t		place	house-66.jpg	0.0	98.13663548405839	
53.0	26.901698265331106	ISI	1.0		5.0	place	house-66.jpg	0.0	98.43651525528912	0.11669948331473279
54.0	27.01839774864584	house	0.0		46.0	place	house-144.jpg	0.0	98.55321473860386	0.3832910082583112
54.0	27.301807114174153	pulse	0.0	t		place	house-144.jpg	0.0	98.83662410413217	
54.0	27.40168875690415	ISI	1.0		6.0	place	house-144.jpg	0.0	98.93650574686217	0.11669767218700144
55.0	27.51838642909115	house	0.0		46.0	place	house-48.jpg	0.0	99.05320341904917	0.38329131011323625
55.0	27.901677739204388	ISI	1.0		6.0	place	house-48.jpg	0.0	99.4364947291624	0.1166973703311669
56.0	28.018375109535555	house	0.0		45.0	place	house-86.jpg	0.0	99.55319209949357	0.3832931212418771
56.0	28.010398596254163	pulse	0.0	t		place	house-86.jpg	0.0	99.54521558621218	
56.0	28.40166823077743	ISI	1.0		7.0	place	house-86.jpg	0.0	99.93648522073545	0.11669767218609195
57.0	28.518365902963524	house	0.0		46.0	place	house-126.jpg	0.0	100.05318289292154	0.3832922156780114
57.0	28.70179522109538	pulse	0.0	t		place	house-126.jpg	0.0	100.2366122110534	
57.0	28.901658118641535	ISI	1.0		7.0	place	house-126.jpg	0.0	100.43647510859955	0.11669887960579217
58.0	29.018356998247327	house	0.0		46.0	place	house-89.jpg	0.0	100.55317398820534	0.3832958379352931
58.0	29.40165283618262	ISI	1.0		7.0	place	house-89.jpg	0.0	100.93646982614064	0.11669495549267594
58.0	29.440715263076527	pulse	1.0	t		place	house-89.jpg	0.0	100.97553225303454	
59.0	29.518347791675296	house	0.0		46.0	place	house-136.jpg	0.0	101.05316478163331	0.38328919712967036
59.0	29.901636988804967	ISI	1.0		7.0	place	house-136.jpg	0.0	101.43645397876298	0.11669435178373533
60.0	30.018331340588702	body	0.0		46.0	body	body-74.jpg	0.0	101.55314833054672	0.383327532689691
60.0	30.101783026160774	pulse	0.0	t		body	body-74.jpg	0.0	101.63660001611879	
60.0	30.401658873278393	ISI	1.0		7.0	body	body-74.jpg	0.0	101.93647586323641	0.11668952210675343
61.0	30.518348395385146	body	0.0		46.0	body	body-101.jpg	0.0	102.05316538534316	0.3832674635832518
61.0	30.801736027367042	pulse	0.0	t		body	body-101.jpg	0.0	102.33655301732506	
61.0	30.9016158589684	ISI	1.0		7.0	body	body-101.jpg	0.0	102.43643284892642	0.11669646476730122
62.0	31.0183123237357	body	0.0		46.0	body	body-22.jpg	0.0	102.55312931369372	0.38329463051559287
62.0	31.401606954251292	ISI	1.0		7.0	body	body-22.jpg	0.0	102.93642394420931	0.11669404992881027
63.0	31.518301004180103	body	0.0		45.0	body	body-124.jpg	0.0	103.05311799413812	0.3832970453549933
63.0	31.510321774206204	pulse	0.0	t		body	body-124.jpg	0.0	103.04513876416422	
63.0	31.901598049535096	ISI	1.0		7.0	body	body-124.jpg	0.0	103.43641503949311	0.11670431299171469
64.0	32.01830236252681	body	0.0		46.0	body	body-92.jpg	0.0	103.55311935248483	0.38328436745268846
64.0	32.20170421187049	pulse	0.0	t		body	body-92.jpg	0.0	103.73652120182851	
64.0	32.4015867299795	ISI	1.0		8.0	body	body-92.jpg	0.0	103.93640371993752	0.11669827589594206
65.0	32.51828500587544	body	0.0		46.0	body	body-72.jpg	0.0	104.05310199583346	0.38329191382308636
65.0	32.90157691969853	ISI	1.0		6.0	body	body-72.jpg	0.0	104.43639390965654	0.11670038887950795
65.0	32.942448362452524	pulse	1.0	t		body	body-72.jpg	0.0	104.47726535241054	
66.0	33.018277308578035	body	0.0		46.0	body	body-110.jpg	0.0	104.55309429853605	0.3832873860010295
66.0	33.401564694579065	ISI	1.0		8.0	body	body-110.jpg	0.0	104.93638168453708	0.11669767218609195
67.0	33.51826236676516	body	0.0		46.0	body	body-94.jpg	0.0	105.05307935672317	0.3832937249517272
67.0	33.601676018631224	pulse	0.0	t		body	body-94.jpg	0.0	105.13649300858924	
67.0	33.901556091716884	ISI	1.0		7.0	body	body-94.jpg	0.0	105.4363730816749	0.11669676662131678
68.0	34.0182528583382	body	0.0		46.0	body	body-51.jpg	0.0	105.55306984829622	0.3832904045493706
68.0	34.301691201928406	pulse	0.0	t		body	body-51.jpg	0.0	105.83650819188642	
68.0	34.40154326288757	ISI	1.0		8.0	body	body-51.jpg	0.0	105.93636025284559	0.11669767218609195
69.0	34.51824093507366	body	0.0		46.0	body	body-51.jpg	1.0	106.05305792503168	0.38329281938695203
69.0	34.901533754460615	ISI	1.0		6.0	body	body-51.jpg	1.0	106.43635074441863	0.1166952573485105
70.0	35.018229011809126	body	0.0		45.0	body	body-39.jpg	0.0	106.55304600176714	0.383295234225443
70.0	35.01025159296296	pulse	0.0	t		body	body-39.jpg	0.0	106.54506858292098	
70.0	35.022656919975816	response	0.0	b		body	body-39.jpg	0.0	106.55747390993383	
70.0	35.40152424603457	ISI	1.0		7.0	body	body-39.jpg	0.0	106.93634123599259	0.11670431299171469
71.0	35.518228559026284	body	0.0		46.0	body	body-135.jpg	0.0	107.0530455489843	0.3833217974488434
71.0	35.70163312506338	pulse	0.0	t		body	body-135.jpg	0.0	107.2364501150214	
71.0	35.90155035647513	ISI	1.0		7.0	body	body-135.jpg	0.0	107.43636734643314	0.11665933662607131
72.0	36.0182096931012	car	0.0		46.0	object	car-63.jpg	0.0	107.55302668305922	0.38329342309680214
72.0	36.401503116198	ISI	1.0		7.0	object	car-63.jpg	0.0	107.93632010615602	0.116697974041017
72.0	36.43882384085464	pulse	1.0	t		object	car-63.jpg	0.0	107.97364083081266	
73.0	36.51820109023902	car	0.0		46.0	object	car-118.jpg	0.0	108.05301808019703	0.38332360857748426
73.0	36.9015246988165	ISI	1.0		6.0	object	car-118.jpg	0.0	108.43634168877452	0.11669857775086712
74.0	37.01822327656737	car	0.0		46.0	object	car-107.jpg	0.0	108.55304026652539	0.383257804229288
74.0	37.10160674295366	pulse	0.0	t		object	car-107.jpg	0.0	108.63642373291168	
74.0	37.40148108079666	ISI	1.0		7.0	object	car-107.jpg	0.0	108.93629807075467	0.11669918146071723
75.0	37.518180262257374	car	0.0		46.0	object	car-82.jpg	0.0	109.05299725221539	0.38329191382308636
75.0	37.80159023149554	pulse	0.0	t		object	car-82.jpg	0.0	109.33640722145356	
75.0	37.90147217608046	ISI	1.0		7.0	object	car-82.jpg	0.0	109.43628916603848	0.116695257347601
76.0	38.01816743342806	car	0.0		46.0	object	car-97.jpg	0.0	109.55298442338608	0.38329251753293647
76.0	38.401459950961	ISI	1.0		8.0	object	car-97.jpg	0.0	109.93627694091902	0.11669616291146667
77.0	38.518156113872465	car	0.0		45.0	object	car-97.jpg	1.0	110.05297310383048	0.38329674350006826
77.0	38.510171450511734	pulse	0.0	t		object	car-97.jpg	1.0	110.04498844046975	
77.0	38.90145285737253	ISI	1.0		7.0	object	car-97.jpg	1.0	110.43626984733055	0.11670159629920818
77.0	38.93390104173068	response	1.0	b		object	car-97.jpg	1.0	110.4687180316887	
78.0	39.01815445367174	car	0.0		46.0	object	car-122.jpg	0.0	110.55297144362976	0.3832855748714792
78.0	39.20155147333844	pulse	0.0	t		object	car-122.jpg	0.0	110.73636846329646	
78.0	39.40144002854322	ISI	1.0		8.0	object	car-122.jpg	0.0	110.93625701850124	0.11669767218609195
79.0	39.51813770072931	car	0.0		46.0	object	car-81.jpg	0.0	111.05295469068733	0.38329553608127753
79.0	39.90143323681059	ISI	1.0		6.0	object	car-81.jpg	0.0	111.4362502267686	0.116695257347601
79.0	39.9502105588208	pulse	1.0	t		object	car-81.jpg	0.0	111.48502754877882	
80.0	40.01812849415819	car	0.0		46.0	object	car-50.jpg	0.0	111.55294548411621	0.38329402680665225
80.0	40.40142252096484	ISI	1.0		8.0	object	car-50.jpg	0.0	111.93623951092286	0.11669223879925994
81.0	40.5181147597641	car	0.0		46.0	object	car-87.jpg	0.0	112.05293174972212	0.3832943286615773
81.0	40.60153324130806	pulse	0.0	t		object	car-87.jpg	0.0	112.13635023126608	
81.0	40.90140908842568	ISI	1.0		8.0	object	car-87.jpg	0.0	112.4362260783837	0.11669857775086712
82.0	41.01810766617655	car	0.0		46.0	object	car-62.jpg	0.0	112.55292465613456	0.3832916119681613
82.0	41.301522465090784	pulse	0.0	t		object	car-62.jpg	0.0	112.8363394550488	
82.0	41.40139927814471	ISI	1.0		8.0	object	car-62.jpg	0.0	112.93621626810273	0.11668016460680519
83.0	41.518079442751514	car	0.0		46.0	object	car-121.jpg	0.0	113.05289643270953	0.383308817692523
83.0	41.90138826044404	ISI	1.0		7.0	object	car-121.jpg	0.0	113.43620525040205	0.11669586105745111
84.0	42.01808412150149	body	0.0		45.0	body	body-78.jpg	0.0	113.5529011114595	0.38329402680665225
84.0	42.01006414112817	pulse	0.0	t		body	body-78.jpg	0.0	113.54488113108619	
84.0	42.40137814830814	ISI	1.0		7.0	body	body-78.jpg	0.0	113.93619513826616	0.11669918145980773
85.0	42.51807732976795	body	0.0		46.0	body	body-29.jpg	0.0	114.05289431972597	0.3832904045493706
85.0	42.70149215886886	pulse	0.0	t		body	body-29.jpg	0.0	114.23630914882688	
85.0	42.90136773431732	ISI	1.0		7.0	body	body-29.jpg	0.0	114.43618472427534	0.11669555920252606
86.0	43.018063293519845	body	0.0		46.0	body	body-53.jpg	0.0	114.55288028347786	0.38332783454461605
86.0	43.40139112806446	ISI	1.0		8.0	body	body-53.jpg	0.0	114.93620811802248	0.11669978516965784
86.0	43.43183771319582	pulse	1.0	t		body	body-53.jpg	0.0	114.96665470315384	
87.0	43.51809091323412	body	0.0		46.0	body	body-53.jpg	1.0	115.05290790319214	0.38325689866542234
87.0	43.90134781189954	ISI	1.0		8.0	body	body-53.jpg	1.0	115.43616480185756	0.11671427420060354
87.0	43.96813107501657	response	1.0	b		body	body-53.jpg	1.0	115.50294806497459	
88.0	44.018062086100144	body	0.0		46.0	body	body-85.jpg	0.0	115.55287907605816	0.3832792359207815
88.0	44.10145490998548	pulse	0.0	t		body	body-85.jpg	0.0	115.6362718999435	
88.0	44.401341322020926	ISI	1.0		6.0	body	body-85.jpg	0.0	115.93615831197894	0.11669374807388522
89.0	44.51803507009481	body	0.0		46.0	body	body-125.jpg	0.0	116.05285206005283	0.3832916119681613
89.0	44.801445039332975	pulse	0.0	t		body	body-125.jpg	0.0	116.33626202929099	
89.0	44.90132668206297	ISI	1.0		7.0	body	body-125.jpg	0.0	116.43614367202099	0.11670159629920818
90.0	45.01802827836218	body	0.0		46.0	body	body-117.jpg	0.0	116.5528452683202	0.383289800838611
90.0	45.40131807920079	ISI	1.0		6.0	body	body-117.jpg	0.0	116.93613506915881	0.11669133323539427
91.0	45.518009412436186	body	0.0		45.0	body	body-63.jpg	0.0	117.0528264023942	0.3832958379352931
91.0	45.509913968361616	pulse	0.0	t		body	body-63.jpg	0.0	117.04473095831963	
91.0	45.90130525037148	ISI	1.0		7.0	body	body-63.jpg	0.0	117.4361222403295	0.1167000870254924
92.0	46.01800533739697	body	0.0		46.0	body	body-33.jpg	0.0	117.55282232735499	0.3832894989836859
92.0	46.20141533681999	pulse	0.0	t		body	body-33.jpg	0.0	117.73623232677801	
92.0	46.40129483638066	ISI	1.0		7.0	body	body-33.jpg	0.0	117.93611182633867	0.11669857775086712
93.0	46.517993414131524	body	0.0		46.0	body	body-6.jpg	0.0	118.05281040408954	0.38329191382308636
93.0	46.90128532795461	ISI	1.0		4.0	body	body-6.jpg	0.0	118.43610231791263	0.11667714605937363
93.0	46.96101997946789	pulse	1.0	t		body	body-6.jpg	0.0	118.49583696942591	
94.0	47.017962474013984	body	0.0		46.0	body	body-38.jpg	0.0	118.552779463972	0.3833124399498047
94.0	47.40127491396379	ISI	1.0		7.0	body	body-38.jpg	0.0	118.9360919039218	0.11668891839690332
95.0	47.51796383236069	body	0.0		46.0	body	body-15.jpg	0.0	119.05278082231871	0.38331877890050237
95.0	47.60139106769384	pulse	0.0	t		body	body-15.jpg	0.0	119.13620805765186	
95.0	47.901282611261195	ISI	1.0		6.0	body	body-15.jpg	0.0	119.43609960121921	0.11668620170348731
96.0	48.01796881296468	adult	0.0		46.0	face	adult-36.jpg	0.0	119.5527858029227	0.3832985546287091
96.0	48.30137425438079	pulse	0.0	t		face	adult-36.jpg	0.0	119.8361912443388	
96.0	48.40126736759339	ISI	1.0		7.0	face	adult-36.jpg	0.0	119.93608435755141	0.116695257347601
97.0	48.51796262494099	adult	0.0		46.0	face	adult-3.jpg	0.0	120.05277961489901	0.3832798396306316
97.0	48.901242464571624	ISI	1.0		7.0	face	adult-3.jpg	0.0	120.43605945452964	0.11669767218700144
98.0	49.017940136758625	adult	0.0		45.0	face	adult-34.jpg	0.0	120.55275712671664	0.3832937249517272
98.0	49.0098999321126	pulse	0.0	t		face	adult-34.jpg	0.0	120.54471692207062	
98.0	49.40123386171035	ISI	1.0		7.0	face	adult-34.jpg	0.0	120.93605085166837	0.11669827589594206
99.0	49.517932137606294	adult	0.0		46.0	face	adult-76.jpg	0.0	121.05274912756431	0.38332179744793393
99.0	49.7013762466222	pulse	0.0	t		face	adult-76.jpg	0.0	121.23619323658022	
99.0	49.90125393505423	ISI	1.0		7.0	face	adult-76.jpg	0.0	121.43607092501225	0.1167000870254924
100.0	50.01795402207972	adult	0.0		46.0	face	adult-123.jpg	0.0	121.55277101203774	0.3832608227776291
100.0	50.40121484485735	ISI	1.0		8.0	face	adult-123.jpg	0.0	121.93603183481537	0.11669706847624184
100.0	50.43310580524121	pulse	1.0	t		face	adult-123.jpg	0.0	121.96792279519923	
101.0	50.51791191333359	adult	0.0		46.0	face	adult-123.jpg	1.0	122.05272890329161	0.38329946019348426
101.0	50.901211373527076	ISI	1.0		6.0	face	adult-123.jpg	1.0	122.4360283634851	0.11669586105745111
102.0	51.01790723458453	adult	0.0		46.0	face	adult-54.jpg	0.0	122.55272422454254	0.3832840655977634
102.0	51.10131605677361	pulse	0.0	t		face	adult-54.jpg	0.0	122.63613304673163	
102.0	51.40119130018229	ISI	1.0		8.0	face	adult-54.jpg	0.0	122.93600829014031	0.11669978516965784
103.0	51.51789108535195	adult	0.0		46.0	face	adult-37.jpg	0.0	123.05270807530997	0.38329070640338614
103.0	51.80129924346147	pulse	0.0	t		face	adult-37.jpg	0.0	123.33611623341949	
103.0	51.901181791755334	ISI	1.0		5.0	face	adult-37.jpg	0.0	123.43599878171335	0.11669978517056734
104.0	52.0178815769259	adult	0.0		46.0	face	adult-51.jpg	0.0	123.55269856688392	0.3832876878550451
104.0	52.40116926478095	ISI	1.0		7.0	face	adult-51.jpg	0.0	123.93598625473896	0.11669495549358544
105.0	52.51786422027453	adult	0.0		45.0	face	adult-98.jpg	0.0	124.05268121023255	0.38329674349915877
105.0	52.50976545579579	pulse	0.0	t		face	adult-98.jpg	0.0	124.0445824457538	
105.0	52.90116096377369	ISI	1.0		7.0	face	adult-98.jpg	0.0	124.43597795373171	0.11669948331564228
106.0	53.01786044708933	adult	0.0		46.0	face	adult-97.jpg	0.0	124.55267743704735	0.3832867822911794
106.0	53.201259881594524	pulse	0.0	t		face	adult-97.jpg	0.0	124.73607687155254	
106.0	53.40114722938051	ISI	1.0		7.0	face	adult-97.jpg	0.0	124.93596421933853	0.11670431299171469
107.0	53.51785154237223	adult	0.0		46.0	face	adult-129.jpg	0.0	125.05266853233024	0.3832916119681613
107.0	53.90114315434039	ISI	1.0		11.0	face	adult-129.jpg	0.0	125.4359601442984	0.09999725312081864
107.0	53.90560788879429	pulse	1.0	t		face	adult-129.jpg	0.0	125.44042487875231	
108.0	54.00114040746121	baseline	0.0		48.0		baseline	0.0	125.53595739741922	0.39999233288835967
108.0	54.40113274034957	ISI	1.0		11.0		baseline	0.0	125.93594973030758	0.1000174773935214
109.0	54.50115021774309	baseline	0.0		48.0		baseline	0.0	126.0359672077011	0.3999705993419411
109.0	54.60124647924113	pulse	0.0	t			baseline	0.0	126.13606346919914	
109.0	54.90112081708503	ISI	1.0		11.0		baseline	0.0	126.43593780704305	0.09999846054051886
110.0	55.00111927762555	baseline	0.0		48.0		baseline	0.0	126.53593626758357	0.3999899180489592
110.0	55.301227854799436	pulse	0.0	t			baseline	0.0	126.83604484475745	
110.0	55.40110919567451	ISI	1.0		11.0		baseline	0.0	126.93592618563252	0.09999815868559381
111.0	55.5011073543601	baseline	0.0		48.0		baseline	0.0	127.03592434431812	0.39999233288835967
111.0	55.90109968724846	ISI	1.0		11.0		baseline	0.0	127.43591667720648	0.09999936610438453
112.0	56.001099053352846	baseline	0.0		47.0		baseline	0.0	127.53591604331086	0.4000605520741374
112.0	56.005389013873355	pulse	0.0	t			baseline	0.0	127.54020600383137	
112.0	56.40115960542698	ISI	1.0		11.0		baseline	0.0	127.935976595385	0.09999785683157825
113.0	56.50115746225856	baseline	0.0		48.0		baseline	0.0	128.03597445221658	0.3999908236137344
113.0	56.70126939002057	pulse	0.0	t			baseline	0.0	128.2360863799786	
113.0	56.901148285872296	ISI	1.0		11.0		baseline	0.0	128.4359652758303	0.09999664941187802
114.0	57.001144935284174	baseline	0.0		48.0		baseline	0.0	128.5359619252422	0.39999444587101607
114.0	57.40113938115519	ISI	1.0		11.0		baseline	0.0	128.9359563711132	0.09999483828323719
114.0	57.4057499114806	pulse	1.0	t			baseline	0.0	128.94056690143861	
115.0	57.50113421943843	baseline	0.0		48.0		baseline	0.0	129.03595120939644	0.399994144016091
115.0	57.90112836345452	ISI	1.0		11.0		baseline	0.0	129.43594535341254	0.10001113844282372
116.0	58.00113950189734	baseline	0.0		48.0		baseline	0.0	129.53595649185536	0.399977843857414
116.0	58.10124180049115	pulse	0.0	t			baseline	0.0	129.63605879044917	
116.0	58.401117345754756	ISI	1.0		11.0		baseline	0.0	129.93593433571277	0.09999815868559381
117.0	58.50111550444035	baseline	0.0		48.0		baseline	0.0	130.03593249439837	0.3999923328874502
117.0	58.80122528903303	pulse	0.0	t			baseline	0.0	130.33604227899104	
117.0	58.9011078373278	ISI	1.0		11.0		baseline	0.0	130.43592482728582	0.09999604570202791
118.0	59.00110388302983	baseline	0.0		48.0		baseline	0.0	130.53592087298784	0.3999941440170005
118.0	59.40109802704683	ISI	1.0		11.0		baseline	0.0	130.93591501700485	0.09999785683066875
119.0	59.5010958838775	baseline	0.0		47.0		baseline	0.0	131.0359128738355	0.3999899180498687
119.0	59.5053490181117	pulse	0.0	t			baseline	0.0	131.04016600806972	
119.0	59.901085801927366	ISI	1.0		11.0		baseline	0.0	131.43590279188538	0.09999876239453442
120.0	60.0010845643219	baseline	0.0		48.0		baseline	0.0	131.53590155427992	0.3999908236146439
120.0	60.201197397649594	pulse	0.0	t			baseline	0.0	131.7360143876076	
120.0	60.401075387936544	ISI	1.0		11.0		baseline	0.0	131.93589237789456	0.09999574384710286
121.0	60.50107113178365	baseline	0.0		48.0		baseline	0.0	132.03588812174166	0.3999956532907163
121.0	60.90106678507436	ISI	1.0		11.0		baseline	0.0	132.43588377503238	0.09999634755695297
121.0	60.90574523273153	pulse	1.0	t			baseline	0.0	132.44056222268955	
122.0	61.001063132631316	baseline	0.0		48.0		baseline	0.0	132.53588012258933	0.39999172917760006
122.0	61.401054861808916	ISI	1.0		11.0		baseline	0.0	132.93587185176693	0.10000449763720098
123.0	61.50105935944612	baseline	0.0		48.0		baseline	0.0	133.03587634940413	0.39998689950152766
123.0	61.60121146408346	pulse	0.0	t			baseline	0.0	133.13602845404148	
123.0	61.901046258947645	ISI	1.0		11.0		baseline	0.0	133.43586324890566	0.09999725312081864
124.0	62.00104351206846	baseline	0.0		48.0		baseline	0.0	133.53586050202648	0.39999263474237523
124.0	62.30115088182356	pulse	0.0	t			baseline	0.0	133.83596787178158	
124.0	62.40103614681084	ISI	1.0		11.0		baseline	0.0	133.93585313676886	0.09999634755695297
125.0	62.50103249436779	baseline	0.0		48.0		baseline	0.0	134.0358494843258	0.3999908236137344
125.0	62.901023317981526	ISI	1.0		11.0		baseline	0.0	134.43584030793954	0.09999966796021909
126.0	63.001022985941745	baseline	0.0		47.0		baseline	0.0	134.53583997589976	0.39999112546865945
126.0	63.005313550172104	pulse	0.0	t			baseline	0.0	134.54013054013012	
126.0	63.401014111410404	ISI	1.0		11.0		baseline	0.0	134.93583110136842	0.09999815868559381
127.0	63.501012270096	baseline	0.0		48.0		baseline	0.0	135.03582926005402	0.3999923328874502
127.0	63.70112480156786	pulse	0.0	t			baseline	0.0	135.23594179152587	
127.0	63.90100460298345	ISI	1.0		11.0		baseline	0.0	135.43582159294147	0.10000329021750076
128.0	64.00100789320095	baseline	0.0		48.0		baseline	0.0	135.53582488315897	0.3999878050663028
128.0	64.40099569826725	ISI	1.0		11.0		baseline	0.0	135.93581268822527	0.09999514013725275
128.0	64.40568229600376	pulse	1.0	t			baseline	0.0	135.94049928596178	
129.0	64.5009908384045	baseline	0.0		48.0		baseline	0.0	136.03580782836252	0.39999172917850956
129.0	64.90098256758301	ISI	1.0		11.0		baseline	0.0	136.43579955754103	0.09999936610438453
130.0	65.0009819336874	baseline	0.0		48.0		baseline	0.0	136.53579892364542	0.39998961619494366
130.0	65.10113766058294	pulse	0.0	t			baseline	0.0	136.63595465054095	
130.0	65.40097154988234	ISI	1.0		11.0		baseline	0.0	136.93578853984036	0.09999846054051886
131.0	65.50097001042286	baseline	0.0		48.0		baseline	0.0	137.03578700038088	0.39999233288835967
131.0	65.80108190800001	pulse	0.0	t			baseline	0.0	137.33589889795803	
131.0	65.90096234331122	ISI	1.0		2.0		baseline	0.0	137.43577933326924	0.11666477001199382
132.0	66.01762711332321	word	0.0		46.0	character	word-58.jpg	0.0	137.55244410328123	0.383255087535872
132.0	66.40088220085909	ISI	1.0		6.0	character	word-58.jpg	0.0	137.9356991908171	0.1166952573485105
133.0	66.5175774582076	word	0.0		45.0	character	word-87.jpg	0.0	138.05239444816561	0.3832937249517272
133.0	66.50957770210607	pulse	0.0	t		character	word-87.jpg	0.0	138.0443946920641	
133.0	66.90087118315932	ISI	1.0		7.0	character	word-87.jpg	0.0	138.43568817311734	0.11669918145980773
134.0	67.01757036461913	word	0.0		46.0	character	word-65.jpg	0.0	138.55238735457715	0.38329070640429563
134.0	67.2009821751717	pulse	0.0	t		character	word-65.jpg	0.0	138.73579916512972	
134.0	67.40086107102343	ISI	1.0		5.0	character	word-65.jpg	0.0	138.93567806098145	0.11670189815322374
135.0	67.51756296917665	word	0.0		46.0	character	word-123.jpg	0.0	139.05237995913467	0.38328919712967036
135.0	67.90085216630632	ISI	1.0		6.0	character	word-123.jpg	0.0	139.43566915626434	0.11669857775086712
135.0	67.94202003048122	pulse	1.0	t		character	word-123.jpg	0.0	139.47683702043923	
136.0	68.01755074405719	word	0.0		46.0	character	word-115.jpg	0.0	139.5523677340152	0.38328919712967036
136.0	68.40083994118686	ISI	1.0		6.0	character	word-115.jpg	0.0	139.93565693114488	0.1167000870245829
137.0	68.51754002821144	word	0.0		46.0	character	word-50.jpg	0.0	140.05235701816946	0.3832876878550451
137.0	68.60096183015776	pulse	0.0	t		character	word-50.jpg	0.0	140.13577882011577	
137.0	68.90082771606649	ISI	1.0		7.0	character	word-50.jpg	0.0	140.4356447060245	0.11670159629920818
138.0	69.0175293123657	word	0.0		46.0	character	word-19.jpg	0.0	140.5523463023237	0.38329674350006826
138.0	69.30093626305552	pulse	0.0	t		character	word-19.jpg	0.0	140.83575325301354	
138.0	69.40082605586576	ISI	1.0		7.0	character	word-19.jpg	0.0	140.93564304582378	0.11669193694433488
139.0	69.5175179928101	word	0.0		46.0	character	word-111.jpg	0.0	141.05233498276812	0.3833193826103525
139.0	69.90083737542045	ISI	1.0		6.0	character	word-111.jpg	0.0	141.43565436537847	0.11667473122088268
140.0	70.01751210664133	word	0.0		45.0	character	word-59.jpg	0.0	141.55232909659935	0.38330217688690027
140.0	70.0094894095746	pulse	0.0	t		character	word-59.jpg	0.0	141.54430639953262	
140.0	70.40081428352823	ISI	1.0		7.0	character	word-59.jpg	0.0	141.93563127348625	0.11668378686499636
141.0	70.51749807039323	word	0.0		46.0	character	word-38.jpg	0.0	142.05231506035125	0.38329070640338614
141.0	70.70093704787814	pulse	0.0	t		character	word-38.jpg	0.0	142.23575403783616	
141.0	70.90078877679662	ISI	1.0		7.0	character	word-38.jpg	0.0	142.43560576675463	0.11670250186307385
142.0	71.01749127865969	word	0.0		46.0	character	word-75.jpg	0.0	142.5523082686177	0.3832882915658047
142.0	71.4007795702255	ISI	1.0		6.0	character	word-75.jpg	0.0	142.9355965601835	0.11669616291146667
142.0	71.44664399334579	pulse	1.0	t		character	word-75.jpg	0.0	142.9814609833038	
143.0	71.51747573313696	word	0.0		46.0	character	word-67.jpg	0.0	143.05229272309498	0.38329070640429563
143.0	71.90076643954126	ISI	1.0		7.0	character	word-67.jpg	0.0	143.43558342949927	0.11670159629829868
144.0	72.01746803583956	word	0.0		46.0	character	word-11.jpg	0.0	143.55228502579757	0.3833211937389933
144.0	72.10091730657405	pulse	0.0	t		character	word-11.jpg	0.0	143.63573429653206	
144.0	72.40078922957855	ISI	1.0		7.0	character	word-11.jpg	0.0	143.93560621953657	0.11670099258935807
145.0	72.51749022216791	word	0.0		46.0	character	word-45.jpg	0.0	144.05230721212592	0.38325478568185645
145.0	72.80086940221554	pulse	0.0	t		character	word-45.jpg	0.0	144.33568639217356	
145.0	72.90074500784976	ISI	1.0		7.0	character	word-45.jpg	0.0	144.43556199780778	0.11670250186307385
146.0	73.01744750971284	word	0.0		46.0	character	word-121.jpg	0.0	144.55226449967086	0.3832894989845954
146.0	73.40073700869743	ISI	1.0		7.0	character	word-121.jpg	0.0	144.93555399865545	0.11669918145980773
147.0	73.51743619015724	word	0.0		45.0	character	word-121.jpg	1.0	145.05225318011526	0.38329342309680214
147.0	73.50970931080155	pulse	0.0	t		character	word-121.jpg	1.0	145.04452630075957	
147.0	73.90072961325404	ISI	1.0		6.0	character	word-121.jpg	1.0	145.43554660321206	0.11669948331564228
147.0	73.98418310995567	response	1.0	b		character	word-121.jpg	1.0	145.51900009991368	
148.0	74.01742909656969	word	0.0		46.0	character	word-96.jpg	0.0	145.5522460865277	0.3832867822911794
148.0	74.20081041978665	pulse	0.0	t		character	word-96.jpg	0.0	145.73562740974467	
148.0	74.40071587886086	ISI	1.0		7.0	character	word-96.jpg	0.0	145.93553286881888	0.11669918145980773
149.0	74.51741506032067	word	0.0		46.0	character	word-78.jpg	0.0	146.0522320502787	0.38329251753293647
149.0	74.90070757785361	ISI	1.0		7.0	character	word-78.jpg	0.0	146.43552456781163	0.11669646476730122
149.0	74.9404778542712	pulse	1.0	t		character	word-78.jpg	0.0	146.4752948442292	
150.0	75.01740404262091	word	0.0		46.0	character	word-126.jpg	0.0	146.55222103257893	0.3832922156771019
150.0	75.40069625829801	ISI	1.0		7.0	character	word-126.jpg	0.0	146.93551324825603	0.11669827589594206
151.0	75.51739453419395	word	0.0		46.0	character	word-114.jpg	0.0	147.05221152415197	0.38328980083952047
151.0	75.60081361944776	pulse	0.0	t		character	word-114.jpg	0.0	147.13563060940578	
151.0	75.90068433503347	ISI	1.0		6.0	character	word-114.jpg	0.0	147.4355013249915	0.11669918145980773
152.0	76.01738351649328	word	0.0		46.0	character	word-93.jpg	0.0	147.5522005064513	0.38329070640429563
152.0	76.30079439129622	pulse	0.0	t		character	word-93.jpg	0.0	147.83561138125424	
152.0	76.40067422289758	ISI	1.0		6.0	character	word-93.jpg	0.0	147.9354912128556	0.11669918145980773
153.0	76.51737340435739	word	0.0		46.0	character	word-124.jpg	0.0	148.0521903943154	0.3832888952747453
153.0	76.90066229963213	ISI	1.0		7.0	character	word-124.jpg	0.0	148.43547928959015	0.11670129444428312
154.0	77.01736359407641	word	0.0		45.0	character	word-91.jpg	0.0	148.55218058403443	0.3832904045484611
154.0	77.00994702146272	pulse	0.0	t		character	word-91.jpg	0.0	148.54476401142074	
154.0	77.40065399862488	ISI	1.0		7.0	character	word-91.jpg	0.0	148.9354709885829	0.11669857775086712
155.0	77.51735257637574	word	0.0		46.0	character	word-118.jpg	0.0	149.05216956633376	0.3832910082583112
155.0	77.70076408507339	pulse	0.0	t		character	word-118.jpg	0.0	149.2355810750314	
155.0	77.90064358463405	ISI	1.0		6.0	character	word-118.jpg	0.0	149.43546057459207	0.11670069073443301
156.0	78.01734427536849	body	0.0		46.0	body	body-84.jpg	0.0	149.5521612653265	0.38329070640429563
156.0	78.40063498177278	ISI	1.0		7.0	body	body-84.jpg	0.0	149.9354519717308	0.11669555920252606
156.0	78.44098361200031	pulse	1.0	t		body	body-84.jpg	0.0	149.97580060195833	
157.0	78.51733054097531	body	0.0		46.0	body	body-18.jpg	0.0	150.05214753093333	0.3833239104324093
157.0	78.90065445140772	ISI	1.0		7.0	body	body-18.jpg	0.0	150.43547144136573	0.11670189815322374
158.0	79.01735634956094	body	0.0		46.0	body	body-58.jpg	0.0	150.55217333951896	0.3832578042301975
158.0	79.10073619368904	pulse	0.0	t		body	body-58.jpg	0.0	150.63555318364706	
158.0	79.40061415379114	ISI	1.0		7.0	body	body-58.jpg	0.0	150.93543114374916	0.11670250186307385
159.0	79.51731665565421	body	0.0		46.0	body	body-5.jpg	0.0	151.05213364561223	0.38328587672640424
159.0	79.80072119150554	pulse	0.0	t		body	body-5.jpg	0.0	151.33553818146356	
159.0	79.90060253238062	ISI	1.0		7.0	body	body-5.jpg	0.0	151.43541952233863	0.11669827589594206
160.0	80.01730080827656	body	0.0		46.0	body	body-36.jpg	0.0	151.55211779823458	0.3832910082583112
160.0	80.40059181653487	ISI	1.0		7.0	body	body-36.jpg	0.0	151.9354088064929	0.11669646476730122
161.0	80.51728828130217	body	0.0		45.0	body	body-132.jpg	0.0	152.0521052712602	0.38329342309680214
161.0	80.50938602430324	pulse	0.0	t		body	body-132.jpg	0.0	152.04420301426126	
161.0	80.90058170439897	ISI	1.0		7.0	body	body-132.jpg	0.0	152.435398694357	0.1166973703311669
162.0	81.01727907473014	body	0.0		46.0	body	body-115.jpg	0.0	152.55209606468816	0.38329070640429563
162.0	81.20069118713764	pulse	0.0	t		body	body-115.jpg	0.0	152.73550817709565	
162.0	81.40056978113444	ISI	1.0		7.0	body	body-115.jpg	0.0	152.93538677109245	0.11668469242886204
163.0	81.5172544735633	body	0.0		46.0	body	body-112.jpg	0.0	153.05207146352132	0.38330851583759795
163.0	81.9005629894009	ISI	1.0		7.0	body	body-112.jpg	0.0	153.4353799793589	0.11669435178373533
163.0	81.93608918722839	pulse	1.0	t		body	body-112.jpg	0.0	153.4709061771864	
164.0	82.01725734118463	body	0.0		46.0	body	body-75.jpg	0.0	153.55207433114265	0.3832916119681613
164.0	82.40054895315279	ISI	1.0		7.0	body	body-75.jpg	0.0	153.9353659431108	0.11670038887950795
165.0	82.5172493420323	body	0.0		46.0	body	body-122.jpg	0.0	154.05206633199032	0.3833489643811845
165.0	82.60068050147765	pulse	0.0	t		body	body-122.jpg	0.0	154.13549749143567	
165.0	82.90059830641349	ISI	1.0		8.0	body	body-122.jpg	0.0	154.4354152963715	0.11663005670925486
166.0	83.01722836312274	body	0.0		46.0	body	body-118.jpg	0.0	154.55204535308076	0.38330036575734994
166.0	83.30064859542381	pulse	0.0	t		body	body-118.jpg	0.0	154.83546558538183	
166.0	83.40052872888009	ISI	1.0		7.0	body	body-118.jpg	0.0	154.9353457188381	0.1167000870245829
167.0	83.51722881590467	body	0.0		46.0	body	body-109.jpg	0.0	155.0520458058627	0.3832904045493706
167.0	83.90051922045404	ISI	1.0		7.0	body	body-109.jpg	0.0	155.43533621041206	0.1166973703311669
168.0	84.01721659078521	body	0.0		45.0	body	body-143.jpg	0.0	155.55203358074323	0.38329251753293647
168.0	84.00865900700046	pulse	0.0	t		body	body-143.jpg	0.0	155.54347599695848	
168.0	84.40050910831815	ISI	1.0		6.0	body	body-143.jpg	0.0	155.93532609827616	0.1166973703311669
169.0	84.51720647864931	body	0.0		46.0	body	body-67.jpg	0.0	156.05202346860733	0.38329131011323625
169.0	84.70062221331409	pulse	0.0	t		body	body-67.jpg	0.0	156.2354392032721	
169.0	84.90049778876255	ISI	1.0		6.0	body	body-67.jpg	0.0	156.43531477872057	0.10836647950691258
170.0	85.00886426826946	body	0.0		47.0	body	body-119.jpg	0.0	156.54368125822748	0.39165751795007964
170.0	85.40052178621954	ISI	1.0		6.0	body	body-119.jpg	0.0	156.93533877617756	0.11670069073443301
170.0	85.44322307281527	pulse	1.0	t		body	body-119.jpg	0.0	156.9780400627733	
171.0	85.51722247695398	body	0.0		46.0	body	body-119.jpg	1.0	157.052039466912	0.3832861785813293
171.0	85.9005086555353	ISI	1.0		6.0	body	body-119.jpg	1.0	157.43532564549332	0.1167028037179989
171.0	85.9923286619287	response	1.0	b		body	body-119.jpg	1.0	157.5271456518867	
172.0	86.0172114592533	body	0.0		46.0	body	body-136.jpg	0.0	157.55202844921132	0.38325901164898823
172.0	86.1005873792692	pulse	0.0	t		body	body-136.jpg	0.0	157.63540436922722	
172.0	86.40047047090229	ISI	1.0		6.0	body	body-136.jpg	0.0	157.9352874608603	0.10836557394213742
173.0	86.50883604484443	body	0.0		47.0	body	body-43.jpg	0.0	158.04365303480245	0.39161616384262743
173.0	86.80058082901996	pulse	0.0	t		body	body-43.jpg	0.0	158.33539781897798	
173.0	86.90045220868706	ISI	1.0		5.0	body	body-43.jpg	0.0	158.43526919864507	0.10837040361911932
174.0	87.00882261230618	body	0.0		47.0	body	body-95.jpg	0.0	158.5436396022642	0.39161344714830193
174.0	87.40043605945448	ISI	1.0		6.0	body	body-95.jpg	0.0	158.9352530494125	0.10837342216746038
175.0	87.50880948162194	body	0.0		46.0	body	body-98.jpg	0.0	159.04362647157996	0.3916279361792476
175.0	87.50404742018236	pulse	0.0	t		body	body-98.jpg	0.0	159.03886441014038	
175.0	87.90043741780119	ISI	1.0		6.0	body	body-98.jpg	0.0	159.4352544077592	0.10836406466842163
176.0	88.00880148246961	body	0.0		47.0	body	body-30.jpg	0.0	159.54361847242762	0.3916255213407567
176.0	88.20054690053985	pulse	0.0	t		body	body-30.jpg	0.0	159.73536389049787	
176.0	88.40042700381036	ISI	1.0		7.0	body	body-30.jpg	0.0	159.93524399376838	0.11669887960579217
177.0	88.51712588341616	body	0.0		46.0	body	body-137.jpg	0.0	160.05194287337417	0.3832916119672518
177.0	88.90041749538341	ISI	1.0		7.0	body	body-137.jpg	0.0	160.43523448534143	0.11671035008839681
177.0	88.9409834610733	pulse	1.0	t		body	body-137.jpg	0.0	160.47580045103132	
178.0	89.0171278454718	body	0.0		46.0	body	body-106.jpg	0.0	160.55194483542982	0.38327742479214066
178.0	89.40040527026395	ISI	1.0		7.0	body	body-106.jpg	0.0	160.93522226022196	0.11669767218609195
179.0	89.51710294245004	body	0.0		46.0	body	body-129.jpg	0.0	161.05191993240805	0.3832931212427866
179.0	89.60051991472028	pulse	0.0	t		body	body-129.jpg	0.0	161.1353369046783	
179.0	89.90039606369282	ISI	1.0		7.0	body	body-129.jpg	0.0	161.43521305365084	0.11670340742693952
180.0	90.01709947111976	house	0.0		46.0	place	house-17.jpg	0.0	161.55191646107778	0.3832852730174636
180.0	90.30050491253587	pulse	0.0	t		place	house-17.jpg	0.0	161.8353219024939	
180.0	90.40038474413723	ISI	1.0		3.0	place	house-17.jpg	0.0	161.93520173409524	0.11669616291237617
181.0	90.5170809070496	house	0.0		46.0	place	house-12.jpg	0.0	162.05189789700762	0.3832937249517272
181.0	90.90037463200133	ISI	1.0		6.0	place	house-12.jpg	0.0	162.43519162195935	0.11669435178282583
182.0	91.01706898378416	house	0.0		45.0	place	house-56.jpg	0.0	162.55188597374217	0.3832943286615773
182.0	91.00918513992929	pulse	0.0	t		place	house-56.jpg	0.0	162.5440021298873	
182.0	91.40036331244573	ISI	1.0		6.0	place	house-56.jpg	0.0	162.93518030240375	0.11669767218609195
183.0	91.51706098463183	house	0.0		46.0	place	house-114.jpg	0.0	163.05187797458984	0.38329342309771164
183.0	91.7004727951844	pulse	0.0	t		place	house-114.jpg	0.0	163.2352897851424	
183.0	91.90035440772954	ISI	1.0		5.0	place	house-114.jpg	0.0	163.43517139768755	0.11670038887950795
184.0	92.01705479660905	house	0.0		46.0	place	house-100.jpg	0.0	163.55187178656706	0.3833227030127091
184.0	92.40037749962175	ISI	1.0		7.0	place	house-100.jpg	0.0	163.93519448957977	0.11670431299171469
184.0	92.43360296010906	pulse	1.0	t		place	house-100.jpg	0.0	163.96841995006707	
185.0	92.51708181261347	house	0.0		46.0	place	house-130.jpg	0.0	164.0518988025715	0.38324844673115877
185.0	92.90033025934463	ISI	1.0		7.0	place	house-130.jpg	0.0	164.43514724930264	0.1167000870245829
186.0	93.01703034636921	house	0.0		46.0	place	house-130.jpg	1.0	164.55184733632723	0.38329251753293647
186.0	93.10044882791317	pulse	0.0	t		place	house-130.jpg	1.0	164.6352658178712	
186.0	93.40032286390215	ISI	1.0		7.0	place	house-130.jpg	1.0	164.93513985386016	0.1166973703311669
186.0	93.46710159919621	response	1.0	b		place	house-130.jpg	1.0	165.00191858915423	
187.0	93.51702023423331	house	0.0		46.0	place	house-121.jpg	0.0	165.05183722419133	0.3832904045484611
187.0	93.80042024226259	pulse	0.0	t		place	house-121.jpg	0.0	165.3352372322206	
187.0	93.90031063878178	ISI	1.0		6.0	place	house-121.jpg	0.0	165.4351276287398	0.11669887960579217
188.0	94.01700951838757	house	0.0		46.0	place	house-95.jpg	0.0	165.55182650834558	0.38329070640338614
188.0	94.40030022479095	ISI	1.0		6.0	place	house-95.jpg	0.0	165.93511721474897	0.11669586105745111
189.0	94.5169960858484	house	0.0		45.0	place	house-29.jpg	0.0	166.05181307580642	0.3832949323714274
189.0	94.50907722683587	pulse	0.0	t		place	house-29.jpg	0.0	166.0438942167939	
189.0	94.90029101821983	ISI	1.0		7.0	place	house-29.jpg	0.0	166.43510800817785	0.11669948331473279
190.0	95.01699050153456	house	0.0		46.0	place	house-117.jpg	0.0	166.55180749149258	0.3832904045493706
190.0	95.20040170837729	pulse	0.0	t		place	house-117.jpg	0.0	166.7352186983353	
190.0	95.40028090608394	ISI	1.0		7.0	place	house-117.jpg	0.0	166.93509789604195	0.11669887960488268
191.0	95.51697978568882	house	0.0		46.0	place	house-35.jpg	0.0	167.05179677564684	0.3832928193878615
191.0	95.90027260507668	ISI	1.0		3.0	place	house-35.jpg	0.0	167.4350895950347	0.11668227759037109
191.0	95.97012875013115	pulse	1.0	t		place	house-35.jpg	0.0	167.50494574008917	
192.0	96.01695488266705	word	0.0		46.0	character	word-72.jpg	0.0	167.55177187262507	0.3833067047089571
192.0	96.40026158737601	ISI	1.0		6.0	character	word-72.jpg	0.0	167.93507857733402	0.11669586105745111
193.0	96.51695744843346	word	0.0		46.0	character	word-43.jpg	0.0	168.05177443839148	0.38329281938695203
193.0	96.60037743925113	pulse	0.0	t		character	word-43.jpg	0.0	168.13519442920915	
193.0	96.90025026782041	ISI	1.0		7.0	character	word-43.jpg	0.0	168.43506725777843	0.11669827589594206
194.0	97.01694854371635	word	0.0		46.0	character	word-144.jpg	0.0	168.55176553367437	0.38329191382308636
194.0	97.30035881480944	pulse	0.0	t		character	word-144.jpg	0.0	168.83517580476746	
194.0	97.40024045753944	ISI	1.0		7.0	character	word-144.jpg	0.0	168.93505744749746	0.11669646476730122
195.0	97.51693692230674	word	0.0		46.0	character	word-21.jpg	0.0	169.05175391226476	0.383292517532027
195.0	97.90022943983877	ISI	1.0		6.0	character	word-21.jpg	0.0	169.43504642979678	0.116695257347601
196.0	98.01692469718637	word	0.0		45.0	character	word-142.jpg	0.0	169.55174168714439	0.38330700656388217
196.0	98.00760613743296	pulse	0.0	t		character	word-142.jpg	0.0	169.54242312739098	
196.0	98.40023170375025	ISI	1.0		7.0	character	word-142.jpg	0.0	169.93504869370827	0.11670250186307385
197.0	98.51693420561332	word	0.0		46.0	character	word-42.jpg	0.0	170.05175119557134	0.3833048935794068
197.0	98.70036201447056	pulse	0.0	t		character	word-42.jpg	0.0	170.23517900442857	
197.0	98.90023909919273	ISI	1.0		6.0	character	word-42.jpg	0.0	170.43505608915075	0.1167000870245829
198.0	99.01693918621731	word	0.0		46.0	character	word-102.jpg	0.0	170.55175617617533	0.3832964416451432
198.0	99.40023562786246	ISI	1.0		6.0	character	word-102.jpg	0.0	170.93505261782047	0.11669887960579217
198.0	99.44666663245607	pulse	1.0	t		character	word-102.jpg	0.0	170.9814836224141	
199.0	99.51693450746825	word	0.0		46.0	character	word-49.jpg	0.0	171.05175149742627	0.3832846693076135
199.0	99.90021917677586	ISI	1.0		5.0	character	word-49.jpg	0.0	171.43503616673388	0.11670129444337363
200.0	100.01692047121924	word	0.0		46.0	character	word-92.jpg	0.0	171.55173746117725	0.38328919712967036
200.0	100.10033351937636	pulse	0.0	t		character	word-92.jpg	0.0	171.63515050933438	
200.0	100.40020966834891	ISI	1.0		6.0	character	word-92.jpg	0.0	171.93502665830692	0.11670038887950795
201.0	100.51691005722842	word	0.0		46.0	character	word-47.jpg	0.0	172.05172704718643	0.38328798971087963
201.0	100.80033451549752	pulse	0.0	t		character	word-47.jpg	0.0	172.33515150545554	
201.0	100.9001980469393	ISI	1.0		6.0	character	word-47.jpg	0.0	172.4350150368973	0.11670159629829868
202.0	101.0168996432376	word	0.0		46.0	character	word-66.jpg	0.0	172.5517166331956	0.3832894989845954
202.0	101.40018914222219	ISI	1.0		5.0	character	word-66.jpg	0.0	172.9350061321802	0.11669767218609195
203.0	101.51688681440828	word	0.0		45.0	character	word-132.jpg	0.0	173.0517038043663	0.3832931212418771
203.0	101.50392215043757	pulse	0.0	t		character	word-132.jpg	0.0	173.0387391403956	
203.0	101.90017993565016	ISI	1.0		5.0	character	word-132.jpg	0.0	173.43499692560817	0.11670672783111513
204.0	102.01688666348127	house	0.0		46.0	place	house-22.jpg	0.0	173.5517036534393	0.3832798396306316
204.0	102.2002891165339	pulse	0.0	t		place	house-22.jpg	0.0	173.7351061064919	
204.0	102.4001665031119	ISI	1.0		2.0	place	house-22.jpg	0.0	173.93498349306992	0.1167028037179989
205.0	102.5168693068299	house	0.0		46.0	place	house-42.jpg	0.0	174.05168629678792	0.38329010269353603
205.0	102.90015940952344	ISI	1.0		6.0	place	house-42.jpg	0.0	174.43497639948146	0.11670099258935807
205.0	102.94149510497118	pulse	1.0	t		place	house-42.jpg	0.0	174.4763120949292	
206.0	103.0168604021128	house	0.0		46.0	place	house-26.jpg	0.0	174.55167739207081	0.3832556912457221
206.0	103.40011609335852	ISI	1.0		7.0	place	house-26.jpg	0.0	174.93493308331654	0.11669767218609195
207.0	103.51681376554461	house	0.0		46.0	place	house-90.jpg	0.0	175.05163075550263	0.38328587672731373
207.0	103.60022953039515	pulse	0.0	t		place	house-90.jpg	0.0	175.13504652035317	
207.0	103.90009964227193	ISI	1.0		7.0	place	house-90.jpg	0.0	175.43491663222994	0.11670431299171469
208.0	104.01680395526364	house	0.0		46.0	place	house-46.jpg	0.0	175.55162094522166	0.3832792359207815
208.0	104.30022207458114	pulse	0.0	t		place	house-46.jpg	0.0	175.83503906453916	
208.0	104.40008319118442	ISI	1.0		6.0	place	house-46.jpg	0.0	175.93490018114244	0.11670944452453114
209.0	104.51679263570895	house	0.0		46.0	place	house-106.jpg	0.0	176.05160962566697	0.383292517532027
209.0	104.90008515324098	ISI	1.0		6.0	place	house-106.jpg	0.0	176.434902143199	0.11669435178373533
210.0	105.01677950502472	house	0.0		45.0	place	house-72.jpg	0.0	176.55159649498273	0.3833012713212156
210.0	105.00887543689714	pulse	0.0	t		place	house-72.jpg	0.0	176.54369242685516	
210.0	105.40008077634593	ISI	1.0		7.0	place	house-72.jpg	0.0	176.93489776630395	0.11669404992881027
211.0	105.51677482627474	house	0.0		46.0	place	house-134.jpg	0.0	177.05159181623276	0.3832894989845954
211.0	105.70018482569867	pulse	0.0	t		place	house-134.jpg	0.0	177.2350018156567	
211.0	105.90006432525934	ISI	1.0		7.0	place	house-134.jpg	0.0	177.43488131521735	0.11669706847624184
212.0	106.01676139373558	house	0.0		46.0	place	house-45.jpg	0.0	177.5515783836936	0.38329402680665225
212.0	106.40005542054223	ISI	1.0		7.0	place	house-45.jpg	0.0	177.93487241050025	0.11669857775086712
212.0	106.43839792372182	pulse	1.0	t		place	house-45.jpg	0.0	177.97321491367984	
213.0	106.5167539982931	house	0.0		46.0	place	house-40.jpg	0.0	178.05157098825111	0.38328919712967036
213.0	106.90004319542277	ISI	1.0		7.0	place	house-40.jpg	0.0	178.43486018538078	0.11669918146071723
214.0	107.01674237688349	house	0.0		46.0	place	house-76.jpg	0.0	178.5515593668415	0.38329131011323625
214.0	107.10015602874955	pulse	0.0	t		place	house-76.jpg	0.0	178.63497301870757	
214.0	107.40003368699672	ISI	1.0		6.0	place	house-76.jpg	0.0	178.93485067695474	0.116697974041017
215.0	107.51673166103774	house	0.0		46.0	place	house-6.jpg	0.0	179.05154865099576	0.3833012713212156
215.0	107.80014736551675	pulse	0.0	t		place	house-6.jpg	0.0	179.33496435547477	
215.0	107.90003293235895	ISI	1.0		6.0	place	house-6.jpg	0.0	179.43484992231697	0.11670310557292396
216.0	108.01673603793188	adult	0.0		46.0	face	adult-2.jpg	0.0	179.5515530278899	0.38327621737334994
216.0	108.40001225530523	ISI	1.0		6.0	face	adult-2.jpg	0.0	179.93482924526324	0.11669193694524438
217.0	108.51670419225047	adult	0.0		45.0	face	adult-131.jpg	0.0	180.0515211822085	0.38329825277378404
217.0	108.50718489904921	pulse	0.0	t		face	adult-131.jpg	0.0	180.04200188900722	
217.0	108.90000244502426	ISI	1.0		6.0	face	adult-131.jpg	0.0	180.43481943498227	0.11669767218609195
218.0	109.01670011721035	adult	0.0		46.0	face	adult-91.jpg	0.0	180.55151710716837	0.38332300486763415
218.0	109.20014754662952	pulse	0.0	t		face	adult-91.jpg	0.0	180.73496453658754	
218.0	109.40002312207798	ISI	1.0		6.0	face	adult-91.jpg	0.0	180.934840112036	0.11670250186307385
219.0	109.51672562394106	adult	0.0		46.0	face	adult-82.jpg	0.0	181.05154261389907	0.38328919712967036
219.0	109.90001482107073	ISI	1.0		7.0	face	adult-82.jpg	0.0	181.43483181102874	0.11669857775086712
219.0	109.9401726790611	pulse	1.0	t		face	adult-82.jpg	0.0	181.47498966901912	
220.0	110.0167133988216	adult	0.0		46.0	face	adult-5.jpg	0.0	181.5515303887796	0.38328980083952047
220.0	110.40000319966111	ISI	1.0		5.0	face	adult-5.jpg	0.0	181.93482018961913	0.11670038887950795
221.0	110.51670358854062	adult	0.0		46.0	face	adult-1.jpg	0.0	182.05152057849864	0.3832882915648952
221.0	110.60011754226161	pulse	0.0	t		face	adult-1.jpg	0.0	182.13493453221963	
221.0	110.89999188010552	ISI	1.0		6.0	face	adult-1.jpg	0.0	182.43480887006353	0.1167022000081488
222.0	111.01669408011367	adult	0.0		46.0	face	adult-118.jpg	0.0	182.55151107007168	0.3832867822911794
222.0	111.30009891781992	pulse	0.0	t		face	adult-118.jpg	0.0	182.83491590777794	
222.0	111.39998086240485	ISI	1.0		7.0	face	adult-118.jpg	0.0	182.93479785236286	0.11670672783111513
223.0	111.51668759023596	adult	0.0		46.0	face	adult-93.jpg	0.0	183.05150458019398	0.3832846693076135
223.0	111.89997225954357	ISI	1.0		7.0	face	adult-93.jpg	0.0	183.4347892495016	0.11669646476639173
224.0	112.01666872430997	adult	0.0		45.0	face	adult-93.jpg	1.0	183.55148571426798	0.3832931212418771
224.0	112.00681890009491	pulse	0.0	t		face	adult-93.jpg	1.0	183.54163589005293	
224.0	112.39996184555184	ISI	1.0		7.0	face	adult-93.jpg	1.0	183.93477883550986	0.11669978517056734
224.0	112.48344009434732	response	1.0	b		face	adult-93.jpg	1.0	184.01825708430533	
225.0	112.51666163072241	adult	0.0		46.0	face	adult-119.jpg	0.0	184.05147862068043	0.38328859341982024
225.0	112.70011600280213	pulse	0.0	t		face	adult-119.jpg	0.0	184.23493299276015	
225.0	112.89995022414223	ISI	1.0		7.0	face	adult-119.jpg	0.0	184.43476721410025	0.11670310557292396
226.0	113.01665332971515	adult	0.0		46.0	face	adult-130.jpg	0.0	184.55147031967317	0.38328708414610446
226.0	113.39994041386126	ISI	1.0		5.0	face	adult-130.jpg	0.0	184.93475740381928	0.11670189815322374
226.0	113.45328147870168	pulse	1.0	t		face	adult-130.jpg	0.0	184.9880984686597	
227.0	113.51664231201448	adult	0.0		46.0	face	adult-15.jpg	0.0	185.0514593019725	0.3832882915648952
227.0	113.89993060357938	ISI	1.0		7.0	face	adult-15.jpg	0.0	185.4347475935374	0.11670129444428312
228.0	114.01663189802366	adult	0.0		46.0	face	adult-86.jpg	0.0	185.55144888798168	0.3832876878559546
228.0	114.10004072021366	pulse	0.0	t		face	adult-86.jpg	0.0	185.63485771017167	
228.0	114.39991958587962	ISI	1.0		7.0	face	adult-86.jpg	0.0	185.93473657583763	0.11670129444337363
229.0	114.51662088032299	adult	0.0		46.0	face	adult-25.jpg	0.0	186.051437870281	0.38328919712967036
229.0	114.80004292375361	pulse	0.0	t		face	adult-25.jpg	0.0	186.33485991371163	
229.0	114.89991007745266	ISI	1.0		6.0	face	adult-25.jpg	0.0	186.43472706741068	0.116695257347601
230.0	115.01660533480026	adult	0.0		46.0	face	adult-38.jpg	0.0	186.55142232475828	0.38329342309771164
230.0	115.39989875789797	ISI	1.0		7.0	face	adult-38.jpg	0.0	186.934715747856	0.11669978516965784
231.0	115.51659854306763	adult	0.0		45.0	face	adult-100.jpg	0.0	187.05141553302565	0.38329010269353603
231.0	115.50671581667848	pulse	0.0	t		face	adult-100.jpg	0.0	187.0415328066365	
231.0	115.89988864576117	ISI	1.0		6.0	face	adult-100.jpg	0.0	187.43470563571918	0.11670431299262418
231.0	115.97504656865021	response	1.0	b		face	adult-100.jpg	0.0	187.50986355860823	
232.0	116.01659295875379	adult	0.0		46.0	face	adult-74.jpg	0.0	187.5514099487118	0.3832849711616291
232.0	116.19999450624255	pulse	0.0	t		face	adult-74.jpg	0.0	187.73481149620056	
232.0	116.39987792991542	ISI	1.0		6.0	face	adult-74.jpg	0.0	187.93469491987344	0.11670069073443301
233.0	116.51657862064985	adult	0.0		46.0	face	adult-68.jpg	0.0	188.05139561060787	0.3832910082592207
233.0	116.89986962890907	ISI	1.0		6.0	face	adult-68.jpg	0.0	188.4346866188671	0.11669948331473279
233.0	116.94077910536907	pulse	1.0	t		face	adult-68.jpg	0.0	188.4755960953271	
234.0	117.0165691122238	adult	0.0		46.0	face	adult-50.jpg	0.0	188.55138610218182	0.38328859341982024
234.0	117.39985770564363	ISI	1.0		7.0	face	adult-50.jpg	0.0	188.93467469560164	0.11670129444428312
235.0	117.51655900008791	adult	0.0		46.0	face	adult-52.jpg	0.0	189.05137599004593	0.38328798970997013
235.0	117.59997325566383	pulse	0.0	t		face	adult-52.jpg	0.0	189.13479024562184	
235.0	117.89984698979788	ISI	1.0		7.0	face	adult-52.jpg	0.0	189.4346639797559	0.11670189815413323
236.0	118.01654888795201	adult	0.0		46.0	face	adult-71.jpg	0.0	189.55136587791003	0.3832888952747453
236.0	118.29995583864184	pulse	0.0	t		face	adult-71.jpg	0.0	189.83477282859985	
236.0	118.39983778322676	ISI	1.0		6.0	face	adult-71.jpg	0.0	189.93465477318477	0.11670431299171469
237.0	118.51654209621847	adult	0.0		46.0	face	adult-22.jpg	0.0	190.0513590861765	0.38328165075927245
237.0	118.89982374697775	ISI	1.0		7.0	face	adult-22.jpg	0.0	190.43464073693576	0.11669948331564228
238.0	119.01652323029339	adult	0.0		45.0	face	adult-134.jpg	0.0	190.5513402202514	0.3832931212418771
238.0	119.0065285157707	pulse	0.0	t		face	adult-134.jpg	0.0	190.5413455057287	
238.0	119.39981635153526	ISI	1.0		7.0	face	adult-134.jpg	0.0	190.93463334149328	0.11670250186307385
239.0	119.51651885339834	adult	0.0		46.0	face	adult-39.jpg	0.0	191.05133584335636	0.3832873860010295
239.0	119.69994726596542	pulse	0.0	t		face	adult-39.jpg	0.0	191.23476425592344	
239.0	119.89980623939937	ISI	1.0		4.0	face	adult-39.jpg	0.0	191.43462322935738	0.1167000870245829
240.0	120.01650632642395	house	0.0		46.0	place	house-123.jpg	0.0	191.55132331638197	0.38329070640338614
240.0	120.39979703282734	ISI	1.0		3.0	place	house-123.jpg	0.0	191.93461402278535	0.1167000870245829
240.0	120.47331437483899	pulse	1.0	t		place	house-123.jpg	0.0	192.008131364797	
241.0	120.51649711985192	house	0.0		46.0	place	house-112.jpg	0.0	192.05131410980994	0.3832852730174636
241.0	120.89978239286938	ISI	1.0		6.0	place	house-112.jpg	0.0	192.4345993828274	0.11671276492688776
242.0	121.01649515779627	house	0.0		46.0	place	house-55.jpg	0.0	192.5513121477543	0.3832647468898358
242.0	121.09989703732481	pulse	0.0	t		place	house-55.jpg	0.0	192.63471402728283	
242.0	121.3997599046861	ISI	1.0		6.0	place	house-55.jpg	0.0	192.93457689464412	0.11671668903909449
243.0	121.5164765937252	house	0.0		46.0	place	house-43.jpg	0.0	193.05129358368322	0.38328798971087963
243.0	121.7998844499798	pulse	0.0	t		place	house-43.jpg	0.0	193.33470143993782	
243.0	121.89976458343608	ISI	1.0		6.0	place	house-43.jpg	0.0	193.4345815733941	0.1167022000081488
244.0	122.01646678344423	house	0.0		46.0	place	house-19.jpg	0.0	193.55128377340225	0.3832867822911794
244.0	122.39975356573541	ISI	1.0		7.0	place	house-19.jpg	0.0	193.93457055569343	0.11669767218609195
245.0	122.5164512379215	house	0.0		45.0	place	house-141.jpg	0.0	194.05126822787952	0.38329191382308636
245.0	122.50633457405729	pulse	0.0	t		place	house-141.jpg	0.0	194.0411515640153	
245.0	122.89974315174459	ISI	1.0		7.0	place	house-141.jpg	0.0	194.4345601417026	0.1167028037179989
246.0	123.01644595546259	house	0.0		46.0	place	house-53.jpg	0.0	194.5512629454206	0.38328708414610446
246.0	123.1998571623053	pulse	0.0	t		place	house-53.jpg	0.0	194.73467415226332	
246.0	123.39973303960869	ISI	1.0		4.0	place	house-53.jpg	0.0	194.9345500295667	0.11670189815322374
247.0	123.51643493776191	house	0.0		46.0	place	house-11.jpg	0.0	195.05125192771993	0.3832904045484611
247.0	123.89972534231038	ISI	1.0		7.0	place	house-11.jpg	0.0	195.4345423322684	0.11669948331564228
247.0	123.9370255408403	pulse	1.0	t		place	house-11.jpg	0.0	195.4718425307983	
248.0	124.01642482562602	house	0.0		46.0	place	house-119.jpg	0.0	195.55124181558404	0.38328798970997013
248.0	124.39971281533599	ISI	1.0		7.0	place	house-119.jpg	0.0	195.934529805294	0.11670370928277407
249.0	124.51641652461876	house	0.0		46.0	place	house-20.jpg	0.0	196.05123351457678	0.3832852730174636
249.0	124.5998247430989	pulse	0.0	t		place	house-20.jpg	0.0	196.13464173305692	
249.0	124.89970179763623	ISI	1.0		6.0	place	house-20.jpg	0.0	196.43451878759424	0.1167028037179989
250.0	125.01640460135422	house	0.0		46.0	place	house-3.jpg	0.0	196.55122159131224	0.38328708414519497
250.0	125.29981125018912	pulse	0.0	t		place	house-3.jpg	0.0	196.83462824014714	
250.0	125.39969168549942	ISI	1.0		6.0	place	house-3.jpg	0.0	196.93450867545744	0.11670250186398334
251.0	125.5163941873634	house	0.0		46.0	place	house-135.jpg	0.0	197.05121117732142	0.38328648043625435
251.0	125.89968066779966	ISI	1.0		6.0	place	house-135.jpg	0.0	197.43449765775767	0.11670159629829868
252.0	126.01638226409796	car	0.0		45.0	object	car-37.jpg	0.0	197.55119925405597	0.38328798971087963
252.0	126.00651312117589	pulse	0.0	t		object	car-37.jpg	0.0	197.5413301111339	
252.0	126.39967025380884	ISI	1.0		6.0	object	car-37.jpg	0.0	197.93448724376685	0.11670250186307385
253.0	126.51637275567191	car	0.0		46.0	object	car-103.jpg	0.0	198.05118974562993	0.3832876878550451
253.0	126.69978245324	pulse	0.0	t		object	car-103.jpg	0.0	198.23459944319802	
253.0	126.89966044352695	ISI	1.0		6.0	object	car-103.jpg	0.0	198.43447743348497	0.11670340742784902
254.0	127.0163638509548	car	0.0		46.0	object	car-20.jpg	0.0	198.55118084091282	0.38328859341982024
254.0	127.39965244437462	ISI	1.0		7.0	object	car-20.jpg	0.0	198.93446943433264	0.1167000870245829
254.0	127.43654695004352	pulse	1.0	t		object	car-20.jpg	0.0	198.97136394000154	
255.0	127.5163525313992	car	0.0		46.0	object	car-110.jpg	0.0	199.05116952135722	0.38328708414610446
255.0	127.89963961554531	ISI	1.0		7.0	object	car-110.jpg	0.0	199.43445660550333	0.11670461484663974
256.0	128.01634423039195	car	0.0		46.0	object	car-134.jpg	0.0	199.55116122034997	0.3832523708433655
256.0	128.09975093959838	pulse	0.0	t		object	car-134.jpg	0.0	199.6345679295564	
256.0	128.39959660123532	ISI	1.0		7.0	object	car-134.jpg	0.0	199.93441359119333	0.11670069073443301
257.0	128.51629729196975	car	0.0		46.0	object	car-134.jpg	1.0	200.05111428192777	0.38329764906393393
257.0	128.79970545007927	pulse	0.0	t		object	car-134.jpg	1.0	200.3345224400373	
257.0	128.89959494103368	ISI	1.0		7.0	object	car-134.jpg	1.0	200.4344119309917	0.11669223880016943
257.0	128.97470909497588	response	1.0	b		object	car-134.jpg	1.0	200.5095260849339	
258.0	129.01628717983385	car	0.0		46.0	object	car-21.jpg	0.0	200.55110416979187	0.38328980083952047
258.0	129.39957698067337	ISI	1.0		7.0	object	car-21.jpg	0.0	200.9343939706314	0.11676408024322882
259.0	129.5163410609166	car	0.0		45.0	object	car-100.jpg	0.0	201.05115805087462	0.3832255057659495
259.0	129.50633034809016	pulse	0.0	t		object	car-100.jpg	0.0	201.04114733804818	
259.0	129.89956656668255	ISI	1.0		6.0	object	car-100.jpg	0.0	201.43438355664057	0.11669767218609195
260.0	130.01626423886864	car	0.0		46.0	object	car-94.jpg	0.0	201.55108122882666	0.383292517532027
260.0	130.19967544571136	pulse	0.0	t		object	car-94.jpg	0.0	201.73449243566938	
260.0	130.39955675640067	ISI	1.0		6.0	object	car-94.jpg	0.0	201.9343737463587	0.11670069073443301
261.0	130.5162574471351	car	0.0		46.0	object	car-77.jpg	0.0	202.05107443709312	0.3832901026944455
261.0	130.89954754982955	ISI	1.0		6.0	object	car-77.jpg	0.0	202.43436453978757	0.116697974041017
261.0	130.94474909979363	pulse	1.0	t		object	car-77.jpg	0.0	202.47956608975164	
262.0	131.01624552387057	car	0.0		46.0	object	car-113.jpg	0.0	202.55106251382858	0.3832904045484611
262.0	131.39953592841903	ISI	1.0		6.0	object	car-113.jpg	0.0	202.93435291837704	0.11669918146071723
263.0	131.51623510987974	car	0.0		46.0	object	car-45.jpg	0.0	203.05105209983776	0.38328919712967036
263.0	131.59972513101275	pulse	0.0	t		object	car-45.jpg	0.0	203.13454212097076	
263.0	131.89952430700941	ISI	1.0		7.0	object	car-45.jpg	0.0	203.43434129696743	0.11670038887950795
264.0	132.01622469588892	adult	0.0		46.0	face	adult-77.jpg	0.0	203.55104168584694	0.383289800838611
264.0	132.2996298354501	pulse	0.0	t		face	adult-77.jpg	0.0	203.83444682540812	
264.0	132.39951449672753	ISI	1.0		6.0	face	adult-77.jpg	0.0	203.93433148668555	0.11670431299262418
265.0	132.51621880972016	adult	0.0		46.0	face	adult-20.jpg	0.0	204.05103579967817	0.38328497116253857
265.0	132.8995037808827	ISI	1.0		6.0	face	adult-20.jpg	0.0	204.4343207708407	0.11669646476639173
266.0	133.0162002456491	adult	0.0		45.0	face	adult-30.jpg	0.0	204.5510172356071	0.3832952342263525
266.0	133.00617534564662	pulse	0.0	t		face	adult-30.jpg	0.0	204.54099233560464	
266.0	133.39949547987544	ISI	1.0		7.0	face	adult-30.jpg	0.0	204.93431246983346	0.11670159629829868
267.0	133.51619707617374	adult	0.0		46.0	face	adult-56.jpg	0.0	205.05101406613176	0.3832855748723887
267.0	133.6996049626141	pulse	0.0	t		face	adult-56.jpg	0.0	205.23442195257212	
267.0	133.89948265104613	ISI	1.0		7.0	face	adult-56.jpg	0.0	205.43429964100415	0.11670401113678963
268.0	134.01618666218292	adult	0.0		46.0	face	adult-33.jpg	0.0	205.55100365214093	0.38331968446527753
268.0	134.3995063466482	ISI	1.0		4.0	face	adult-33.jpg	0.0	205.9343233366062	0.11670069073443301
268.0	134.46438460407626	pulse	1.0	t		face	adult-33.jpg	0.0	205.99920159403428	
269.0	134.51620703738263	adult	0.0		46.0	face	adult-132.jpg	0.0	206.05102402734065	0.3832882915648952
269.0	134.89949532894752	ISI	1.0		6.0	face	adult-132.jpg	0.0	206.43431231890554	0.11670129444428312
270.0	135.0161966233918	adult	0.0		46.0	face	adult-12.jpg	0.0	206.55101361334982	0.38328798970997013
270.0	135.09966068501126	pulse	0.0	t		face	adult-12.jpg	0.0	206.63447767496928	
270.0	135.39948461310178	ISI	1.0		7.0	face	adult-12.jpg	0.0	206.9343016030598	0.11670340742784902
271.0	135.51618802052963	adult	0.0		46.0	face	adult-120.jpg	0.0	207.05100501048764	0.3832846693076135
271.0	135.79959527307437	pulse	0.0	t		face	adult-120.jpg	0.0	207.3344122630324	
271.0	135.89947268983724	ISI	1.0		7.0	face	adult-120.jpg	0.0	207.43428967979526	0.11670461484663974
272.0	136.01617730468388	adult	0.0		46.0	face	adult-35.jpg	0.0	207.5509942946419	0.3832931212418771
272.0	136.39947042592576	ISI	1.0		6.0	face	adult-35.jpg	0.0	207.93428741588377	0.11671910387758544
273.0	136.51618952980334	adult	0.0		45.0	face	adult-49.jpg	0.0	208.05100651976136	0.38326293576210446
273.0	136.50639705800222	pulse	0.0	t		face	adult-49.jpg	0.0	208.04121404796024	
273.0	136.89945246556545	ISI	1.0		7.0	face	adult-49.jpg	0.0	208.43426945552346	0.11670310557201446
274.0	137.01615557113746	adult	0.0		46.0	face	adult-135.jpg	0.0	208.55097256109548	0.38328980083952047
274.0	137.1995631557229	pulse	0.0	t		face	adult-135.jpg	0.0	208.73438014568092	
274.0	137.39944537197698	ISI	1.0		4.0	face	adult-135.jpg	0.0	208.934262361935	0.11670340742784902
275.0	137.51614877940483	adult	0.0		46.0	face	adult-46.jpg	0.0	209.05096576936285	0.38327953777570656
275.0	137.89942831718054	ISI	1.0		6.0	face	adult-46.jpg	0.0	209.43424530713855	0.11670672783020564
275.0	137.9402487464722	pulse	1.0	t		face	adult-46.jpg	0.0	209.47506573643022	
276.0	138.01613504501074	car	0.0		46.0	object	car-142.jpg	0.0	209.55095203496876	0.3833076102728228
276.0	138.39944265528356	ISI	1.0		7.0	object	car-142.jpg	0.0	209.93425964524158	0.11668288130113069
277.0	138.5161255365847	car	0.0		46.0	object	car-135.jpg	0.0	210.0509425265427	0.3832861785813293
277.0	138.5995461311113	pulse	0.0	t		object	car-135.jpg	0.0	210.13436312106933	
277.0	138.89941171516602	ISI	1.0		6.0	object	car-135.jpg	0.0	210.43422870512404	0.11670310557292396
278.0	139.01611482073895	car	0.0		46.0	object	car-49.jpg	0.0	210.55093181069697	0.3832855748714792
278.0	139.29951996030013	pulse	0.0	t		object	car-49.jpg	0.0	210.83433695025815	
278.0	139.39940039561043	ISI	1.0		6.0	object	car-49.jpg	0.0	210.93421738556845	0.11670401113769913
279.0	139.51610440674813	car	0.0		46.0	object	car-131.jpg	0.0	211.05092139670614	0.3832535782621562
279.0	139.89935798501028	ISI	1.0		6.0	object	car-131.jpg	0.0	211.4341749749683	0.11676770250141999
280.0	140.0161256875117	car	0.0		45.0	object	car-27.jpg	0.0	211.55094267746972	0.38322369463639916
280.0	140.00804231762868	pulse	0.0	t		object	car-27.jpg	0.0	211.5428593075867	
280.0	140.3993493821481	ISI	1.0		7.0	object	car-27.jpg	0.0	211.93416637210612	0.11669978517056734
281.0	140.51604916731867	car	0.0		46.0	object	car-112.jpg	0.0	212.0508661572767	0.3832888952747453
281.0	140.6994591667417	pulse	0.0	t		object	car-112.jpg	0.0	212.2342761566997	
281.0	140.89933806259342	ISI	1.0		7.0	object	car-112.jpg	0.0	212.43415505255143	0.11669978516965784
282.0	141.01603784776307	car	0.0		46.0	object	car-125.jpg	0.0	212.5508548377211	0.38329191382308636
282.0	141.39932976158616	ISI	1.0		8.0	object	car-125.jpg	0.0	212.93414675154418	0.11669857775086712
282.0	141.43147035589573	pulse	1.0	t		object	car-125.jpg	0.0	212.96628734585374	
283.0	141.51602833933703	car	0.0		46.0	object	car-125.jpg	1.0	213.05084532929504	0.38329070640338614
283.0	141.8993190457404	ISI	1.0		8.0	object	car-125.jpg	1.0	213.43413603569843	0.11669404992881027
284.0	142.01601309566922	car	0.0		45.0	object	car-111.jpg	0.0	213.55083008562724	0.38329402680574276
284.0	142.00811959245948	response	0.0	b		object	car-111.jpg	0.0	213.5429365824175	
284.0	142.0994255401165	pulse	0.0	t		object	car-111.jpg	0.0	213.63424253007452	
284.0	142.39930712247497	ISI	1.0		6.0	object	car-111.jpg	0.0	213.93412411243298	0.11671668904000398
285.0	142.51602381151497	car	0.0		46.0	object	car-95.jpg	0.0	214.050840801473	0.38327350067902444
285.0	142.79941385833536	pulse	0.0	t		object	car-95.jpg	0.0	214.33423084829337	
285.0	142.899297312194	ISI	1.0		7.0	object	car-95.jpg	0.0	214.434114302152	0.11669978516965784
286.0	143.01599709736365	car	0.0		46.0	object	car-144.jpg	0.0	214.55081408732167	0.38329070640429563
286.0	143.39928780376795	ISI	1.0		6.0	object	car-144.jpg	0.0	214.93410479372596	0.11673630960103765
287.0	143.51602411336899	car	0.0		45.0	object	car-8.jpg	0.0	215.050841103327	0.38325116342457477
287.0	143.5088825304847	pulse	0.0	t		object	car-8.jpg	0.0	215.04369952044271	
287.0	143.89927527679356	ISI	1.0		7.0	object	car-8.jpg	0.0	215.43409226675158	0.11670099258844857
288.0	144.015976269382	word	0.0		46.0	character	word-107.jpg	0.0	215.55079325934003	0.3832904045493706
288.0	144.1993856650961	pulse	0.0	t		character	word-107.jpg	0.0	215.7342026550541	
288.0	144.39926667393138	ISI	1.0		7.0	character	word-107.jpg	0.0	215.9340836638894	0.11670099258935807
289.0	144.51596766652074	word	0.0		46.0	character	word-10.jpg	0.0	216.05078465647875	0.38328859341982024
289.0	144.89925625994056	ISI	1.0		6.0	character	word-10.jpg	0.0	216.43407324989857	0.11670069073443301
289.0	144.94088415084116	pulse	1.0	t		character	word-10.jpg	0.0	216.47570114079917	
290.0	145.015956950675	word	0.0		46.0	character	word-141.jpg	0.0	216.550773940633	0.3832876878550451
290.0	145.39924463853004	ISI	1.0		3.0	character	word-141.jpg	0.0	216.93406162848805	0.11671578347522882
291.0	145.51596042200526	word	0.0		46.0	character	word-26.jpg	0.0	217.05077741196328	0.38330640285312256
291.0	145.59955397933663	pulse	0.0	t		character	word-26.jpg	0.0	217.13437096929465	
291.0	145.8992668248584	ISI	1.0		7.0	character	word-26.jpg	0.0	217.4340838148164	0.11671880202266038
292.0	146.01598562688105	word	0.0		46.0	character	word-8.jpg	0.0	217.55080261683906	0.38323757995749475
292.0	146.2993433752381	pulse	0.0	t		character	word-8.jpg	0.0	217.8341603651961	
292.0	146.39922320683854	ISI	1.0		6.0	character	word-8.jpg	0.0	217.93404019679656	0.11670099258935807
293.0	146.5159241994279	word	0.0		46.0	character	word-88.jpg	0.0	218.05074118938592	0.38328980083952047
293.0	146.89921400026742	ISI	1.0		7.0	character	word-88.jpg	0.0	218.43403099022544	0.11671517976537871
294.0	147.0159291800328	word	0.0		45.0	character	word-109.jpg	0.0	218.55074616999082	0.3832744062437996
294.0	147.00820562107947	pulse	0.0	t		character	word-109.jpg	0.0	218.5430226110375	
294.0	147.3992035862766	ISI	1.0		6.0	character	word-109.jpg	0.0	218.93402057623462	0.11669948331473279
295.0	147.51590306959133	word	0.0		46.0	character	word-95.jpg	0.0	219.05072005954935	0.38332723083567544
295.0	147.69931548385375	pulse	0.0	t		character	word-95.jpg	0.0	219.23413247381177	
295.0	147.899230300427	ISI	1.0		6.0	character	word-95.jpg	0.0	219.43404729038502	0.11666024218993698
296.0	148.01589054261694	word	0.0		46.0	character	word-89.jpg	0.0	219.55070753257496	0.3832949323714274
296.0	148.39918547498837	ISI	1.0		7.0	character	word-89.jpg	0.0	219.9340024649464	0.11669887960488268
296.0	148.43218363880533	pulse	1.0	t		character	word-89.jpg	0.0	219.96700062876334	
297.0	148.51588435459325	word	0.0		46.0	character	word-89.jpg	1.0	220.05070134455127	0.3832876878559546
297.0	148.8991720424492	ISI	1.0		5.0	character	word-89.jpg	1.0	220.43398903240723	0.1167000870245829
298.0	149.0158721294738	word	0.0		46.0	character	word-63.jpg	0.0	220.5506891194318	0.3832910082583112
298.0	149.02432678077002	response	0.0	b		character	word-63.jpg	0.0	220.55914377072804	
298.0	149.09927914053515	pulse	0.0	t		character	word-63.jpg	0.0	220.63409613049316	
298.0	149.3991631377321	ISI	1.0		6.0	character	word-63.jpg	0.0	220.93398012769012	0.10836949805525364
299.0	149.50753263578736	word	0.0		47.0	character	word-15.jpg	0.0	221.04234962574537	0.39161888053513394
299.0	149.79928224963896	pulse	0.0	t		character	word-15.jpg	0.0	221.33409923959698	
299.0	149.8991515163225	ISI	1.0		5.0	character	word-15.jpg	0.0	221.4339685062805	0.10836617765198753
300.0	150.00751769397448	adult	0.0		47.0	face	adult-62.jpg	0.0	221.5423346839325	0.3916231065022657
300.0	150.39914080047674	ISI	1.0		5.0	face	adult-62.jpg	0.0	221.93395779043476	0.11670853895884647
301.0	150.5158493394356	adult	0.0		45.0	face	adult-88.jpg	0.0	222.0506663293936	0.38328104705033184
301.0	150.5052654043302	pulse	0.0	t		face	adult-88.jpg	0.0	222.04008239428822	
301.0	150.89913038648592	ISI	1.0		7.0	face	adult-88.jpg	0.0	222.43394737644394	0.11670038887950795
302.0	151.01583077536543	adult	0.0		47.0	face	adult-95.jpg	0.0	222.55064776532345	0.3916225027924156
302.0	151.1992389636598	pulse	0.0	t		face	adult-95.jpg	0.0	222.73405595361783	
302.0	151.40745327815785	ISI	1.0		5.0	face	adult-95.jpg	0.0	222.94227026811586	0.10836859249047848
303.0	151.51582187064832	adult	0.0		47.0	face	adult-78.jpg	0.0	223.05063886060634	0.3916255213407567
303.0	151.8992275837336	pulse	0.0	t		face	adult-78.jpg	0.0	223.4340445736916	
303.0	151.90744739198908	ISI	1.0		5.0	face	adult-78.jpg	0.0	223.4422643819471	0.10837040361911932
304.0	152.0158177956082	adult	0.0		46.0	face	adult-16.jpg	0.0	223.55063478556622	0.3833136473695049
304.0	152.3991314429777	ISI	1.0		6.0	face	adult-16.jpg	0.0	223.93394843293572	0.11670401113678963
305.0	152.5158354541145	adult	0.0		47.0	face	adult-53.jpg	0.0	224.0506524440725	0.3916197860999091
305.0	152.59924488001434	pulse	0.0	t		face	adult-53.jpg	0.0	224.13406186997236	
305.0	152.9074552402144	ISI	1.0		2.0	face	adult-53.jpg	0.0	224.44227223017242	0.10837402587731049
306.0	153.0158292660917	adult	0.0		47.0	face	adult-60.jpg	0.0	224.55064625604973	0.39161344714830193
306.0	153.29922867041114	pulse	0.0	t		face	adult-60.jpg	0.0	224.83404566036916	
306.0	153.40744271324002	ISI	1.0		5.0	face	adult-60.jpg	0.0	224.94225970319803	0.10837161103791004
307.0	153.51581432427793	adult	0.0		47.0	face	adult-42.jpg	0.0	225.05063131423594	0.39161948424498405
307.0	153.9074338085229	ISI	1.0		5.0	face	adult-42.jpg	0.0	225.44225079848093	0.10834051999336225
308.0	154.01577432851627	adult	0.0		46.0	face	adult-89.jpg	0.0	225.5505913184743	0.3916493678707411
308.0	154.0070682321657	pulse	0.0	t		face	adult-89.jpg	0.0	225.5418852221237	
308.0	154.407423696387	ISI	1.0		6.0	face	adult-89.jpg	0.0	225.94224068634503	0.10836889434540353
309.0	154.51579259073242	adult	0.0		47.0	face	adult-117.jpg	0.0	226.05060958069043	0.3915880913446017
309.0	154.69917512136817	pulse	0.0	t		face	adult-117.jpg	0.0	226.2339921113262	
309.0	154.90738068207702	ISI	1.0		8.0	face	adult-117.jpg	0.0	226.44219767203504	0.11668891839690332
310.0	155.02406960047392	adult	0.0		46.0	face	adult-117.jpg	1.0	226.55888659043194	0.383303384305691
310.0	155.39915891176497	pulse	0.0	t		face	adult-117.jpg	1.0	226.933975901723	
310.0	155.4073729847796	ISI	1.0		5.0	face	adult-117.jpg	1.0	226.94218997473763	0.11668922025182837
311.0	155.52406220503144	adult	0.0		46.0	face	adult-101.jpg	0.0	227.05887919498946	0.3832991583376497
311.0	155.57415833069444	response	0.0	b		face	adult-101.jpg	0.0	227.10897532065246	
311.0	155.9073613633691	ISI	1.0		7.0	face	adult-101.jpg	0.0	227.4421783533271	0.11669827589594206
312.0	156.02405963926503	body	0.0		46.0	body	body-102.jpg	0.0	227.55887662922305	0.3832916119681613
312.0	156.09916353014341	pulse	0.0	t		body	body-102.jpg	0.0	227.63398052010143	
312.0	156.4073512512332	ISI	1.0		7.0	body	body-102.jpg	0.0	227.9421682411912	0.1167022000081488
313.0	156.52405345124134	body	0.0		46.0	body	body-144.jpg	0.0	228.05887044119936	0.38328587672731373
313.0	156.7991295111069	pulse	0.0	t		body	body-144.jpg	0.0	228.33394650106493	
313.0	156.90733932796866	ISI	1.0		6.0	body	body-144.jpg	0.0	228.44215631792667	0.11669918145980773
314.0	157.02403850942846	body	0.0		46.0	body	body-31.jpg	0.0	228.55885549938648	0.3832916119681613
314.0	157.40733012139663	ISI	1.0		7.0	body	body-31.jpg	0.0	228.94214711135464	0.1250358075267286
314.0	157.4991066606981	pulse	1.0	t		body	body-31.jpg	0.0	229.0339236506561	
315.0	157.53236592892335	body	0.0		45.0	body	body-66.jpg	0.0	229.06718291888137	0.3749531747725996
315.0	157.90731910369595	ISI	1.0		7.0	body	body-66.jpg	0.0	229.44213609365397	0.11670129444428312
316.0	158.02402039814024	body	0.0		46.0	body	body-120.jpg	0.0	229.55883738809825	0.38328919712967036
316.0	158.1990970919005	pulse	0.0	t		body	body-120.jpg	0.0	229.73391408185853	
316.0	158.4073095952699	ISI	1.0		7.0	body	body-120.jpg	0.0	229.94212658522792	0.11670099258935807
317.0	158.52401058785927	body	0.0		46.0	body	body-35.jpg	0.0	230.05882757781728	0.38329131011323625
317.0	158.89909989915031	pulse	0.0	t		body	body-35.jpg	0.0	230.43391688910833	
317.0	158.9073018979725	ISI	1.0		6.0	body	body-35.jpg	0.0	230.44211888793052	0.11669646476730122
318.0	159.0239983627398	body	0.0		46.0	body	body-131.jpg	0.0	230.55881535269782	0.383289800838611
318.0	159.40728816357841	ISI	1.0		8.0	body	body-131.jpg	0.0	230.94210515353643	0.116697974041017
319.0	159.52398613761943	body	0.0		46.0	body	body-131.jpg	1.0	231.05880312757745	0.38329131011323625
319.0	159.59906618196783	pulse	0.0	t		body	body-131.jpg	1.0	231.13388317192585	
319.0	159.90727744773267	ISI	1.0		5.0	body	body-131.jpg	1.0	231.44209443769068	0.11670099258935807
319.0	159.99074543346524	response	1.0	b		body	body-131.jpg	1.0	231.52556242342325	
320.0	160.02397844032203	body	0.0		46.0	body	body-89.jpg	0.0	231.55879543028004	0.38328980083952047
320.0	160.2990306536576	pulse	0.0	t		body	body-89.jpg	0.0	231.83384764361563	
320.0	160.40726824116155	ISI	1.0		7.0	body	body-89.jpg	0.0	231.94208523111956	0.11669948331473279
321.0	160.52396772447628	body	0.0		46.0	body	body-24.jpg	0.0	232.0587847144343	0.3833239104324093
321.0	160.9072916349087	ISI	1.0		6.0	body	body-24.jpg	0.0	232.4421086248667	0.12503912792999472
321.0	160.99911345243072	pulse	1.0	t		body	body-24.jpg	0.0	232.53393044238874	
322.0	161.03233076283868	body	0.0		45.0	body	body-80.jpg	0.0	232.5671477527967	0.3749489488054678
322.0	161.40727971164415	ISI	1.0		7.0	body	body-80.jpg	0.0	232.94209670160217	0.11672302798979217
323.0	161.52400273963394	body	0.0		46.0	body	body-54.jpg	0.0	233.05881972959196	0.3832351651190038
323.0	161.69902509952863	pulse	0.0	t		body	body-54.jpg	0.0	233.23384208948664	
323.0	161.90723790475295	ISI	1.0		7.0	body	body-54.jpg	0.0	233.44205489471096	0.11669767218700144
324.0	162.02393557693995	word	0.0		46.0	character	word-77.jpg	0.0	233.55875256689797	0.383292517532027
324.0	162.39900707879679	pulse	0.0	t		character	word-77.jpg	0.0	233.9338240687548	
324.0	162.40722809447198	ISI	1.0		4.0	character	word-77.jpg	0.0	233.94204508443	0.11670159629920818
325.0	162.52392969077118	word	0.0		46.0	character	word-39.jpg	0.0	234.0587466807292	0.3832861785813293
325.0	162.9072158693525	ISI	1.0		7.0	character	word-39.jpg	0.0	234.44203285931053	0.11670189815322374
326.0	163.02391776750574	word	0.0		46.0	character	word-14.jpg	0.0	234.55873475746375	0.3832882915648952
326.0	163.0989947933067	pulse	0.0	t		character	word-14.jpg	0.0	234.63381178326472	
326.0	163.40720605907063	ISI	1.0		7.0	character	word-14.jpg	0.0	234.94202304902865	0.1167000870254924
327.0	163.52390614609612	word	0.0		46.0	character	word-40.jpg	0.0	235.05872313605414	0.3832876878550451
327.0	163.79897828184858	pulse	0.0	t		character	word-40.jpg	0.0	235.3337952718066	
327.0	163.90719383395117	ISI	1.0		2.0	character	word-40.jpg	0.0	235.4420108239092	0.10836798878062837
328.0	164.0155618227318	word	0.0		47.0	character	word-137.jpg	0.0	235.55037881268981	0.3916234083571908
328.0	164.407185231089	ISI	1.0		5.0	character	word-137.jpg	0.0	235.942002221047	0.11670220000905829
328.0	164.49896569450266	pulse	1.0	t		character	word-137.jpg	0.0	236.03378268446068	
329.0	164.52388743109805	word	0.0		46.0	character	word-134.jpg	0.0	236.05870442105606	0.3832882915648952
329.0	164.90717572266294	ISI	1.0		6.0	character	word-134.jpg	0.0	236.44199271262096	0.10837523329610121
330.0	165.01555095595904	word	0.0		47.0	character	word-17.jpg	0.0	236.55036794591706	0.39161193787458615
330.0	165.1989500886093	pulse	0.0	t		character	word-17.jpg	0.0	236.73376707856733	
330.0	165.40716289383363	ISI	1.0		5.0	character	word-17.jpg	0.0	236.94197988379165	0.10836678136183764
331.0	165.51552967519547	word	0.0		47.0	character	word-122.jpg	0.0	237.05034666515348	0.39162703061447246
331.0	165.8989350864258	pulse	0.0	t		character	word-122.jpg	0.0	237.43375207638383	
331.0	165.90715670580994	ISI	1.0		5.0	character	word-122.jpg	0.0	237.44197369576796	0.10836346095857152
332.0	166.0155201667685	word	0.0		47.0	character	word-31.jpg	0.0	237.55033715672653	0.39162220093840006
332.0	166.4071423677069	ISI	1.0		5.0	character	word-31.jpg	0.0	237.94195935766493	0.10837251660268521
333.0	166.5155148843096	word	0.0		47.0	character	word-64.jpg	0.0	238.0503318742676	0.39161676755156805
333.0	166.59892159351602	pulse	0.0	t		character	word-64.jpg	0.0	238.13373858347404	
333.0	166.90713165186116	ISI	1.0		5.0	character	word-64.jpg	0.0	238.44194864181918	0.10836557394213742
334.0	167.0154972258033	word	0.0		47.0	character	word-13.jpg	0.0	238.55031421576132	0.3916255213407567
334.0	167.29890447834805	pulse	0.0	t		character	word-13.jpg	0.0	238.83372146830607	
334.0	167.40712274714406	ISI	1.0		6.0	character	word-13.jpg	0.0	238.94193973710208	0.10836346095857152
335.0	167.51548620810263	word	0.0		47.0	character	word-82.jpg	0.0	239.05030319806065	0.39166989399745944
335.0	167.9071561021001	ISI	1.0		6.0	character	word-82.jpg	0.0	239.4419730920581	0.12502312962533324
335.0	167.99897158067142	pulse	1.0	t		character	word-82.jpg	0.0	239.53378857062944	
336.0	168.03217923172542	car	0.0		45.0	object	car-16.jpg	0.0	239.56699622168344	0.3749543821922998
336.0	168.40713361391772	ISI	1.0		4.0	object	car-16.jpg	0.0	239.94195060387574	0.11670582226543047
337.0	168.52383943618315	car	0.0		46.0	object	car-108.jpg	0.0	240.05865642614117	0.3832517671335154
337.0	168.69887990736697	pulse	0.0	t		object	car-108.jpg	0.0	240.233696897325	
337.0	168.90709120331667	ISI	1.0		6.0	object	car-108.jpg	0.0	240.44190819327468	0.11670038887950795
338.0	169.02379159219618	car	0.0		46.0	object	car-80.jpg	0.0	240.5586085821542	0.38328980083952047
338.0	169.3988603773605	pulse	0.0	t		object	car-80.jpg	0.0	240.93367736731852	
338.0	169.4070813930357	ISI	1.0		6.0	object	car-80.jpg	0.0	240.9418983829937	0.1167000870245829
339.0	169.52378148006028	car	0.0		46.0	object	car-15.jpg	0.0	241.0585984700183	0.38328798971087963
339.0	169.90706946977116	ISI	1.0		8.0	object	car-15.jpg	0.0	241.44188645972918	0.11669887960488268
340.0	170.02376834937604	car	0.0		46.0	object	car-15.jpg	1.0	241.55858533933406	0.3832910082583112
340.0	170.0988517141277	pulse	0.0	t		object	car-15.jpg	1.0	241.63366870408572	
340.0	170.40705935763435	ISI	1.0		6.0	object	car-15.jpg	1.0	241.94187634759237	0.11670159629920818
340.0	170.4548348235403	response	1.0	b		object	car-15.jpg	1.0	241.9896518134983	
341.0	170.52376095393356	car	0.0		46.0	object	car-12.jpg	0.0	242.05857794389158	0.3832867822911794
341.0	170.79883852307285	pulse	0.0	t		object	car-12.jpg	0.0	242.33365551303086	
341.0	170.90704773622474	ISI	1.0		7.0	object	car-12.jpg	0.0	242.44186472618276	0.11670401113678963
342.0	171.02375174736153	car	0.0		46.0	object	car-141.jpg	0.0	242.55856873731955	0.3832876878559546
342.0	171.40703943521748	ISI	1.0		4.0	object	car-141.jpg	0.0	242.9418564251755	0.12503218526853743
342.0	171.49882020048608	pulse	1.0	t		object	car-141.jpg	0.0	243.0336371904441	
343.0	171.53207162048602	car	0.0		45.0	object	car-79.jpg	0.0	243.06688861044404	0.3749570988857158
343.0	171.90702871937174	ISI	1.0		7.0	object	car-79.jpg	0.0	243.44184570932975	0.11669918146071723
344.0	172.02372790083245	car	0.0		46.0	object	car-78.jpg	0.0	243.55854489079047	0.3832916119681613
344.0	172.1987928222552	pulse	0.0	t		object	car-78.jpg	0.0	243.73360981221322	
344.0	172.40701951280062	ISI	1.0		5.0	object	car-78.jpg	0.0	243.94183650275863	0.1166855979936372
345.0	172.52370511079425	car	0.0		46.0	object	car-23.jpg	0.0	244.05852210075227	0.38330368616061605
345.0	172.89878838498953	pulse	0.0	t		object	car-23.jpg	0.0	244.43360537494755	
345.0	172.90700879695487	ISI	1.0		7.0	object	car-23.jpg	0.0	244.4418257869129	0.11670099258844857
346.0	173.02370978954332	car	0.0		46.0	object	car-86.jpg	0.0	244.55852677950134	0.3832873860010295
346.0	173.40699717554435	ISI	1.0		7.0	object	car-86.jpg	0.0	244.94181416550236	0.11670370928277407
347.0	173.52370088482712	car	0.0		46.0	object	car-120.jpg	0.0	245.05851787478514	0.38328527301655413
347.0	173.5987770050633	pulse	0.0	t		object	car-120.jpg	0.0	245.13359399502133	
347.0	173.90698615784368	ISI	1.0		6.0	object	car-120.jpg	0.0	245.4418031478017	0.11670129444428312
348.0	174.02368745228796	car	0.0		46.0	object	car-59.jpg	0.0	245.55850444224598	0.3832882915648952
348.0	174.2987632102986	pulse	0.0	t		object	car-59.jpg	0.0	245.83358020025662	
348.0	174.40697574385285	ISI	1.0		7.0	object	car-59.jpg	0.0	245.94179273381087	0.11670944452453114
349.0	174.52368518837739	car	0.0		46.0	object	car-40.jpg	0.0	246.0585021783354	0.38331213809487963
349.0	174.90699732647226	ISI	1.0		7.0	object	car-40.jpg	0.0	246.44181431643028	0.1250373168004444
349.0	174.99881582359103	pulse	1.0	t		object	car-40.jpg	0.0	246.53363281354905	
350.0	175.0320346432727	car	0.0		45.0	object	car-22.jpg	0.0	246.56685163323073	0.37496585267490445
350.0	175.4070004959476	ISI	1.0		7.0	object	car-22.jpg	0.0	246.94181748590563	0.116692540654185
351.0	175.5236930366018	car	0.0		46.0	object	car-42.jpg	0.0	247.05851002655982	0.38325327640723117
351.0	175.69873230036592	pulse	0.0	t		object	car-42.jpg	0.0	247.23354929032394	
351.0	175.90694631300903	ISI	1.0		7.0	object	car-42.jpg	0.0	247.44176330296705	0.11669887960579217
352.0	176.02364519261482	car	0.0		46.0	object	car-19.jpg	0.0	247.55846218257284	0.3832922156780114
352.0	176.39871669447257	pulse	0.0	t		object	car-19.jpg	0.0	247.93353368443059	
352.0	176.40693740829283	ISI	1.0		6.0	object	car-19.jpg	0.0	247.94175439825085	0.11669948331473279
353.0	176.52363689160757	car	0.0		46.0	object	car-75.jpg	0.0	248.05845388156558	0.3832876878559546
353.0	176.90692457946352	ISI	1.0		8.0	object	car-75.jpg	0.0	248.44174156942154	0.11670038887950795
354.0	177.02362496834303	car	0.0		46.0	object	car-53.jpg	0.0	248.55844195830105	0.38329402680665225
354.0	177.09870169228816	pulse	0.0	t		object	car-53.jpg	0.0	248.63351868224618	
354.0	177.40691899514968	ISI	1.0		8.0	object	car-53.jpg	0.0	248.9417359851077	0.11671276492597826
355.0	177.52363176007566	car	0.0		46.0	object	car-53.jpg	1.0	249.05844875003368	0.38327138769636804
355.0	177.79868759566943	pulse	0.0	t		object	car-53.jpg	1.0	249.33350458562745	
355.0	177.90690314777203	ISI	1.0		5.0	object	car-53.jpg	1.0	249.44172013773004	0.11670401113678963
355.0	177.96192614759912	response	1.0	b		object	car-53.jpg	1.0	249.49674313755713	
356.0	178.02360715890882	car	0.0		46.0	object	car-115.jpg	0.0	249.55842414886683	0.3832834618888228
356.0	178.40689062079764	ISI	1.0		6.0	object	car-115.jpg	0.0	249.94170761075566	0.1167028037179989
356.0	178.49868255469391	pulse	1.0	t		object	car-115.jpg	0.0	250.03349954465193	
357.0	178.52359342451564	car	0.0		46.0	object	car-67.jpg	0.0	250.05841041447366	0.3832910082583112
357.0	178.90688443277395	ISI	1.0		7.0	object	car-67.jpg	0.0	250.44170142273197	0.11669887960579217
358.0	179.02358331237974	car	0.0		46.0	object	car-117.jpg	0.0	250.55840030233776	0.38329010269353603
358.0	179.1986612135588	pulse	0.0	t		object	car-117.jpg	0.0	250.73347820351682	
358.0	179.40687341507328	ISI	1.0		6.0	object	car-117.jpg	0.0	250.9416904050313	0.11670099258935807
359.0	179.52357440766264	car	0.0		46.0	object	car-33.jpg	0.0	251.05839139762065	0.3832888952747453
359.0	179.8986450039556	pulse	0.0	t		object	car-33.jpg	0.0	251.43346199391362	
359.0	179.90686330293738	ISI	1.0		6.0	object	car-33.jpg	0.0	251.4416802928954	0.11669887960579217
360.0	180.02356218254317	house	0.0		46.0	place	house-4.jpg	0.0	251.5583791725012	0.3832894989845954
360.0	180.40685168152777	ISI	1.0		6.0	place	house-4.jpg	0.0	251.9416686714858	0.11670189815322374
361.0	180.523553579681	house	0.0		46.0	place	house-31.jpg	0.0	252.058370569639	0.3832876878559546
361.0	180.59863905741622	pulse	0.0	t		place	house-31.jpg	0.0	252.13345604737424	
361.0	180.90684126753695	ISI	1.0		5.0	place	house-31.jpg	0.0	252.44165825749496	0.11670129444337363
362.0	181.02354256198032	house	0.0		46.0	place	house-142.jpg	0.0	252.55835955193834	0.38328919712967036
362.0	181.29861650886232	pulse	0.0	t		place	house-142.jpg	0.0	252.83343349882034	
362.0	181.40683175911	ISI	1.0		7.0	place	house-142.jpg	0.0	252.941648749068	0.11670310557292396
363.0	181.52353486468292	house	0.0		46.0	place	house-129.jpg	0.0	253.05835185464093	0.3833184770455773
363.0	181.9068533417285	ISI	1.0		5.0	place	house-129.jpg	0.0	253.4416703316865	0.12503399639808777
363.0	181.99868029078243	pulse	1.0	t		place	house-129.jpg	0.0	253.53349728074045	
364.0	182.03188733812658	house	0.0		45.0	place	house-137.jpg	0.0	253.5667043280846	0.3749558914660156
364.0	182.4068432295926	ISI	1.0		6.0	place	house-137.jpg	0.0	253.9416602195506	0.11670038887950795
365.0	182.5235436184721	house	0.0		46.0	place	house-124.jpg	0.0	254.05836060843012	0.3832876878559546
365.0	182.69864415876236	pulse	0.0	t		place	house-124.jpg	0.0	254.23346114872038	
365.0	182.90683130632806	ISI	1.0		7.0	place	house-124.jpg	0.0	254.44164829628608	0.11670069073443301
366.0	183.0235319970625	house	0.0		46.0	place	house-124.jpg	1.0	254.5583489870205	0.3832910082583112
366.0	183.3986019896456	pulse	0.0	t		place	house-124.jpg	1.0	254.93341897960363	
366.0	183.4068230053208	ISI	1.0		5.0	place	house-124.jpg	1.0	254.94163999527882	0.11670250186307385
367.0	183.52352550718388	house	0.0		46.0	place	house-80.jpg	0.0	255.0583424971419	0.3832855748723887
367.0	183.55693691023225	response	0.0	b		place	house-80.jpg	0.0	255.09175390019027	
367.0	183.90681108205627	ISI	1.0		6.0	place	house-80.jpg	0.0	255.44162807201428	0.11672121686115133
368.0	184.02353229891742	house	0.0		46.0	place	house-49.jpg	0.0	255.55834928887543	0.38326776543817687
368.0	184.0985918171391	pulse	0.0	t		place	house-49.jpg	0.0	255.6334088070971	
368.0	184.4068000643556	ISI	1.0		6.0	place	house-49.jpg	0.0	255.9416170543136	0.11670159629829868
369.0	184.5235016606539	house	0.0		46.0	place	house-91.jpg	0.0	256.0583186506119	0.3832550875367815
369.0	184.79854632761908	pulse	0.0	t		place	house-91.jpg	0.0	256.3333633175771	
369.0	184.90675674819067	ISI	1.0		7.0	place	house-91.jpg	0.0	256.4415737381487	0.11670401113678963
370.0	185.02346075932746	house	0.0		46.0	place	house-41.jpg	0.0	256.5582777492855	0.38328798971087963
370.0	185.40674874903834	ISI	1.0		6.0	place	house-41.jpg	0.0	256.94156573899636	0.11671638718416943
370.0	185.49853766438628	pulse	1.0	t		place	house-41.jpg	0.0	257.0333546543443	
371.0	185.5234651362225	house	0.0		46.0	place	house-30.jpg	0.0	257.05828212618053	0.3832738025339495
371.0	185.90673893875646	ISI	1.0		6.0	place	house-30.jpg	0.0	257.4415559287145	0.11670069073443301
372.0	186.0234396294909	house	0.0		46.0	place	house-105.jpg	0.0	257.5582566194489	0.3832894989845954
372.0	186.1985181343798	pulse	0.0	t		place	house-105.jpg	0.0	257.7333351243378	
372.0	186.4067291284755	ISI	1.0		7.0	place	house-105.jpg	0.0	257.9415461184335	0.11670189815413323
373.0	186.52343102662962	house	0.0		46.0	place	house-97.jpg	0.0	258.05824801658764	0.3832867822911794
373.0	186.89850071735782	pulse	0.0	t		place	house-97.jpg	0.0	258.43331770731584	
373.0	186.9067178089208	ISI	1.0		6.0	place	house-97.jpg	0.0	258.4415347988788	0.11669978516965784
374.0	187.02341759409046	house	0.0		46.0	place	house-139.jpg	0.0	258.5582345840485	0.3832888952747453
374.0	187.4067064893652	ISI	1.0		6.0	place	house-139.jpg	0.0	258.9415234793232	0.1167049167015648
375.0	187.52341140606677	house	0.0		46.0	place	house-28.jpg	0.0	259.0582283960248	0.38328436745268846
375.0	187.5984854133194	pulse	0.0	t		place	house-28.jpg	0.0	259.1333024032774	
375.0	187.90669577351946	ISI	1.0		7.0	place	house-28.jpg	0.0	259.4415127634775	0.1167022000081488
376.0	188.0233979735276	house	0.0		46.0	place	house-96.jpg	0.0	259.5582149634856	0.38328708414610446
376.0	188.29847101484484	pulse	0.0	t		place	house-96.jpg	0.0	259.83328800480285	
376.0	188.4066850576737	ISI	1.0		5.0	place	house-96.jpg	0.0	259.94150204763173	0.11671065194332186
377.0	188.52339570961703	house	0.0		46.0	place	house-36.jpg	0.0	260.05821269957505	0.38327953777570656
377.0	188.90667524739274	ISI	1.0		6.0	place	house-36.jpg	0.0	260.44149223735076	0.11669767218609195
377.0	188.99846265346696	pulse	1.0	t		place	house-36.jpg	0.0	260.533279643425	
378.0	189.02337291957883	house	0.0		46.0	place	house-88.jpg	0.0	260.55818990953685	0.3832910082583112
378.0	189.40666392783714	ISI	1.0		6.0	place	house-88.jpg	0.0	260.94148091779516	0.11668891839690332
379.0	189.52335284623405	house	0.0		46.0	place	house-122.jpg	0.0	261.05816983619206	0.3833000639024249
379.0	189.69843799192859	pulse	0.0	t		place	house-122.jpg	0.0	261.2332549818866	
379.0	189.90665291013647	ISI	1.0		7.0	place	house-122.jpg	0.0	261.4414699000945	0.1167049167015648
380.0	190.02335782683804	house	0.0		46.0	place	house-50.jpg	0.0	261.55817481679605	0.38328708414610446
380.0	190.398428121277	pulse	0.0	t		place	house-50.jpg	0.0	261.933245111235	
380.0	190.40664491098414	ISI	1.0		7.0	place	house-50.jpg	0.0	261.94146190094216	0.11670310557292396
381.0	190.52334801655707	house	0.0		46.0	place	house-37.jpg	0.0	262.0581650065151	0.38331877890050237
381.0	190.90666679545757	ISI	1.0		6.0	place	house-37.jpg	0.0	262.4414837854156	0.11670340742784902
382.0	191.02337020288542	house	0.0		46.0	place	house-108.jpg	0.0	262.55818719284343	0.3832544838269314
382.0	191.09841251538273	pulse	0.0	t		place	house-108.jpg	0.0	262.63322950534075	
382.0	191.40662468671235	ISI	1.0		7.0	place	house-108.jpg	0.0	262.94144167667037	0.11670069073443301
383.0	191.52332537744678	house	0.0		46.0	place	house-38.jpg	0.0	263.0581423674048	0.3832876878550451
383.0	191.7983996261828	pulse	0.0	t		place	house-38.jpg	0.0	263.3332166161408	
383.0	191.90661306530183	ISI	1.0		11.0	place	house-38.jpg	0.0	263.44143005525984	0.09999876239544392
384.0	192.00661182769727	baseline	0.0		48.0		baseline	0.0	263.5414288176553	0.39999052175971883
384.0	192.406602349457	ISI	1.0		11.0		baseline	0.0	263.941419339415	0.09999876239453442
384.0	192.49838281286975	pulse	1.0	t			baseline	0.0	264.03319980282777	
385.0	192.50660111185152	baseline	0.0		48.0		baseline	0.0	264.04141810180954	0.39999112546865945
385.0	192.90659223732018	ISI	1.0		11.0		baseline	0.0	264.4414092272782	0.09999936610529403
386.0	193.00659160342548	baseline	0.0		48.0		baseline	0.0	264.5414085933835	0.39999052175880934
386.0	193.19836781068625	pulse	0.0	t			baseline	0.0	264.73318480064427	
386.0	193.4065821251843	ISI	1.0		11.0		baseline	0.0	264.9413991151423	0.09999876239544392
387.0	193.50658088757973	baseline	0.0		48.0		baseline	0.0	265.04139787753775	0.39999263474237523
387.0	193.89835190293797	pulse	0.0	t			baseline	0.0	265.433168892896	
387.0	193.9065735223221	ISI	1.0		11.0		baseline	0.0	265.4413905122801	0.09999574384801235
388.0	194.00656926617012	baseline	0.0		48.0		baseline	0.0	265.54138625612813	0.3999950495808662
388.0	194.40656431575098	ISI	1.0		11.0		baseline	0.0	265.941381305709	0.09999453642831213
389.0	194.5065588521793	baseline	0.0		48.0		baseline	0.0	266.0413758421373	0.39999112546865945
389.0	194.59834414526904	pulse	0.0	t			baseline	0.0	266.13316113522706	
