trial_nr	onset	event_type	phase	response	nr_frames	face_age	face_sex	face_eth	attractiveness	expression	face_id	sub_id	ses	run	trial_type	catch	onset_abs	duration
-1.0	0.05624668150448997	fix	0.0		714												25.068159913260388	5.966246195520398
-1.0	0.7060966152921537	pulse	0.0	t													25.71800984704805	
-1.0	1.4060668224028632	pulse	0.0	t													26.41798005415876	
-1.0	2.1060575555165997	pulse	0.0	t													27.117970787272498	
-1.0	2.806038025628368	pulse	0.0	t													27.817951257384266	
-1.0	3.5060257402119532	pulse	0.0	t													28.51793897196785	
-1.0	4.205998965851904	pulse	0.0	t													29.217912197607802	
-1.0	4.905987585994808	pulse	0.0	t													29.917900817750706	
-1.0	5.605963226458698	pulse	0.0	t													30.617876458214596	
0.0	6.022492877024888	face	0.0		144	24.0	female	black	3.0955033824114606	smiling	099	sub-03	1.0	6.0	099_smiling	0.0	31.034406108780786	1.233305190572537
0.0	6.305955166983949	pulse	0.0	t		24.0	female	black	3.0955033824114606	smiling	099	sub-03	1.0	6.0	099_smiling	0.0	31.317868398739847	
0.0	7.0059220537114015	pulse	0.0	t		24.0	female	black	3.0955033824114606	smiling	099	sub-03	1.0	6.0	099_smiling	0.0	32.0178352854673	
0.0	7.255798067597425	fix	1.0		445	24.0	female	black	3.0955033824114606	smiling	099	sub-03	1.0	6.0	099_smiling	0.0	32.26771129935332	3.7582335684064674
0.0	7.70589859973461	pulse	1.0	t		24.0	female	black	3.0955033824114606	smiling	099	sub-03	1.0	6.0	099_smiling	0.0	32.71781183149051	
0.0	8.405882692081832	pulse	1.0	t		24.0	female	black	3.0955033824114606	smiling	099	sub-03	1.0	6.0	099_smiling	0.0	33.41779592383773	
0.0	9.105866784429963	pulse	1.0	t		24.0	female	black	3.0955033824114606	smiling	099	sub-03	1.0	6.0	099_smiling	0.0	34.11778001618586	
0.0	9.805840010069915	pulse	1.0	t		24.0	female	black	3.0955033824114606	smiling	099	sub-03	1.0	6.0	099_smiling	0.0	34.81775324182581	
0.0	10.505824404271152	pulse	1.0	t		24.0	female	black	3.0955033824114606	smiling	099	sub-03	1.0	6.0	099_smiling	0.0	35.51773763602705	
1.0	11.014031636003892	face	0.0		146	27.0	male	black	3.5523278949462798	smiling	042	sub-03	1.0	6.0	042_smiling	0.0	36.02594486775979	1.241643577429386
1.0	11.205809704030798	pulse	0.0	t		27.0	male	black	3.5523278949462798	smiling	042	sub-03	1.0	6.0	042_smiling	0.0	36.217722935786696	
1.0	11.905778401875978	pulse	0.0	t		27.0	male	black	3.5523278949462798	smiling	042	sub-03	1.0	6.0	042_smiling	0.0	36.917691633631875	
1.0	12.255675213433278	fix	1.0		444	27.0	male	black	3.5523278949462798	smiling	042	sub-03	1.0	6.0	042_smiling	0.0	37.267588445189176	3.7582172683451063
1.0	12.605784529491757	pulse	1.0	t		27.0	male	black	3.5523278949462798	smiling	042	sub-03	1.0	6.0	042_smiling	0.0	37.617697761247655	
1.0	13.305748095835952	pulse	1.0	t		27.0	male	black	3.5523278949462798	smiling	042	sub-03	1.0	6.0	042_smiling	0.0	38.31766132759185	
1.0	14.005724943712266	pulse	1.0	t		27.0	male	black	3.5523278949462798	smiling	042	sub-03	1.0	6.0	042_smiling	0.0	39.017638175468164	
1.0	14.705706017530247	pulse	1.0	t		27.0	male	black	3.5523278949462798	smiling	042	sub-03	1.0	6.0	042_smiling	0.0	39.717619249286145	
1.0	15.40569312840762	pulse	1.0	t		27.0	male	black	3.5523278949462798	smiling	042	sub-03	1.0	6.0	042_smiling	0.0	40.41760636016352	
2.0	16.013892481778385	face	0.0		146	31.0	female	white	2.1822522881018704	neutral	102	sub-03	1.0	6.0	102_neutral	0.0	41.02580571353428	1.2416275792202214
2.0	16.105694124522415	pulse	0.0	t		31.0	female	white	2.1822522881018704	neutral	102	sub-03	1.0	6.0	102_neutral	0.0	41.11760735627831	
2.0	16.805698441020468	pulse	0.0	t		31.0	female	white	2.1822522881018704	neutral	102	sub-03	1.0	6.0	102_neutral	0.0	41.817611672776366	
2.0	17.255520060998606	fix	1.0		444	31.0	female	white	2.1822522881018704	neutral	102	sub-03	1.0	6.0	102_neutral	0.0	42.267433292754504	3.7582320591418465
2.0	17.50564963139277	pulse	1.0	t		31.0	female	white	2.1822522881018704	neutral	102	sub-03	1.0	6.0	102_neutral	0.0	42.51756286314867	
2.0	18.205618027384844	pulse	1.0	t		31.0	female	white	2.1822522881018704	neutral	102	sub-03	1.0	6.0	102_neutral	0.0	43.21753125914074	
2.0	18.90560242158608	pulse	1.0	t		31.0	female	white	2.1822522881018704	neutral	102	sub-03	1.0	6.0	102_neutral	0.0	43.91751565334198	
2.0	19.605585608373985	pulse	1.0	t		31.0	female	white	2.1822522881018704	neutral	102	sub-03	1.0	6.0	102_neutral	0.0	44.61749884012988	
2.0	20.305570002575223	pulse	1.0	t		31.0	female	white	2.1822522881018704	neutral	102	sub-03	1.0	6.0	102_neutral	0.0	45.31748323433112	
3.0	21.013752120140452	face	0.0		147	30.0	female	black	2.7345801830481498	smiling	062	sub-03	1.0	6.0	062_smiling	0.0	46.02566535189635	1.2416396533399165
3.0	21.00640139625193	pulse	0.0	t		30.0	female	black	2.7345801830481498	smiling	062	sub-03	1.0	6.0	062_smiling	0.0	46.01831462800783	
3.0	21.705528226121714	pulse	0.0	t		30.0	female	black	2.7345801830481498	smiling	062	sub-03	1.0	6.0	062_smiling	0.0	46.71744145787761	
3.0	22.25539177348037	fix	1.0		443	30.0	female	black	2.7345801830481498	smiling	062	sub-03	1.0	6.0	062_smiling	0.0	47.26730500523627	3.758212136844122
3.0	22.405503564733408	pulse	1.0	t		30.0	female	black	2.7345801830481498	smiling	062	sub-03	1.0	6.0	062_smiling	0.0	47.417416796489306	
3.0	23.105483129285858	pulse	1.0	t		30.0	female	black	2.7345801830481498	smiling	062	sub-03	1.0	6.0	062_smiling	0.0	48.117396361041756	
3.0	23.805467523487096	pulse	1.0	t		30.0	female	black	2.7345801830481498	smiling	062	sub-03	1.0	6.0	062_smiling	0.0	48.81738075524299	
3.0	24.50545523807068	pulse	1.0	t		30.0	female	black	2.7345801830481498	smiling	062	sub-03	1.0	6.0	062_smiling	0.0	49.51736846982658	
3.0	25.205437821153282	pulse	1.0	t		30.0	female	black	2.7345801830481498	smiling	062	sub-03	1.0	6.0	062_smiling	0.0	50.21735105290918	
3.0	25.905404104174522	pulse	1.0	t		30.0	female	black	2.7345801830481498	smiling	062	sub-03	1.0	6.0	062_smiling	0.0	50.91731733593042	
4.0	26.01360391032449	face	0.0		147	34.0	male	white	2.651014723438122	neutral	121	sub-03	1.0	6.0	121_neutral	1.0	51.02551714208039	1.2416520293127178
4.0	26.605391516905	pulse	0.0	t		34.0	male	white	2.651014723438122	neutral	121	sub-03	1.0	6.0	121_neutral	1.0	51.6173047486609	
4.0	27.25525593963721	fix	1.0		236	34.0	male	white	2.651014723438122	neutral	121	sub-03	1.0	6.0	121_neutral	1.0	52.26716917139311	2.00831574788117
4.0	27.305376816664648	pulse	1.0	t		34.0	male	white	2.651014723438122	neutral	121	sub-03	1.0	6.0	121_neutral	1.0	52.317290048420546	
4.0	28.005364229395127	pulse	1.0	t		34.0	male	white	2.651014723438122	neutral	121	sub-03	1.0	6.0	121_neutral	1.0	53.017277461151025	
4.0	28.705339266153715	pulse	1.0	t		34.0	male	white	2.651014723438122	neutral	121	sub-03	1.0	6.0	121_neutral	1.0	53.71725249790961	
4.0	29.26357168751838	rating	2.0		234	34.0	male	white	2.651014723438122	neutral	121	sub-03	1.0	6.0	121_neutral	1.0	54.27548491927428	1.9915897721339206
4.0	29.40025494503152	pulse	2.0	t		34.0	male	white	2.651014723438122	neutral	121	sub-03	1.0	6.0	121_neutral	1.0	54.41216817678742	
4.0	29.916834371154437	response	2.0	g		34.0	male	white	2.651014723438122	neutral	121	sub-03	1.0	6.0	121_neutral	1.0	54.928747602910335	
4.0	30.100067584883618	pulse	2.0	t		34.0	male	white	2.651014723438122	neutral	121	sub-03	1.0	6.0	121_neutral	1.0	55.111980816639516	
4.0	30.805264678280764	pulse	2.0	t		34.0	male	white	2.651014723438122	neutral	121	sub-03	1.0	6.0	121_neutral	1.0	55.81717791003666	
4.0	31.2551614596523	fix	3.0		444	34.0	male	white	2.651014723438122	neutral	121	sub-03	1.0	6.0	121_neutral	1.0	56.2670746914082	3.7665444866406688
4.0	31.505266579954878	pulse	3.0	t		34.0	male	white	2.651014723438122	neutral	121	sub-03	1.0	6.0	121_neutral	1.0	56.517179811710776	
4.0	32.20524523894892	pulse	3.0	t		34.0	male	white	2.651014723438122	neutral	121	sub-03	1.0	6.0	121_neutral	1.0	57.21715847070482	
4.0	32.90521786088266	pulse	3.0	t		34.0	male	white	2.651014723438122	neutral	121	sub-03	1.0	6.0	121_neutral	1.0	57.917131092638556	
4.0	33.605260814562826	pulse	3.0	t		34.0	male	white	2.651014723438122	neutral	121	sub-03	1.0	6.0	121_neutral	1.0	58.61717404631872	
4.0	34.30518906410816	pulse	3.0	t		34.0	male	white	2.651014723438122	neutral	121	sub-03	1.0	6.0	121_neutral	1.0	59.31710229586406	
5.0	35.02170594629297	face	0.0		146	26.0	female	white	4.854755272582572	smiling	027	sub-03	1.0	6.0	027_smiling	0.0	60.033619178048866	1.233305794278749
5.0	35.007791429246936	pulse	0.0	t		26.0	female	white	4.854755272582572	smiling	027	sub-03	1.0	6.0	027_smiling	0.0	60.019704661002834	
5.0	35.70514306171299	pulse	0.0	t		26.0	female	white	4.854755272582572	smiling	027	sub-03	1.0	6.0	027_smiling	0.0	60.717056293468886	
5.0	36.25501174057172	fix	1.0		443	26.0	female	white	4.854755272582572	smiling	027	sub-03	1.0	6.0	027_smiling	0.0	61.266924972327615	3.7665465996115017
5.0	36.40512564479559	pulse	1.0	t		26.0	female	white	4.854755272582572	smiling	027	sub-03	1.0	6.0	027_smiling	0.0	61.41703887655149	
5.0	37.105103096378116	pulse	1.0	t		26.0	female	white	4.854755272582572	smiling	027	sub-03	1.0	6.0	027_smiling	0.0	62.117016328134014	
5.0	37.805083566489884	pulse	1.0	t		26.0	female	white	4.854755272582572	smiling	027	sub-03	1.0	6.0	027_smiling	0.0	62.81699679824578	
5.0	38.50507882739839	pulse	1.0	t		26.0	female	white	4.854755272582572	smiling	027	sub-03	1.0	6.0	027_smiling	0.0	63.51699205915429	
5.0	39.20505688268622	pulse	1.0	t		26.0	female	white	4.854755272582572	smiling	027	sub-03	1.0	6.0	027_smiling	0.0	64.21697011444212	
5.0	39.90502648609072	pulse	1.0	t		26.0	female	white	4.854755272582572	smiling	027	sub-03	1.0	6.0	027_smiling	0.0	64.91693971784662	
6.0	40.02155834018322	face	0.0		146	37.0	male	white	3.898925586947871	neutral	101	sub-03	1.0	6.0	101_neutral	0.0	65.03347157193912	1.2333181702515503
6.0	40.6050075599087	pulse	0.0	t		37.0	male	white	3.898925586947871	neutral	101	sub-03	1.0	6.0	101_neutral	0.0	65.6169207916646	
6.0	41.25487651043477	fix	1.0		443	37.0	male	white	3.898925586947871	neutral	101	sub-03	1.0	6.0	101_neutral	0.0	66.26678974219067	3.7665487125823347
6.0	41.304992859668346	pulse	1.0	t		37.0	male	white	3.898925586947871	neutral	101	sub-03	1.0	6.0	101_neutral	0.0	66.31690609142424	
6.0	42.00497604645625	pulse	1.0	t		37.0	male	white	3.898925586947871	neutral	101	sub-03	1.0	6.0	101_neutral	0.0	67.01688927821215	
6.0	42.704956818421124	pulse	1.0	t		37.0	male	white	3.898925586947871	neutral	101	sub-03	1.0	6.0	101_neutral	0.0	67.71687005017702	
6.0	43.404940910769255	pulse	1.0	t		37.0	male	white	3.898925586947871	neutral	101	sub-03	1.0	6.0	101_neutral	0.0	68.41685414252515	
6.0	44.10491866420398	pulse	1.0	t		37.0	male	white	3.898925586947871	neutral	101	sub-03	1.0	6.0	101_neutral	0.0	69.11683189595988	
6.0	44.80490366211052	pulse	1.0	t		37.0	male	white	3.898925586947871	neutral	101	sub-03	1.0	6.0	101_neutral	0.0	69.81681689386642	
7.0	45.021425223017104	face	0.0		145	40.0	male	white	1.868682849184242	neutral	172	sub-03	1.0	6.0	172_neutral	0.0	70.033338454773	1.2333145480160965
7.0	45.50487537848585	pulse	0.0	t		40.0	male	white	1.868682849184242	neutral	172	sub-03	1.0	6.0	172_neutral	0.0	70.51678861024175	
7.0	46.20484950968512	pulse	0.0	t		40.0	male	white	1.868682849184242	neutral	172	sub-03	1.0	6.0	172_neutral	0.0	71.21676274144102	
7.0	46.2547397710332	fix	1.0		445	40.0	male	white	1.868682849184242	neutral	172	sub-03	1.0	6.0	172_neutral	0.0	71.2666530027891	3.7665490144345313
7.0	46.904837224268704	pulse	1.0	t		40.0	male	white	1.868682849184242	neutral	172	sub-03	1.0	6.0	172_neutral	0.0	71.9167504560246	
7.0	47.60482886294085	pulse	1.0	t		40.0	male	white	1.868682849184242	neutral	172	sub-03	1.0	6.0	172_neutral	0.0	72.61674209469675	
7.0	48.30481838864307	pulse	1.0	t		40.0	male	white	1.868682849184242	neutral	172	sub-03	1.0	6.0	172_neutral	0.0	73.31673162039897	
7.0	49.004788293899765	pulse	1.0	t		40.0	male	white	1.868682849184242	neutral	172	sub-03	1.0	6.0	172_neutral	0.0	74.01670152565566	
7.0	49.704753671362596	pulse	1.0	t		40.0	male	white	1.868682849184242	neutral	172	sub-03	1.0	6.0	172_neutral	0.0	74.7166669031185	
8.0	50.02128878546773	face	0.0		145	54.0	female	white	2.286908077994429	neutral	136	sub-03	1.0	6.0	136_neutral	0.0	75.03320201722363	1.2333314517827603
8.0	50.404743498917014	pulse	0.0	t		54.0	female	white	2.286908077994429	neutral	136	sub-03	1.0	6.0	136_neutral	0.0	75.41665673067291	
8.0	51.104728496823554	pulse	0.0	t		54.0	female	white	2.286908077994429	neutral	136	sub-03	1.0	6.0	136_neutral	0.0	76.11664172857945	
8.0	51.25462023725049	fix	1.0		445	54.0	female	white	2.286908077994429	neutral	136	sub-03	1.0	6.0	136_neutral	0.0	76.26653346900639	3.7581976479013974
8.0	51.804717418819564	pulse	1.0	t		54.0	female	white	2.286908077994429	neutral	136	sub-03	1.0	6.0	136_neutral	0.0	76.81663065057546	
8.0	52.50469879448974	pulse	1.0	t		54.0	female	white	2.286908077994429	neutral	136	sub-03	1.0	6.0	136_neutral	0.0	77.51661202624564	
8.0	53.20467926460151	pulse	1.0	t		54.0	female	white	2.286908077994429	neutral	136	sub-03	1.0	6.0	136_neutral	0.0	78.2165924963574	
8.0	53.904651282829946	pulse	1.0	t		54.0	female	white	2.286908077994429	neutral	136	sub-03	1.0	6.0	136_neutral	0.0	78.91656451458584	
8.0	54.604638695560425	pulse	1.0	t		54.0	female	white	2.286908077994429	neutral	136	sub-03	1.0	6.0	136_neutral	0.0	79.61655192731632	
9.0	55.01281788515189	face	0.0		146	28.0	female	white	5.676880222841227	neutral	124	sub-03	1.0	6.0	124_neutral	0.0	80.02473111690779	1.2416508219002935
9.0	55.30461011008265	pulse	0.0	t		28.0	female	white	5.676880222841227	neutral	124	sub-03	1.0	6.0	124_neutral	0.0	80.31652334183855	
9.0	56.004596919107826	pulse	0.0	t		28.0	female	white	5.676880222841227	neutral	124	sub-03	1.0	6.0	124_neutral	0.0	81.01651015086372	
9.0	56.25446870705218	fix	1.0		444	28.0	female	white	5.676880222841227	neutral	124	sub-03	1.0	6.0	124_neutral	0.0	81.26638193880808	3.7665625978197568
9.0	56.70457316327793	pulse	1.0	t		28.0	female	white	5.676880222841227	neutral	124	sub-03	1.0	6.0	124_neutral	0.0	81.71648639503383	
9.0	57.404546690770985	pulse	1.0	t		28.0	female	white	5.676880222841227	neutral	124	sub-03	1.0	6.0	124_neutral	0.0	82.41645992252688	
9.0	58.10453531091298	pulse	1.0	t		28.0	female	white	5.676880222841227	neutral	124	sub-03	1.0	6.0	124_neutral	0.0	83.11644854266888	
9.0	58.8045254403205	pulse	1.0	t		28.0	female	white	5.676880222841227	neutral	124	sub-03	1.0	6.0	124_neutral	0.0	83.8164386720764	
9.0	59.50449926966667	pulse	1.0	t		28.0	female	white	5.676880222841227	neutral	124	sub-03	1.0	6.0	124_neutral	0.0	84.51641250142256	
10.0	60.02103130487194	face	0.0		145	27.0	female	white	3.504576203740549	neutral	144	sub-03	1.0	6.0	144_neutral	0.0	85.03294453662784	1.2333018701901892
10.0	60.20449271945745	pulse	0.0	t		27.0	female	white	3.504576203740549	neutral	144	sub-03	1.0	6.0	144_neutral	0.0	85.21640595121335	
10.0	60.90445024874225	pulse	0.0	t		27.0	female	white	3.504576203740549	neutral	144	sub-03	1.0	6.0	144_neutral	0.0	85.91636348049815	
10.0	61.25433317506213	fix	1.0		444	27.0	female	white	3.504576203740549	neutral	144	sub-03	1.0	6.0	144_neutral	0.0	86.26624640681803	3.7665695404375583
10.0	61.60443917073735	pulse	1.0	t		27.0	female	white	3.504576203740549	neutral	144	sub-03	1.0	6.0	144_neutral	0.0	86.61635240249325	
10.0	62.30441420749594	pulse	1.0	t		27.0	female	white	3.504576203740549	neutral	144	sub-03	1.0	6.0	144_neutral	0.0	87.31632743925184	
10.0	63.004401016520205	pulse	1.0	t		27.0	female	white	3.504576203740549	neutral	144	sub-03	1.0	6.0	144_neutral	0.0	88.0163142482761	
10.0	63.704371223630915	pulse	1.0	t		27.0	female	white	3.504576203740549	neutral	144	sub-03	1.0	6.0	144_neutral	0.0	88.71628445538681	
10.0	64.40437584198116	pulse	1.0	t		27.0	female	white	3.504576203740549	neutral	144	sub-03	1.0	6.0	144_neutral	0.0	89.41628907373706	
11.0	65.02090271549969	face	0.0		145	40.0	male	white	1.868682849184242	smiling	172	sub-03	1.0	6.0	172_smiling	0.0	90.03281594725559	1.2333006627786745
11.0	65.10436325471164	pulse	0.0	t		40.0	male	white	1.868682849184242	smiling	172	sub-03	1.0	6.0	172_smiling	0.0	90.11627648646754	
11.0	65.80432772661607	pulse	0.0	t		40.0	male	white	1.868682849184242	smiling	172	sub-03	1.0	6.0	172_smiling	0.0	90.81624095837196	
11.0	66.25420337827836	fix	1.0		444	40.0	male	white	1.868682849184242	smiling	172	sub-03	1.0	6.0	172_smiling	0.0	91.26611661003426	3.7665541459355154
11.0	66.50431936528821	pulse	1.0	t		40.0	male	white	1.868682849184242	smiling	172	sub-03	1.0	6.0	172_smiling	0.0	91.51623259704411	
11.0	67.20429651501672	pulse	1.0	t		40.0	male	white	1.868682849184242	smiling	172	sub-03	1.0	6.0	172_smiling	0.0	92.21620974677262	
11.0	67.90427909810023	pulse	1.0	t		40.0	male	white	1.868682849184242	smiling	172	sub-03	1.0	6.0	172_smiling	0.0	92.91619232985613	
11.0	68.60424870150382	pulse	1.0	t		40.0	male	white	1.868682849184242	smiling	172	sub-03	1.0	6.0	172_smiling	0.0	93.61616193325972	
11.0	69.30423913276445	pulse	1.0	t		40.0	male	white	1.868682849184242	smiling	172	sub-03	1.0	6.0	172_smiling	0.0	94.31615236452035	
12.0	70.02075752421388	face	0.0		146	25.0	female	west_asian	2.6756864305610826	smiling	064	sub-03	1.0	6.0	064_smiling	0.0	95.03267075596978	1.2333163591338234
12.0	70.00688254990928	pulse	0.0	t		25.0	female	west_asian	2.6756864305610826	smiling	064	sub-03	1.0	6.0	064_smiling	0.0	95.01879578166518	
12.0	70.70419946928268	pulse	0.0	t		25.0	female	west_asian	2.6756864305610826	smiling	064	sub-03	1.0	6.0	064_smiling	0.0	95.71611270103858	
12.0	71.2540738833477	fix	1.0		443	25.0	female	west_asian	2.6756864305610826	smiling	064	sub-03	1.0	6.0	064_smiling	0.0	96.2659871151036	3.7665351291980187
12.0	71.40417843012892	pulse	1.0	t		25.0	female	west_asian	2.6756864305610826	smiling	064	sub-03	1.0	6.0	064_smiling	0.0	96.41609166188482	
12.0	72.10415044835736	pulse	1.0	t		25.0	female	west_asian	2.6756864305610826	smiling	064	sub-03	1.0	6.0	064_smiling	0.0	97.11606368011326	
12.0	72.80413876664716	pulse	1.0	t		25.0	female	west_asian	2.6756864305610826	smiling	064	sub-03	1.0	6.0	064_smiling	0.0	97.81605199840305	
12.0	73.5041113885818	pulse	1.0	t		25.0	female	west_asian	2.6756864305610826	smiling	064	sub-03	1.0	6.0	064_smiling	0.0	98.5160246203377	
12.0	74.20409517907592	pulse	1.0	t		25.0	female	west_asian	2.6756864305610826	smiling	064	sub-03	1.0	6.0	064_smiling	0.0	99.21600841083182	
12.0	74.90407534733458	pulse	1.0	t		25.0	female	west_asian	2.6756864305610826	smiling	064	sub-03	1.0	6.0	064_smiling	0.0	99.91598857909048	
13.0	75.02060901254572	face	0.0		146	22.0	female	white	4.614007162753682	neutral	009	sub-03	1.0	6.0	009_neutral	0.0	100.03252224430162	1.2333344703129114
13.0	75.6040585341234	pulse	0.0	t		22.0	female	white	4.614007162753682	neutral	009	sub-03	1.0	6.0	009_neutral	0.0	100.6159717658793	
13.0	76.25394348285863	fix	1.0		443	22.0	female	white	4.614007162753682	neutral	009	sub-03	1.0	6.0	009_neutral	0.0	101.26585671461453	3.7665287902846103
13.0	76.30404775797251	pulse	1.0	t		22.0	female	white	4.614007162753682	neutral	009	sub-03	1.0	6.0	009_neutral	0.0	101.31596098972841	
13.0	77.00402883178958	pulse	1.0	t		22.0	female	white	4.614007162753682	neutral	009	sub-03	1.0	6.0	009_neutral	0.0	102.01594206354548	
13.0	77.70400447225438	pulse	1.0	t		22.0	female	white	4.614007162753682	neutral	009	sub-03	1.0	6.0	009_neutral	0.0	102.71591770401028	
13.0	78.40398343310153	pulse	1.0	t		22.0	female	white	4.614007162753682	neutral	009	sub-03	1.0	6.0	009_neutral	0.0	103.41589666485743	
13.0	79.10396269580087	pulse	1.0	t		22.0	female	white	4.614007162753682	neutral	009	sub-03	1.0	6.0	009_neutral	0.0	104.11587592755677	
13.0	79.8039398455303	pulse	1.0	t		22.0	female	white	4.614007162753682	neutral	009	sub-03	1.0	6.0	009_neutral	0.0	104.81585307728619	
14.0	80.02047227314324	face	0.0		145	40.0	male	black	2.408674890569041	smiling	061	sub-03	1.0	6.0	061_smiling	0.0	105.03238550489914	1.2333317536358663
14.0	80.50393963423267	pulse	0.0	t		40.0	male	black	2.408674890569041	smiling	061	sub-03	1.0	6.0	061_smiling	0.0	105.51585286598856	
14.0	81.20391225616731	pulse	0.0	t		40.0	male	black	2.408674890569041	smiling	061	sub-03	1.0	6.0	061_smiling	0.0	106.21582548792321	
14.0	81.25380402677911	fix	1.0		445	40.0	male	black	2.408674890569041	smiling	061	sub-03	1.0	6.0	061_smiling	0.0	106.265717258535	3.766533619933398
14.0	81.90390812078113	pulse	1.0	t		40.0	male	black	2.408674890569041	smiling	061	sub-03	1.0	6.0	061_smiling	0.0	106.91582135253702	
14.0	82.60387229083244	pulse	1.0	t		40.0	male	black	2.408674890569041	smiling	061	sub-03	1.0	6.0	061_smiling	0.0	107.61578552258834	
14.0	83.3038464220308	pulse	1.0	t		40.0	male	black	2.408674890569041	smiling	061	sub-03	1.0	6.0	061_smiling	0.0	108.3157596537867	
14.0	84.00383564587992	pulse	1.0	t		40.0	male	black	2.408674890569041	smiling	061	sub-03	1.0	6.0	061_smiling	0.0	109.01574887763582	
14.0	84.7038170215501	pulse	1.0	t		40.0	male	black	2.408674890569041	smiling	061	sub-03	1.0	6.0	061_smiling	0.0	109.71573025330599	
15.0	85.0203376467125	face	0.0		145	36.0	female	white	2.7548746518105847	smiling	011	sub-03	1.0	6.0	011_smiling	0.0	110.0322508784684	1.2333172646922321
15.0	85.40380443428148	pulse	0.0	t		36.0	female	white	2.7548746518105847	smiling	011	sub-03	1.0	6.0	011_smiling	0.0	110.41571766603738	
15.0	86.10377252842045	pulse	0.0	t		36.0	female	white	2.7548746518105847	smiling	011	sub-03	1.0	6.0	011_smiling	0.0	111.11568576017635	
15.0	86.25365491140474	fix	1.0		444	36.0	female	white	2.7548746518105847	smiling	011	sub-03	1.0	6.0	011_smiling	0.0	111.26556814316064	3.7665462977583957
15.0	86.80376688376964	pulse	1.0	t		36.0	female	white	2.7548746518105847	smiling	011	sub-03	1.0	6.0	011_smiling	0.0	111.81568011552554	
15.0	87.50373135567315	pulse	1.0	t		36.0	female	white	2.7548746518105847	smiling	011	sub-03	1.0	6.0	011_smiling	0.0	112.51564458742905	
15.0	88.20371424060886	pulse	1.0	t		36.0	female	white	2.7548746518105847	smiling	011	sub-03	1.0	6.0	011_smiling	0.0	113.21562747236476	
15.0	88.90370165333934	pulse	1.0	t		36.0	female	white	2.7548746518105847	smiling	011	sub-03	1.0	6.0	011_smiling	0.0	113.91561488509524	
15.0	89.6036812178927	pulse	1.0	t		36.0	female	white	2.7548746518105847	smiling	011	sub-03	1.0	6.0	011_smiling	0.0	114.6155944496486	
16.0	90.02020120916313	face	0.0		145	27.0	female	white	4.181058495821727	neutral	039	sub-03	1.0	6.0	039_neutral	0.0	115.03211444091903	1.2333163591338234
16.0	90.30366863062318	pulse	0.0	t		27.0	female	white	4.181058495821727	neutral	039	sub-03	1.0	6.0	039_neutral	0.0	115.31558186237908	
16.0	91.00364336552866	pulse	0.0	t		27.0	female	white	4.181058495821727	neutral	039	sub-03	1.0	6.0	039_neutral	0.0	116.01555659728456	
16.0	91.25351756829696	fix	1.0		444	27.0	female	white	4.181058495821727	neutral	039	sub-03	1.0	6.0	039_neutral	0.0	116.26543080005285	3.7665659182021045
16.0	91.70362111896338	pulse	1.0	t		27.0	female	white	4.181058495821727	neutral	039	sub-03	1.0	6.0	039_neutral	0.0	116.71553435071928	
16.0	92.40361245578242	pulse	1.0	t		27.0	female	white	4.181058495821727	neutral	039	sub-03	1.0	6.0	039_neutral	0.0	117.41552568753832	
16.0	93.1035932277473	pulse	1.0	t		27.0	female	white	4.181058495821727	neutral	039	sub-03	1.0	6.0	039_neutral	0.0	118.1155064595032	
16.0	93.80356766079967	pulse	1.0	t		27.0	female	white	4.181058495821727	neutral	039	sub-03	1.0	6.0	039_neutral	0.0	118.81548089255557	
16.0	94.50354118829273	pulse	1.0	t		27.0	female	white	4.181058495821727	neutral	039	sub-03	1.0	6.0	039_neutral	0.0	119.51545442004863	
17.0	95.02008348649906	face	0.0		145	22.0	female	white	4.614007162753682	smiling	009	sub-03	1.0	6.0	009_smiling	0.0	120.03199671825496	1.2333127368974601
17.0	95.20353795846586	pulse	0.0	t		22.0	female	white	4.614007162753682	smiling	009	sub-03	1.0	6.0	009_smiling	0.0	120.21545119022176	
17.0	95.90350514704642	pulse	0.0	t		22.0	female	white	4.614007162753682	smiling	009	sub-03	1.0	6.0	009_smiling	0.0	120.91541837880231	
17.0	96.25339622339652	fix	1.0		444	22.0	female	white	4.614007162753682	smiling	009	sub-03	1.0	6.0	009_smiling	0.0	121.26530945515242	3.7665565607594544
17.0	96.60349829498409	pulse	1.0	t		22.0	female	white	4.614007162753682	smiling	009	sub-03	1.0	6.0	009_smiling	0.0	121.61541152673999	
17.0	97.30347967065427	pulse	1.0	t		22.0	female	white	4.614007162753682	smiling	009	sub-03	1.0	6.0	009_smiling	0.0	122.31539290241017	
17.0	98.00344233144006	pulse	1.0	t		22.0	female	white	4.614007162753682	smiling	009	sub-03	1.0	6.0	009_smiling	0.0	123.01535556319595	
17.0	98.70343185714137	pulse	1.0	t		22.0	female	white	4.614007162753682	smiling	009	sub-03	1.0	6.0	009_smiling	0.0	123.71534508889727	
17.0	99.40342047728427	pulse	1.0	t		22.0	female	white	4.614007162753682	smiling	009	sub-03	1.0	6.0	009_smiling	0.0	124.41533370904017	
18.0	100.01995278415598	face	0.0		145	20.0	male	black	3.1070433744528456	smiling	082	sub-03	1.0	6.0	082_smiling	0.0	125.03186601591187	1.2333109257806427
18.0	100.10340547519081	pulse	0.0	t		20.0	male	black	3.1070433744528456	smiling	082	sub-03	1.0	6.0	082_smiling	0.0	125.11531870694671	
18.0	100.80338594530258	pulse	0.0	t		20.0	male	black	3.1070433744528456	smiling	082	sub-03	1.0	6.0	082_smiling	0.0	125.81529917705848	
18.0	101.25326370993662	fix	1.0		444	20.0	male	black	3.1070433744528456	smiling	082	sub-03	1.0	6.0	082_smiling	0.0	126.26517694169252	3.7665426755220324
18.0	101.50336581170905	pulse	1.0	t		20.0	male	black	3.1070433744528456	smiling	082	sub-03	1.0	6.0	082_smiling	0.0	126.51527904346494	
18.0	102.20333964105521	pulse	1.0	t		20.0	male	black	3.1070433744528456	smiling	082	sub-03	1.0	6.0	082_smiling	0.0	127.2152528728111	
18.0	102.90332645007948	pulse	1.0	t		20.0	male	black	3.1070433744528456	smiling	082	sub-03	1.0	6.0	082_smiling	0.0	127.91523968183537	
18.0	103.60330722204435	pulse	1.0	t		20.0	male	black	3.1070433744528456	smiling	082	sub-03	1.0	6.0	082_smiling	0.0	128.61522045380025	
18.0	104.3032870884499	pulse	1.0	t		20.0	male	black	3.1070433744528456	smiling	082	sub-03	1.0	6.0	082_smiling	0.0	129.3152003202058	
19.0	105.01980638545865	face	0.0		146	24.0	male	white	3.1153999204138483	smiling	012	sub-03	1.0	6.0	012_smiling	0.0	130.03171961721455	1.2333057942796586
19.0	105.00596461498208	pulse	0.0	t		24.0	male	white	3.1153999204138483	smiling	012	sub-03	1.0	6.0	012_smiling	0.0	130.01787784673797	
19.0	105.70324651940882	pulse	0.0	t		24.0	male	white	3.1153999204138483	smiling	012	sub-03	1.0	6.0	012_smiling	0.0	130.71515975116472	
19.0	106.25311217973831	fix	1.0		443	24.0	male	white	3.1153999204138483	smiling	012	sub-03	1.0	6.0	012_smiling	0.0	131.2650254114942	3.766564408936574
19.0	106.40322970619764	pulse	1.0	t		24.0	male	white	3.1153999204138483	smiling	012	sub-03	1.0	6.0	012_smiling	0.0	131.41514293795353	
19.0	107.10321108186872	pulse	1.0	t		24.0	male	white	3.1153999204138483	smiling	012	sub-03	1.0	6.0	012_smiling	0.0	132.11512431362462	
19.0	107.80317645933155	pulse	1.0	t		24.0	male	white	3.1153999204138483	smiling	012	sub-03	1.0	6.0	012_smiling	0.0	132.81508969108745	
19.0	108.50316296650271	pulse	1.0	t		24.0	male	white	3.1153999204138483	smiling	012	sub-03	1.0	6.0	012_smiling	0.0	133.5150761982586	
19.0	109.20314796440925	pulse	1.0	t		24.0	male	white	3.1153999204138483	smiling	012	sub-03	1.0	6.0	012_smiling	0.0	134.21506119616515	
19.0	109.90313115119807	pulse	1.0	t		24.0	male	white	3.1153999204138483	smiling	012	sub-03	1.0	6.0	012_smiling	0.0	134.91504438295397	
20.0	110.01967658867488	face	0.0		146	21.0	male	east_asian/white	3.501790688420215	smiling	036	sub-03	1.0	6.0	036_smiling	0.0	135.03158982043078	1.2333157554285208
20.0	110.60310981019211	pulse	0.0	t		21.0	male	east_asian/white	3.501790688420215	smiling	036	sub-03	1.0	6.0	036_smiling	0.0	135.615023041948	
20.0	111.2529923441034	fix	1.0		443	21.0	male	east_asian/white	3.501790688420215	smiling	036	sub-03	1.0	6.0	036_smiling	0.0	136.2649055758593	3.766548410728319
20.0	111.30310597665903	pulse	1.0	t		21.0	male	east_asian/white	3.501790688420215	smiling	036	sub-03	1.0	6.0	036_smiling	0.0	136.31501920841492	
20.0	112.00306592076777	pulse	1.0	t		21.0	male	east_asian/white	3.501790688420215	smiling	036	sub-03	1.0	6.0	036_smiling	0.0	137.01497915252367	
20.0	112.70306450205953	pulse	1.0	t		21.0	male	east_asian/white	3.501790688420215	smiling	036	sub-03	1.0	6.0	036_smiling	0.0	137.71497773381543	
20.0	113.40304285920047	pulse	1.0	t		21.0	male	east_asian/white	3.501790688420215	smiling	036	sub-03	1.0	6.0	036_smiling	0.0	138.41495609095637	
20.0	114.10302332931224	pulse	1.0	t		21.0	male	east_asian/white	3.501790688420215	smiling	036	sub-03	1.0	6.0	036_smiling	0.0	139.11493656106813	
20.0	114.80297633080227	pulse	1.0	t		21.0	male	east_asian/white	3.501790688420215	smiling	036	sub-03	1.0	6.0	036_smiling	0.0	139.81488956255816	
21.0	115.01954075483172	face	0.0		145	36.0	female	white	2.7548746518105847	neutral	011	sub-03	1.0	6.0	011_neutral	0.0	140.03145398658762	1.2332991535140536
21.0	115.50299423068464	pulse	0.0	t		36.0	female	white	2.7548746518105847	neutral	011	sub-03	1.0	6.0	011_neutral	0.0	140.51490746244053	
21.0	116.20295447664648	pulse	0.0	t		36.0	female	white	2.7548746518105847	neutral	011	sub-03	1.0	6.0	011_neutral	0.0	141.21486770840238	
21.0	116.25283990834578	fix	1.0		444	36.0	female	white	2.7548746518105847	neutral	011	sub-03	1.0	6.0	011_neutral	0.0	141.26475314010167	3.7665481088761226
21.0	116.90295275608423	pulse	1.0	t		36.0	female	white	2.7548746518105847	neutral	011	sub-03	1.0	6.0	011_neutral	0.0	141.91486598784013	
21.0	117.6029145113107	pulse	1.0	t		36.0	female	white	2.7548746518105847	neutral	011	sub-03	1.0	6.0	011_neutral	0.0	142.6148277430666	
21.0	118.30291399816088	pulse	1.0	t		36.0	female	white	2.7548746518105847	neutral	011	sub-03	1.0	6.0	011_neutral	0.0	143.31482722991677	
21.0	119.00287816821128	pulse	1.0	t		36.0	female	white	2.7548746518105847	neutral	011	sub-03	1.0	6.0	011_neutral	0.0	144.01479139996718	
21.0	119.70285652535222	pulse	1.0	t		36.0	female	white	2.7548746518105847	neutral	011	sub-03	1.0	6.0	011_neutral	0.0	144.71476975710812	
22.0	120.0193880172219	face	0.0		145	27.0	female	white	4.181058495821727	smiling	039	sub-03	1.0	6.0	039_smiling	0.0	145.0313012489778	1.2333172646922321
22.0	120.40284363622959	pulse	0.0	t		27.0	female	white	4.181058495821727	smiling	039	sub-03	1.0	6.0	039_smiling	0.0	145.4147568679855	
22.0	121.10281746557666	pulse	0.0	t		27.0	female	white	4.181058495821727	smiling	039	sub-03	1.0	6.0	039_smiling	0.0	146.11473069733256	
22.0	121.25270528191413	fix	1.0		444	27.0	female	white	4.181058495821727	smiling	039	sub-03	1.0	6.0	039_smiling	0.0	146.26461851367003	3.7665641070843776
22.0	121.80281936724987	pulse	1.0	t		27.0	female	white	4.181058495821727	smiling	039	sub-03	1.0	6.0	039_smiling	0.0	146.81473259900577	
22.0	122.50279621512618	pulse	1.0	t		27.0	female	white	4.181058495821727	smiling	039	sub-03	1.0	6.0	039_smiling	0.0	147.51470944688208	
22.0	123.20277849635568	pulse	1.0	t		27.0	female	white	4.181058495821727	smiling	039	sub-03	1.0	6.0	039_smiling	0.0	148.21469172811157	
22.0	123.9027496090248	pulse	1.0	t		27.0	female	white	4.181058495821727	smiling	039	sub-03	1.0	6.0	039_smiling	0.0	148.9146628407807	
22.0	124.60273490878444	pulse	1.0	t		27.0	female	white	4.181058495821727	smiling	039	sub-03	1.0	6.0	039_smiling	0.0	149.61464814054034	
23.0	125.01926938899851	face	0.0		145	21.0	male	black	2.969757262236371	smiling	137	sub-03	1.0	6.0	137_smiling	0.0	150.0311826207544	1.2333169628400356
23.0	125.30272473633886	pulse	0.0	t		21.0	male	black	2.969757262236371	smiling	137	sub-03	1.0	6.0	137_smiling	0.0	150.31463796809476	
23.0	126.00269554715578	pulse	0.0	t		21.0	male	black	2.969757262236371	smiling	137	sub-03	1.0	6.0	137_smiling	0.0	151.01460877891168	
23.0	126.25258635183854	fix	1.0		1185	21.0	male	black	2.969757262236371	smiling	137	sub-03	1.0	6.0	137_smiling	0.0	151.26449958359444	10.016364657723898
23.0	126.70267631912066	pulse	1.0	t		21.0	male	black	2.969757262236371	smiling	137	sub-03	1.0	6.0	137_smiling	0.0	151.71458955087655	
23.0	127.40264712993667	pulse	1.0	t		21.0	male	black	2.969757262236371	smiling	137	sub-03	1.0	6.0	137_smiling	0.0	152.41456036169257	
23.0	128.10266140758267	pulse	1.0	t		21.0	male	black	2.969757262236371	smiling	137	sub-03	1.0	6.0	137_smiling	0.0	153.11457463933857	
23.0	128.8026198424268	pulse	1.0	t		21.0	male	black	2.969757262236371	smiling	137	sub-03	1.0	6.0	137_smiling	0.0	153.8145330741827	
23.0	129.50260151995099	pulse	1.0	t		21.0	male	black	2.969757262236371	smiling	137	sub-03	1.0	6.0	137_smiling	0.0	154.51451475170688	
23.0	130.2025847067398	pulse	1.0	t		21.0	male	black	2.969757262236371	smiling	137	sub-03	1.0	6.0	137_smiling	0.0	155.2144979384957	
23.0	130.90256396943914	pulse	1.0	t		21.0	male	black	2.969757262236371	smiling	137	sub-03	1.0	6.0	137_smiling	0.0	155.91447720119504	
23.0	131.60252904504887	pulse	1.0	t		21.0	male	black	2.969757262236371	smiling	137	sub-03	1.0	6.0	137_smiling	0.0	156.61444227680477	
23.0	132.3025188726033	pulse	1.0	t		21.0	male	black	2.969757262236371	smiling	137	sub-03	1.0	6.0	137_smiling	0.0	157.31443210435918	
23.0	133.00251051127543	pulse	1.0	t		21.0	male	black	2.969757262236371	smiling	137	sub-03	1.0	6.0	137_smiling	0.0	158.01442374303133	
23.0	133.70247649244448	pulse	1.0	t		21.0	male	black	2.969757262236371	smiling	137	sub-03	1.0	6.0	137_smiling	0.0	158.71438972420037	
23.0	134.40246239591033	pulse	1.0	t		21.0	male	black	2.969757262236371	smiling	137	sub-03	1.0	6.0	137_smiling	0.0	159.41437562766623	
23.0	135.10244135675748	pulse	1.0	t		21.0	male	black	2.969757262236371	smiling	137	sub-03	1.0	6.0	137_smiling	0.0	160.11435458851338	
23.0	135.80242726022243	pulse	1.0	t		21.0	male	black	2.969757262236371	smiling	137	sub-03	1.0	6.0	137_smiling	0.0	160.81434049197833	
24.0	136.26895100956244	face	0.0		145	40.0	male	black	2.408674890569041	neutral	061	sub-03	1.0	6.0	061_neutral	1.0	161.28086424131834	1.2333127368983696
24.0	136.50241195627586	pulse	0.0	t		40.0	male	black	2.408674890569041	neutral	061	sub-03	1.0	6.0	061_neutral	1.0	161.51432518803176	
24.0	137.2023830689459	pulse	0.0	t		40.0	male	black	2.408674890569041	neutral	061	sub-03	1.0	6.0	061_neutral	1.0	162.2142963007018	
24.0	137.5022637464608	fix	1.0		236	40.0	male	black	2.408674890569041	neutral	061	sub-03	1.0	6.0	061_neutral	1.0	162.5141769782167	1.999948383139781
24.0	137.90237138723478	pulse	1.0	t		40.0	male	black	2.408674890569041	neutral	061	sub-03	1.0	6.0	061_neutral	1.0	162.91428461899068	
24.0	138.60234431102253	pulse	1.0	t		40.0	male	black	2.408674890569041	neutral	061	sub-03	1.0	6.0	061_neutral	1.0	163.61425754277843	
24.0	139.3023247811343	pulse	1.0	t		40.0	male	black	2.408674890569041	neutral	061	sub-03	1.0	6.0	061_neutral	1.0	164.3142380128902	
24.0	139.5022121296006	rating	2.0		235	40.0	male	black	2.408674890569041	neutral	061	sub-03	1.0	6.0	061_neutral	1.0	164.5141253613565	1.999943553491903
24.0	139.99708772240137	pulse	2.0	t		40.0	male	black	2.408674890569041	neutral	061	sub-03	1.0	6.0	061_neutral	1.0	165.00900095415727	
24.0	140.69716931326366	pulse	2.0	t		40.0	male	black	2.408674890569041	neutral	061	sub-03	1.0	6.0	061_neutral	1.0	165.70908254501956	
24.0	141.22727779017077	response	2.0	b		40.0	male	black	2.408674890569041	neutral	061	sub-03	1.0	6.0	061_neutral	1.0	166.23919102192667	
24.0	141.3971482741108	pulse	2.0	t		40.0	male	black	2.408674890569041	neutral	061	sub-03	1.0	6.0	061_neutral	1.0	166.4090615058667	
24.0	141.5021556830925	fix	3.0		444	40.0	male	black	2.408674890569041	neutral	061	sub-03	1.0	6.0	061_neutral	1.0	166.5140689148484	3.766548410728319
24.0	142.10227020611455	pulse	3.0	t		40.0	male	black	2.408674890569041	neutral	061	sub-03	1.0	6.0	061_neutral	1.0	167.11418343787045	
24.0	142.8022434317545	pulse	3.0	t		40.0	male	black	2.408674890569041	neutral	061	sub-03	1.0	6.0	061_neutral	1.0	167.8141566635104	
24.0	143.50221424257143	pulse	3.0	t		40.0	male	black	2.408674890569041	neutral	061	sub-03	1.0	6.0	061_neutral	1.0	168.51412747432732	
24.0	144.20220497568425	pulse	3.0	t		40.0	male	black	2.408674890569041	neutral	061	sub-03	1.0	6.0	061_neutral	1.0	169.21411820744015	
24.0	144.9021769939127	pulse	3.0	t		40.0	male	black	2.408674890569041	neutral	061	sub-03	1.0	6.0	061_neutral	1.0	169.9140902256686	
25.0	145.26870409382082	face	0.0		145	26.0	male	white	2.7966573816155993	neutral	117	sub-03	1.0	6.0	117_neutral	1.0	170.2806173255767	1.2333160572807174
25.0	145.60215836958378	pulse	0.0	t		26.0	male	white	2.7966573816155993	neutral	117	sub-03	1.0	6.0	117_neutral	1.0	170.61407160133967	
25.0	146.30213914154865	pulse	0.0	t		26.0	male	white	2.7966573816155993	neutral	117	sub-03	1.0	6.0	117_neutral	1.0	171.31405237330455	
25.0	146.50202015110153	fix	1.0		236	26.0	male	white	2.7966573816155993	neutral	117	sub-03	1.0	6.0	117_neutral	1.0	171.51393338285743	1.9999701165552324
25.0	147.00213591172178	pulse	1.0	t		26.0	male	white	2.7966573816155993	neutral	117	sub-03	1.0	6.0	117_neutral	1.0	172.01404914347768	
25.0	147.70210491142007	pulse	1.0	t		26.0	male	white	2.7966573816155993	neutral	117	sub-03	1.0	6.0	117_neutral	1.0	172.71401814317596	
25.0	148.40209896491615	pulse	1.0	t		26.0	male	white	2.7966573816155993	neutral	117	sub-03	1.0	6.0	117_neutral	1.0	173.41401219667205	
25.0	148.50199026765677	rating	2.0		236	26.0	male	white	2.7966573816155993	neutral	117	sub-03	1.0	6.0	117_neutral	1.0	173.51390349941266	1.9999354034607677
25.0	149.0968356449739	pulse	2.0	t		26.0	male	white	2.7966573816155993	neutral	117	sub-03	1.0	6.0	117_neutral	1.0	174.1087488767298	
25.0	149.4937258347827	response	2.0	e		26.0	male	white	2.7966573816155993	neutral	117	sub-03	1.0	6.0	117_neutral	1.0	174.5056390665386	
25.0	149.79679347611182	pulse	2.0	t		26.0	male	white	2.7966573816155993	neutral	117	sub-03	1.0	6.0	117_neutral	1.0	174.8087067078677	
25.0	150.50192567111753	fix	3.0		444	26.0	male	white	2.7966573816155993	neutral	117	sub-03	1.0	6.0	117_neutral	1.0	175.51383890287343	3.7665493162876373
25.0	150.50943215114694	pulse	3.0	t		26.0	male	white	2.7966573816155993	neutral	117	sub-03	1.0	6.0	117_neutral	1.0	175.52134538290284	
25.0	151.2020181286871	pulse	3.0	t		26.0	male	white	2.7966573816155993	neutral	117	sub-03	1.0	6.0	117_neutral	1.0	176.21393136044298	
25.0	151.90199618397492	pulse	3.0	t		26.0	male	white	2.7966573816155993	neutral	117	sub-03	1.0	6.0	117_neutral	1.0	176.9139094157308	
25.0	152.60198238929388	pulse	3.0	t		26.0	male	white	2.7966573816155993	neutral	117	sub-03	1.0	6.0	117_neutral	1.0	177.61389562104978	
25.0	153.30195018157974	pulse	3.0	t		26.0	male	white	2.7966573816155993	neutral	117	sub-03	1.0	6.0	117_neutral	1.0	178.31386341333564	
25.0	154.00192944428	pulse	3.0	t		26.0	male	white	2.7966573816155993	neutral	117	sub-03	1.0	6.0	117_neutral	1.0	179.0138426760359	
26.0	154.26847498740517	face	0.0		145	32.0	male	white	2.389176283326701	smiling	092	sub-03	1.0	6.0	092_smiling	0.0	179.28038821916107	1.2333169628400356
26.0	154.7019244033354	pulse	0.0	t		32.0	male	white	2.389176283326701	smiling	092	sub-03	1.0	6.0	092_smiling	0.0	179.7138376350913	
26.0	155.4019003456524	pulse	0.0	t		32.0	male	white	2.389176283326701	smiling	092	sub-03	1.0	6.0	092_smiling	0.0	180.4138135774083	
26.0	155.5017919502452	fix	1.0		444	32.0	male	white	2.389176283326701	smiling	092	sub-03	1.0	6.0	092_smiling	0.0	180.5137051820011	3.7582151553742733
26.0	156.1018774953809	pulse	1.0	t		32.0	male	white	2.389176283326701	smiling	092	sub-03	1.0	6.0	092_smiling	0.0	181.1137907271368	
26.0	156.8018661155238	pulse	1.0	t		32.0	male	white	2.389176283326701	smiling	092	sub-03	1.0	6.0	092_smiling	0.0	181.8137793472797	
26.0	157.50183360595747	pulse	1.0	t		32.0	male	white	2.389176283326701	smiling	092	sub-03	1.0	6.0	092_smiling	0.0	182.51374683771337	
26.0	158.20182011312863	pulse	1.0	t		32.0	male	white	2.389176283326701	smiling	092	sub-03	1.0	6.0	092_smiling	0.0	183.21373334488453	
26.0	158.90179514988722	pulse	1.0	t		32.0	male	white	2.389176283326701	smiling	092	sub-03	1.0	6.0	092_smiling	0.0	183.91370838164312	
27.0	159.26000710561948	face	0.0		146	21.0	male	east_asian/white	3.501790688420215	neutral	036	sub-03	1.0	6.0	036_neutral	0.0	184.27192033737538	1.2416327107212055
27.0	159.60179101450103	pulse	0.0	t		21.0	male	east_asian/white	3.501790688420215	neutral	036	sub-03	1.0	6.0	036_neutral	0.0	184.61370424625693	
27.0	160.30175790122848	pulse	0.0	t		21.0	male	east_asian/white	3.501790688420215	neutral	036	sub-03	1.0	6.0	036_neutral	0.0	185.31367113298438	
27.0	160.50163981634068	fix	1.0		444	21.0	male	east_asian/white	3.501790688420215	neutral	036	sub-03	1.0	6.0	036_neutral	0.0	185.51355304809658	3.7665641070843776
27.0	161.00174289913502	pulse	1.0	t		21.0	male	east_asian/white	3.501790688420215	neutral	036	sub-03	1.0	6.0	036_neutral	0.0	186.01365613089092	
27.0	161.70172699148316	pulse	1.0	t		21.0	male	east_asian/white	3.501790688420215	neutral	036	sub-03	1.0	6.0	036_neutral	0.0	186.71364022323905	
27.0	162.40170323565326	pulse	1.0	t		21.0	male	east_asian/white	3.501790688420215	neutral	036	sub-03	1.0	6.0	036_neutral	0.0	187.41361646740916	
27.0	163.10169970397328	pulse	1.0	t		21.0	male	east_asian/white	3.501790688420215	neutral	036	sub-03	1.0	6.0	036_neutral	0.0	188.11361293572918	
27.0	163.8016705147893	pulse	1.0	t		21.0	male	east_asian/white	3.501790688420215	neutral	036	sub-03	1.0	6.0	036_neutral	0.0	188.8135837465452	
28.0	164.26820392342506	face	0.0		145	28.0	male	east_asian	1.5563072025467568	smiling	005	sub-03	1.0	6.0	005_smiling	0.0	189.28011715518096	1.2332952294245842
28.0	164.5016588330791	pulse	0.0	t		28.0	male	east_asian	1.5563072025467568	smiling	005	sub-03	1.0	6.0	005_smiling	0.0	189.513572064835	
28.0	165.20162028645245	pulse	0.0	t		28.0	male	east_asian	1.5563072025467568	smiling	005	sub-03	1.0	6.0	005_smiling	0.0	190.21353351820835	
28.0	165.50149915284965	fix	1.0		444	28.0	male	east_asian	1.5563072025467568	smiling	005	sub-03	1.0	6.0	005_smiling	0.0	190.51341238460554	3.7665592774364995
28.0	165.90159773803498	pulse	1.0	t		28.0	male	east_asian	1.5563072025467568	smiling	005	sub-03	1.0	6.0	005_smiling	0.0	190.91351096979088	
28.0	166.6015951119134	pulse	1.0	t		28.0	male	east_asian	1.5563072025467568	smiling	005	sub-03	1.0	6.0	005_smiling	0.0	191.6135083436693	
28.0	167.3015707523782	pulse	1.0	t		28.0	male	east_asian	1.5563072025467568	smiling	005	sub-03	1.0	6.0	005_smiling	0.0	192.3134839841341	
28.0	168.00155122248998	pulse	1.0	t		28.0	male	east_asian	1.5563072025467568	smiling	005	sub-03	1.0	6.0	005_smiling	0.0	193.01346445424588	
28.0	168.70154346486834	pulse	1.0	t		28.0	male	east_asian	1.5563072025467568	smiling	005	sub-03	1.0	6.0	005_smiling	0.0	193.71345669662423	
29.0	169.26805843028615	face	0.0		145	22.0	female	west_asian	3.8205332272184642	smiling	066	sub-03	1.0	6.0	066_smiling	0.0	194.27997166204204	1.2333257165764735
29.0	169.40153208501033	pulse	0.0	t		22.0	female	west_asian	3.8205332272184642	smiling	066	sub-03	1.0	6.0	066_smiling	0.0	194.41344531676623	
29.0	170.10150349953255	pulse	0.0	t		22.0	female	west_asian	3.8205332272184642	smiling	066	sub-03	1.0	6.0	066_smiling	0.0	195.11341673128845	
29.0	170.50138414686262	fix	1.0		444	22.0	female	west_asian	3.8205332272184642	smiling	066	sub-03	1.0	6.0	066_smiling	0.0	195.51329737861852	3.7665369403157456
29.0	170.8014812529682	pulse	1.0	t		22.0	female	west_asian	3.8205332272184642	smiling	066	sub-03	1.0	6.0	066_smiling	0.0	195.81339448472409	
29.0	171.50145689343208	pulse	1.0	t		22.0	female	west_asian	3.8205332272184642	smiling	066	sub-03	1.0	6.0	066_smiling	0.0	196.51337012518798	
29.0	172.2014334394553	pulse	1.0	t		22.0	female	west_asian	3.8205332272184642	smiling	066	sub-03	1.0	6.0	066_smiling	0.0	197.21334667121118	
29.0	172.90141843736183	pulse	1.0	t		22.0	female	west_asian	3.8205332272184642	smiling	066	sub-03	1.0	6.0	066_smiling	0.0	197.91333166911772	
29.0	173.60140947232776	pulse	1.0	t		22.0	female	west_asian	3.8205332272184642	smiling	066	sub-03	1.0	6.0	066_smiling	0.0	198.61332270408366	
30.0	174.26792108717837	face	0.0		145	24.0	female	east_asian	4.409868682849185	neutral	030	sub-03	1.0	6.0	030_neutral	1.0	199.27983431893426	1.2333127368974601
30.0	174.30139688505824	pulse	0.0	t		24.0	female	east_asian	4.409868682849185	neutral	030	sub-03	1.0	6.0	030_neutral	1.0	199.31331011681414	
30.0	175.00135984769713	pulse	0.0	t		24.0	female	east_asian	4.409868682849185	neutral	030	sub-03	1.0	6.0	030_neutral	1.0	200.01327307945303	
30.0	175.50123382407583	fix	1.0		236	24.0	female	east_asian	4.409868682849185	neutral	030	sub-03	1.0	6.0	030_neutral	1.0	200.51314705583172	1.999961362817885
30.0	175.70134514745678	pulse	1.0	t		24.0	female	east_asian	4.409868682849185	neutral	030	sub-03	1.0	6.0	030_neutral	1.0	200.71325837921268	
30.0	176.4013343713059	pulse	1.0	t		24.0	female	east_asian	4.409868682849185	neutral	030	sub-03	1.0	6.0	030_neutral	1.0	201.4132476030618	
30.0	177.10130306915107	pulse	1.0	t		24.0	female	east_asian	4.409868682849185	neutral	030	sub-03	1.0	6.0	030_neutral	1.0	202.11321630090697	
30.0	177.5011951868937	rating	2.0		235	24.0	female	east_asian	4.409868682849185	neutral	030	sub-03	1.0	6.0	030_neutral	1.0	202.5131084186496	1.999945968315842
30.0	177.7962259925007	pulse	2.0	t		24.0	female	east_asian	4.409868682849185	neutral	030	sub-03	1.0	6.0	030_neutral	1.0	202.8081392242566	
30.0	178.3846059807338	response	2.0	y		24.0	female	east_asian	4.409868682849185	neutral	030	sub-03	1.0	6.0	030_neutral	1.0	203.3965192124897	
30.0	178.49611711412854	pulse	2.0	t		24.0	female	east_asian	4.409868682849185	neutral	030	sub-03	1.0	6.0	030_neutral	1.0	203.50803034588444	
30.0	179.20124749801653	pulse	2.0	t		24.0	female	east_asian	4.409868682849185	neutral	030	sub-03	1.0	6.0	030_neutral	1.0	204.21316072977243	
30.0	179.50114115520955	fix	3.0		444	24.0	female	east_asian	4.409868682849185	neutral	030	sub-03	1.0	6.0	030_neutral	1.0	204.51305438696545	3.7581916108420046
30.0	179.901240042248	pulse	3.0	t		24.0	female	east_asian	4.409868682849185	neutral	030	sub-03	1.0	6.0	030_neutral	1.0	204.9131532740039	
30.0	180.6012105512109	pulse	3.0	t		24.0	female	east_asian	4.409868682849185	neutral	030	sub-03	1.0	6.0	030_neutral	1.0	205.6131237829668	
30.0	181.30119524726433	pulse	3.0	t		24.0	female	east_asian	4.409868682849185	neutral	030	sub-03	1.0	6.0	030_neutral	1.0	206.31310847902023	
30.0	182.00117088772913	pulse	3.0	t		24.0	female	east_asian	4.409868682849185	neutral	030	sub-03	1.0	6.0	030_neutral	1.0	207.01308411948503	
30.0	182.7011570930472	pulse	3.0	t		24.0	female	east_asian	4.409868682849185	neutral	030	sub-03	1.0	6.0	030_neutral	1.0	207.71307032480308	
31.0	183.25933276605156	face	0.0		146	20.0	male	black	2.609629924393156	neutral	043	sub-03	1.0	6.0	043_neutral	0.0	208.27124599780745	1.2416565571065803
31.0	183.40114933542554	pulse	0.0	t		20.0	male	black	2.609629924393156	neutral	043	sub-03	1.0	6.0	043_neutral	0.0	208.41306256718144	
31.0	184.1011101850936	pulse	0.0	t		20.0	male	black	2.609629924393156	neutral	043	sub-03	1.0	6.0	043_neutral	0.0	209.1130234168495	
31.0	184.50098932315814	fix	1.0		444	20.0	male	black	2.609629924393156	neutral	043	sub-03	1.0	6.0	043_neutral	0.0	209.51290255491404	3.7583165779778938
31.0	184.8010985033834	pulse	1.0	t		20.0	male	black	2.609629924393156	neutral	043	sub-03	1.0	6.0	043_neutral	0.0	209.8130117351393	
31.0	185.5010750494057	pulse	1.0	t		20.0	male	black	2.609629924393156	neutral	043	sub-03	1.0	6.0	043_neutral	0.0	210.5129882811616	
31.0	186.20105521766527	pulse	1.0	t		20.0	male	black	2.609629924393156	neutral	043	sub-03	1.0	6.0	043_neutral	0.0	211.21296844942117	
31.0	186.90104081927802	pulse	1.0	t		20.0	male	black	2.609629924393156	neutral	043	sub-03	1.0	6.0	043_neutral	0.0	211.91295405103392	
31.0	187.60102460977214	pulse	1.0	t		20.0	male	black	2.609629924393156	neutral	043	sub-03	1.0	6.0	043_neutral	0.0	212.61293784152804	
32.0	188.25930590113603	face	0.0		146	22.0	male	black	2.767608436132113	smiling	044	sub-03	1.0	6.0	044_smiling	0.0	213.27121913289193	1.2415481918851583
32.0	188.30101624844428	pulse	0.0	t		22.0	male	black	2.767608436132113	smiling	044	sub-03	1.0	6.0	044_smiling	0.0	213.31292948020018	
32.0	189.00099641670386	pulse	0.0	t		22.0	male	black	2.767608436132113	smiling	044	sub-03	1.0	6.0	044_smiling	0.0	214.01290964845975	
32.0	189.5008540930212	fix	1.0		443	22.0	male	black	2.767608436132113	smiling	044	sub-03	1.0	6.0	044_smiling	0.0	214.5127673247771	3.7582655648229775
32.0	189.7009762831094	pulse	1.0	t		22.0	male	black	2.767608436132113	smiling	044	sub-03	1.0	6.0	044_smiling	0.0	214.7128895148653	
32.0	190.40094407539618	pulse	1.0	t		22.0	male	black	2.767608436132113	smiling	044	sub-03	1.0	6.0	044_smiling	0.0	215.41285730715208	
32.0	191.1009218288309	pulse	1.0	t		22.0	male	black	2.767608436132113	smiling	044	sub-03	1.0	6.0	044_smiling	0.0	216.1128350605868	
32.0	191.80090863785517	pulse	1.0	t		22.0	male	black	2.767608436132113	smiling	044	sub-03	1.0	6.0	044_smiling	0.0	216.81282186961107	
32.0	192.50089061723247	pulse	1.0	t		22.0	male	black	2.767608436132113	smiling	044	sub-03	1.0	6.0	044_smiling	0.0	217.51280384898837	
32.0	193.20086957807962	pulse	1.0	t		22.0	male	black	2.767608436132113	smiling	044	sub-03	1.0	6.0	044_smiling	0.0	218.21278280983552	
33.0	193.25911965784417	face	0.0		147	27.0	male	black	3.5523278949462798	neutral	042	sub-03	1.0	6.0	042_neutral	0.0	218.27103288960006	1.2416133921296932
33.0	193.9008636315757	pulse	0.0	t		27.0	male	black	3.5523278949462798	neutral	042	sub-03	1.0	6.0	042_neutral	0.0	218.9127768633316	
33.0	194.50073304997386	fix	1.0		443	27.0	male	black	3.5523278949462798	neutral	042	sub-03	1.0	6.0	042_neutral	0.0	219.51264628172976	3.766549618141653
33.0	194.600845309099	pulse	1.0	t		27.0	male	black	3.5523278949462798	neutral	042	sub-03	1.0	6.0	042_neutral	0.0	219.61275854085488	
33.0	195.30082336438772	pulse	1.0	t		27.0	male	black	3.5523278949462798	neutral	042	sub-03	1.0	6.0	042_neutral	0.0	220.31273659614362	
33.0	196.00079115667359	pulse	1.0	t		27.0	male	black	3.5523278949462798	neutral	042	sub-03	1.0	6.0	042_neutral	0.0	221.01270438842948	
33.0	196.70079456761232	pulse	1.0	t		27.0	male	black	3.5523278949462798	neutral	042	sub-03	1.0	6.0	042_neutral	0.0	221.71270779936822	
33.0	197.400749380221	pulse	1.0	t		27.0	male	black	3.5523278949462798	neutral	042	sub-03	1.0	6.0	042_neutral	0.0	222.41266261197688	
33.0	198.10074916892336	pulse	1.0	t		27.0	male	black	3.5523278949462798	neutral	042	sub-03	1.0	6.0	042_neutral	0.0	223.11266240067926	
34.0	198.2672826681155	face	0.0		146	20.0	male	black	3.1070433744528456	neutral	082	sub-03	1.0	6.0	082_neutral	0.0	223.2791958998714	1.2333015683370832
34.0	198.80072994088823	pulse	0.0	t		20.0	male	black	3.1070433744528456	neutral	082	sub-03	1.0	6.0	082_neutral	0.0	223.81264317264413	
34.0	199.5005842364526	fix	1.0		444	20.0	male	black	3.1070433744528456	neutral	082	sub-03	1.0	6.0	082_neutral	0.0	224.5124974682085	3.7665450903459714
34.0	199.50823017256062	pulse	1.0	t		20.0	male	black	3.1070433744528456	neutral	082	sub-03	1.0	6.0	082_neutral	0.0	224.5201434043165	
34.0	200.20068122181692	pulse	1.0	t		20.0	male	black	3.1070433744528456	neutral	082	sub-03	1.0	6.0	082_neutral	0.0	225.21259445357282	
34.0	200.90065203263293	pulse	1.0	t		20.0	male	black	3.1070433744528456	neutral	082	sub-03	1.0	6.0	082_neutral	0.0	225.91256526438883	
34.0	201.6006457842759	pulse	1.0	t		20.0	male	black	3.1070433744528456	neutral	082	sub-03	1.0	6.0	082_neutral	0.0	226.6125590160318	
34.0	202.30062353771154	pulse	1.0	t		20.0	male	black	3.1070433744528456	neutral	082	sub-03	1.0	6.0	082_neutral	0.0	227.31253676946744	
34.0	203.00060642264725	pulse	1.0	t		20.0	male	black	3.1070433744528456	neutral	082	sub-03	1.0	6.0	082_neutral	0.0	228.01251965440315	
35.0	203.26712932679857	face	0.0		145	19.0	female	white	4.298846000795861	smiling	100	sub-03	1.0	6.0	100_smiling	0.0	228.27904255855447	1.2333172646931416
35.0	203.7005862890528	pulse	0.0	t		19.0	female	white	4.298846000795861	smiling	100	sub-03	1.0	6.0	100_smiling	0.0	228.7124995208087	
35.0	204.4005749091957	pulse	0.0	t		19.0	female	white	4.298846000795861	smiling	100	sub-03	1.0	6.0	100_smiling	0.0	229.4124881409516	
35.0	204.5004465914917	fix	1.0		444	19.0	female	white	4.298846000795861	smiling	100	sub-03	1.0	6.0	100_smiling	0.0	229.5123598232476	3.7665499199938495
35.0	205.10055236077733	pulse	1.0	t		19.0	female	white	4.298846000795861	smiling	100	sub-03	1.0	6.0	100_smiling	0.0	230.11246559253323	
35.0	205.80053041606516	pulse	1.0	t		19.0	female	white	4.298846000795861	smiling	100	sub-03	1.0	6.0	100_smiling	0.0	230.81244364782106	
35.0	206.500508471353	pulse	1.0	t		19.0	female	white	4.298846000795861	smiling	100	sub-03	1.0	6.0	100_smiling	0.0	231.51242170310888	
35.0	207.2004970914959	pulse	1.0	t		19.0	female	white	4.298846000795861	smiling	100	sub-03	1.0	6.0	100_smiling	0.0	232.2124103232518	
35.0	207.90044556519115	pulse	1.0	t		19.0	female	white	4.298846000795861	smiling	100	sub-03	1.0	6.0	100_smiling	0.0	232.91235879694705	
36.0	208.26699651148556	face	0.0		145	40.0	female	west_asian	1.5777954635893354	smiling	038	sub-03	1.0	6.0	038_smiling	1.0	233.27890974324146	1.2333293388119273
36.0	208.60045290021844	pulse	0.0	t		40.0	female	west_asian	1.5777954635893354	smiling	038	sub-03	1.0	6.0	038_smiling	1.0	233.61236613197434	
36.0	209.3004451425968	pulse	0.0	t		40.0	female	west_asian	1.5777954635893354	smiling	038	sub-03	1.0	6.0	038_smiling	1.0	234.3123583743527	
36.0	209.5003258502975	fix	1.0		236	40.0	female	west_asian	1.5777954635893354	smiling	038	sub-03	1.0	6.0	038_smiling	1.0	234.51223908205338	1.999948383139781
36.0	210.0004265182679	pulse	1.0	t		40.0	female	west_asian	1.5777954635893354	smiling	038	sub-03	1.0	6.0	038_smiling	1.0	235.01233975002378	
36.0	210.70039853649632	pulse	1.0	t		40.0	female	west_asian	1.5777954635893354	smiling	038	sub-03	1.0	6.0	038_smiling	1.0	235.71231176825222	
36.0	211.40036542322377	pulse	1.0	t		40.0	female	west_asian	1.5777954635893354	smiling	038	sub-03	1.0	6.0	038_smiling	1.0	236.41227865497967	
36.0	211.50027423343727	rating	2.0		236	40.0	female	west_asian	1.5777954635893354	smiling	038	sub-03	1.0	6.0	038_smiling	1.0	236.51218746519316	1.9999429497856909
36.0	212.09532456893157	pulse	2.0	t		40.0	female	west_asian	1.5777954635893354	smiling	038	sub-03	1.0	6.0	038_smiling	1.0	237.10723780068747	
36.0	212.64510691783653	response	2.0	e		40.0	female	west_asian	1.5777954635893354	smiling	038	sub-03	1.0	6.0	038_smiling	1.0	237.65702014959243	
36.0	212.7951015901317	pulse	2.0	t		40.0	female	west_asian	1.5777954635893354	smiling	038	sub-03	1.0	6.0	038_smiling	1.0	237.8070148218876	
36.0	213.50021718322296	fix	3.0		444	40.0	female	west_asian	1.5777954635893354	smiling	038	sub-03	1.0	6.0	038_smiling	1.0	238.51213041497886	3.7665487125823347
36.0	213.50777980790735	pulse	3.0	t		40.0	female	west_asian	1.5777954635893354	smiling	038	sub-03	1.0	6.0	038_smiling	1.0	238.51969303966325	
36.0	214.2003102444978	pulse	3.0	t		40.0	female	west_asian	1.5777954635893354	smiling	038	sub-03	1.0	6.0	038_smiling	1.0	239.2122234762537	
36.0	214.90027471640224	pulse	3.0	t		40.0	female	west_asian	1.5777954635893354	smiling	038	sub-03	1.0	6.0	038_smiling	1.0	239.91218794815813	
36.0	215.60025669577863	pulse	3.0	t		40.0	female	west_asian	1.5777954635893354	smiling	038	sub-03	1.0	6.0	038_smiling	1.0	240.61216992753452	
36.0	216.30025859745274	pulse	3.0	t		40.0	female	west_asian	1.5777954635893354	smiling	038	sub-03	1.0	6.0	038_smiling	1.0	241.31217182920864	
36.0	217.00023423791663	pulse	3.0	t		40.0	female	west_asian	1.5777954635893354	smiling	038	sub-03	1.0	6.0	038_smiling	1.0	242.01214746967253	
37.0	217.2667658958053	face	0.0		145	21.0	male	black	2.969757262236371	neutral	137	sub-03	1.0	6.0	137_neutral	0.0	242.2786791275612	1.2332955312776903
37.0	217.70020444502734	pulse	0.0	t		21.0	male	black	2.969757262236371	neutral	137	sub-03	1.0	6.0	137_neutral	0.0	242.71211767678324	
37.0	218.40020755411297	pulse	0.0	t		21.0	male	black	2.969757262236371	neutral	137	sub-03	1.0	6.0	137_neutral	0.0	243.41212078586886	
37.0	218.50006142708298	fix	1.0		444	21.0	male	black	2.969757262236371	neutral	137	sub-03	1.0	6.0	137_neutral	0.0	243.51197465883888	3.766552938523091
37.0	219.1001798741936	pulse	1.0	t		21.0	male	black	2.969757262236371	neutral	137	sub-03	1.0	6.0	137_neutral	0.0	244.1120931059495	
37.0	219.80014796833348	pulse	1.0	t		21.0	male	black	2.969757262236371	neutral	137	sub-03	1.0	6.0	137_neutral	0.0	244.81206120008937	
37.0	220.50012783473903	pulse	1.0	t		21.0	male	black	2.969757262236371	neutral	137	sub-03	1.0	6.0	137_neutral	0.0	245.51204106649493	
37.0	221.20012400120686	pulse	1.0	t		21.0	male	black	2.969757262236371	neutral	137	sub-03	1.0	6.0	137_neutral	0.0	246.21203723296276	
37.0	221.9000833416094	pulse	1.0	t		21.0	male	black	2.969757262236371	neutral	137	sub-03	1.0	6.0	137_neutral	0.0	246.9119965733653	
38.0	222.26661436560607	face	0.0		145	26.0	female	white	4.854755272582572	neutral	027	sub-03	1.0	6.0	027_neutral	0.0	247.27852759736197	1.2333190758108685
38.0	222.60006864136903	pulse	0.0	t		26.0	female	white	4.854755272582572	neutral	027	sub-03	1.0	6.0	027_neutral	0.0	247.61198187312493	
38.0	223.30005152630474	pulse	0.0	t		26.0	female	white	4.854755272582572	neutral	027	sub-03	1.0	6.0	027_neutral	0.0	248.31196475806064	
38.0	223.49993344141694	fix	1.0		444	26.0	female	white	4.854755272582572	neutral	027	sub-03	1.0	6.0	027_neutral	0.0	248.51184667317284	3.7582314554356344
38.0	224.00003441124045	pulse	1.0	t		26.0	female	white	4.854755272582572	neutral	027	sub-03	1.0	6.0	027_neutral	0.0	249.01194764299635	
38.0	224.70002303138335	pulse	1.0	t		26.0	female	white	4.854755272582572	neutral	027	sub-03	1.0	6.0	027_neutral	0.0	249.71193626313925	
38.0	225.40000742558368	pulse	1.0	t		26.0	female	white	4.854755272582572	neutral	027	sub-03	1.0	6.0	027_neutral	0.0	250.41192065733958	
38.0	226.09998095307674	pulse	1.0	t		26.0	female	white	4.854755272582572	neutral	027	sub-03	1.0	6.0	027_neutral	0.0	251.11189418483264	
38.0	226.799955084276	pulse	1.0	t		26.0	female	white	4.854755272582572	neutral	027	sub-03	1.0	6.0	027_neutral	0.0	251.8118683160319	
39.0	227.25816489685258	face	0.0		146	19.0	female	white	4.298846000795861	neutral	100	sub-03	1.0	6.0	100_neutral	0.0	252.27007812860847	1.2416312014565847
39.0	227.4999434025658	pulse	0.0	t		19.0	female	white	4.298846000795861	neutral	100	sub-03	1.0	6.0	100_neutral	0.0	252.5118566343217	
39.0	228.19991813747038	pulse	0.0	t		19.0	female	white	4.298846000795861	neutral	100	sub-03	1.0	6.0	100_neutral	0.0	253.21183136922627	
39.0	228.49979609830916	fix	1.0		444	19.0	female	white	4.298846000795861	neutral	100	sub-03	1.0	6.0	100_neutral	0.0	253.51170933006506	3.749900614904618
39.0	228.89990011684768	pulse	1.0	t		19.0	female	white	4.298846000795861	neutral	100	sub-03	1.0	6.0	100_neutral	0.0	253.91181334860357	
39.0	229.59988903884278	pulse	1.0	t		19.0	female	white	4.298846000795861	neutral	100	sub-03	1.0	6.0	100_neutral	0.0	254.61180227059867	
39.0	230.2998791682503	pulse	1.0	t		19.0	female	white	4.298846000795861	neutral	100	sub-03	1.0	6.0	100_neutral	0.0	255.3117924000062	
39.0	230.99983881050593	pulse	1.0	t		19.0	female	white	4.298846000795861	neutral	100	sub-03	1.0	6.0	100_neutral	0.0	256.01175204226183	
39.0	231.699812639853	pulse	1.0	t		19.0	female	white	4.298846000795861	neutral	100	sub-03	1.0	6.0	100_neutral	0.0	256.7117258716089	
40.0	232.24969671321378	fix	0.0		720												257.2616099449697	5.999834282711163
40.0	232.39980850446682	pulse	0.0	t													257.4117217362227	
40.0	233.09978686160775	pulse	0.0	t													258.11170009336365	
40.0	233.79975737057066	pulse	0.0	t													258.81167060232656	
40.0	234.49975715927394	pulse	0.0	t													259.51167039102984	
40.0	235.19974064791586	pulse	0.0	t													260.21165387967176	
40.0	235.89971568467354	pulse	0.0	t													260.91162891642944	
40.0	236.5997018899925	pulse	0.0	t													261.6116151217484	
40.0	237.29967451192624	pulse	0.0	t													262.31158774368214	
40.0	237.9996546801858	pulse	0.0	t													263.0115679119417	
