trial_nr	onset	event_type	phase	response	nr_frames	face_age	face_sex	face_eth	attractiveness	expression	face_id	sub_id	ses	run	trial_type	catch	rating_type	onset_abs	duration
-1.0	0.05633112795476336	fix	0.0		714													22.727513280216954	5.964144768426195
-1.0	0.7040245446260087	pulse	0.0	t														23.3752066968882	
-1.0	1.4039746174094034	pulse	0.0	t														24.075156769671594	
-1.0	2.103993815544527	pulse	0.0	t														24.775175967806717	
-1.0	2.803970753622707	pulse	0.0	t														25.475152905884897	
-1.0	3.503966105025029	pulse	0.0	t														26.17514825728722	
-1.0	4.203955721124657	pulse	0.0	t														26.875137873386848	
-1.0	4.903946544669452	pulse	0.0	t														27.575128696931642	
-1.0	5.603942801622907	pulse	0.0	t														28.275124953885097	
0.0	6.020475896380958	face	0.0		144	22.0	female	white	4.614007162753682	smiling	009	sub-17	2.0	6.0	009_smiling	0.0		28.69165804864315	1.2333346011291724
0.0	6.303925776868709	pulse	0.0	t		22.0	female	white	4.614007162753682	smiling	009	sub-17	2.0	6.0	009_smiling	0.0		28.9751079291309	
0.0	7.003920826406102	pulse	0.0	t		22.0	female	white	4.614007162753682	smiling	009	sub-17	2.0	6.0	009_smiling	0.0		29.675102978668292	
0.0	7.2538104975101305	fix	1.0		444	22.0	female	white	4.614007162753682	smiling	009	sub-17	2.0	6.0	009_smiling	0.0		29.92499264977232	3.758288250915939
0.0	7.703999188597663	pulse	1.0	t		22.0	female	white	4.614007162753682	smiling	009	sub-17	2.0	6.0	009_smiling	0.0		30.375181340859854	
0.0	8.403910623630509	pulse	1.0	t		22.0	female	white	4.614007162753682	smiling	009	sub-17	2.0	6.0	009_smiling	0.0		31.0750927758927	
0.0	9.103897221153602	pulse	1.0	t		22.0	female	white	4.614007162753682	smiling	009	sub-17	2.0	6.0	009_smiling	0.0		31.775079373415792	
0.0	9.803892270690994	pulse	1.0	t		22.0	female	white	4.614007162753682	smiling	009	sub-17	2.0	6.0	009_smiling	0.0		32.475074422953185	
0.0	10.503898187103914	pulse	1.0	t		22.0	female	white	4.614007162753682	smiling	009	sub-17	2.0	6.0	009_smiling	0.0		33.175080339366104	
1.0	11.01209874842607	face	0.0		146	20.0	female	white	3.9502586549940313	neutral	091	sub-17	2.0	6.0	091_neutral	0.0		33.68328090068826	1.241645340443938
1.0	11.203876634477638	pulse	0.0	t		20.0	female	white	3.9502586549940313	neutral	091	sub-17	2.0	6.0	091_neutral	0.0		33.87505878673983	
1.0	11.90388013602933	pulse	0.0	t		20.0	female	white	3.9502586549940313	neutral	091	sub-17	2.0	6.0	091_neutral	0.0		34.57506228829152	
1.0	12.253744088870008	fix	1.0		444	20.0	female	white	3.9502586549940313	neutral	091	sub-17	2.0	6.0	091_neutral	0.0		34.9249262411322	3.7582761766243493
1.0	12.603861601979588	pulse	1.0	t		20.0	female	white	3.9502586549940313	neutral	091	sub-17	2.0	6.0	091_neutral	0.0		35.27504375424178	
1.0	13.303846086506383	pulse	1.0	t		20.0	female	white	3.9502586549940313	neutral	091	sub-17	2.0	6.0	091_neutral	0.0		35.97502823876857	
1.0	14.003861964200041	pulse	1.0	t		20.0	female	white	3.9502586549940313	neutral	091	sub-17	2.0	6.0	091_neutral	0.0		36.67504411646223	
1.0	14.70384765615745	pulse	1.0	t		20.0	female	white	3.9502586549940313	neutral	091	sub-17	2.0	6.0	091_neutral	0.0		37.37502980841964	
1.0	15.403825197965489	pulse	1.0	t		20.0	female	white	3.9502586549940313	neutral	091	sub-17	2.0	6.0	091_neutral	0.0		38.07500735022768	
2.0	16.012020265494357	face	0.0		146	20.0	female	white	3.9502586549940313	smiling	091	sub-17	2.0	6.0	091_smiling	0.0		38.68320241775655	1.2416652630345197
2.0	16.103839566378156	pulse	0.0	t		20.0	female	white	3.9502586549940313	smiling	091	sub-17	2.0	6.0	091_smiling	0.0		38.775021718640346	
2.0	16.80380171345314	pulse	0.0	t		20.0	female	white	3.9502586549940313	smiling	091	sub-17	2.0	6.0	091_smiling	0.0		39.47498386571533	
2.0	17.253685528528877	fix	1.0		444	20.0	female	white	3.9502586549940313	smiling	091	sub-17	2.0	6.0	091_smiling	0.0		39.92486768079107	3.758292778788018
2.0	17.50380974286236	pulse	1.0	t		20.0	female	white	3.9502586549940313	smiling	091	sub-17	2.0	6.0	091_smiling	0.0		40.17499189512455	
2.0	18.20377702152473	pulse	1.0	t		20.0	female	white	3.9502586549940313	smiling	091	sub-17	2.0	6.0	091_smiling	0.0		40.87495917378692	
2.0	18.9038046716596	pulse	1.0	t		20.0	female	white	3.9502586549940313	smiling	091	sub-17	2.0	6.0	091_smiling	0.0		41.57498682392179	
2.0	19.603779194891104	pulse	1.0	t		20.0	female	white	3.9502586549940313	smiling	091	sub-17	2.0	6.0	091_smiling	0.0		42.274961347153294	
2.0	20.303770320286276	pulse	1.0	t		20.0	female	white	3.9502586549940313	smiling	091	sub-17	2.0	6.0	091_smiling	0.0		42.974952472548466	
3.0	21.011978307316895	face	0.0		147	24.0	female	east_asian	2.9076800636689217	smiling	034	sub-17	2.0	6.0	034_smiling	0.0		43.683160459579085	1.2416353791340953
3.0	21.004668829162256	pulse	0.0	t		24.0	female	east_asian	2.9076800636689217	smiling	034	sub-17	2.0	6.0	034_smiling	0.0		43.675850981424446	
3.0	21.70377249365265	pulse	0.0	t		24.0	female	east_asian	2.9076800636689217	smiling	034	sub-17	2.0	6.0	034_smiling	0.0		44.37495464591484	
3.0	22.25361368645099	fix	1.0		443	24.0	female	east_asian	2.9076800636689217	smiling	034	sub-17	2.0	6.0	034_smiling	0.0		44.92479583871318	3.75829428806901
3.0	22.40374973361031	pulse	1.0	t		24.0	female	east_asian	2.9076800636689217	smiling	034	sub-17	2.0	6.0	034_smiling	0.0		45.0749318858725	
3.0	23.103736632998334	pulse	1.0	t		24.0	female	east_asian	2.9076800636689217	smiling	034	sub-17	2.0	6.0	034_smiling	0.0		45.774918785260525	
3.0	23.8037292676745	pulse	1.0	t		24.0	female	east_asian	2.9076800636689217	smiling	034	sub-17	2.0	6.0	034_smiling	0.0		46.47491141993669	
3.0	24.50372673207312	pulse	1.0	t		24.0	female	east_asian	2.9076800636689217	smiling	034	sub-17	2.0	6.0	034_smiling	0.0		47.17490888433531	
3.0	25.203714838877204	pulse	1.0	t		24.0	female	east_asian	2.9076800636689217	smiling	034	sub-17	2.0	6.0	034_smiling	0.0		47.874896991139394	
3.0	25.903706869852613	pulse	1.0	t		24.0	female	east_asian	2.9076800636689217	smiling	034	sub-17	2.0	6.0	034_smiling	0.0		48.5748890221148	
4.0	26.01190797452	face	0.0		147	28.0	male	east_asian	1.5563072025467568	smiling	005	sub-17	2.0	6.0	005_smiling	1.0	trustworthiness	48.68309012678219	1.2416613388922997
4.0	26.603697693382856	pulse	0.0	t		28.0	male	east_asian	1.5563072025467568	smiling	005	sub-17	2.0	6.0	005_smiling	1.0	trustworthiness	49.274879845645046	
4.0	27.2535693134123	fix	1.0		176	28.0	male	east_asian	1.5563072025467568	smiling	005	sub-17	2.0	6.0	005_smiling	1.0	trustworthiness	49.92475146567449	1.5083560179191409
4.0	27.303690931774327	pulse	1.0	t		28.0	male	east_asian	1.5563072025467568	smiling	005	sub-17	2.0	6.0	005_smiling	1.0	trustworthiness	49.97487308403652	
4.0	28.003684773881105	pulse	1.0	t		28.0	male	east_asian	1.5563072025467568	smiling	005	sub-17	2.0	6.0	005_smiling	1.0	trustworthiness	50.674866926143295	
4.0	28.703682540130103	pulse	1.0	t		28.0	male	east_asian	1.5563072025467568	smiling	005	sub-17	2.0	6.0	005_smiling	1.0	trustworthiness	51.37486469239229	
4.0	28.76192533133144	rating	2.0		294	28.0	male	east_asian	1.5563072025467568	smiling	005	sub-17	2.0	6.0	005_smiling	1.0	trustworthiness	51.43310748359363	2.491595383020467
4.0	29.403666420956142	pulse	2.0	t		28.0	male	east_asian	1.5563072025467568	smiling	005	sub-17	2.0	6.0	005_smiling	1.0	trustworthiness	52.07484857321833	
4.0	30.01199490946601	response	2.0	d		28.0	male	east_asian	1.5563072025467568	smiling	005	sub-17	2.0	6.0	005_smiling	1.0	trustworthiness	52.6831770617282	
4.0	30.103639133041725	pulse	2.0	t		28.0	male	east_asian	1.5563072025467568	smiling	005	sub-17	2.0	6.0	005_smiling	1.0	trustworthiness	52.774821285303915	
4.0	30.803645049440092	pulse	2.0	t		28.0	male	east_asian	1.5563072025467568	smiling	005	sub-17	2.0	6.0	005_smiling	1.0	trustworthiness	53.47482720170228	
4.0	31.253520714351907	fix	3.0		444	28.0	male	east_asian	1.5563072025467568	smiling	005	sub-17	2.0	6.0	005_smiling	1.0	trustworthiness	53.9247028666141	3.7666134793835226
4.0	31.503643419404398	pulse	3.0	t		28.0	male	east_asian	1.5563072025467568	smiling	005	sub-17	2.0	6.0	005_smiling	1.0	trustworthiness	54.17482557166659	
4.0	32.203633639233885	pulse	3.0	t		28.0	male	east_asian	1.5563072025467568	smiling	005	sub-17	2.0	6.0	005_smiling	1.0	trustworthiness	54.874815791496076	
4.0	32.90365012064285	pulse	3.0	t		28.0	male	east_asian	1.5563072025467568	smiling	005	sub-17	2.0	6.0	005_smiling	1.0	trustworthiness	55.57483227290504	
4.0	33.603616493724985	pulse	3.0	t		28.0	male	east_asian	1.5563072025467568	smiling	005	sub-17	2.0	6.0	005_smiling	1.0	trustworthiness	56.274798645987175	
4.0	34.30360701540485	pulse	3.0	t		28.0	male	east_asian	1.5563072025467568	smiling	005	sub-17	2.0	6.0	005_smiling	1.0	trustworthiness	56.97478916766704	
5.0	35.02013419373543	face	0.0		146	26.0	male	white	2.7966573816155993	neutral	117	sub-17	2.0	6.0	117_neutral	0.0		57.69131634599762	1.233336110424716
5.0	35.0065500047931	pulse	0.0	t		26.0	male	white	2.7966573816155993	neutral	117	sub-17	2.0	6.0	117_neutral	0.0		57.67773215705529	
5.0	35.70358745503472	pulse	0.0	t		26.0	male	white	2.7966573816155993	neutral	117	sub-17	2.0	6.0	117_neutral	0.0		58.37476960729691	
5.0	36.253470304160146	fix	1.0		443	26.0	male	white	2.7966573816155993	neutral	117	sub-17	2.0	6.0	117_neutral	0.0		58.924652456422336	3.7666089515259955
5.0	36.40359005102073	pulse	1.0	t		26.0	male	white	2.7966573816155993	neutral	117	sub-17	2.0	6.0	117_neutral	0.0		59.07477220328292	
5.0	37.10356517796754	pulse	1.0	t		26.0	male	white	2.7966573816155993	neutral	117	sub-17	2.0	6.0	117_neutral	0.0		59.77474733022973	
5.0	37.803567472074064	pulse	1.0	t		26.0	male	white	2.7966573816155993	neutral	117	sub-17	2.0	6.0	117_neutral	0.0		60.474749624336255	
5.0	38.503552862181095	pulse	1.0	t		26.0	male	white	2.7966573816155993	neutral	117	sub-17	2.0	6.0	117_neutral	0.0		61.174735014443286	
5.0	39.2035596841597	pulse	1.0	t		26.0	male	white	2.7966573816155993	neutral	117	sub-17	2.0	6.0	117_neutral	0.0		61.87474183642189	
5.0	39.903571939561516	pulse	1.0	t		26.0	male	white	2.7966573816155993	neutral	117	sub-17	2.0	6.0	117_neutral	0.0		62.574754091823706	
6.0	40.02007925568614	face	0.0		146	19.0	female	white	4.298846000795861	neutral	100	sub-17	2.0	6.0	100_neutral	1.0	attractiveness	62.69126140794833	1.2333297714212677
6.0	40.60353589778242	pulse	0.0	t		19.0	female	white	4.298846000795861	neutral	100	sub-17	2.0	6.0	100_neutral	1.0	attractiveness	63.27471805004461	
6.0	41.25340902710741	fix	1.0		176	19.0	female	white	4.298846000795861	neutral	100	sub-17	2.0	6.0	100_neutral	1.0	attractiveness	63.9245911793696	1.4999885294091655
6.0	41.3035255138966	pulse	1.0	t		19.0	female	white	4.298846000795861	neutral	100	sub-17	2.0	6.0	100_neutral	1.0	attractiveness	63.97470766615879	
6.0	42.003520563433995	pulse	1.0	t		19.0	female	white	4.298846000795861	neutral	100	sub-17	2.0	6.0	100_neutral	1.0	attractiveness	64.67470271569618	
6.0	42.703583229042124	pulse	1.0	t		19.0	female	white	4.298846000795861	neutral	100	sub-17	2.0	6.0	100_neutral	1.0	attractiveness	65.37476538130431	
6.0	42.753397556516575	rating	2.0		295	19.0	female	white	4.298846000795861	neutral	100	sub-17	2.0	6.0	100_neutral	1.0	attractiveness	65.42457970877877	2.4999538158153882
6.0	43.4035124736547	pulse	2.0	t		19.0	female	white	4.298846000795861	neutral	100	sub-17	2.0	6.0	100_neutral	1.0	attractiveness	66.07469462591689	
6.0	44.10349393960496	pulse	2.0	t		19.0	female	white	4.298846000795861	neutral	100	sub-17	2.0	6.0	100_neutral	1.0	attractiveness	66.77467609186715	
6.0	44.54007157642627	response	2.0	g		19.0	female	white	4.298846000795861	neutral	100	sub-17	2.0	6.0	100_neutral	1.0	attractiveness	67.21125372868846	
6.0	44.80347751855152	pulse	2.0	t		19.0	female	white	4.298846000795861	neutral	100	sub-17	2.0	6.0	100_neutral	1.0	attractiveness	67.47465967081371	
6.0	45.25335137233196	fix	3.0		444	19.0	female	white	4.298846000795861	neutral	100	sub-17	2.0	6.0	100_neutral	1.0	attractiveness	67.92453352459415	3.766646683696308
6.0	45.5034804163879	pulse	3.0	t		19.0	female	white	4.298846000795861	neutral	100	sub-17	2.0	6.0	100_neutral	1.0	attractiveness	68.17466256865009	
6.0	46.20347908821714	pulse	3.0	t		19.0	female	white	4.298846000795861	neutral	100	sub-17	2.0	6.0	100_neutral	1.0	attractiveness	68.87466124047933	
6.0	46.90346145974763	pulse	3.0	t		19.0	female	white	4.298846000795861	neutral	100	sub-17	2.0	6.0	100_neutral	1.0	attractiveness	69.57464361200982	
6.0	47.603454094423796	pulse	3.0	t		19.0	female	white	4.298846000795861	neutral	100	sub-17	2.0	6.0	100_neutral	1.0	attractiveness	70.27463624668599	
6.0	48.303443408658495	pulse	3.0	t		19.0	female	white	4.298846000795861	neutral	100	sub-17	2.0	6.0	100_neutral	1.0	attractiveness	70.97462556092069	
7.0	49.01999805602827	face	0.0		146	31.0	male	west_asian	1.9538400318344609	neutral	070	sub-17	2.0	6.0	070_neutral	0.0		71.69118020829046	1.2333225268375827
7.0	49.00646186241647	pulse	0.0	t		31.0	male	west_asian	1.9538400318344609	neutral	070	sub-17	2.0	6.0	070_neutral	0.0		71.67764401467866	
7.0	49.7034416578972	pulse	0.0	t		31.0	male	west_asian	1.9538400318344609	neutral	070	sub-17	2.0	6.0	070_neutral	0.0		72.37462381015939	
7.0	50.253320582865854	fix	1.0		443	31.0	male	west_asian	1.9538400318344609	neutral	070	sub-17	2.0	6.0	070_neutral	0.0		72.92450273512804	3.7665959716541693
7.0	50.40342463312845	pulse	1.0	t		31.0	male	west_asian	1.9538400318344609	neutral	070	sub-17	2.0	6.0	070_neutral	0.0		73.07460678539064	
7.0	51.103417569669546	pulse	1.0	t		31.0	male	west_asian	1.9538400318344609	neutral	070	sub-17	2.0	6.0	070_neutral	0.0		73.77459972193174	
7.0	51.80340839319979	pulse	1.0	t		31.0	male	west_asian	1.9538400318344609	neutral	070	sub-17	2.0	6.0	070_neutral	0.0		74.47459054546198	
7.0	52.503394688872504	pulse	1.0	t		31.0	male	west_asian	1.9538400318344609	neutral	070	sub-17	2.0	6.0	070_neutral	0.0		75.1745768411347	
7.0	53.20340120900073	pulse	1.0	t		31.0	male	west_asian	1.9538400318344609	neutral	070	sub-17	2.0	6.0	070_neutral	0.0		75.87458336126292	
7.0	53.90338176937075	pulse	1.0	t		31.0	male	west_asian	1.9538400318344609	neutral	070	sub-17	2.0	6.0	070_neutral	0.0		76.57456392163294	
8.0	54.01991655452002	face	0.0		146	37.0	male	white	3.898925586947871	neutral	101	sub-17	2.0	6.0	101_neutral	1.0	dominance	76.69109870678221	1.233338827136322
8.0	54.60338195049553	pulse	0.0	t		37.0	male	white	3.898925586947871	neutral	101	sub-17	2.0	6.0	101_neutral	1.0	dominance	77.27456410275772	
8.0	55.253255381656345	fix	1.0		176	37.0	male	white	3.898925586947871	neutral	101	sub-17	2.0	6.0	101_neutral	1.0	dominance	77.92443753391854	1.4999818885553395
8.0	55.30338364088675	pulse	1.0	t		37.0	male	white	3.898925586947871	neutral	101	sub-17	2.0	6.0	101_neutral	1.0	dominance	77.97456579314894	
8.0	56.003361786410096	pulse	1.0	t		37.0	male	white	3.898925586947871	neutral	101	sub-17	2.0	6.0	101_neutral	1.0	dominance	78.67454393867229	
8.0	56.70335049694404	pulse	1.0	t		37.0	male	white	3.898925586947871	neutral	101	sub-17	2.0	6.0	101_neutral	1.0	dominance	79.37453264920623	
8.0	56.753237270211685	rating	2.0		295	37.0	male	white	3.898925586947871	neutral	101	sub-17	2.0	6.0	101_neutral	1.0	dominance	79.42441942247387	2.4999773606978124
8.0	57.403344942766125	pulse	2.0	t		37.0	male	white	3.898925586947871	neutral	101	sub-17	2.0	6.0	101_neutral	1.0	dominance	80.07452709502832	
8.0	57.770004545964184	response	2.0	g		37.0	male	white	3.898925586947871	neutral	101	sub-17	2.0	6.0	101_neutral	1.0	dominance	80.44118669822637	
8.0	58.103326710581314	pulse	2.0	t		37.0	male	white	3.898925586947871	neutral	101	sub-17	2.0	6.0	101_neutral	1.0	dominance	80.7745088628435	
8.0	58.80332749540685	pulse	2.0	t		37.0	male	white	3.898925586947871	neutral	101	sub-17	2.0	6.0	101_neutral	1.0	dominance	81.47450964766904	
8.0	59.2532146309095	fix	3.0		444	37.0	male	white	3.898925586947871	neutral	101	sub-17	2.0	6.0	101_neutral	1.0	dominance	81.92439678317169	3.766594160508248
8.0	59.50332858209731	pulse	3.0	t		37.0	male	white	3.898925586947871	neutral	101	sub-17	2.0	6.0	101_neutral	1.0	dominance	82.1745107343595	
8.0	60.20330974618264	pulse	3.0	t		37.0	male	white	3.898925586947871	neutral	101	sub-17	2.0	6.0	101_neutral	1.0	dominance	82.87449189844483	
8.0	60.90330298457411	pulse	3.0	t		37.0	male	white	3.898925586947871	neutral	101	sub-17	2.0	6.0	101_neutral	1.0	dominance	83.5744851368363	
8.0	61.60329048767744	pulse	3.0	t		37.0	male	white	3.898925586947871	neutral	101	sub-17	2.0	6.0	101_neutral	1.0	dominance	84.27447263993963	
8.0	62.30327255734301	pulse	3.0	t		37.0	male	white	3.898925586947871	neutral	101	sub-17	2.0	6.0	101_neutral	1.0	dominance	84.9744547096052	
9.0	63.019808791417745	face	0.0		146	25.0	female	black	3.858336649423	smiling	126	sub-17	2.0	6.0	126_smiling	0.0		85.69099094367994	1.233338827136322
9.0	63.005962288341834	pulse	0.0	t		25.0	female	black	3.858336649423	smiling	126	sub-17	2.0	6.0	126_smiling	0.0		85.67714444060402	
9.0	63.70326567499433	pulse	0.0	t		25.0	female	black	3.858336649423	smiling	126	sub-17	2.0	6.0	126_smiling	0.0		86.37444782725652	
9.0	64.25314761855407	fix	1.0		443	25.0	female	black	3.858336649423	smiling	126	sub-17	2.0	6.0	126_smiling	0.0		86.92432977081626	3.766609253376373
9.0	64.40351096435916	pulse	1.0	t		25.0	female	black	3.858336649423	smiling	126	sub-17	2.0	6.0	126_smiling	0.0		87.07469311662135	
9.0	65.10325184992689	pulse	1.0	t		25.0	female	black	3.858336649423	smiling	126	sub-17	2.0	6.0	126_smiling	0.0		87.77443400218908	
9.0	65.80324750317959	pulse	1.0	t		25.0	female	black	3.858336649423	smiling	126	sub-17	2.0	6.0	126_smiling	0.0		88.47442965544178	
9.0	66.50323651556391	pulse	1.0	t		25.0	female	black	3.858336649423	smiling	126	sub-17	2.0	6.0	126_smiling	0.0		89.1744186678261	
9.0	67.20323005582031	pulse	1.0	t		25.0	female	black	3.858336649423	smiling	126	sub-17	2.0	6.0	126_smiling	0.0		89.8744122080825	
9.0	67.90322329421178	pulse	1.0	t		25.0	female	black	3.858336649423	smiling	126	sub-17	2.0	6.0	126_smiling	0.0		90.57440544647397	
10.0	68.01975687193044	face	0.0		146	22.0	male	black	2.767608436132113	smiling	044	sub-17	2.0	6.0	044_smiling	0.0		90.69093902419263	1.233332186267944
10.0	68.60320989174943	pulse	0.0	t		22.0	male	black	2.767608436132113	smiling	044	sub-17	2.0	6.0	044_smiling	0.0		91.27439204401162	
10.0	69.25308905819838	fix	1.0		443	22.0	male	black	2.767608436132113	smiling	044	sub-17	2.0	6.0	044_smiling	0.0		91.92427121046057	3.7584298220754135
10.0	69.30320343199128	pulse	1.0	t		22.0	male	black	2.767608436132113	smiling	044	sub-17	2.0	6.0	044_smiling	0.0		91.97438558425347	
10.0	70.00318580352177	pulse	1.0	t		22.0	male	black	2.767608436132113	smiling	044	sub-17	2.0	6.0	044_smiling	0.0		92.67436795578396	
10.0	70.70320137936505	pulse	1.0	t		22.0	male	black	2.767608436132113	smiling	044	sub-17	2.0	6.0	044_smiling	0.0		93.37438353162725	
10.0	71.4031789211731	pulse	1.0	t		22.0	male	black	2.767608436132113	smiling	044	sub-17	2.0	6.0	044_smiling	0.0		94.07436107343528	
10.0	72.10316914098803	pulse	1.0	t		22.0	male	black	2.767608436132113	smiling	044	sub-17	2.0	6.0	044_smiling	0.0		94.77435129325022	
10.0	72.80316690723703	pulse	1.0	t		22.0	male	black	2.767608436132113	smiling	044	sub-17	2.0	6.0	044_smiling	0.0		95.47434905949922	
11.0	73.0115188802738	face	0.0		146	47.0	male	east_asian	2.171110226820533	smiling	024	sub-17	2.0	6.0	024_smiling	0.0		95.68270103253599	1.241512523163692
11.0	73.50316618278157	pulse	0.0	t		47.0	male	east_asian	2.171110226820533	smiling	024	sub-17	2.0	6.0	024_smiling	0.0		96.17434833504376	
11.0	74.20314945987775	pulse	0.0	t		47.0	male	east_asian	2.171110226820533	smiling	024	sub-17	2.0	6.0	024_smiling	0.0		96.87433161213994	
11.0	74.25303140343749	fix	1.0		444	47.0	male	east_asian	2.171110226820533	smiling	024	sub-17	2.0	6.0	024_smiling	0.0		96.92421355569968	3.7666213276679628
11.0	74.90315688557166	pulse	1.0	t		47.0	male	east_asian	2.171110226820533	smiling	024	sub-17	2.0	6.0	024_smiling	0.0		97.57433903783385	
11.0	75.6031317106681	pulse	1.0	t		47.0	male	east_asian	2.171110226820533	smiling	024	sub-17	2.0	6.0	024_smiling	0.0		98.27431386293028	
11.0	76.30312223233341	pulse	1.0	t		47.0	male	east_asian	2.171110226820533	smiling	024	sub-17	2.0	6.0	024_smiling	0.0		98.9743043845956	
11.0	77.00311275401327	pulse	1.0	t		47.0	male	east_asian	2.171110226820533	smiling	024	sub-17	2.0	6.0	024_smiling	0.0		99.67429490627546	
11.0	77.70311444441904	pulse	1.0	t		47.0	male	east_asian	2.171110226820533	smiling	024	sub-17	2.0	6.0	024_smiling	0.0		100.37429659668123	
12.0	78.01965273110545	face	0.0		145	23.0	male	white	2.6275368085953046	smiling	141	sub-17	2.0	6.0	141_smiling	0.0		100.69083488336764	1.2333161878341343
12.0	78.40309862708091	pulse	0.0	t		23.0	male	white	2.6275368085953046	smiling	141	sub-17	2.0	6.0	141_smiling	0.0		101.0742807793431	
12.0	79.10308673389954	pulse	0.0	t		23.0	male	white	2.6275368085953046	smiling	141	sub-17	2.0	6.0	141_smiling	0.0		101.77426888616174	
12.0	79.25296891893959	fix	1.0		444	23.0	male	white	2.6275368085953046	smiling	141	sub-17	2.0	6.0	141_smiling	0.0		101.92415107120178	3.766613781248452
12.0	79.80309717816999	pulse	1.0	t		23.0	male	white	2.6275368085953046	smiling	141	sub-17	2.0	6.0	141_smiling	0.0		102.47427933043218	
12.0	80.50308256827702	pulse	1.0	t		23.0	male	white	2.6275368085953046	smiling	141	sub-17	2.0	6.0	141_smiling	0.0		103.17426472053921	
12.0	81.20306675093889	pulse	1.0	t		23.0	male	white	2.6275368085953046	smiling	141	sub-17	2.0	6.0	141_smiling	0.0		103.87424890320108	
12.0	81.90305878189974	pulse	1.0	t		23.0	male	white	2.6275368085953046	smiling	141	sub-17	2.0	6.0	141_smiling	0.0		104.57424093416194	
12.0	82.60304356829147	pulse	1.0	t		23.0	male	white	2.6275368085953046	smiling	141	sub-17	2.0	6.0	141_smiling	0.0		105.27422572055366	
13.0	83.01958270018804	face	0.0		145	31.0	female	west_asian	2.364902506963788	neutral	006	sub-17	2.0	6.0	006_neutral	0.0		105.69076485245023	1.2333339974138653
13.0	83.30304405126662	pulse	0.0	t		31.0	female	west_asian	2.364902506963788	neutral	006	sub-17	2.0	6.0	006_neutral	0.0		105.97422620352881	
13.0	84.00304876023438	pulse	0.0	t		31.0	female	west_asian	2.364902506963788	neutral	006	sub-17	2.0	6.0	006_neutral	0.0		106.67423091249657	
13.0	84.2529166976019	fix	1.0		444	31.0	female	west_asian	2.364902506963788	neutral	006	sub-17	2.0	6.0	006_neutral	0.0		106.9240988498641	3.7666071403800743
13.0	84.70303867819894	pulse	1.0	t		31.0	female	west_asian	2.364902506963788	neutral	006	sub-17	2.0	6.0	006_neutral	0.0		107.37422083046113	
13.0	85.40300656056206	pulse	1.0	t		31.0	female	west_asian	2.364902506963788	neutral	006	sub-17	2.0	6.0	006_neutral	0.0		108.07418871282425	
13.0	86.10300100638415	pulse	1.0	t		31.0	female	west_asian	2.364902506963788	neutral	006	sub-17	2.0	6.0	006_neutral	0.0		108.77418315864634	
13.0	86.80300511165115	pulse	1.0	t		31.0	female	west_asian	2.364902506963788	neutral	006	sub-17	2.0	6.0	006_neutral	0.0		109.47418726391334	
13.0	87.50300076490385	pulse	1.0	t		31.0	female	west_asian	2.364902506963788	neutral	006	sub-17	2.0	6.0	006_neutral	0.0		110.17418291716604	
14.0	88.01952383798198	face	0.0		145	31.0	female	east_asian	3.395941106247513	neutral	087	sub-17	2.0	6.0	087_neutral	0.0		110.69070599024417	1.2333158859692048
14.0	88.20298404200003	pulse	0.0	t		31.0	female	east_asian	3.395941106247513	neutral	087	sub-17	2.0	6.0	087_neutral	0.0		110.87416619426222	
14.0	88.90298603425617	pulse	0.0	t		31.0	female	east_asian	3.395941106247513	neutral	087	sub-17	2.0	6.0	087_neutral	0.0		111.57416818651836	
14.0	89.25283972395118	fix	1.0		444	31.0	female	east_asian	3.395941106247513	neutral	087	sub-17	2.0	6.0	087_neutral	0.0		111.92402187621337	3.7666273648210336
14.0	89.60296900950198	pulse	1.0	t		31.0	female	east_asian	3.395941106247513	neutral	087	sub-17	2.0	6.0	087_neutral	0.0		112.27415116176417	
14.0	90.30296164417814	pulse	1.0	t		31.0	female	east_asian	3.395941106247513	neutral	087	sub-17	2.0	6.0	087_neutral	0.0		112.97414379644033	
14.0	91.00295186399308	pulse	1.0	t		31.0	female	east_asian	3.395941106247513	neutral	087	sub-17	2.0	6.0	087_neutral	0.0		113.67413401625527	
14.0	91.70297891042719	pulse	1.0	t		31.0	female	east_asian	3.395941106247513	neutral	087	sub-17	2.0	6.0	087_neutral	0.0		114.37416106268938	
14.0	92.4029329073528	pulse	1.0	t		31.0	female	east_asian	3.395941106247513	neutral	087	sub-17	2.0	6.0	087_neutral	0.0		115.074115059615	
15.0	93.01946708877222	face	0.0		145	34.0	male	white	2.651014723438122	smiling	121	sub-17	2.0	6.0	121_smiling	0.0		115.69064924103441	1.2333330918481806
15.0	93.10292705130996	pulse	0.0	t		34.0	male	white	2.651014723438122	smiling	121	sub-17	2.0	6.0	121_smiling	0.0		115.77410920357215	
15.0	93.80291817670513	pulse	0.0	t		34.0	male	white	2.651014723438122	smiling	121	sub-17	2.0	6.0	121_smiling	0.0		116.47410032896732	
15.0	94.2528001806204	fix	1.0		444	34.0	male	white	2.651014723438122	smiling	121	sub-17	2.0	6.0	121_smiling	0.0		116.92398233288259	3.7666050273837755
15.0	94.50291232066229	pulse	1.0	t		34.0	male	white	2.651014723438122	smiling	121	sub-17	2.0	6.0	121_smiling	0.0		117.17409447292448	
15.0	95.20290616278362	pulse	1.0	t		34.0	male	white	2.651014723438122	smiling	121	sub-17	2.0	6.0	121_smiling	0.0		117.87408831504581	
15.0	95.90290362716769	pulse	1.0	t		34.0	male	white	2.651014723438122	smiling	121	sub-17	2.0	6.0	121_smiling	0.0		118.57408577942988	
15.0	96.60288388570189	pulse	1.0	t		34.0	male	white	2.651014723438122	smiling	121	sub-17	2.0	6.0	121_smiling	0.0		119.27406603796408	
15.0	97.30287833152397	pulse	1.0	t		34.0	male	white	2.651014723438122	smiling	121	sub-17	2.0	6.0	121_smiling	0.0		119.97406048378616	
16.0	98.01940520800417	face	0.0		146	40.0	female	west_asian	1.5777954635893354	smiling	038	sub-17	2.0	6.0	038_smiling	0.0		120.69058736026636	1.2333481847163057
16.0	98.00580381318287	pulse	0.0	t		40.0	female	west_asian	1.5777954635893354	smiling	038	sub-17	2.0	6.0	038_smiling	0.0		120.67698596544506	
16.0	98.7028741658869	pulse	0.0	t		40.0	female	west_asian	1.5777954635893354	smiling	038	sub-17	2.0	6.0	038_smiling	0.0		121.37405631814909	
16.0	99.25275339272048	fix	1.0		443	40.0	female	west_asian	1.5777954635893354	smiling	038	sub-17	2.0	6.0	038_smiling	0.0		121.92393554498267	3.7665959716541693
16.0	99.40285683926777	pulse	1.0	t		40.0	female	west_asian	1.5777954635893354	smiling	038	sub-17	2.0	6.0	038_smiling	0.0		122.07403899152996	
16.0	100.10284313494049	pulse	1.0	t		40.0	female	west_asian	1.5777954635893354	smiling	038	sub-17	2.0	6.0	038_smiling	0.0		122.77402528720268	
16.0	100.80283093989419	pulse	1.0	t		40.0	female	west_asian	1.5777954635893354	smiling	038	sub-17	2.0	6.0	038_smiling	0.0		123.47401309215638	
16.0	101.50283595072688	pulse	1.0	t		40.0	female	west_asian	1.5777954635893354	smiling	038	sub-17	2.0	6.0	038_smiling	0.0		124.17401810298907	
16.0	102.20282405754551	pulse	1.0	t		40.0	female	west_asian	1.5777954635893354	smiling	038	sub-17	2.0	6.0	038_smiling	0.0		124.8740062098077	
16.0	102.90281820151722	pulse	1.0	t		40.0	female	west_asian	1.5777954635893354	smiling	038	sub-17	2.0	6.0	038_smiling	0.0		125.57400035377941	
17.0	103.01934936437465	face	0.0		146	31.0	female	white	2.1822522881018704	neutral	102	sub-17	2.0	6.0	102_neutral	0.0		125.69053151663684	1.2333352048444794
17.0	103.60350842875778	pulse	0.0	t		31.0	female	white	2.1822522881018704	neutral	102	sub-17	2.0	6.0	102_neutral	0.0		126.27469058101997	
17.0	104.25268456921913	fix	1.0		443	31.0	female	white	2.1822522881018704	neutral	102	sub-17	2.0	6.0	102_neutral	0.0		126.92386672148132	3.7666077440953813
17.0	104.30278928356711	pulse	1.0	t		31.0	female	white	2.1822522881018704	neutral	102	sub-17	2.0	6.0	102_neutral	0.0		126.9739714358293	
17.0	105.0028039538447	pulse	1.0	t		31.0	female	white	2.1822522881018704	neutral	102	sub-17	2.0	6.0	102_neutral	0.0		127.6739861061069	
17.0	105.70279507923988	pulse	1.0	t		31.0	female	white	2.1822522881018704	neutral	102	sub-17	2.0	6.0	102_neutral	0.0		128.37397723150207	
17.0	106.40277956376667	pulse	1.0	t		31.0	female	white	2.1822522881018704	neutral	102	sub-17	2.0	6.0	102_neutral	0.0		129.07396171602886	
17.0	107.10274986099103	pulse	1.0	t		31.0	female	white	2.1822522881018704	neutral	102	sub-17	2.0	6.0	102_neutral	0.0		129.77393201325322	
17.0	107.80276392755331	pulse	1.0	t		31.0	female	white	2.1822522881018704	neutral	102	sub-17	2.0	6.0	102_neutral	0.0		130.4739460798155	
18.0	108.01929231331451	face	0.0		145	27.0	female	white	4.181058495821727	smiling	039	sub-17	2.0	6.0	039_smiling	0.0		130.6904744655767	1.2333336955634877
18.0	108.50276290123293	pulse	0.0	t		27.0	female	white	4.181058495821727	smiling	039	sub-17	2.0	6.0	039_smiling	0.0		131.17394505349512	
18.0	109.20274527274887	pulse	0.0	t		27.0	female	white	4.181058495821727	smiling	039	sub-17	2.0	6.0	039_smiling	0.0		131.87392742501106	
18.0	109.252626008878	fix	1.0		445	27.0	female	white	4.181058495821727	smiling	039	sub-17	2.0	6.0	039_smiling	0.0		131.9238081611402	3.7583878638833994
18.0	109.90273428514774	pulse	1.0	t		27.0	female	white	4.181058495821727	smiling	039	sub-17	2.0	6.0	039_smiling	0.0		132.57391643740993	
18.0	110.60272390124737	pulse	1.0	t		27.0	female	white	4.181058495821727	smiling	039	sub-17	2.0	6.0	039_smiling	0.0		133.27390605350956	
18.0	111.30271623407316	pulse	1.0	t		27.0	female	white	4.181058495821727	smiling	039	sub-17	2.0	6.0	039_smiling	0.0		133.97389838633535	
18.0	112.00270615202317	pulse	1.0	t		27.0	female	white	4.181058495821727	smiling	039	sub-17	2.0	6.0	039_smiling	0.0		134.67388830428536	
18.0	112.702715388863	pulse	1.0	t		27.0	female	white	4.181058495821727	smiling	039	sub-17	2.0	6.0	039_smiling	0.0		135.3738975411252	
19.0	113.0110138727614	face	0.0		146	27.0	female	white	3.504576203740549	neutral	144	sub-17	2.0	6.0	144_neutral	0.0		135.6821960250236	1.2415439163305564
19.0	113.40269504368189	pulse	0.0	t		27.0	female	white	3.504576203740549	neutral	144	sub-17	2.0	6.0	144_neutral	0.0		136.07387719594408	
19.0	114.1026834523509	pulse	0.0	t		27.0	female	white	3.504576203740549	neutral	144	sub-17	2.0	6.0	144_neutral	0.0		136.7738656046131	
19.0	114.25255778909195	fix	1.0		444	27.0	female	white	3.504576203740549	neutral	144	sub-17	2.0	6.0	144_neutral	0.0		136.92373994135414	3.7666029143729247
19.0	114.80269117989519	pulse	1.0	t		27.0	female	white	3.504576203740549	neutral	144	sub-17	2.0	6.0	144_neutral	0.0		137.47387333215738	
19.0	115.50266962728347	pulse	1.0	t		27.0	female	white	3.504576203740549	neutral	144	sub-17	2.0	6.0	144_neutral	0.0		138.17385177954566	
19.0	116.2026598470984	pulse	1.0	t		27.0	female	white	3.504576203740549	neutral	144	sub-17	2.0	6.0	144_neutral	0.0		138.8738419993606	
19.0	116.90264885948272	pulse	1.0	t		27.0	female	white	3.504576203740549	neutral	144	sub-17	2.0	6.0	144_neutral	0.0		139.57383101174491	
19.0	117.60267047247908	pulse	1.0	t		27.0	female	white	3.504576203740549	neutral	144	sub-17	2.0	6.0	144_neutral	0.0		140.27385262474127	
20.0	118.01916070346488	face	0.0		145	19.0	male	white	3.2522881018702745	smiling	018	sub-17	2.0	6.0	018_smiling	0.0		140.69034285572707	1.233354523734306
20.0	118.30264922171773	pulse	0.0	t		19.0	male	white	3.2522881018702745	smiling	018	sub-17	2.0	6.0	018_smiling	0.0		140.97383137397992	
20.0	119.00262163193838	pulse	0.0	t		19.0	male	white	3.2522881018702745	smiling	018	sub-17	2.0	6.0	018_smiling	0.0		141.67380378420057	
20.0	119.25251522719918	fix	1.0		1185	19.0	male	white	3.2522881018702745	smiling	018	sub-17	2.0	6.0	018_smiling	0.0		141.92369737946137	10.008199353891541
20.0	119.70263660408091	pulse	1.0	t		19.0	male	white	3.2522881018702745	smiling	018	sub-17	2.0	6.0	018_smiling	0.0		142.3738187563431	
20.0	120.4025936195685	pulse	1.0	t		19.0	male	white	3.2522881018702745	smiling	018	sub-17	2.0	6.0	018_smiling	0.0		143.0737757718307	
20.0	121.10259863040119	pulse	1.0	t		19.0	male	white	3.2522881018702745	smiling	018	sub-17	2.0	6.0	018_smiling	0.0		143.77378078266338	
20.0	121.80261631925532	pulse	1.0	t		19.0	male	white	3.2522881018702745	smiling	018	sub-17	2.0	6.0	018_smiling	0.0		144.4737984715175	
20.0	122.50259235176782	pulse	1.0	t		19.0	male	white	3.2522881018702745	smiling	018	sub-17	2.0	6.0	018_smiling	0.0		145.17377450403	
20.0	123.2025840808783	pulse	1.0	t		19.0	male	white	3.2522881018702745	smiling	018	sub-17	2.0	6.0	018_smiling	0.0		145.8737662331405	
20.0	123.90259694000997	pulse	1.0	t		19.0	male	white	3.2522881018702745	smiling	018	sub-17	2.0	6.0	018_smiling	0.0		146.57377909227216	
20.0	124.60256452050817	pulse	1.0	t		19.0	male	white	3.2522881018702745	smiling	018	sub-17	2.0	6.0	018_smiling	0.0		147.27374667277036	
20.0	125.30256983320578	pulse	1.0	t		19.0	male	white	3.2522881018702745	smiling	018	sub-17	2.0	6.0	018_smiling	0.0		147.97375198546797	
20.0	126.0025540158822	pulse	1.0	t		19.0	male	white	3.2522881018702745	smiling	018	sub-17	2.0	6.0	018_smiling	0.0		148.6737361681444	
20.0	126.70254453754751	pulse	1.0	t		19.0	male	white	3.2522881018702745	smiling	018	sub-17	2.0	6.0	018_smiling	0.0		149.3737266898097	
20.0	127.40252811650862	pulse	1.0	t		19.0	male	white	3.2522881018702745	smiling	018	sub-17	2.0	6.0	018_smiling	0.0		150.0737102687708	
20.0	128.1025135066011	pulse	1.0	t		19.0	male	white	3.2522881018702745	smiling	018	sub-17	2.0	6.0	018_smiling	0.0		150.7736956588633	
20.0	128.8025148951565	pulse	1.0	t		19.0	male	white	3.2522881018702745	smiling	018	sub-17	2.0	6.0	018_smiling	0.0		151.47369704741868	
21.0	129.26071458109072	face	0.0		146	22.0	female	west_asian	3.8205332272184642	smiling	066	sub-17	2.0	6.0	066_smiling	0.0		151.93189673335291	1.2416679797606776
21.0	129.5025060205371	pulse	0.0	t		22.0	female	west_asian	3.8205332272184642	smiling	066	sub-17	2.0	6.0	066_smiling	0.0		152.1736881727993	
21.0	130.20249925892858	pulse	0.0	t		22.0	female	west_asian	3.8205332272184642	smiling	066	sub-17	2.0	6.0	066_smiling	0.0		152.87368141119077	
21.0	130.5023825608514	fix	1.0		444	22.0	female	west_asian	3.8205332272184642	smiling	066	sub-17	2.0	6.0	066_smiling	0.0		153.1735647131136	3.7582716487522703
21.0	130.9025072883378	pulse	1.0	t		22.0	female	west_asian	3.8205332272184642	smiling	066	sub-17	2.0	6.0	066_smiling	0.0		153.5736894406	
21.0	131.60247818927746	pulse	1.0	t		22.0	female	west_asian	3.8205332272184642	smiling	066	sub-17	2.0	6.0	066_smiling	0.0		154.27366034153965	
21.0	132.3024732388294	pulse	1.0	t		22.0	female	west_asian	3.8205332272184642	smiling	066	sub-17	2.0	6.0	066_smiling	0.0		154.9736553910916	
21.0	133.00246406235965	pulse	1.0	t		22.0	female	west_asian	3.8205332272184642	smiling	066	sub-17	2.0	6.0	066_smiling	0.0		155.67364621462184	
21.0	133.7024766196264	pulse	1.0	t		22.0	female	west_asian	3.8205332272184642	smiling	066	sub-17	2.0	6.0	066_smiling	0.0		156.37365877188859	
22.0	134.26065420960367	face	0.0		146	25.0	female	west_asian	2.6756864305610826	neutral	064	sub-17	2.0	6.0	064_neutral	0.0		156.93183636186586	1.2416661686002044
22.0	134.40245748186135	pulse	0.0	t		25.0	female	west_asian	2.6756864305610826	neutral	064	sub-17	2.0	6.0	064_neutral	0.0		157.07363963412354	
22.0	135.10243985339184	pulse	0.0	t		25.0	female	west_asian	2.6756864305610826	neutral	064	sub-17	2.0	6.0	064_neutral	0.0		157.77362200565403	
22.0	135.50232037820388	fix	1.0		444	25.0	female	west_asian	2.6756864305610826	neutral	064	sub-17	2.0	6.0	064_neutral	0.0		158.17350253046607	3.758288854645798
22.0	135.80243429921393	pulse	1.0	t		25.0	female	west_asian	2.6756864305610826	neutral	064	sub-17	2.0	6.0	064_neutral	0.0		158.47361645147612	
22.0	136.50241878374072	pulse	1.0	t		25.0	female	west_asian	2.6756864305610826	neutral	064	sub-17	2.0	6.0	064_neutral	0.0		159.1736009360029	
22.0	137.2024099091359	pulse	1.0	t		25.0	female	west_asian	2.6756864305610826	neutral	064	sub-17	2.0	6.0	064_neutral	0.0		159.87359206139809	
22.0	137.90243906855176	pulse	1.0	t		25.0	female	west_asian	2.6756864305610826	neutral	064	sub-17	2.0	6.0	064_neutral	0.0		160.57362122081395	
22.0	138.60238642462355	pulse	1.0	t		25.0	female	west_asian	2.6756864305610826	neutral	064	sub-17	2.0	6.0	064_neutral	0.0		161.27356857688574	
23.0	139.26060923284967	face	0.0		146	54.0	female	white	2.286908077994429	smiling	136	sub-17	2.0	6.0	136_smiling	1.0	trustworthiness	161.93179138511186	1.2416477552906144
23.0	139.30239777445968	pulse	0.0	t		54.0	female	white	2.286908077994429	smiling	136	sub-17	2.0	6.0	136_smiling	1.0	trustworthiness	161.97357992672187	
23.0	140.0023873905593	pulse	0.0	t		54.0	female	white	2.286908077994429	smiling	136	sub-17	2.0	6.0	136_smiling	1.0	trustworthiness	162.6735695428215	
23.0	140.5022569881403	fix	1.0		177	54.0	female	white	2.286908077994429	smiling	136	sub-17	2.0	6.0	136_smiling	1.0	trustworthiness	163.17343914040248	1.4999846052814974
23.0	140.7023993441253	pulse	1.0	t		54.0	female	white	2.286908077994429	smiling	136	sub-17	2.0	6.0	136_smiling	1.0	trustworthiness	163.3735814963875	
23.0	141.40236662277312	pulse	1.0	t		54.0	female	white	2.286908077994429	smiling	136	sub-17	2.0	6.0	136_smiling	1.0	trustworthiness	164.0735487750353	
23.0	142.0022415934218	rating	2.0		294	54.0	female	white	2.286908077994429	smiling	136	sub-17	2.0	6.0	136_smiling	1.0	trustworthiness	164.67342374568398	2.4999758514022687
23.0	142.1023722373211	pulse	2.0	t		54.0	female	white	2.286908077994429	smiling	136	sub-17	2.0	6.0	136_smiling	1.0	trustworthiness	164.7735543895833	
23.0	142.70236885650957	response	2.0	y		54.0	female	white	2.286908077994429	smiling	136	sub-17	2.0	6.0	136_smiling	1.0	trustworthiness	165.37355100877176	
23.0	142.80234162897978	pulse	2.0	t		54.0	female	white	2.286908077994429	smiling	136	sub-17	2.0	6.0	136_smiling	1.0	trustworthiness	165.47352378124197	
23.0	143.50234482866654	pulse	2.0	t		54.0	female	white	2.286908077994429	smiling	136	sub-17	2.0	6.0	136_smiling	1.0	trustworthiness	166.17352698092873	
23.0	144.2023374633427	pulse	2.0	t		54.0	female	white	2.286908077994429	smiling	136	sub-17	2.0	6.0	136_smiling	1.0	trustworthiness	166.8735196156049	
23.0	144.50221744482405	fix	3.0		444	54.0	female	white	2.286908077994429	smiling	136	sub-17	2.0	6.0	136_smiling	1.0	trustworthiness	167.17339959708625	3.758268630190287
23.0	144.90233341844578	pulse	3.0	t		54.0	female	white	2.286908077994429	smiling	136	sub-17	2.0	6.0	136_smiling	1.0	trustworthiness	167.57351557070797	
23.0	145.60232122341404	pulse	3.0	t		54.0	female	white	2.286908077994429	smiling	136	sub-17	2.0	6.0	136_smiling	1.0	trustworthiness	168.27350337567623	
23.0	146.30230721722182	pulse	3.0	t		54.0	female	white	2.286908077994429	smiling	136	sub-17	2.0	6.0	136_smiling	1.0	trustworthiness	168.973489369484	
23.0	147.002299851898	pulse	3.0	t		54.0	female	white	2.286908077994429	smiling	136	sub-17	2.0	6.0	136_smiling	1.0	trustworthiness	169.67348200416018	
23.0	147.70230274973437	pulse	3.0	t		54.0	female	white	2.286908077994429	smiling	136	sub-17	2.0	6.0	136_smiling	1.0	trustworthiness	170.37348490199656	
24.0	148.26048607501434	face	0.0		146	32.0	male	white	2.389176283326701	neutral	092	sub-17	2.0	6.0	092_neutral	0.0		170.93166822727653	1.2416728094540304
24.0	148.40228723426117	pulse	0.0	t		32.0	male	white	2.389176283326701	neutral	092	sub-17	2.0	6.0	092_neutral	0.0		171.07346938652336	
24.0	149.10227926522202	pulse	0.0	t		32.0	male	white	2.389176283326701	neutral	092	sub-17	2.0	6.0	092_neutral	0.0		171.7734614174842	
24.0	149.50215888446837	fix	1.0		444	32.0	male	white	2.389176283326701	neutral	092	sub-17	2.0	6.0	092_neutral	0.0		172.17334103673056	3.7582767803396564
24.0	149.8022709943325	pulse	1.0	t		32.0	male	white	2.389176283326701	neutral	092	sub-17	2.0	6.0	092_neutral	0.0		172.4734531465947	
24.0	150.50226302529336	pulse	1.0	t		32.0	male	white	2.389176283326701	neutral	092	sub-17	2.0	6.0	092_neutral	0.0		173.17344517755555	
24.0	151.20224720796978	pulse	1.0	t		32.0	male	white	2.389176283326701	neutral	092	sub-17	2.0	6.0	092_neutral	0.0		173.87342936023197	
24.0	151.90224195564224	pulse	1.0	t		32.0	male	white	2.389176283326701	neutral	092	sub-17	2.0	6.0	092_neutral	0.0		174.57342410790443	
24.0	152.60223609961395	pulse	1.0	t		32.0	male	white	2.389176283326701	neutral	092	sub-17	2.0	6.0	092_neutral	0.0		175.27341825187614	
25.0	153.26043566480803	face	0.0		146	28.0	male	white	3.9076800636689217	neutral	033	sub-17	2.0	6.0	033_neutral	0.0		175.93161781707022	1.2416649611841422
25.0	153.30234011968423	pulse	0.0	t		28.0	male	white	3.9076800636689217	neutral	033	sub-17	2.0	6.0	033_neutral	0.0		175.97352227194642	
25.0	154.00222740611935	pulse	0.0	t		28.0	male	white	3.9076800636689217	neutral	033	sub-17	2.0	6.0	033_neutral	0.0		176.67340955838154	
25.0	154.50210062599217	fix	1.0		443	28.0	male	white	3.9076800636689217	neutral	033	sub-17	2.0	6.0	033_neutral	0.0		177.17328277825436	3.766605932934908
25.0	154.70222336122242	pulse	1.0	t		28.0	male	white	3.9076800636689217	neutral	033	sub-17	2.0	6.0	033_neutral	0.0		177.3734055134846	
25.0	155.4022150903329	pulse	1.0	t		28.0	male	white	3.9076800636689217	neutral	033	sub-17	2.0	6.0	033_neutral	0.0		178.0733972425951	
25.0	156.10220349900192	pulse	1.0	t		28.0	male	white	3.9076800636689217	neutral	033	sub-17	2.0	6.0	033_neutral	0.0		178.7733856512641	
25.0	156.80218828539364	pulse	1.0	t		28.0	male	white	3.9076800636689217	neutral	033	sub-17	2.0	6.0	033_neutral	0.0		179.47337043765583	
25.0	157.5021818256355	pulse	1.0	t		28.0	male	white	3.9076800636689217	neutral	033	sub-17	2.0	6.0	033_neutral	0.0		180.17336397789768	
25.0	158.20217113988474	pulse	1.0	t		28.0	male	white	3.9076800636689217	neutral	033	sub-17	2.0	6.0	033_neutral	0.0		180.87335329214693	
26.0	158.26870655892708	face	0.0		146	40.0	male	black	2.408674890569041	neutral	061	sub-17	2.0	6.0	061_neutral	0.0		180.93988871118927	1.2333424494281644
26.0	158.9021743395715	pulse	0.0	t		40.0	male	black	2.408674890569041	neutral	061	sub-17	2.0	6.0	061_neutral	0.0		181.5733564918337	
26.0	159.50204900835524	fix	1.0		443	40.0	male	black	2.408674890569041	neutral	061	sub-17	2.0	6.0	061_neutral	0.0		182.17323116061743	3.7666017069568625
26.0	159.602164559401	pulse	1.0	t		40.0	male	black	2.408674890569041	neutral	061	sub-17	2.0	6.0	061_neutral	0.0		182.27334671166318	
26.0	160.3021430067747	pulse	1.0	t		40.0	male	black	2.408674890569041	neutral	061	sub-17	2.0	6.0	061_neutral	0.0		182.9733251590369	
26.0	161.00214198045433	pulse	1.0	t		40.0	male	black	2.408674890569041	neutral	061	sub-17	2.0	6.0	061_neutral	0.0		183.67332413271652	
26.0	161.70215272657515	pulse	1.0	t		40.0	male	black	2.408674890569041	neutral	061	sub-17	2.0	6.0	061_neutral	0.0		184.37333487883734	
26.0	162.40212574052566	pulse	1.0	t		40.0	male	black	2.408674890569041	neutral	061	sub-17	2.0	6.0	061_neutral	0.0		185.07330789278785	
26.0	163.10211837520183	pulse	1.0	t		40.0	male	black	2.408674890569041	neutral	061	sub-17	2.0	6.0	061_neutral	0.0		185.77330052746402	
27.0	163.2686507153121	face	0.0		146	19.0	male	white	2.243931555909272	neutral	130	sub-17	2.0	6.0	130_neutral	0.0		185.9398328675743	1.2333285639761016
27.0	163.80211131174292	pulse	0.0	t		19.0	male	white	2.243931555909272	neutral	130	sub-17	2.0	6.0	130_neutral	0.0		186.4732934640051	
27.0	164.5019792792882	fix	1.0		444	19.0	male	white	2.243931555909272	neutral	130	sub-17	2.0	6.0	130_neutral	0.0		187.1731614315504	3.766630987112876
27.0	164.50949583164765	pulse	1.0	t		19.0	male	white	2.243931555909272	neutral	130	sub-17	2.0	6.0	130_neutral	0.0		187.18067798390985	
27.0	165.20209446809895	pulse	1.0	t		19.0	male	white	2.243931555909272	neutral	130	sub-17	2.0	6.0	130_neutral	0.0		187.87327662036114	
27.0	165.9020858953445	pulse	1.0	t		19.0	male	white	2.243931555909272	neutral	130	sub-17	2.0	6.0	130_neutral	0.0		188.5732680476067	
27.0	166.60206675757945	pulse	1.0	t		19.0	male	white	2.243931555909272	neutral	130	sub-17	2.0	6.0	130_neutral	0.0		189.27324890984164	
27.0	167.30207086284645	pulse	1.0	t		19.0	male	white	2.243931555909272	neutral	130	sub-17	2.0	6.0	130_neutral	0.0		189.97325301510864	
27.0	168.00206138451176	pulse	1.0	t		19.0	male	white	2.243931555909272	neutral	130	sub-17	2.0	6.0	130_neutral	0.0		190.67324353677395	
28.0	168.26861026640108	face	0.0		145	30.0	female	black	2.7345801830481498	neutral	062	sub-17	2.0	6.0	062_neutral	0.0		190.93979241866327	1.2332962652435526
28.0	168.70205975449062	pulse	0.0	t		30.0	female	black	2.7345801830481498	neutral	062	sub-17	2.0	6.0	062_neutral	0.0		191.3732419067528	
28.0	169.40205027617048	pulse	0.0	t		30.0	female	black	2.7345801830481498	neutral	062	sub-17	2.0	6.0	062_neutral	0.0		192.07323242843268	
28.0	169.50190653164464	fix	1.0		444	30.0	female	black	2.7345801830481498	neutral	062	sub-17	2.0	6.0	062_neutral	0.0		192.17308868390683	3.7582930806383956
28.0	170.1020398922701	pulse	1.0	t		30.0	female	black	2.7345801830481498	neutral	062	sub-17	2.0	6.0	062_neutral	0.0		192.7732220445323	
28.0	170.80202799908875	pulse	1.0	t		30.0	female	black	2.7345801830481498	neutral	062	sub-17	2.0	6.0	062_neutral	0.0		193.47321015135094	
28.0	171.50201097432	pulse	1.0	t		30.0	female	black	2.7345801830481498	neutral	062	sub-17	2.0	6.0	062_neutral	0.0		194.1731931265822	
28.0	172.20200692943763	pulse	1.0	t		30.0	female	black	2.7345801830481498	neutral	062	sub-17	2.0	6.0	062_neutral	0.0		194.87318908169982	
28.0	172.90199594182195	pulse	1.0	t		30.0	female	black	2.7345801830481498	neutral	062	sub-17	2.0	6.0	062_neutral	0.0		195.57317809408414	
29.0	173.26019961228303	face	0.0		146	21.0	male	black	2.969757262236371	smiling	137	sub-17	2.0	6.0	137_smiling	0.0		195.93138176454522	1.2416706964722835
29.0	173.60198374677566	pulse	0.0	t		21.0	male	black	2.969757262236371	smiling	137	sub-17	2.0	6.0	137_smiling	0.0		196.27316589903785	
29.0	174.30198453161574	pulse	0.0	t		21.0	male	black	2.969757262236371	smiling	137	sub-17	2.0	6.0	137_smiling	0.0		196.97316668387793	
29.0	174.50187030875531	fix	1.0		444	21.0	male	black	2.969757262236371	smiling	137	sub-17	2.0	6.0	137_smiling	0.0		197.1730524610175	3.7582568577490747
29.0	175.0019786755729	pulse	1.0	t		21.0	male	black	2.969757262236371	smiling	137	sub-17	2.0	6.0	137_smiling	0.0		197.6731608278351	
29.0	175.7019842901209	pulse	1.0	t		21.0	male	black	2.969757262236371	smiling	137	sub-17	2.0	6.0	137_smiling	0.0		198.37316644238308	
29.0	176.40196394493978	pulse	1.0	t		21.0	male	black	2.969757262236371	smiling	137	sub-17	2.0	6.0	137_smiling	0.0		199.07314609720197	
29.0	177.101965635331	pulse	1.0	t		21.0	male	black	2.969757262236371	smiling	137	sub-17	2.0	6.0	137_smiling	0.0		199.7731477875932	
29.0	177.8019492142921	pulse	1.0	t		21.0	male	black	2.969757262236371	smiling	137	sub-17	2.0	6.0	137_smiling	0.0		200.4731313665543	
30.0	178.2601271665044	face	0.0		146	47.0	male	east_asian	2.171110226820533	neutral	024	sub-17	2.0	6.0	024_neutral	0.0		200.93130931876658	1.2416930339095416
30.0	178.5019346043846	pulse	0.0	t		47.0	male	east_asian	2.171110226820533	neutral	024	sub-17	2.0	6.0	024_neutral	0.0		201.17311675664678	
30.0	179.20193116321752	pulse	0.0	t		47.0	male	east_asian	2.171110226820533	neutral	024	sub-17	2.0	6.0	024_neutral	0.0		201.8731133154797	
30.0	179.50182020041393	fix	1.0		444	47.0	male	east_asian	2.171110226820533	neutral	024	sub-17	2.0	6.0	024_neutral	0.0		202.17300235267612	3.75826380046783
30.0	179.90191745889024	pulse	1.0	t		47.0	male	east_asian	2.171110226820533	neutral	024	sub-17	2.0	6.0	024_neutral	0.0		202.57309961115243	
30.0	180.6019116028474	pulse	1.0	t		47.0	male	east_asian	2.171110226820533	neutral	024	sub-17	2.0	6.0	024_neutral	0.0		203.27309375510958	
30.0	181.30190906724602	pulse	1.0	t		47.0	male	east_asian	2.171110226820533	neutral	024	sub-17	2.0	6.0	024_neutral	0.0		203.9730912195082	
30.0	182.00189415548812	pulse	1.0	t		47.0	male	east_asian	2.171110226820533	neutral	024	sub-17	2.0	6.0	024_neutral	0.0		204.6730763077503	
30.0	182.70190731647017	pulse	1.0	t		47.0	male	east_asian	2.171110226820533	neutral	024	sub-17	2.0	6.0	024_neutral	0.0		205.37308946873236	
31.0	183.26008400088176	face	0.0		146	24.0	female	black	3.0955033824114606	neutral	099	sub-17	2.0	6.0	099_neutral	0.0		205.93126615314395	1.2416682816110551
31.0	183.4018821415666	pulse	0.0	t		24.0	female	black	3.0955033824114606	neutral	099	sub-17	2.0	6.0	099_neutral	0.0		206.0730642938288	
31.0	184.10187326696177	pulse	0.0	t		24.0	female	black	3.0955033824114606	neutral	099	sub-17	2.0	6.0	099_neutral	0.0		206.77305541922397	
31.0	184.50175228249282	fix	1.0		444	24.0	female	black	3.0955033824114606	neutral	099	sub-17	2.0	6.0	099_neutral	0.0		207.172934434755	3.766606536664767
31.0	184.80188129635644	pulse	1.0	t		24.0	female	black	3.0955033824114606	neutral	099	sub-17	2.0	6.0	099_neutral	0.0		207.47306344861863	
31.0	185.50187151618593	pulse	1.0	t		24.0	female	black	3.0955033824114606	neutral	099	sub-17	2.0	6.0	099_neutral	0.0		208.17305366844812	
31.0	186.20183909669868	pulse	1.0	t		24.0	female	black	3.0955033824114606	neutral	099	sub-17	2.0	6.0	099_neutral	0.0		208.87302124896087	
31.0	186.90184229638544	pulse	1.0	t		24.0	female	black	3.0955033824114606	neutral	099	sub-17	2.0	6.0	099_neutral	0.0		209.57302444864763	
31.0	187.60183674220752	pulse	1.0	t		24.0	female	black	3.0955033824114606	neutral	099	sub-17	2.0	6.0	099_neutral	0.0		210.27301889446971	
32.0	188.26835881915758	face	0.0		145	31.0	male	west_asian	1.9538400318344609	smiling	070	sub-17	2.0	6.0	070_smiling	0.0		210.93954097141977	1.2333403364173137
32.0	188.30182515087654	pulse	0.0	t		31.0	male	west_asian	1.9538400318344609	smiling	070	sub-17	2.0	6.0	070_smiling	0.0		210.97300730313873	
32.0	189.00181989856355	pulse	0.0	t		31.0	male	west_asian	1.9538400318344609	smiling	070	sub-17	2.0	6.0	070_smiling	0.0		211.67300205082574	
32.0	189.5016991555749	fix	1.0		443	31.0	male	west_asian	1.9538400318344609	smiling	070	sub-17	2.0	6.0	070_smiling	0.0		212.1728813078371	3.7582982122257818
32.0	189.7018336632609	pulse	1.0	t		31.0	male	west_asian	1.9538400318344609	smiling	070	sub-17	2.0	6.0	070_smiling	0.0		212.3730158155231	
32.0	190.40180033819342	pulse	1.0	t		31.0	male	west_asian	1.9538400318344609	smiling	070	sub-17	2.0	6.0	070_smiling	0.0		213.07298249045562	
32.0	191.10178935057775	pulse	1.0	t		31.0	male	west_asian	1.9538400318344609	smiling	070	sub-17	2.0	6.0	070_smiling	0.0		213.77297150283994	
32.0	191.80178047597292	pulse	1.0	t		31.0	male	west_asian	1.9538400318344609	smiling	070	sub-17	2.0	6.0	070_smiling	0.0		214.4729626282351	
32.0	192.50177069578785	pulse	1.0	t		31.0	male	west_asian	1.9538400318344609	smiling	070	sub-17	2.0	6.0	070_smiling	0.0		215.17295284805004	
32.0	193.20177238619362	pulse	1.0	t		31.0	male	west_asian	1.9538400318344609	smiling	070	sub-17	2.0	6.0	070_smiling	0.0		215.87295453845582	
33.0	193.25999736780068	face	0.0		147	25.0	female	west_asian	2.6756864305610826	smiling	064	sub-17	2.0	6.0	064_smiling	0.0		215.93117952006287	1.241633567988174
33.0	193.9017885657522	pulse	0.0	t		25.0	female	west_asian	2.6756864305610826	smiling	064	sub-17	2.0	6.0	064_smiling	0.0		216.5729707180144	
33.0	194.50163093578885	fix	1.0		443	25.0	female	west_asian	2.6756864305610826	smiling	064	sub-17	2.0	6.0	064_smiling	0.0		217.17281308805104	3.7666161961096805
33.0	194.60176429641433	pulse	1.0	t		25.0	female	west_asian	2.6756864305610826	smiling	064	sub-17	2.0	6.0	064_smiling	0.0		217.27294644867652	
33.0	195.3017457623646	pulse	1.0	t		25.0	female	west_asian	2.6756864305610826	smiling	064	sub-17	2.0	6.0	064_smiling	0.0		217.97292791462678	
33.0	196.00173296361754	pulse	1.0	t		25.0	female	west_asian	2.6756864305610826	smiling	064	sub-17	2.0	6.0	064_smiling	0.0		218.67291511587973	
33.0	196.70173374844308	pulse	1.0	t		25.0	female	west_asian	2.6756864305610826	smiling	064	sub-17	2.0	6.0	064_smiling	0.0		219.37291590070527	
33.0	197.40172457197332	pulse	1.0	t		25.0	female	west_asian	2.6756864305610826	smiling	064	sub-17	2.0	6.0	064_smiling	0.0		220.0729067242355	
33.0	198.10171660293418	pulse	1.0	t		25.0	female	west_asian	2.6756864305610826	smiling	064	sub-17	2.0	6.0	064_smiling	0.0		220.77289875519637	
34.0	198.26824713189853	face	0.0		146	40.0	male	black	2.408674890569041	smiling	061	sub-17	2.0	6.0	061_smiling	0.0		220.93942928416072	1.2333382234210148
34.0	198.80171285990218	pulse	0.0	t		40.0	male	black	2.408674890569041	smiling	061	sub-17	2.0	6.0	061_smiling	0.0		221.47289501216437	
34.0	199.50158535531955	fix	1.0		444	40.0	male	black	2.408674890569041	smiling	061	sub-17	2.0	6.0	061_smiling	0.0		222.17276750758174	3.758374884011573
34.0	199.50919578534376	pulse	1.0	t		40.0	male	black	2.408674890569041	smiling	061	sub-17	2.0	6.0	061_smiling	0.0		222.18037793760595	
34.0	200.20168816797377	pulse	1.0	t		40.0	male	black	2.408674890569041	smiling	061	sub-17	2.0	6.0	061_smiling	0.0		222.87287032023596	
34.0	200.90166450233664	pulse	1.0	t		40.0	male	black	2.408674890569041	smiling	061	sub-17	2.0	6.0	061_smiling	0.0		223.57284665459883	
34.0	201.6016755503224	pulse	1.0	t		40.0	male	black	2.408674890569041	smiling	061	sub-17	2.0	6.0	061_smiling	0.0		224.2728577025846	
34.0	202.30167452401656	pulse	1.0	t		40.0	male	black	2.408674890569041	smiling	061	sub-17	2.0	6.0	061_smiling	0.0		224.97285667627875	
34.0	203.0016535751056	pulse	1.0	t		40.0	male	black	2.408674890569041	smiling	061	sub-17	2.0	6.0	061_smiling	0.0		225.67283572736778	
35.0	203.25996023933112	face	0.0		146	22.0	female	white	4.614007162753682	neutral	009	sub-17	2.0	6.0	009_neutral	0.0		225.9311423915933	1.2415611222095322
35.0	203.7016531525005	pulse	0.0	t		22.0	female	white	4.614007162753682	neutral	009	sub-17	2.0	6.0	009_neutral	0.0		226.3728353047627	
35.0	204.4016337128851	pulse	0.0	t		22.0	female	white	4.614007162753682	neutral	009	sub-17	2.0	6.0	009_neutral	0.0		227.07281586514728	
35.0	204.50152136154065	fix	1.0		444	22.0	female	white	4.614007162753682	neutral	009	sub-17	2.0	6.0	009_neutral	0.0		227.17270351380284	3.7583226626738906
35.0	205.10162604571087	pulse	1.0	t		22.0	female	white	4.614007162753682	neutral	009	sub-17	2.0	6.0	009_neutral	0.0		227.77280819797306	
35.0	205.80161868038704	pulse	1.0	t		22.0	female	white	4.614007162753682	neutral	009	sub-17	2.0	6.0	009_neutral	0.0		228.47280083264923	
35.0	206.50161674850096	pulse	1.0	t		22.0	female	white	4.614007162753682	neutral	009	sub-17	2.0	6.0	009_neutral	0.0		229.17279890076315	
35.0	207.20159036615223	pulse	1.0	t		22.0	female	white	4.614007162753682	neutral	009	sub-17	2.0	6.0	009_neutral	0.0		229.87277251841442	
35.0	207.90160020670737	pulse	1.0	t		22.0	female	white	4.614007162753682	neutral	009	sub-17	2.0	6.0	009_neutral	0.0		230.57278235896956	
36.0	208.25984402421454	face	0.0		146	27.0	male	black	3.5523278949462798	neutral	042	sub-17	2.0	6.0	042_neutral	0.0		230.93102617647673	1.2416193807002855
36.0	208.60159223766823	pulse	0.0	t		27.0	male	black	3.5523278949462798	neutral	042	sub-17	2.0	6.0	042_neutral	0.0		231.27277438993042	
36.0	209.30158940021647	pulse	0.0	t		27.0	male	black	3.5523278949462798	neutral	042	sub-17	2.0	6.0	042_neutral	0.0		231.97277155247866	
36.0	209.50146340491483	fix	1.0		444	27.0	male	black	3.5523278949462798	neutral	042	sub-17	2.0	6.0	042_neutral	0.0		232.17264555717702	3.758273158047814
36.0	210.00158565718448	pulse	1.0	t		27.0	male	black	3.5523278949462798	neutral	042	sub-17	2.0	6.0	042_neutral	0.0		232.67276780944667	
36.0	210.70157436770387	pulse	1.0	t		27.0	male	black	3.5523278949462798	neutral	042	sub-17	2.0	6.0	042_neutral	0.0		233.37275651996606	
36.0	211.40156549309904	pulse	1.0	t		27.0	male	black	3.5523278949462798	neutral	042	sub-17	2.0	6.0	042_neutral	0.0		234.07274764536123	
36.0	212.1015475627646	pulse	1.0	t		27.0	male	black	3.5523278949462798	neutral	042	sub-17	2.0	6.0	042_neutral	0.0		234.7727297150268	
36.0	212.80153717886424	pulse	1.0	t		27.0	male	black	3.5523278949462798	neutral	042	sub-17	2.0	6.0	042_neutral	0.0		235.47271933112643	
37.0	213.25973656296264	face	0.0		146	32.0	male	white	2.389176283326701	smiling	092	sub-17	2.0	6.0	092_smiling	1.0	dominance	235.93091871522483	1.2416688853118103
37.0	213.50154188784654	pulse	0.0	t		32.0	male	white	2.389176283326701	smiling	092	sub-17	2.0	6.0	092_smiling	1.0	dominance	236.17272404010873	
37.0	214.20152546680765	pulse	0.0	t		32.0	male	white	2.389176283326701	smiling	092	sub-17	2.0	6.0	092_smiling	1.0	dominance	236.87270761906984	
37.0	214.50140544827445	fix	1.0		177	32.0	male	white	2.389176283326701	smiling	092	sub-17	2.0	6.0	092_smiling	1.0	dominance	237.17258760053664	1.4999728328402853
37.0	214.90151478104235	pulse	1.0	t		32.0	male	white	2.389176283326701	smiling	092	sub-17	2.0	6.0	092_smiling	1.0	dominance	237.57269693330454	
37.0	215.6015040952916	pulse	1.0	t		32.0	male	white	2.389176283326701	smiling	092	sub-17	2.0	6.0	092_smiling	1.0	dominance	238.2726862475538	
37.0	216.00137828111474	rating	2.0		294	32.0	male	white	2.389176283326701	smiling	092	sub-17	2.0	6.0	092_smiling	1.0	dominance	238.67256043337693	2.4999800774094183
37.0	216.30152268971142	pulse	2.0	t		32.0	male	white	2.389176283326701	smiling	092	sub-17	2.0	6.0	092_smiling	1.0	dominance	238.9727048419736	
37.0	217.00149087393947	pulse	2.0	t		32.0	male	white	2.389176283326701	smiling	092	sub-17	2.0	6.0	092_smiling	1.0	dominance	239.67267302620166	
37.0	217.4431572236499	response	2.0	n		32.0	male	white	2.389176283326701	smiling	092	sub-17	2.0	6.0	092_smiling	1.0	dominance	240.1143393759121	
37.0	217.70149799776846	pulse	2.0	t		32.0	male	white	2.389176283326701	smiling	092	sub-17	2.0	6.0	092_smiling	1.0	dominance	240.37268015003065	
37.0	218.4014749358612	pulse	2.0	t		32.0	male	white	2.389176283326701	smiling	092	sub-17	2.0	6.0	092_smiling	1.0	dominance	241.07265708812338	
37.0	218.50135835852416	fix	3.0		444	32.0	male	white	2.389176283326701	smiling	092	sub-17	2.0	6.0	092_smiling	1.0	dominance	241.17254051078635	3.7582997215067735
37.0	219.10146485382575	pulse	3.0	t		32.0	male	white	2.389176283326701	smiling	092	sub-17	2.0	6.0	092_smiling	1.0	dominance	241.77264700608794	
37.0	219.80146503493597	pulse	3.0	t		32.0	male	white	2.389176283326701	smiling	092	sub-17	2.0	6.0	092_smiling	1.0	dominance	242.47264718719816	
37.0	220.50145223618892	pulse	3.0	t		32.0	male	white	2.389176283326701	smiling	092	sub-17	2.0	6.0	092_smiling	1.0	dominance	243.17263438845112	
37.0	221.2014460782957	pulse	3.0	t		32.0	male	white	2.389176283326701	smiling	092	sub-17	2.0	6.0	092_smiling	1.0	dominance	243.8726282305579	
37.0	221.90142965724226	pulse	3.0	t		32.0	male	white	2.389176283326701	smiling	092	sub-17	2.0	6.0	092_smiling	1.0	dominance	244.57261180950445	
38.0	222.25965808003093	face	0.0		146	30.0	female	black	2.7345801830481498	smiling	062	sub-17	2.0	6.0	062_smiling	0.0		244.93084023229312	1.2416474534402369
38.0	222.60143406435964	pulse	0.0	t		30.0	female	black	2.7345801830481498	smiling	062	sub-17	2.0	6.0	062_smiling	0.0		245.27261621662183	
38.0	223.3014239823242	pulse	0.0	t		30.0	female	black	2.7345801830481498	smiling	062	sub-17	2.0	6.0	062_smiling	0.0		245.97260613458639	
38.0	223.50130553347117	fix	1.0		444	30.0	female	black	2.7345801830481498	smiling	062	sub-17	2.0	6.0	062_smiling	0.0		246.17248768573336	3.75826772461005
38.0	224.00140424084384	pulse	1.0	t		30.0	female	black	2.7345801830481498	smiling	062	sub-17	2.0	6.0	062_smiling	0.0		246.67258639310603	
38.0	224.70141981670167	pulse	1.0	t		30.0	female	black	2.7345801830481498	smiling	062	sub-17	2.0	6.0	062_smiling	0.0		247.37260196896386	
38.0	225.40138558605395	pulse	1.0	t		30.0	female	black	2.7345801830481498	smiling	062	sub-17	2.0	6.0	062_smiling	0.0		248.07256773831614	
38.0	226.1013848615985	pulse	1.0	t		30.0	female	black	2.7345801830481498	smiling	062	sub-17	2.0	6.0	062_smiling	0.0		248.77256701386068	
38.0	226.80137508141343	pulse	1.0	t		30.0	female	black	2.7345801830481498	smiling	062	sub-17	2.0	6.0	062_smiling	0.0		249.47255723367562	
39.0	227.25957325808122	face	0.0		146	21.0	male	east_asian/white	3.501790688420215	neutral	036	sub-17	2.0	6.0	036_neutral	0.0		249.9307554103434	1.241674922464881
39.0	227.50136922538513	pulse	0.0	t		21.0	male	east_asian/white	3.501790688420215	neutral	036	sub-17	2.0	6.0	036_neutral	0.0		250.17255137764732	
39.0	228.20136668978375	pulse	0.0	t		21.0	male	east_asian/white	3.501790688420215	neutral	036	sub-17	2.0	6.0	036_neutral	0.0		250.87254884204594	
39.0	228.5012481805461	fix	1.0		444	21.0	male	east_asian/white	3.501790688420215	neutral	036	sub-17	2.0	6.0	036_neutral	0.0		251.1724303328083	3.7499503444560105
39.0	228.90135841889423	pulse	1.0	t		21.0	male	east_asian/white	3.501790688420215	neutral	036	sub-17	2.0	6.0	036_neutral	0.0		251.57254057115642	
39.0	229.6013404885598	pulse	1.0	t		21.0	male	east_asian/white	3.501790688420215	neutral	036	sub-17	2.0	6.0	036_neutral	0.0		252.272522640822	
39.0	230.3013373492431	pulse	1.0	t		21.0	male	east_asian/white	3.501790688420215	neutral	036	sub-17	2.0	6.0	036_neutral	0.0		252.9725195015053	
39.0	231.00133541735704	pulse	1.0	t		21.0	male	east_asian/white	3.501790688420215	neutral	036	sub-17	2.0	6.0	036_neutral	0.0		253.67251756961923	
39.0	231.70133620218257	pulse	1.0	t		21.0	male	east_asian/white	3.501790688420215	neutral	036	sub-17	2.0	6.0	036_neutral	0.0		254.37251835444476	
40.0	232.2511985250021	fix	0.0		720													254.9223806772643	5.999930270918412
40.0	232.40132098855975	pulse	0.0	t														255.07250314082194	
40.0	233.10130577495147	pulse	0.0	t														255.77248792721366	
40.0	233.80128995761333	pulse	0.0	t														256.4724721098755	
40.0	234.50128772387689	pulse	0.0	t														257.1724698761391	
40.0	235.20128367897996	pulse	0.0	t														257.87246583124215	
40.0	235.90127088023291	pulse	0.0	t														258.5724530324951	
40.0	236.60125506289478	pulse	0.0	t														259.27243721515697	
40.0	237.30126399788423	pulse	0.0	t														259.9724461501464	
40.0	238.00125180283794	pulse	0.0	t														260.67243395510013	
