trial_nr	onset	event_type	phase	response	nr_frames	face_age	face_sex	face_eth	attractiveness	expression	face_id	sub_id	ses	run	trial_type	catch	rating_type	onset_abs	duration
-1.0	0.05611688472026799	fix	0.0		714													95.35624840206583	5.966286945673346
-1.0	0.7060338298715578	pulse	0.0	t														96.00616534721712	
-1.0	1.40597807762515	pulse	0.0	t														96.70610959497071	
-1.0	2.105975753357143	pulse	0.0	t														97.4061072707027	
-1.0	2.8059483752913366	pulse	0.0	t														98.1060798926369	
-1.0	3.5059309583743925	pulse	0.0	t														98.80606247571995	
-1.0	4.205909013662222	pulse	0.0	t														99.50604053100778	
-1.0	4.905898539363534	pulse	0.0	t														100.2060300567091	
-1.0	5.60587176500394	pulse	0.0	t														100.9060032823495	
0.0	6.022403830393614	face	0.0		144	28.0	male	east_asian	1.5563072025467568	neutral	005	sub-12	2.0	1.0	005_neutral	1.0	attractiveness	101.32253534773918	1.2333263202826856
0.0	6.305870044442145	pulse	0.0	t		28.0	male	east_asian	1.5563072025467568	neutral	005	sub-12	2.0	1.0	005_neutral	1.0	attractiveness	101.6060015617877	
0.0	7.005834214492552	pulse	0.0	t		28.0	male	east_asian	1.5563072025467568	neutral	005	sub-12	2.0	1.0	005_neutral	1.0	attractiveness	102.30596573183811	
0.0	7.2557301506763	fix	1.0		177	28.0	male	east_asian	1.5563072025467568	neutral	005	sub-12	2.0	1.0	005_neutral	1.0	attractiveness	102.55586166802186	1.50830050430568
0.0	7.705826456870909	pulse	1.0	t		28.0	male	east_asian	1.5563072025467568	neutral	005	sub-12	2.0	1.0	005_neutral	1.0	attractiveness	103.00595797421647	
0.0	8.405797569540482	pulse	1.0	t		28.0	male	east_asian	1.5563072025467568	neutral	005	sub-12	2.0	1.0	005_neutral	1.0	attractiveness	103.70592908688604	
0.0	8.76403065498198	rating	2.0		294	28.0	male	east_asian	1.5563072025467568	neutral	005	sub-12	2.0	1.0	005_neutral	1.0	attractiveness	104.06416217232754	2.4915742267053247
0.0	9.100626918464513	pulse	2.0	t		28.0	male	east_asian	1.5563072025467568	neutral	005	sub-12	2.0	1.0	005_neutral	1.0	attractiveness	104.40075843581008	
0.0	9.80070035929566	pulse	2.0	t		28.0	male	east_asian	1.5563072025467568	neutral	005	sub-12	2.0	1.0	005_neutral	1.0	attractiveness	105.10083187664122	
0.0	10.50059570686608	pulse	2.0	t		28.0	male	east_asian	1.5563072025467568	neutral	005	sub-12	2.0	1.0	005_neutral	1.0	attractiveness	105.80072722421164	
0.0	11.200621756778673	pulse	2.0	t		28.0	male	east_asian	1.5563072025467568	neutral	005	sub-12	2.0	1.0	005_neutral	1.0	attractiveness	106.50075327412424	
0.0	11.255604881687304	fix	3.0		443	28.0	male	east_asian	1.5563072025467568	neutral	005	sub-12	2.0	1.0	005_neutral	1.0	attractiveness	106.55573639903287	3.7665499199938495
0.0	11.597389394274614	response	3.0	n		28.0	male	east_asian	1.5563072025467568	neutral	005	sub-12	2.0	1.0	005_neutral	1.0	attractiveness	106.89752091162018	
0.0	11.905697203422733	pulse	3.0	t		28.0	male	east_asian	1.5563072025467568	neutral	005	sub-12	2.0	1.0	005_neutral	1.0	attractiveness	107.2058287207683	
0.0	12.605673145739729	pulse	3.0	t		28.0	male	east_asian	1.5563072025467568	neutral	005	sub-12	2.0	1.0	005_neutral	1.0	attractiveness	107.90580466308529	
0.0	13.30566750108892	pulse	3.0	t		28.0	male	east_asian	1.5563072025467568	neutral	005	sub-12	2.0	1.0	005_neutral	1.0	attractiveness	108.60579901843448	
0.0	14.005650989730839	pulse	3.0	t		28.0	male	east_asian	1.5563072025467568	neutral	005	sub-12	2.0	1.0	005_neutral	1.0	attractiveness	109.3057825070764	
0.0	14.70563779875556	pulse	3.0	t		28.0	male	east_asian	1.5563072025467568	neutral	005	sub-12	2.0	1.0	005_neutral	1.0	attractiveness	110.00576931610112	
1.0	15.022154801681154	face	0.0		145	27.0	female	white	4.181058495821727	neutral	039	sub-12	2.0	1.0	039_neutral	0.0		110.32228631902672	1.2333121331921575
1.0	15.405632154104751	pulse	0.0	t		27.0	female	white	4.181058495821727	neutral	039	sub-12	2.0	1.0	039_neutral	0.0		110.70576367145031	
1.0	16.105601757508794	pulse	0.0	t		27.0	female	white	4.181058495821727	neutral	039	sub-12	2.0	1.0	039_neutral	0.0		111.40573327485436	
1.0	16.25546693487331	fix	1.0		444	27.0	female	white	4.181058495821727	neutral	039	sub-12	2.0	1.0	039_neutral	0.0		111.55559845221887	3.76654871258188
1.0	16.805595509152226	pulse	1.0	t		27.0	female	white	4.181058495821727	neutral	039	sub-12	2.0	1.0	039_neutral	0.0		112.10572702649779	
1.0	17.50558322373581	pulse	1.0	t		27.0	female	white	4.181058495821727	neutral	039	sub-12	2.0	1.0	039_neutral	0.0		112.80571474108137	
1.0	18.205536527078948	pulse	1.0	t		27.0	female	white	4.181058495821727	neutral	039	sub-12	2.0	1.0	039_neutral	0.0		113.50566804442451	
1.0	18.905513676807914	pulse	1.0	t		27.0	female	white	4.181058495821727	neutral	039	sub-12	2.0	1.0	039_neutral	0.0		114.20564519415348	
1.0	19.605496863596727	pulse	1.0	t		27.0	female	white	4.181058495821727	neutral	039	sub-12	2.0	1.0	039_neutral	0.0		114.90562838094229	
2.0	20.02201564745519	face	0.0		145	26.0	male	white	2.7966573816155993	neutral	117	sub-12	2.0	1.0	117_neutral	0.0		115.32214716480075	1.2333236036056405
2.0	20.30547190035486	pulse	0.0	t		26.0	male	white	2.7966573816155993	neutral	117	sub-12	2.0	1.0	117_neutral	0.0		115.60560341770042	
2.0	21.005453577878598	pulse	0.0	t		26.0	male	white	2.7966573816155993	neutral	117	sub-12	2.0	1.0	117_neutral	0.0		116.30558509522416	
2.0	21.255339251060832	fix	1.0		444	26.0	male	white	2.7966573816155993	neutral	117	sub-12	2.0	1.0	117_neutral	0.0		116.5554707684064	3.7665453921990775
2.0	21.70547117590786	pulse	1.0	t		26.0	male	white	2.7966573816155993	neutral	117	sub-12	2.0	1.0	117_neutral	0.0		117.00560269325342	
2.0	22.405448627489477	pulse	1.0	t		26.0	male	white	2.7966573816155993	neutral	117	sub-12	2.0	1.0	117_neutral	0.0		117.70558014483504	
2.0	23.10539830859716	pulse	1.0	t		26.0	male	white	2.7966573816155993	neutral	117	sub-12	2.0	1.0	117_neutral	0.0		118.40552982594272	
2.0	23.805388136151578	pulse	1.0	t		26.0	male	white	2.7966573816155993	neutral	117	sub-12	2.0	1.0	117_neutral	0.0		119.10551965349714	
2.0	24.505387924854404	pulse	1.0	t		26.0	male	white	2.7966573816155993	neutral	117	sub-12	2.0	1.0	117_neutral	0.0		119.80551944219997	
3.0	25.02188464325991	face	0.0		145	27.0	male	black	3.5523278949462798	smiling	042	sub-12	2.0	1.0	042_smiling	0.0		120.32201616060547	1.233340205519653
3.0	25.20534937822822	pulse	0.0	t		27.0	male	black	3.5523278949462798	smiling	042	sub-12	2.0	1.0	042_smiling	0.0		120.50548089557378	
3.0	25.90534131875347	pulse	0.0	t		27.0	male	black	3.5523278949462798	smiling	042	sub-12	2.0	1.0	042_smiling	0.0		121.20547283609903	
3.0	26.255224848779562	fix	1.0		444	27.0	male	black	3.5523278949462798	smiling	042	sub-12	2.0	1.0	042_smiling	0.0		121.55535636612512	3.7665450903459714
3.0	26.605309714746	pulse	1.0	t		27.0	male	black	3.5523278949462798	smiling	042	sub-12	2.0	1.0	042_smiling	0.0		121.90544123209156	
3.0	27.305309201596174	pulse	1.0	t		27.0	male	black	3.5523278949462798	smiling	042	sub-12	2.0	1.0	042_smiling	0.0		122.60544071894174	
3.0	28.00527186238196	pulse	1.0	t		27.0	male	black	3.5523278949462798	smiling	042	sub-12	2.0	1.0	042_smiling	0.0		123.30540337972752	
3.0	28.705255351023425	pulse	1.0	t		27.0	male	black	3.5523278949462798	smiling	042	sub-12	2.0	1.0	042_smiling	0.0		124.00538686836899	
3.0	29.405242763753904	pulse	1.0	t		27.0	male	black	3.5523278949462798	smiling	042	sub-12	2.0	1.0	042_smiling	0.0		124.70537428109947	
4.0	30.021769939125534	face	0.0		145	36.0	female	white	2.7548746518105847	neutral	011	sub-12	2.0	1.0	011_neutral	0.0		125.3219014564711	1.233287984953222
4.0	30.10522927092552	pulse	0.0	t		36.0	female	white	2.7548746518105847	neutral	011	sub-12	2.0	1.0	011_neutral	0.0		125.40536078827108	
4.0	30.80521728736221	pulse	0.0	t		36.0	female	white	2.7548746518105847	neutral	011	sub-12	2.0	1.0	011_neutral	0.0		126.10534880470777	
4.0	31.255057924078756	fix	1.0		444	36.0	female	white	2.7548746518105847	neutral	011	sub-12	2.0	1.0	011_neutral	0.0		126.55518944142432	3.7582227016987417
4.0	31.505179948147997	pulse	1.0	t		36.0	female	white	2.7548746518105847	neutral	011	sub-12	2.0	1.0	011_neutral	0.0		126.80531146549356	
4.0	32.205158607141584	pulse	1.0	t		36.0	female	white	2.7548746518105847	neutral	011	sub-12	2.0	1.0	011_neutral	0.0		127.50529012448715	
4.0	32.90513756798873	pulse	1.0	t		36.0	female	white	2.7548746518105847	neutral	011	sub-12	2.0	1.0	011_neutral	0.0		128.2052690853343	
4.0	33.60513071592595	pulse	1.0	t		36.0	female	white	2.7548746518105847	neutral	011	sub-12	2.0	1.0	011_neutral	0.0		128.90526223327151	
4.0	34.30511541197984	pulse	1.0	t		36.0	female	white	2.7548746518105847	neutral	011	sub-12	2.0	1.0	011_neutral	0.0		129.6052469293254	
5.0	35.0132806257775	face	0.0		147	19.0	male	white	2.243931555909272	neutral	130	sub-12	2.0	1.0	130_neutral	0.0		130.31341214312306	1.241654444136202
5.0	35.00723632160771	pulse	0.0	t		19.0	male	white	2.243931555909272	neutral	130	sub-12	2.0	1.0	130_neutral	0.0		130.30736783895327	
5.0	35.705089331881936	pulse	0.0	t		19.0	male	white	2.243931555909272	neutral	130	sub-12	2.0	1.0	130_neutral	0.0		131.0052208492275	
5.0	36.2549350699137	fix	1.0		443	19.0	male	white	2.243931555909272	neutral	130	sub-12	2.0	1.0	130_neutral	0.0		131.55506658725926	3.766550825552713
5.0	36.40507010384681	pulse	1.0	t		19.0	male	white	2.243931555909272	neutral	130	sub-12	2.0	1.0	130_neutral	0.0		131.70520162119237	
5.0	37.10504091466282	pulse	1.0	t		19.0	male	white	2.243931555909272	neutral	130	sub-12	2.0	1.0	130_neutral	0.0		132.40517243200838	
5.0	37.80501987550997	pulse	1.0	t		19.0	male	white	2.243931555909272	neutral	130	sub-12	2.0	1.0	130_neutral	0.0		133.10515139285553	
5.0	38.50501875865393	pulse	1.0	t		19.0	male	white	2.243931555909272	neutral	130	sub-12	2.0	1.0	130_neutral	0.0		133.8051502759995	
5.0	39.204978099056916	pulse	1.0	t		19.0	male	white	2.243931555909272	neutral	130	sub-12	2.0	1.0	130_neutral	0.0		134.50510961640248	
5.0	39.904967926611334	pulse	1.0	t		19.0	male	white	2.243931555909272	neutral	130	sub-12	2.0	1.0	130_neutral	0.0		135.2050994439569	
6.0	40.02148589546641	face	0.0		146	37.0	male	white	3.898925586947871	smiling	101	sub-12	2.0	1.0	101_smiling	0.0		135.32161741281197	1.2333239054587466
6.0	40.60493903928045	pulse	0.0	t		37.0	male	white	3.898925586947871	smiling	101	sub-12	2.0	1.0	101_smiling	0.0		135.90507055662601	
6.0	41.25480980092516	fix	1.0		443	37.0	male	white	3.898925586947871	smiling	101	sub-12	2.0	1.0	101_smiling	0.0		136.55494131827072	3.7665592774364995
6.0	41.30491558530366	pulse	1.0	t		37.0	male	white	3.898925586947871	smiling	101	sub-12	2.0	1.0	101_smiling	0.0		136.60504710264922	
6.0	42.004926542566864	pulse	1.0	t		37.0	male	white	3.898925586947871	smiling	101	sub-12	2.0	1.0	101_smiling	0.0		137.30505805991243	
6.0	42.70487592182144	pulse	1.0	t		37.0	male	white	3.898925586947871	smiling	101	sub-12	2.0	1.0	101_smiling	0.0		138.005007439167	
6.0	43.40486001416912	pulse	1.0	t		37.0	male	white	3.898925586947871	smiling	101	sub-12	2.0	1.0	101_smiling	0.0		138.70499153151468	
6.0	44.10483988057513	pulse	1.0	t		37.0	male	white	3.898925586947871	smiling	101	sub-12	2.0	1.0	101_smiling	0.0		139.4049713979207	
6.0	44.804820350686896	pulse	1.0	t		37.0	male	white	3.898925586947871	smiling	101	sub-12	2.0	1.0	101_smiling	0.0		140.10495186803246	
7.0	45.02136907836166	face	0.0		145	22.0	female	white	4.614007162753682	smiling	009	sub-12	2.0	1.0	009_smiling	0.0		140.32150059570722	1.2332988516604928
7.0	45.50480565044654	pulse	0.0	t		22.0	female	white	4.614007162753682	smiling	009	sub-12	2.0	1.0	009_smiling	0.0		140.8049371677921	
7.0	46.20478159276354	pulse	0.0	t		22.0	female	white	4.614007162753682	smiling	009	sub-12	2.0	1.0	009_smiling	0.0		141.5049131101091	
7.0	46.25466793002215	fix	1.0		444	22.0	female	white	4.614007162753682	smiling	009	sub-12	2.0	1.0	009_smiling	0.0		141.5547994473677	3.7582353795241943
7.0	46.90480371858757	pulse	1.0	t		22.0	female	white	4.614007162753682	smiling	009	sub-12	2.0	1.0	009_smiling	0.0		142.20493523593314	
7.0	47.604747966341165	pulse	1.0	t		22.0	female	white	4.614007162753682	smiling	009	sub-12	2.0	1.0	009_smiling	0.0		142.90487948368673	
7.0	48.304717871598314	pulse	1.0	t		22.0	female	white	4.614007162753682	smiling	009	sub-12	2.0	1.0	009_smiling	0.0		143.60484938894388	
7.0	49.004709510270914	pulse	1.0	t		22.0	female	white	4.614007162753682	smiling	009	sub-12	2.0	1.0	009_smiling	0.0		144.30484102761648	
7.0	49.704689678529576	pulse	1.0	t		22.0	female	white	4.614007162753682	smiling	009	sub-12	2.0	1.0	009_smiling	0.0		145.00482119587514	
8.0	50.012903309546346	face	0.0		146	27.0	female	white	4.181058495821727	smiling	039	sub-12	2.0	1.0	039_smiling	1.0	dominance	145.3130348268919	1.2416357292513567
8.0	50.40467467643657	pulse	0.0	t		27.0	female	white	4.181058495821727	smiling	039	sub-12	2.0	1.0	039_smiling	1.0	dominance	145.70480619378213	
8.0	51.10464518539993	pulse	0.0	t		27.0	female	white	4.181058495821727	smiling	039	sub-12	2.0	1.0	039_smiling	1.0	dominance	146.4047767027455	
8.0	51.2545390387977	fix	1.0		177	27.0	female	white	4.181058495821727	smiling	039	sub-12	2.0	1.0	039_smiling	1.0	dominance	146.55467055614326	1.4999563822434538
8.0	51.80465765192821	pulse	1.0	t		27.0	female	white	4.181058495821727	smiling	039	sub-12	2.0	1.0	039_smiling	1.0	dominance	147.10478916927377	
8.0	52.50461699233074	pulse	1.0	t		27.0	female	white	4.181058495821727	smiling	039	sub-12	2.0	1.0	039_smiling	1.0	dominance	147.8047485096763	
8.0	52.754495421041156	rating	2.0		295	27.0	female	white	4.181058495821727	smiling	039	sub-12	2.0	1.0	039_smiling	1.0	dominance	148.05462693838672	2.4999316302992156
8.0	53.19943275787091	pulse	2.0	t		27.0	female	white	4.181058495821727	smiling	039	sub-12	2.0	1.0	039_smiling	1.0	dominance	148.49956427521647	
8.0	53.89941745392434	pulse	2.0	t		27.0	female	white	4.181058495821727	smiling	039	sub-12	2.0	1.0	039_smiling	1.0	dominance	149.1995489712699	
8.0	54.3545870032367	response	2.0	w		27.0	female	white	4.181058495821727	smiling	039	sub-12	2.0	1.0	039_smiling	1.0	dominance	149.65471852058226	
8.0	54.59938434065225	pulse	2.0	t		27.0	female	white	4.181058495821727	smiling	039	sub-12	2.0	1.0	039_smiling	1.0	dominance	149.8995158579978	
8.0	55.25442705134037	fix	3.0		443	27.0	female	white	4.181058495821727	smiling	039	sub-12	2.0	1.0	039_smiling	1.0	dominance	150.55455856868593	3.766551127405819
8.0	55.304540080190236	pulse	3.0	t		27.0	female	white	4.181058495821727	smiling	039	sub-12	2.0	1.0	039_smiling	1.0	dominance	150.6046715975358	
8.0	56.004531115156624	pulse	3.0	t		27.0	female	white	4.181058495821727	smiling	039	sub-12	2.0	1.0	039_smiling	1.0	dominance	151.3046626325022	
8.0	56.70451279268036	pulse	3.0	t		27.0	female	white	4.181058495821727	smiling	039	sub-12	2.0	1.0	039_smiling	1.0	dominance	152.00464431002592	
8.0	57.40448360349683	pulse	3.0	t		27.0	female	white	4.181058495821727	smiling	039	sub-12	2.0	1.0	039_smiling	1.0	dominance	152.7046151208424	
8.0	58.10448580702359	pulse	3.0	t		27.0	female	white	4.181058495821727	smiling	039	sub-12	2.0	1.0	039_smiling	1.0	dominance	153.40461732436916	
8.0	58.804448769662486	pulse	3.0	t		27.0	female	white	4.181058495821727	smiling	039	sub-12	2.0	1.0	039_smiling	1.0	dominance	154.10458028700805	
9.0	59.02097817874619	face	0.0		145	28.0	male	white	3.9076800636689217	smiling	033	sub-12	2.0	1.0	033_smiling	0.0		154.32110969609175	1.2333199813692772
9.0	59.504460028778794	pulse	0.0	t		28.0	male	white	3.9076800636689217	smiling	033	sub-12	2.0	1.0	033_smiling	0.0		154.80459154612436	
9.0	60.20441212470996	pulse	0.0	t		28.0	male	white	3.9076800636689217	smiling	033	sub-12	2.0	1.0	033_smiling	0.0		155.50454364205552	
9.0	60.25429816011547	fix	1.0		444	28.0	male	white	3.9076800636689217	smiling	033	sub-12	2.0	1.0	033_smiling	0.0		155.55442967746103	3.758253490703737
9.0	60.904394104086805	pulse	1.0	t		28.0	male	white	3.9076800636689217	smiling	033	sub-12	2.0	1.0	033_smiling	0.0		156.20452562143237	
9.0	61.60439268537766	pulse	1.0	t		28.0	male	white	3.9076800636689217	smiling	033	sub-12	2.0	1.0	033_smiling	0.0		156.90452420272322	
9.0	62.304361383223295	pulse	1.0	t		28.0	male	white	3.9076800636689217	smiling	033	sub-12	2.0	1.0	033_smiling	0.0		157.60449290056886	
9.0	63.00434577742408	pulse	1.0	t		28.0	male	white	3.9076800636689217	smiling	033	sub-12	2.0	1.0	033_smiling	0.0		158.30447729476964	
9.0	63.704317795652514	pulse	1.0	t		28.0	male	white	3.9076800636689217	smiling	033	sub-12	2.0	1.0	033_smiling	0.0		159.00444931299808	
10.0	64.0125516508192	face	0.0		146	30.0	female	black	2.7345801830481498	neutral	062	sub-12	2.0	1.0	062_neutral	0.0		159.31268316816477	1.241591055009394
10.0	64.40429886947004	pulse	0.0	t		30.0	female	black	2.7345801830481498	neutral	062	sub-12	2.0	1.0	062_neutral	0.0		159.7044303868156	
10.0	65.1042877914656	pulse	0.0	t		30.0	female	black	2.7345801830481498	neutral	062	sub-12	2.0	1.0	062_neutral	0.0		160.40441930881116	
10.0	65.2541427058286	fix	1.0		444	30.0	female	black	2.7345801830481498	neutral	062	sub-12	2.0	1.0	062_neutral	0.0		160.55427422317416	3.758284581560474
10.0	65.80427520419607	pulse	1.0	t		30.0	female	black	2.7345801830481498	neutral	062	sub-12	2.0	1.0	062_neutral	0.0		161.10440672154164	
10.0	66.50423937424694	pulse	1.0	t		30.0	female	black	2.7345801830481498	neutral	062	sub-12	2.0	1.0	062_neutral	0.0		161.8043708915925	
10.0	67.20421592026969	pulse	1.0	t		30.0	female	black	2.7345801830481498	neutral	062	sub-12	2.0	1.0	062_neutral	0.0		162.50434743761525	
10.0	67.90420272929441	pulse	1.0	t		30.0	female	black	2.7345801830481498	neutral	062	sub-12	2.0	1.0	062_neutral	0.0		163.20433424663997	
10.0	68.60419497167277	pulse	1.0	t		30.0	female	black	2.7345801830481498	neutral	062	sub-12	2.0	1.0	062_neutral	0.0		163.90432648901833	
11.0	69.01242728738907	face	0.0		146	40.0	male	white	1.868682849184242	smiling	172	sub-12	2.0	1.0	172_smiling	0.0		164.31255880473464	1.2415989031869685
11.0	69.30415974542939	pulse	0.0	t		40.0	male	white	1.868682849184242	smiling	172	sub-12	2.0	1.0	172_smiling	0.0		164.60429126277495	
11.0	70.00414896927805	pulse	0.0	t		40.0	male	white	1.868682849184242	smiling	172	sub-12	2.0	1.0	172_smiling	0.0		165.3042804866236	
11.0	70.25402619057604	fix	1.0		444	40.0	male	white	1.868682849184242	smiling	172	sub-12	2.0	1.0	172_smiling	0.0		165.5541577079216	3.7665571644656666
11.0	70.70413125050754	pulse	1.0	t		40.0	male	white	1.868682849184242	smiling	172	sub-12	2.0	1.0	172_smiling	0.0		166.0042627678531	
11.0	71.40412590770984	pulse	1.0	t		40.0	male	white	1.868682849184242	smiling	172	sub-12	2.0	1.0	172_smiling	0.0		166.7042574250554	
11.0	72.10411241488146	pulse	1.0	t		40.0	male	white	1.868682849184242	smiling	172	sub-12	2.0	1.0	172_smiling	0.0		167.40424393222702	
11.0	72.80406813304853	pulse	1.0	t		40.0	male	white	1.868682849184242	smiling	172	sub-12	2.0	1.0	172_smiling	0.0		168.1041996503941	
11.0	73.50405916801492	pulse	1.0	t		40.0	male	white	1.868682849184242	smiling	172	sub-12	2.0	1.0	172_smiling	0.0		168.80419068536048	
12.0	74.02058335504171	face	0.0		145	20.0	male	black	3.1070433744528456	neutral	082	sub-12	2.0	1.0	082_neutral	0.0		169.32071487238727	1.233308510956249
12.0	74.20405352336411	pulse	0.0	t		20.0	male	black	3.1070433744528456	neutral	082	sub-12	2.0	1.0	082_neutral	0.0		169.50418504070967	
12.0	74.90402765456338	pulse	0.0	t		20.0	male	black	3.1070433744528456	neutral	082	sub-12	2.0	1.0	082_neutral	0.0		170.20415917190894	
12.0	75.25389186599796	fix	1.0		444	20.0	male	black	3.1070433744528456	neutral	082	sub-12	2.0	1.0	082_neutral	0.0		170.55402338334352	3.758315672418121
12.0	75.60399695611477	pulse	1.0	t		20.0	male	black	3.1070433744528456	neutral	082	sub-12	2.0	1.0	082_neutral	0.0		170.90412847346033	
12.0	76.30398014290358	pulse	1.0	t		20.0	male	black	3.1070433744528456	neutral	082	sub-12	2.0	1.0	082_neutral	0.0		171.60411166024915	
12.0	77.0039542741024	pulse	1.0	t		20.0	male	black	3.1070433744528456	neutral	082	sub-12	2.0	1.0	082_neutral	0.0		172.30408579144796	
12.0	77.70393866830318	pulse	1.0	t		20.0	male	black	3.1070433744528456	neutral	082	sub-12	2.0	1.0	082_neutral	0.0		173.00407018564874	
12.0	78.4039315143873	pulse	1.0	t		20.0	male	black	3.1070433744528456	neutral	082	sub-12	2.0	1.0	082_neutral	0.0		173.70406303173286	
13.0	79.01220753841608	face	0.0		146	22.0	female	west_asian	3.8205332272184642	smiling	066	sub-12	2.0	1.0	066_smiling	1.0	trustworthiness	174.31233905576164	1.2415539270923546
13.0	79.10390685299853	pulse	0.0	t		22.0	female	west_asian	3.8205332272184642	smiling	066	sub-12	2.0	1.0	066_smiling	1.0	trustworthiness	174.4040383703441	
13.0	79.80389305831704	pulse	0.0	t		22.0	female	west_asian	3.8205332272184642	smiling	066	sub-12	2.0	1.0	066_smiling	1.0	trustworthiness	175.1040245756626	
13.0	80.25376146550843	fix	1.0		177	22.0	female	west_asian	3.8205332272184642	smiling	066	sub-12	2.0	1.0	066_smiling	1.0	trustworthiness	175.553892982854	1.499959098920499
13.0	80.50387020804646	pulse	1.0	t		22.0	female	west_asian	3.8205332272184642	smiling	066	sub-12	2.0	1.0	066_smiling	1.0	trustworthiness	175.80400172539203	
13.0	81.20385460224679	pulse	1.0	t		22.0	female	west_asian	3.8205332272184642	smiling	066	sub-12	2.0	1.0	066_smiling	1.0	trustworthiness	176.50398611959235	
13.0	81.75372056442893	rating	2.0		294	22.0	female	west_asian	3.8205332272184642	smiling	066	sub-12	2.0	1.0	066_smiling	1.0	trustworthiness	177.0538520817745	2.499930422887246
13.0	81.89881676648474	pulse	2.0	t		22.0	female	west_asian	3.8205332272184642	smiling	066	sub-12	2.0	1.0	066_smiling	1.0	trustworthiness	177.1989482838303	
13.0	82.59875769385553	pulse	2.0	t		22.0	female	west_asian	3.8205332272184642	smiling	066	sub-12	2.0	1.0	066_smiling	1.0	trustworthiness	177.8988892112011	
13.0	83.22880214774432	response	2.0	d		22.0	female	west_asian	3.8205332272184642	smiling	066	sub-12	2.0	1.0	066_smiling	1.0	trustworthiness	178.52893366508988	
13.0	83.29874359732094	pulse	2.0	t		22.0	female	west_asian	3.8205332272184642	smiling	066	sub-12	2.0	1.0	066_smiling	1.0	trustworthiness	178.5988751146665	
13.0	84.00378734940205	pulse	2.0	t		22.0	female	west_asian	3.8205332272184642	smiling	066	sub-12	2.0	1.0	066_smiling	1.0	trustworthiness	179.3039188667476	
13.0	84.25365098731618	fix	3.0		444	22.0	female	west_asian	3.8205332272184642	smiling	066	sub-12	2.0	1.0	066_smiling	1.0	trustworthiness	179.55378250466174	3.7665493162876373
13.0	84.70375574539457	pulse	3.0	t		22.0	female	west_asian	3.8205332272184642	smiling	066	sub-12	2.0	1.0	066_smiling	1.0	trustworthiness	180.00388726274014	
13.0	85.40372866918142	pulse	3.0	t		22.0	female	west_asian	3.8205332272184642	smiling	066	sub-12	2.0	1.0	066_smiling	1.0	trustworthiness	180.70386018652698	
13.0	86.10372966529667	pulse	3.0	t		22.0	female	west_asian	3.8205332272184642	smiling	066	sub-12	2.0	1.0	066_smiling	1.0	trustworthiness	181.40386118264223	
13.0	86.80369836314185	pulse	3.0	t		22.0	female	west_asian	3.8205332272184642	smiling	066	sub-12	2.0	1.0	066_smiling	1.0	trustworthiness	182.1038298804874	
13.0	87.50367400360619	pulse	3.0	t		22.0	female	west_asian	3.8205332272184642	smiling	066	sub-12	2.0	1.0	066_smiling	1.0	trustworthiness	182.80380552095176	
14.0	88.02020030360381	face	0.0		145	24.0	female	black	3.0955033824114606	neutral	099	sub-12	2.0	1.0	099_neutral	0.0		183.32033182094938	1.233315755428066
14.0	88.20366745339652	pulse	0.0	t		24.0	female	black	3.0955033824114606	neutral	099	sub-12	2.0	1.0	099_neutral	0.0		183.50379897074208	
14.0	88.90364641424321	pulse	0.0	t		24.0	female	black	3.0955033824114606	neutral	099	sub-12	2.0	1.0	099_neutral	0.0		184.20377793158877	
14.0	89.25351605903188	fix	1.0		444	24.0	female	black	3.0955033824114606	neutral	099	sub-12	2.0	1.0	099_neutral	0.0		184.55364757637744	3.7582296443174528
14.0	89.60362446953104	pulse	1.0	t		24.0	female	black	3.0955033824114606	neutral	099	sub-12	2.0	1.0	099_neutral	0.0		184.9037559868766	
14.0	90.30361459893857	pulse	1.0	t		24.0	female	black	3.0955033824114606	neutral	099	sub-12	2.0	1.0	099_neutral	0.0		185.60374611628413	
14.0	91.00357876898943	pulse	1.0	t		24.0	female	black	3.0955033824114606	neutral	099	sub-12	2.0	1.0	099_neutral	0.0		186.303710286335	
14.0	91.70356950210271	pulse	1.0	t		24.0	female	black	3.0955033824114606	neutral	099	sub-12	2.0	1.0	099_neutral	0.0		187.00370101944827	
14.0	92.40354423700774	pulse	1.0	t		24.0	female	black	3.0955033824114606	neutral	099	sub-12	2.0	1.0	099_neutral	0.0		187.7036757543533	
15.0	93.01174570334933	face	0.0		146	28.0	male	east_asian	1.5563072025467568	smiling	005	sub-12	2.0	1.0	005_smiling	0.0		188.3118772206949	1.241638445927947
15.0	93.10352953676738	pulse	0.0	t		28.0	male	east_asian	1.5563072025467568	smiling	005	sub-12	2.0	1.0	005_smiling	0.0		188.40366105411294	
15.0	93.80351423282127	pulse	0.0	t		28.0	male	east_asian	1.5563072025467568	smiling	005	sub-12	2.0	1.0	005_smiling	0.0		189.10364575016683	
15.0	94.25338414927728	fix	1.0		444	28.0	male	east_asian	1.5563072025467568	smiling	005	sub-12	2.0	1.0	005_smiling	0.0		189.55351566662284	3.7665478070230165
15.0	94.50349349552107	pulse	1.0	t		28.0	male	east_asian	1.5563072025467568	smiling	005	sub-12	2.0	1.0	005_smiling	0.0		189.80362501286663	
15.0	95.20346973969117	pulse	1.0	t		28.0	male	east_asian	1.5563072025467568	smiling	005	sub-12	2.0	1.0	005_smiling	0.0		190.50360125703673	
15.0	95.90346107651067	pulse	1.0	t		28.0	male	east_asian	1.5563072025467568	smiling	005	sub-12	2.0	1.0	005_smiling	0.0		191.20359259385623	
15.0	96.60344426329902	pulse	1.0	t		28.0	male	east_asian	1.5563072025467568	smiling	005	sub-12	2.0	1.0	005_smiling	0.0		191.9035757806446	
15.0	97.30341356485087	pulse	1.0	t		28.0	male	east_asian	1.5563072025467568	smiling	005	sub-12	2.0	1.0	005_smiling	0.0		192.60354508219643	
16.0	98.0199319563003	face	0.0		146	36.0	female	white	2.7548746518105847	smiling	011	sub-12	2.0	1.0	011_smiling	0.0		193.32006347364586	1.2332964368370085
16.0	98.00624443269908	pulse	0.0	t		36.0	female	white	2.7548746518105847	smiling	011	sub-12	2.0	1.0	011_smiling	0.0		193.30637595004464	
16.0	98.70338748475297	pulse	0.0	t		36.0	female	white	2.7548746518105847	smiling	011	sub-12	2.0	1.0	011_smiling	0.0		194.00351900209853	
16.0	99.2532283931373	fix	1.0		443	36.0	female	white	2.7548746518105847	smiling	011	sub-12	2.0	1.0	011_smiling	0.0		194.55335991048287	3.7665701441437704
16.0	99.40334923997943	pulse	1.0	t		36.0	female	white	2.7548746518105847	smiling	011	sub-12	2.0	1.0	011_smiling	0.0		194.703480757325	
16.0	100.10335748056605	pulse	1.0	t		36.0	female	white	2.7548746518105847	smiling	011	sub-12	2.0	1.0	011_smiling	0.0		195.4034889979116	
16.0	100.80333130991221	pulse	1.0	t		36.0	female	white	2.7548746518105847	smiling	011	sub-12	2.0	1.0	011_smiling	0.0		196.10346282725777	
16.0	101.50331328928905	pulse	1.0	t		36.0	female	white	2.7548746518105847	smiling	011	sub-12	2.0	1.0	011_smiling	0.0		196.80344480663462	
16.0	102.20329979646067	pulse	1.0	t		36.0	female	white	2.7548746518105847	smiling	011	sub-12	2.0	1.0	011_smiling	0.0		197.50343131380623	
16.0	102.9033032073994	pulse	1.0	t		36.0	female	white	2.7548746518105847	smiling	011	sub-12	2.0	1.0	011_smiling	0.0		198.20343472474497	
17.0	103.01979853728108	face	0.0		146	28.0	male	white	3.9076800636689217	neutral	033	sub-12	2.0	1.0	033_neutral	0.0		198.31993005462664	1.233319679516626
17.0	103.60324322921133	pulse	0.0	t		28.0	male	white	3.9076800636689217	neutral	033	sub-12	2.0	1.0	033_neutral	0.0		198.9033747465569	
17.0	104.2531182167977	fix	1.0		443	28.0	male	white	3.9076800636689217	neutral	033	sub-12	2.0	1.0	033_neutral	0.0		199.55324973414326	3.7582148535211672
17.0	104.30324422532613	pulse	1.0	t		28.0	male	white	3.9076800636689217	neutral	033	sub-12	2.0	1.0	033_neutral	0.0		199.6033757426717	
17.0	105.00321322502441	pulse	1.0	t		28.0	male	white	3.9076800636689217	neutral	033	sub-12	2.0	1.0	033_neutral	0.0		200.30334474236997	
17.0	105.7031982229314	pulse	1.0	t		28.0	male	white	3.9076800636689217	neutral	033	sub-12	2.0	1.0	033_neutral	0.0		201.00332974027697	
17.0	106.40319197457438	pulse	1.0	t		28.0	male	white	3.9076800636689217	neutral	033	sub-12	2.0	1.0	033_neutral	0.0		201.70332349191995	
17.0	107.10318965030638	pulse	1.0	t		28.0	male	white	3.9076800636689217	neutral	033	sub-12	2.0	1.0	033_neutral	0.0		202.40332116765194	
17.0	107.80316559262337	pulse	1.0	t		28.0	male	white	3.9076800636689217	neutral	033	sub-12	2.0	1.0	033_neutral	0.0		203.10329710996893	
18.0	108.01133307031887	face	0.0		146	31.0	female	east_asian	3.395941106247513	smiling	087	sub-12	2.0	1.0	087_smiling	0.0		203.31146458766443	1.241654142283096
18.0	108.50313308305704	pulse	0.0	t		31.0	female	east_asian	3.395941106247513	smiling	087	sub-12	2.0	1.0	087_smiling	0.0		203.8032646004026	
18.0	109.20309755496055	pulse	0.0	t		31.0	female	east_asian	3.395941106247513	smiling	087	sub-12	2.0	1.0	087_smiling	0.0		204.5032290723061	
18.0	109.25298721260197	fix	1.0		444	31.0	female	east_asian	3.395941106247513	smiling	087	sub-12	2.0	1.0	087_smiling	0.0		204.55311872994753	3.766562295966196
18.0	109.90309251401595	pulse	1.0	t		31.0	female	east_asian	3.395941106247513	smiling	087	sub-12	2.0	1.0	087_smiling	0.0		205.20322403136151	
18.0	110.60306453224439	pulse	1.0	t		31.0	female	east_asian	3.395941106247513	smiling	087	sub-12	2.0	1.0	087_smiling	0.0		205.90319604958995	
18.0	111.30305013385669	pulse	1.0	t		31.0	female	east_asian	3.395941106247513	smiling	087	sub-12	2.0	1.0	087_smiling	0.0		206.60318165120225	
18.0	112.00302245393823	pulse	1.0	t		31.0	female	east_asian	3.395941106247513	smiling	087	sub-12	2.0	1.0	087_smiling	0.0		207.3031539712838	
18.0	112.70300896110984	pulse	1.0	t		31.0	female	east_asian	3.395941106247513	smiling	087	sub-12	2.0	1.0	087_smiling	0.0		208.0031404784554	
19.0	113.01954950856816	face	0.0		145	21.0	male	east_asian/white	3.501790688420215	smiling	036	sub-12	2.0	1.0	036_smiling	0.0		208.31968102591372	1.2333009646317805
19.0	113.40299939237002	pulse	0.0	t		21.0	male	east_asian/white	3.501790688420215	smiling	036	sub-12	2.0	1.0	036_smiling	0.0		208.70313090971558	
19.0	114.10297563654012	pulse	0.0	t		21.0	male	east_asian/white	3.501790688420215	smiling	036	sub-12	2.0	1.0	036_smiling	0.0		209.40310715388568	
19.0	114.25285047319994	fix	1.0		444	21.0	male	east_asian/white	3.501790688420215	smiling	036	sub-12	2.0	1.0	036_smiling	0.0		209.5529819905455	3.76656742746718
19.0	114.80295037144515	pulse	1.0	t		21.0	male	east_asian/white	3.501790688420215	smiling	036	sub-12	2.0	1.0	036_smiling	0.0		210.1030818887907	
19.0	115.50292872858608	pulse	1.0	t		21.0	male	east_asian/white	3.501790688420215	smiling	036	sub-12	2.0	1.0	036_smiling	0.0		210.80306024593165	
19.0	116.20291825428785	pulse	1.0	t		21.0	male	east_asian/white	3.501790688420215	smiling	036	sub-12	2.0	1.0	036_smiling	0.0		211.5030497716334	
19.0	116.90289268733977	pulse	1.0	t		21.0	male	east_asian/white	3.501790688420215	smiling	036	sub-12	2.0	1.0	036_smiling	0.0		212.20302420468533	
19.0	117.60286802595101	pulse	1.0	t		21.0	male	east_asian/white	3.501790688420215	smiling	036	sub-12	2.0	1.0	036_smiling	0.0		212.90299954329657	
20.0	118.01941790066712	face	0.0		145	20.0	female	white	3.9502586549940313	neutral	091	sub-12	2.0	1.0	091_neutral	0.0		213.31954941801268	1.2333145480156418
20.0	118.3028620794471	pulse	0.0	t		20.0	female	white	3.9502586549940313	neutral	091	sub-12	2.0	1.0	091_neutral	0.0		213.60299359679266	
20.0	119.00283621064636	pulse	0.0	t		20.0	female	white	3.9502586549940313	neutral	091	sub-12	2.0	1.0	091_neutral	0.0		214.30296772799193	
20.0	119.25273244868276	fix	1.0		1185	20.0	female	white	3.9502586549940313	neutral	091	sub-12	2.0	1.0	091_neutral	0.0		214.55286396602833	10.016358922517611
20.0	119.70286075129388	pulse	1.0	t		20.0	female	white	3.9502586549940313	neutral	091	sub-12	2.0	1.0	091_neutral	0.0		215.00299226863945	
20.0	120.40280167866513	pulse	1.0	t		20.0	female	white	3.9502586549940313	neutral	091	sub-12	2.0	1.0	091_neutral	0.0		215.7029331960107	
20.0	121.10278456360084	pulse	1.0	t		20.0	female	white	3.9502586549940313	neutral	091	sub-12	2.0	1.0	091_neutral	0.0		216.4029160809464	
20.0	121.80276352444753	pulse	1.0	t		20.0	female	white	3.9502586549940313	neutral	091	sub-12	2.0	1.0	091_neutral	0.0		217.1028950417931	
20.0	122.50275727609096	pulse	1.0	t		20.0	female	white	3.9502586549940313	neutral	091	sub-12	2.0	1.0	091_neutral	0.0		217.80288879343652	
20.0	123.2027169183466	pulse	1.0	t		20.0	female	white	3.9502586549940313	neutral	091	sub-12	2.0	1.0	091_neutral	0.0		218.50284843569216	
20.0	123.90270493478329	pulse	1.0	t		20.0	female	white	3.9502586549940313	neutral	091	sub-12	2.0	1.0	091_neutral	0.0		219.20283645212885	
20.0	124.60268661230702	pulse	1.0	t		20.0	female	white	3.9502586549940313	neutral	091	sub-12	2.0	1.0	091_neutral	0.0		219.9028181296526	
20.0	125.3026670824188	pulse	1.0	t		20.0	female	white	3.9502586549940313	neutral	091	sub-12	2.0	1.0	091_neutral	0.0		220.60279859976436	
20.0	126.00264604326594	pulse	1.0	t		20.0	female	white	3.9502586549940313	neutral	091	sub-12	2.0	1.0	091_neutral	0.0		221.3027775606115	
20.0	126.70263315414331	pulse	1.0	t		20.0	female	white	3.9502586549940313	neutral	091	sub-12	2.0	1.0	091_neutral	0.0		222.00276467148888	
20.0	127.40262237799197	pulse	1.0	t		20.0	female	white	3.9502586549940313	neutral	091	sub-12	2.0	1.0	091_neutral	0.0		222.70275389533754	
20.0	128.10259469807306	pulse	1.0	t		20.0	female	white	3.9502586549940313	neutral	091	sub-12	2.0	1.0	091_neutral	0.0		223.40272621541862	
20.0	128.80257486633218	pulse	1.0	t		20.0	female	white	3.9502586549940313	neutral	091	sub-12	2.0	1.0	091_neutral	0.0		224.10270638367774	
21.0	129.26909137120037	face	0.0		145	40.0	male	black	2.408674890569041	neutral	061	sub-12	2.0	1.0	061_neutral	1.0	trustworthiness	224.56922288854594	1.2333127368983696
21.0	129.50255503459084	pulse	0.0	t		40.0	male	black	2.408674890569041	neutral	061	sub-12	2.0	1.0	061_neutral	1.0	trustworthiness	224.8026865519364	
21.0	130.20253490099685	pulse	0.0	t		40.0	male	black	2.408674890569041	neutral	061	sub-12	2.0	1.0	061_neutral	1.0	trustworthiness	225.50266641834241	
21.0	130.50240410809874	fix	1.0		177	40.0	male	black	2.408674890569041	neutral	061	sub-12	2.0	1.0	061_neutral	1.0	trustworthiness	225.8025356254443	1.4999723804517089
21.0	130.9025422360246	pulse	1.0	t		40.0	male	black	2.408674890569041	neutral	061	sub-12	2.0	1.0	061_neutral	1.0	trustworthiness	226.20267375337016	
21.0	131.60250097272137	pulse	1.0	t		40.0	male	black	2.408674890569041	neutral	061	sub-12	2.0	1.0	061_neutral	1.0	trustworthiness	226.90263249006694	
21.0	132.00237648855045	rating	2.0		294	40.0	male	black	2.408674890569041	neutral	061	sub-12	2.0	1.0	061_neutral	1.0	trustworthiness	227.30250800589602	2.4999352525346694
21.0	132.29731794567306	pulse	2.0	t		40.0	male	black	2.408674890569041	neutral	061	sub-12	2.0	1.0	061_neutral	1.0	trustworthiness	227.59744946301862	
21.0	132.9972935861374	pulse	2.0	t		40.0	male	black	2.408674890569041	neutral	061	sub-12	2.0	1.0	061_neutral	1.0	trustworthiness	228.29742510348296	
21.0	133.63578901804522	response	2.0	e		40.0	male	black	2.408674890569041	neutral	061	sub-12	2.0	1.0	061_neutral	1.0	trustworthiness	228.93592053539078	
21.0	133.6972659062185	pulse	2.0	t		40.0	male	black	2.408674890569041	neutral	061	sub-12	2.0	1.0	061_neutral	1.0	trustworthiness	228.99739742356405	
21.0	134.40243915323026	pulse	2.0	t		40.0	male	black	2.408674890569041	neutral	061	sub-12	2.0	1.0	061_neutral	1.0	trustworthiness	229.70257067057582	
21.0	134.50231174108512	fix	3.0		444	40.0	male	black	2.408674890569041	neutral	061	sub-12	2.0	1.0	061_neutral	1.0	trustworthiness	229.80244325843069	3.758306918681683
21.0	135.1024090584874	pulse	3.0	t		40.0	male	black	2.408674890569041	neutral	061	sub-12	2.0	1.0	061_neutral	1.0	trustworthiness	230.40254057583297	
21.0	135.8023871137757	pulse	3.0	t		40.0	male	black	2.408674890569041	neutral	061	sub-12	2.0	1.0	061_neutral	1.0	trustworthiness	231.10251863112126	
21.0	136.50237724318276	pulse	3.0	t		40.0	male	black	2.408674890569041	neutral	061	sub-12	2.0	1.0	061_neutral	1.0	trustworthiness	231.80250876052833	
21.0	137.20235831700074	pulse	3.0	t		40.0	male	black	2.408674890569041	neutral	061	sub-12	2.0	1.0	061_neutral	1.0	trustworthiness	232.5024898343463	
21.0	137.90233093893494	pulse	3.0	t		40.0	male	black	2.408674890569041	neutral	061	sub-12	2.0	1.0	061_neutral	1.0	trustworthiness	233.2024624562805	
22.0	138.2606186597668	face	0.0		146	25.0	female	west_asian	2.6756864305610826	neutral	064	sub-12	2.0	1.0	064_neutral	0.0		233.56075017711237	1.2415608697110656
22.0	138.60231714425345	pulse	0.0	t		25.0	female	west_asian	2.6756864305610826	neutral	064	sub-12	2.0	1.0	064_neutral	0.0		233.902448661599	
22.0	139.30229218101158	pulse	0.0	t		25.0	female	west_asian	2.6756864305610826	neutral	064	sub-12	2.0	1.0	064_neutral	0.0		234.60242369835714	
22.0	139.50217952947787	fix	1.0		444	25.0	female	west_asian	2.6756864305610826	neutral	064	sub-12	2.0	1.0	064_neutral	0.0		234.80231104682343	3.758248057349647
22.0	140.00227808447744	pulse	1.0	t		25.0	female	west_asian	2.6756864305610826	neutral	064	sub-12	2.0	1.0	064_neutral	0.0		235.302409601823	
22.0	140.7022585545892	pulse	1.0	t		25.0	female	west_asian	2.6756864305610826	neutral	064	sub-12	2.0	1.0	064_neutral	0.0		236.00239007193477	
22.0	141.40223570431817	pulse	1.0	t		25.0	female	west_asian	2.6756864305610826	neutral	064	sub-12	2.0	1.0	064_neutral	0.0		236.70236722166374	
22.0	142.10221707998926	pulse	1.0	t		25.0	female	west_asian	2.6756864305610826	neutral	064	sub-12	2.0	1.0	064_neutral	0.0		237.40234859733482	
22.0	142.8022081149552	pulse	1.0	t		25.0	female	west_asian	2.6756864305610826	neutral	064	sub-12	2.0	1.0	064_neutral	0.0		238.10233963230075	
23.0	143.26042758682752	face	0.0		146	21.0	male	black	2.969757262236371	smiling	137	sub-12	2.0	1.0	137_smiling	1.0	dominance	238.56055910417308	1.241613090277042
23.0	143.50218586839037	pulse	0.0	t		21.0	male	black	2.969757262236371	smiling	137	sub-12	2.0	1.0	137_smiling	1.0	dominance	238.80231738573593	
23.0	144.2021642255313	pulse	0.0	t		21.0	male	black	2.969757262236371	smiling	137	sub-12	2.0	1.0	137_smiling	1.0	dominance	239.50229574287687	
23.0	144.50204067710456	fix	1.0		177	21.0	male	black	2.969757262236371	smiling	137	sub-12	2.0	1.0	137_smiling	1.0	dominance	239.80217219445012	1.4999536655668635
23.0	144.90215314752686	pulse	1.0	t		21.0	male	black	2.969757262236371	smiling	137	sub-12	2.0	1.0	137_smiling	1.0	dominance	240.20228466487242	
23.0	145.60212908984386	pulse	1.0	t		21.0	male	black	2.969757262236371	smiling	137	sub-12	2.0	1.0	137_smiling	1.0	dominance	240.90226060718942	
23.0	146.00199434267142	rating	2.0		295	21.0	male	black	2.969757262236371	smiling	137	sub-12	2.0	1.0	137_smiling	1.0	dominance	241.302125860017	2.499945817389289
23.0	146.29707767069704	pulse	2.0	t		21.0	male	black	2.969757262236371	smiling	137	sub-12	2.0	1.0	137_smiling	1.0	dominance	241.5972091880426	
23.0	146.99704757595464	pulse	2.0	t		21.0	male	black	2.969757262236371	smiling	137	sub-12	2.0	1.0	137_smiling	1.0	dominance	242.2971790933002	
23.0	147.69700057744467	pulse	2.0	t		21.0	male	black	2.969757262236371	smiling	137	sub-12	2.0	1.0	137_smiling	1.0	dominance	242.99713209479023	
23.0	148.3968929064854	pulse	2.0	t		21.0	male	black	2.969757262236371	smiling	137	sub-12	2.0	1.0	137_smiling	1.0	dominance	243.69702442383095	
23.0	148.5019401600607	fix	3.0		443	21.0	male	black	2.969757262236371	smiling	137	sub-12	2.0	1.0	137_smiling	1.0	dominance	243.80207167740627	3.7583054094166073
23.0	148.6853786338197	response	3.0	e		21.0	male	black	2.969757262236371	smiling	137	sub-12	2.0	1.0	137_smiling	1.0	dominance	243.98551015116527	
23.0	149.10202208296096	pulse	3.0	t		21.0	male	black	2.969757262236371	smiling	137	sub-12	2.0	1.0	137_smiling	1.0	dominance	244.40215360030652	
23.0	149.80201583460394	pulse	3.0	t		21.0	male	black	2.969757262236371	smiling	137	sub-12	2.0	1.0	137_smiling	1.0	dominance	245.1021473519495	
23.0	150.5020077751292	pulse	3.0	t		21.0	male	black	2.969757262236371	smiling	137	sub-12	2.0	1.0	137_smiling	1.0	dominance	245.80213929247475	
23.0	151.2019810007696	pulse	3.0	t		21.0	male	black	2.969757262236371	smiling	137	sub-12	2.0	1.0	137_smiling	1.0	dominance	246.50211251811515	
23.0	151.90196599867613	pulse	3.0	t		21.0	male	black	2.969757262236371	smiling	137	sub-12	2.0	1.0	137_smiling	1.0	dominance	247.2020975160217	
24.0	152.26024556947732	face	0.0		146	31.0	female	west_asian	2.364902506963788	smiling	006	sub-12	2.0	1.0	006_smiling	0.0		247.56037708682288	1.2415584548871266
24.0	152.60193862061033	pulse	0.0	t		31.0	female	west_asian	2.364902506963788	smiling	006	sub-12	2.0	1.0	006_smiling	0.0		247.9020701379559	
24.0	153.30193086298868	pulse	0.0	t		31.0	female	west_asian	2.364902506963788	smiling	006	sub-12	2.0	1.0	006_smiling	0.0		248.60206238033425	
24.0	153.50180402436445	fix	1.0		444	31.0	female	west_asian	2.364902506963788	smiling	006	sub-12	2.0	1.0	006_smiling	0.0		248.80193554171	3.758307220534789
24.0	154.00190680530568	pulse	1.0	t		31.0	female	west_asian	2.364902506963788	smiling	006	sub-12	2.0	1.0	006_smiling	0.0		249.30203832265124	
24.0	154.70189542544813	pulse	1.0	t		31.0	female	west_asian	2.364902506963788	smiling	006	sub-12	2.0	1.0	006_smiling	0.0		250.0020269427937	
24.0	155.40187166961823	pulse	1.0	t		31.0	female	west_asian	2.364902506963788	smiling	006	sub-12	2.0	1.0	006_smiling	0.0		250.7020031869638	
24.0	156.10184368784667	pulse	1.0	t		31.0	female	west_asian	2.364902506963788	smiling	006	sub-12	2.0	1.0	006_smiling	0.0		251.40197520519223	
24.0	156.80182747834124	pulse	1.0	t		31.0	female	west_asian	2.364902506963788	smiling	006	sub-12	2.0	1.0	006_smiling	0.0		252.1019589956868	
25.0	157.26011124489924	face	0.0		146	21.0	male	black	2.969757262236371	neutral	137	sub-12	2.0	1.0	137_neutral	0.0		252.5602427622448	1.2415539270923546
25.0	157.50181790960187	pulse	0.0	t		21.0	male	black	2.969757262236371	neutral	137	sub-12	2.0	1.0	137_neutral	0.0		252.80194942694743	
25.0	158.20179475747773	pulse	0.0	t		21.0	male	black	2.969757262236371	neutral	137	sub-12	2.0	1.0	137_neutral	0.0		253.5019262748233	
25.0	158.5016651719916	fix	1.0		444	21.0	male	black	2.969757262236371	neutral	137	sub-12	2.0	1.0	137_neutral	0.0		253.80179668933715	3.766553240376652
25.0	158.901772812766	pulse	1.0	t		21.0	male	black	2.969757262236371	neutral	137	sub-12	2.0	1.0	137_neutral	0.0		254.20190433011157	
25.0	159.60175388658354	pulse	1.0	t		21.0	male	black	2.969757262236371	neutral	137	sub-12	2.0	1.0	137_neutral	0.0		254.9018854039291	
25.0	160.30173375298955	pulse	1.0	t		21.0	male	black	2.969757262236371	neutral	137	sub-12	2.0	1.0	137_neutral	0.0		255.6018652703351	
25.0	161.00170728048306	pulse	1.0	t		21.0	male	black	2.969757262236371	neutral	137	sub-12	2.0	1.0	137_neutral	0.0		256.3018387978286	
25.0	161.7017085784505	pulse	1.0	t		21.0	male	black	2.969757262236371	neutral	137	sub-12	2.0	1.0	137_neutral	0.0		257.00184009579607	
26.0	162.26821841236824	face	0.0		145	40.0	female	west_asian	1.5777954635893354	neutral	038	sub-12	2.0	1.0	038_neutral	0.0		257.5683499297138	1.2333202832223833
26.0	162.4016815022378	pulse	0.0	t		40.0	female	west_asian	1.5777954635893354	neutral	038	sub-12	2.0	1.0	038_neutral	0.0		257.70181301958337	
26.0	163.1016547278782	pulse	0.0	t		40.0	female	west_asian	1.5777954635893354	neutral	038	sub-12	2.0	1.0	038_neutral	0.0		258.4017862452238	
26.0	163.50153869559063	fix	1.0		444	40.0	female	west_asian	1.5777954635893354	neutral	038	sub-12	2.0	1.0	038_neutral	0.0		258.8016702129362	3.766562295966196
26.0	163.80165330916907	pulse	1.0	t		40.0	female	west_asian	1.5777954635893354	neutral	038	sub-12	2.0	1.0	038_neutral	0.0		259.10178482651463	
26.0	164.50162230886735	pulse	1.0	t		40.0	female	west_asian	1.5777954635893354	neutral	038	sub-12	2.0	1.0	038_neutral	0.0		259.8017538262129	
26.0	165.20161575865768	pulse	1.0	t		40.0	female	west_asian	1.5777954635893354	neutral	038	sub-12	2.0	1.0	038_neutral	0.0		260.50174727600324	
26.0	165.90158234353248	pulse	1.0	t		40.0	female	west_asian	1.5777954635893354	neutral	038	sub-12	2.0	1.0	038_neutral	0.0		261.20171386087804	
26.0	166.60156432290933	pulse	1.0	t		40.0	female	west_asian	1.5777954635893354	neutral	038	sub-12	2.0	1.0	038_neutral	0.0		261.9016958402549	
27.0	167.26810099155682	face	0.0		145	31.0	female	east_asian	3.395941106247513	neutral	087	sub-12	2.0	1.0	087_neutral	0.0		262.5682325089024	1.2332991535140536
27.0	167.30157045052465	pulse	0.0	t		31.0	female	east_asian	3.395941106247513	neutral	087	sub-12	2.0	1.0	087_neutral	0.0		262.6017019678702	
27.0	168.0015273761037	pulse	0.0	t		31.0	female	east_asian	3.395941106247513	neutral	087	sub-12	2.0	1.0	087_neutral	0.0		263.30165889344926	
27.0	168.50140014507087	fix	1.0		443	31.0	female	east_asian	3.395941106247513	neutral	087	sub-12	2.0	1.0	087_neutral	0.0		263.80153166241644	3.758295750120851
27.0	168.70151086474561	pulse	1.0	t		31.0	female	east_asian	3.395941106247513	neutral	087	sub-12	2.0	1.0	087_neutral	0.0		264.0016423820912	
27.0	169.40149133485738	pulse	1.0	t		31.0	female	east_asian	3.395941106247513	neutral	087	sub-12	2.0	1.0	087_neutral	0.0		264.70162285220295	
27.0	170.10213527783026	pulse	1.0	t		31.0	female	east_asian	3.395941106247513	neutral	087	sub-12	2.0	1.0	087_neutral	0.0		265.4022667951758	
27.0	170.8014887992922	pulse	1.0	t		31.0	female	east_asian	3.395941106247513	neutral	087	sub-12	2.0	1.0	087_neutral	0.0		266.10162031663776	
27.0	171.50144119707647	pulse	1.0	t		31.0	female	east_asian	3.395941106247513	neutral	087	sub-12	2.0	1.0	087_neutral	0.0		266.80157271442204	
27.0	172.20141593198196	pulse	1.0	t		31.0	female	east_asian	3.395941106247513	neutral	087	sub-12	2.0	1.0	087_neutral	0.0		267.5015474493275	
28.0	172.25969589519173	face	0.0		147	20.0	male	black	2.609629924393156	smiling	043	sub-12	2.0	1.0	043_smiling	0.0		267.5598274125373	1.2415816975671987
28.0	172.90139972247653	pulse	0.0	t		20.0	male	black	2.609629924393156	smiling	043	sub-12	2.0	1.0	043_smiling	0.0		268.2015312398221	
28.0	173.50127759275892	fix	1.0		443	20.0	male	black	2.609629924393156	smiling	043	sub-12	2.0	1.0	043_smiling	0.0		268.8014091101045	3.7582903167672157
28.0	173.60160899715083	pulse	1.0	t		20.0	male	black	2.609629924393156	smiling	043	sub-12	2.0	1.0	043_smiling	0.0		268.9017405144964	
28.0	174.30136217196514	pulse	1.0	t		20.0	male	black	2.609629924393156	smiling	043	sub-12	2.0	1.0	043_smiling	0.0		269.6014936893107	
28.0	175.0013444531951	pulse	1.0	t		20.0	male	black	2.609629924393156	smiling	043	sub-12	2.0	1.0	043_smiling	0.0		270.30147597054065	
28.0	175.70132190477716	pulse	1.0	t		20.0	male	black	2.609629924393156	smiling	043	sub-12	2.0	1.0	043_smiling	0.0		271.0014534221227	
28.0	176.40130146933006	pulse	1.0	t		20.0	male	black	2.609629924393156	smiling	043	sub-12	2.0	1.0	043_smiling	0.0		271.7014329866756	
28.0	177.10128707094236	pulse	1.0	t		20.0	male	black	2.609629924393156	smiling	043	sub-12	2.0	1.0	043_smiling	0.0		272.4014185882879	
29.0	177.25956790952614	face	0.0		147	40.0	female	west_asian	1.5777954635893354	smiling	038	sub-12	2.0	1.0	038_smiling	0.0		272.5596994268717	1.2415705290068217
29.0	177.8012877652045	pulse	0.0	t		40.0	female	west_asian	1.5777954635893354	smiling	038	sub-12	2.0	1.0	038_smiling	0.0		273.10141928255007	
29.0	178.50113843853296	fix	1.0		444	40.0	female	west_asian	1.5777954635893354	smiling	038	sub-12	2.0	1.0	038_smiling	0.0		273.8012699558785	3.7582106275795013
29.0	178.5087858839056	pulse	1.0	t		40.0	female	west_asian	1.5777954635893354	smiling	038	sub-12	2.0	1.0	038_smiling	0.0		273.80891740125116	
29.0	179.20122938683699	pulse	1.0	t		40.0	female	west_asian	1.5777954635893354	smiling	038	sub-12	2.0	1.0	038_smiling	0.0		274.50136090418255	
29.0	179.9012122717727	pulse	1.0	t		40.0	female	west_asian	1.5777954635893354	smiling	038	sub-12	2.0	1.0	038_smiling	0.0		275.20134378911825	
29.0	180.60118489370734	pulse	1.0	t		40.0	female	west_asian	1.5777954635893354	smiling	038	sub-12	2.0	1.0	038_smiling	0.0		275.9013164110529	
29.0	181.30117260829047	pulse	1.0	t		40.0	female	west_asian	1.5777954635893354	smiling	038	sub-12	2.0	1.0	038_smiling	0.0		276.60130412563603	
29.0	182.00116877475784	pulse	1.0	t		40.0	female	west_asian	1.5777954635893354	smiling	038	sub-12	2.0	1.0	038_smiling	0.0		277.3013002921034	
30.0	182.25934906611246	face	0.0		146	24.0	female	east_asian	4.409868682849185	neutral	030	sub-12	2.0	1.0	030_neutral	0.0		277.559480583458	1.2416526330180204
30.0	182.70113837816234	pulse	0.0	t		24.0	female	east_asian	4.409868682849185	neutral	030	sub-12	2.0	1.0	030_neutral	0.0		278.0012698955079	
30.0	183.4011303186876	pulse	0.0	t		24.0	female	east_asian	4.409868682849185	neutral	030	sub-12	2.0	1.0	030_neutral	0.0		278.70126183603315	
30.0	183.50100169913048	fix	1.0		444	24.0	female	east_asian	4.409868682849185	neutral	030	sub-12	2.0	1.0	030_neutral	0.0		278.80113321647605	3.758209722020638
30.0	184.10110837397542	pulse	1.0	t		24.0	female	east_asian	4.409868682849185	neutral	030	sub-12	2.0	1.0	030_neutral	0.0		279.401239891321	
30.0	184.80107012920234	pulse	1.0	t		24.0	female	east_asian	4.409868682849185	neutral	030	sub-12	2.0	1.0	030_neutral	0.0		280.1012016465479	
30.0	185.50167392572803	pulse	1.0	t		24.0	female	east_asian	4.409868682849185	neutral	030	sub-12	2.0	1.0	030_neutral	0.0		280.8018054430736	
30.0	186.20103952130967	pulse	1.0	t		24.0	female	east_asian	4.409868682849185	neutral	030	sub-12	2.0	1.0	030_neutral	0.0		281.50117103865523	
30.0	186.90103478221772	pulse	1.0	t		24.0	female	east_asian	4.409868682849185	neutral	030	sub-12	2.0	1.0	030_neutral	0.0		282.2011662995633	
31.0	187.25921142115112	face	0.0		146	40.0	male	black	2.408674890569041	smiling	061	sub-12	2.0	1.0	061_smiling	0.0		282.5593429384967	1.2416592737840801
31.0	187.60101615788835	pulse	0.0	t		40.0	male	black	2.408674890569041	smiling	061	sub-12	2.0	1.0	061_smiling	0.0		282.9011476752339	
31.0	188.30098908167565	pulse	0.0	t		40.0	male	black	2.408674890569041	smiling	061	sub-12	2.0	1.0	061_smiling	0.0		283.6011205990212	
31.0	188.5008706949352	fix	1.0		444	40.0	male	black	2.408674890569041	smiling	061	sub-12	2.0	1.0	061_smiling	0.0		283.80100221228076	3.7582091183144257
31.0	189.00097075919984	pulse	1.0	t		40.0	male	black	2.408674890569041	smiling	061	sub-12	2.0	1.0	061_smiling	0.0		284.3011022765454	
31.0	189.70095002189964	pulse	1.0	t		40.0	male	black	2.408674890569041	smiling	061	sub-12	2.0	1.0	061_smiling	0.0		285.0010815392452	
31.0	190.40093139757028	pulse	1.0	t		40.0	male	black	2.408674890569041	smiling	061	sub-12	2.0	1.0	061_smiling	0.0		285.70106291491584	
31.0	191.10089828429773	pulse	1.0	t		40.0	male	black	2.408674890569041	smiling	061	sub-12	2.0	1.0	061_smiling	0.0		286.4010298016433	
31.0	191.80091558047388	pulse	1.0	t		40.0	male	black	2.408674890569041	smiling	061	sub-12	2.0	1.0	061_smiling	0.0		287.10104709781945	
32.0	192.25907981324963	face	0.0		146	28.0	female	white	5.676880222841227	smiling	124	sub-12	2.0	1.0	124_smiling	0.0		287.5592113305952	1.2416526330184752
32.0	192.50088488202528	pulse	0.0	t		28.0	female	white	5.676880222841227	smiling	124	sub-12	2.0	1.0	124_smiling	0.0		287.80101639937084	
32.0	193.2008502594881	pulse	0.0	t		28.0	female	white	5.676880222841227	smiling	124	sub-12	2.0	1.0	124_smiling	0.0		288.50098177683367	
32.0	193.5007324462681	fix	1.0		444	28.0	female	white	5.676880222841227	smiling	124	sub-12	2.0	1.0	124_smiling	0.0		288.80086396361366	3.7583087297994098
32.0	193.9008575945154	pulse	1.0	t		28.0	female	white	5.676880222841227	smiling	124	sub-12	2.0	1.0	124_smiling	0.0		289.20098911186096	
32.0	194.60082810347876	pulse	1.0	t		28.0	female	white	5.676880222841227	smiling	124	sub-12	2.0	1.0	124_smiling	0.0		289.9009596208243	
32.0	195.30081068656182	pulse	1.0	t		28.0	female	white	5.676880222841227	smiling	124	sub-12	2.0	1.0	124_smiling	0.0		290.6009422039074	
32.0	196.00080655117563	pulse	1.0	t		28.0	female	white	5.676880222841227	smiling	124	sub-12	2.0	1.0	124_smiling	0.0		291.3009380685212	
32.0	196.70076860825566	pulse	1.0	t		28.0	female	white	5.676880222841227	smiling	124	sub-12	2.0	1.0	124_smiling	0.0		292.0009001256012	
33.0	197.2590411760675	face	0.0		146	30.0	female	black	2.7345801830481498	smiling	062	sub-12	2.0	1.0	062_smiling	0.0		292.5591726934131	1.2415557382100815
33.0	197.40074304130803	pulse	0.0	t		30.0	female	black	2.7345801830481498	smiling	062	sub-12	2.0	1.0	062_smiling	0.0		292.7008745586536	
33.0	198.10072230400783	pulse	0.0	t		30.0	female	black	2.7345801830481498	smiling	062	sub-12	2.0	1.0	062_smiling	0.0		293.4008538213534	
33.0	198.5005969142776	fix	1.0		444	30.0	female	black	2.7345801830481498	smiling	062	sub-12	2.0	1.0	062_smiling	0.0		293.80072843162316	3.766567125614074
33.0	198.80071545194505	pulse	1.0	t		30.0	female	black	2.7345801830481498	smiling	062	sub-12	2.0	1.0	062_smiling	0.0		294.1008469692906	
33.0	199.5006756979069	pulse	1.0	t		30.0	female	black	2.7345801830481498	smiling	062	sub-12	2.0	1.0	062_smiling	0.0		294.80080721525246	
33.0	200.2006667328733	pulse	1.0	t		30.0	female	black	2.7345801830481498	smiling	062	sub-12	2.0	1.0	062_smiling	0.0		295.50079825021885	
33.0	200.90065082522096	pulse	1.0	t		30.0	female	black	2.7345801830481498	smiling	062	sub-12	2.0	1.0	062_smiling	0.0		296.2007823425665	
33.0	201.60061348600675	pulse	1.0	t		30.0	female	black	2.7345801830481498	smiling	062	sub-12	2.0	1.0	062_smiling	0.0		296.9007450033523	
34.0	202.26716403989167	face	0.0		145	21.0	male	east_asian/white	3.501790688420215	neutral	036	sub-12	2.0	1.0	036_neutral	0.0		297.56729555723723	1.233310925780188
34.0	202.30065372300942	pulse	0.0	t		21.0	male	east_asian/white	3.501790688420215	neutral	036	sub-12	2.0	1.0	036_neutral	0.0		297.600785240355	
34.0	203.00059042443854	pulse	0.0	t		21.0	male	east_asian/white	3.501790688420215	neutral	036	sub-12	2.0	1.0	036_neutral	0.0		298.3007219417841	
34.0	203.50047496567186	fix	1.0		443	21.0	male	east_asian/white	3.501790688420215	neutral	036	sub-12	2.0	1.0	036_neutral	0.0		298.8006064830174	3.7665387514334725
34.0	203.70057874272834	pulse	1.0	t		21.0	male	east_asian/white	3.501790688420215	neutral	036	sub-12	2.0	1.0	036_neutral	0.0		299.0007102600739	
34.0	204.40057460734215	pulse	1.0	t		21.0	male	east_asian/white	3.501790688420215	neutral	036	sub-12	2.0	1.0	036_neutral	0.0		299.7007061246877	
34.0	205.10054904039453	pulse	1.0	t		21.0	male	east_asian/white	3.501790688420215	neutral	036	sub-12	2.0	1.0	036_neutral	0.0		300.4006805577401	
34.0	205.80052498271152	pulse	1.0	t		21.0	male	east_asian/white	3.501790688420215	neutral	036	sub-12	2.0	1.0	036_neutral	0.0		301.1006565000571	
34.0	206.50050001946965	pulse	1.0	t		21.0	male	east_asian/white	3.501790688420215	neutral	036	sub-12	2.0	1.0	036_neutral	0.0		301.8006315368152	
34.0	207.20047475437468	pulse	1.0	t		21.0	male	east_asian/white	3.501790688420215	neutral	036	sub-12	2.0	1.0	036_neutral	0.0		302.50060627172024	
35.0	207.26701371710533	face	0.0		146	27.0	female	white	3.504576203740549	smiling	144	sub-12	2.0	1.0	144_smiling	0.0		302.5671452344509	1.2333136424567783
35.0	207.90046428007645	pulse	0.0	t		27.0	female	white	3.504576203740549	smiling	144	sub-12	2.0	1.0	144_smiling	0.0		303.200595797422	
35.0	208.5003273595621	fix	1.0		443	27.0	female	white	3.504576203740549	smiling	144	sub-12	2.0	1.0	144_smiling	0.0		303.80045887690767	3.758218475757076
35.0	208.60047463363344	pulse	1.0	t		27.0	female	white	3.504576203740549	smiling	144	sub-12	2.0	1.0	144_smiling	0.0		303.900606150979	
35.0	209.30043819997854	pulse	1.0	t		27.0	female	white	3.504576203740549	smiling	144	sub-12	2.0	1.0	144_smiling	0.0		304.6005697173241	
35.0	210.00043104606266	pulse	1.0	t		27.0	female	white	3.504576203740549	smiling	144	sub-12	2.0	1.0	144_smiling	0.0		305.3005625634082	
35.0	210.70038555681776	pulse	1.0	t		27.0	female	white	3.504576203740549	smiling	144	sub-12	2.0	1.0	144_smiling	0.0		306.0005170741633	
35.0	211.40036663063574	pulse	1.0	t		27.0	female	white	3.504576203740549	smiling	144	sub-12	2.0	1.0	144_smiling	0.0		306.7004981479813	
35.0	212.10034257295274	pulse	1.0	t		27.0	female	white	3.504576203740549	smiling	144	sub-12	2.0	1.0	144_smiling	0.0		307.4004740902983	
36.0	212.25854583531918	face	0.0		147	22.0	female	white	4.614007162753682	neutral	009	sub-12	2.0	1.0	009_neutral	0.0		307.55867735266474	1.2416520293127178
36.0	212.80032515603534	pulse	0.0	t		22.0	female	white	4.614007162753682	neutral	009	sub-12	2.0	1.0	009_neutral	0.0		308.1004566733809	
36.0	213.5001978646319	fix	1.0		444	22.0	female	white	4.614007162753682	neutral	009	sub-12	2.0	1.0	009_neutral	0.0		308.80032938197746	3.758232662847149
36.0	213.50806837936034	pulse	1.0	t		22.0	female	white	4.614007162753682	neutral	009	sub-12	2.0	1.0	009_neutral	0.0		308.8081998967059	
36.0	214.20029847223168	pulse	1.0	t		22.0	female	white	4.614007162753682	neutral	009	sub-12	2.0	1.0	009_neutral	0.0		309.50042998957724	
36.0	214.90027079231277	pulse	1.0	t		22.0	female	white	4.614007162753682	neutral	009	sub-12	2.0	1.0	009_neutral	0.0		310.20040230965833	
36.0	215.60028476810612	pulse	1.0	t		22.0	female	white	4.614007162753682	neutral	009	sub-12	2.0	1.0	009_neutral	0.0		310.9004162854517	
36.0	216.30026040857	pulse	1.0	t		22.0	female	white	4.614007162753682	neutral	009	sub-12	2.0	1.0	009_neutral	0.0		311.6003919259156	
36.0	217.00021069338345	pulse	1.0	t		22.0	female	white	4.614007162753682	neutral	009	sub-12	2.0	1.0	009_neutral	0.0		312.300342210729	
37.0	217.25843052747905	face	0.0		146	19.0	male	white	3.2522881018702745	neutral	018	sub-12	2.0	1.0	018_neutral	0.0		312.5585620448246	1.2416287866326456
37.0	217.70022859326582	pulse	0.0	t		19.0	male	white	3.2522881018702745	neutral	018	sub-12	2.0	1.0	018_neutral	0.0		313.0003601106114	
37.0	218.40017827437305	pulse	0.0	t		19.0	male	white	3.2522881018702745	neutral	018	sub-12	2.0	1.0	018_neutral	0.0		313.7003097917186	
37.0	218.5000593141117	fix	1.0		444	19.0	male	white	3.2522881018702745	neutral	018	sub-12	2.0	1.0	018_neutral	0.0		313.80019083145726	3.7583642707486433
37.0	219.10016780007436	pulse	1.0	t		19.0	male	white	3.2522881018702745	neutral	018	sub-12	2.0	1.0	018_neutral	0.0		314.4002993174199	
37.0	219.8001434405387	pulse	1.0	t		19.0	male	white	3.2522881018702745	neutral	018	sub-12	2.0	1.0	018_neutral	0.0		315.10027495788427	
37.0	220.5001187791495	pulse	1.0	t		19.0	male	white	3.2522881018702745	neutral	018	sub-12	2.0	1.0	018_neutral	0.0		315.80025029649505	
37.0	221.20010317335027	pulse	1.0	t		19.0	male	white	3.2522881018702745	neutral	018	sub-12	2.0	1.0	018_neutral	0.0		316.50023469069583	
37.0	221.9001029620531	pulse	1.0	t		19.0	male	white	3.2522881018702745	neutral	018	sub-12	2.0	1.0	018_neutral	0.0		317.20023447939866	
38.0	222.25842358486034	face	0.0		146	27.0	male	black	3.5523278949462798	neutral	042	sub-12	2.0	1.0	042_neutral	0.0		317.5585551022059	1.241507743585771
38.0	222.60007045248676	pulse	0.0	t		27.0	male	black	3.5523278949462798	neutral	042	sub-12	2.0	1.0	042_neutral	0.0		317.9002019698323	
38.0	223.30006903377762	pulse	0.0	t		27.0	male	black	3.5523278949462798	neutral	042	sub-12	2.0	1.0	042_neutral	0.0		318.6002005511232	
38.0	223.4999313284461	fix	1.0		444	27.0	male	black	3.5523278949462798	neutral	042	sub-12	2.0	1.0	042_neutral	0.0		318.8000628457917	3.766562295966196
38.0	224.0000316945634	pulse	1.0	t		27.0	male	black	3.5523278949462798	neutral	042	sub-12	2.0	1.0	042_neutral	0.0		319.30016321190897	
38.0	224.70001095726366	pulse	1.0	t		27.0	male	black	3.5523278949462798	neutral	042	sub-12	2.0	1.0	042_neutral	0.0		320.0001424746092	
38.0	225.3999995774061	pulse	1.0	t		27.0	male	black	3.5523278949462798	neutral	042	sub-12	2.0	1.0	042_neutral	0.0		320.70013109475167	
38.0	226.09997612342886	pulse	1.0	t		27.0	male	black	3.5523278949462798	neutral	042	sub-12	2.0	1.0	042_neutral	0.0		321.4001076407744	
38.0	226.79995659354108	pulse	1.0	t		27.0	male	black	3.5523278949462798	neutral	042	sub-12	2.0	1.0	042_neutral	0.0		322.10008811088665	
39.0	227.2664936244123	face	0.0		145	47.0	male	east_asian	2.171110226820533	smiling	024	sub-12	2.0	1.0	024_smiling	0.0		322.56662514175787	1.2333006627786745
39.0	227.49994068588876	pulse	0.0	t		47.0	male	east_asian	2.171110226820533	smiling	024	sub-12	2.0	1.0	024_smiling	0.0		322.8000722032343	
39.0	228.19992990973697	pulse	0.0	t		47.0	male	east_asian	2.171110226820533	smiling	024	sub-12	2.0	1.0	024_smiling	0.0		323.5000614270825	
39.0	228.49979428719098	fix	1.0		444	47.0	male	east_asian	2.171110226820533	smiling	024	sub-12	2.0	1.0	024_smiling	0.0		323.79992580453654	3.7498997093457547
39.0	228.8999022298185	pulse	1.0	t		47.0	male	east_asian	2.171110226820533	smiling	024	sub-12	2.0	1.0	024_smiling	0.0		324.20003374716407	
39.0	229.5998808888121	pulse	1.0	t		47.0	male	east_asian	2.171110226820533	smiling	024	sub-12	2.0	1.0	024_smiling	0.0		324.90001240615766	
39.0	230.29988007380916	pulse	1.0	t		47.0	male	east_asian	2.171110226820533	smiling	024	sub-12	2.0	1.0	024_smiling	0.0		325.6000115911547	
39.0	230.99983820680018	pulse	1.0	t		47.0	male	east_asian	2.171110226820533	smiling	024	sub-12	2.0	1.0	024_smiling	0.0		326.29996972414574	
39.0	231.69982592138376	pulse	1.0	t		47.0	male	east_asian	2.171110226820533	smiling	024	sub-12	2.0	1.0	024_smiling	0.0		326.9999574387293	
40.0	232.24969399653673	fix	0.0		720													327.5498255138823	5.999846356830403
40.0	232.3998226915569	pulse	0.0	t														327.69995420890245	
40.0	233.09978444678381	pulse	0.0	t														328.3999159641294	
40.0	233.79977095395498	pulse	0.0	t														329.09990247130054	
40.0	234.49974417959538	pulse	0.0	t														329.79987569694094	
40.0	235.1997276682373	pulse	0.0	t														330.49985918558286	
40.0	235.8996969697887	pulse	0.0	t														331.19982848713425	
40.0	236.5997118511409	pulse	0.0	t														331.8998433684865	
40.0	237.2996778323095	pulse	0.0	t														332.59980934965506	
40.0	237.99970991928149	pulse	0.0	t														333.29984143662705	
