trial_nr	onset	event_type	phase	response	nr_frames	trial_type	stim_name	task_probe	onset_abs	duration
0.0	0.06034258709587448	baseline	0.0		40.0		baseline	0.0	99.75298255188864	0.3414059370606992
0.0	0.4017485241565737	ISI	1.0		11.0		baseline	0.0	100.09438848894933	0.10001687368458079
1.0	0.5017653978411545	baseline	0.0		48.0		baseline	0.0	100.19440536263392	0.39998689950152766
1.0	0.7018706847975409	pulse	0.0	t			baseline	0.0	100.3945106495903	
1.0	0.9017522973426821	ISI	1.0		11.0		baseline	0.0	100.59439226213544	0.0999809529621416
2.0	1.0017332503048237	baseline	0.0		48.0		baseline	0.0	100.69437321509758	0.399977843855595
2.0	1.4017110941604187	ISI	1.0		11.0		baseline	0.0	101.09435105895318	0.0999981586865033
2.0	1.4061872990969277	pulse	1.0	t			baseline	0.0	101.09882726388969	
3.0	1.501709252846922	baseline	0.0		48.0		baseline	0.0	101.19434921763968	0.40000501078975503
3.0	1.901714263636677	ISI	1.0		11.0		baseline	0.0	101.59435422842944	0.09999483828323719
4.0	2.0017091019199142	baseline	0.0		48.0		baseline	0.0	101.69434906671268	0.399980560549011
4.0	2.101814419062066	pulse	0.0	t			baseline	0.0	101.79445438385483	
4.0	2.4016896624689252	ISI	1.0		11.0		baseline	0.0	102.09432962726169	0.09999785683248774
5.0	2.501687519301413	baseline	0.0		48.0		baseline	0.0	102.19432748409417	0.40000621820763627
5.0	2.8017991150227317	pulse	0.0	t			baseline	0.0	102.49443907981549	
5.0	2.9016937375090492	ISI	1.0		11.0		baseline	0.0	102.59433370230181	0.09998185852600727
6.0	3.0016755960350565	baseline	0.0		48.0		baseline	0.0	102.69431556082782	0.3999935403080599
6.0	3.4016691363431164	ISI	1.0		11.0		baseline	0.0	103.09430910113588	0.10000087537810032
7.0	3.5016700117212167	baseline	0.0		47.0		baseline	0.0	103.19430997651398	0.40000138853247336
7.0	3.5058368154805066	pulse	0.0	t			baseline	0.0	103.19847678027327	
7.0	3.90167140025369	ISI	1.0		11.0		baseline	0.0	103.59431136504645	0.1000078180404671
8.0	4.001679218294157	baseline	0.0		48.0		baseline	0.0	103.69431918308692	0.3999672789377655
8.0	4.201767903236032	pulse	0.0	t			baseline	0.0	103.8944078680288	
8.0	4.401646497231923	ISI	1.0		11.0		baseline	0.0	104.09428646202468	0.09999876239635341
9.0	4.501645259628276	baseline	0.0		48.0		baseline	0.0	104.19428522442104	0.40000561449960514
9.0	4.901650874127881	ISI	1.0		11.0		baseline	0.0	104.59429083892064	0.09998548078328895
9.0	4.906170546155408	pulse	1.0	t			baseline	0.0	104.59881051094817	
10.0	5.00163635491117	baseline	0.0		48.0		baseline	0.0	104.69427631970393	0.39999233288835967
10.0	5.40162868779953	ISI	1.0		11.0		baseline	0.0	105.09426865259229	0.09999423457156809
11.0	5.501622922371098	baseline	0.0		48.0		baseline	0.0	105.19426288716386	0.40000561449960514
11.0	5.601741521126314	pulse	0.0	t			baseline	0.0	105.29438148591908	
11.0	5.901628536870703	ISI	1.0		6.0		baseline	0.0	105.59426850166346	0.13335070004723093
12.0	6.034979236917934	house	0.0		44.0	place	house-53.jpg	0.0	105.7276192017107	0.36660870048217475
12.0	6.301706898379052	pulse	0.0	t		place	house-53.jpg	0.0	105.99434686317181	
12.0	6.401587937400109	ISI	1.0		6.0	place	house-53.jpg	0.0	106.09422790219287	0.11670944452271215
13.0	6.518297381922821	house	0.0		46.0	place	house-77.jpg	0.0	106.21093734671558	0.383249654150859
13.0	6.90154703607368	ISI	1.0		8.0	place	house-77.jpg	0.0	106.59418700086644	0.11669072952463466
14.0	7.018237765598315	house	0.0		45.0	place	house-81.jpg	0.0	106.71087773039108	0.3833094214023731
14.0	7.01051692333931	pulse	0.0	t		place	house-81.jpg	0.0	106.70315688813207	
14.0	7.401547187000688	ISI	1.0		6.0	place	house-81.jpg	0.0	107.09418715179345	0.1166904276706191
15.0	7.518237614671307	house	0.0		46.0	place	house-36.jpg	0.0	107.21087757946407	0.38330157317795965
15.0	7.701658480867991	pulse	0.0	t		place	house-36.jpg	0.0	107.39429844566075	
15.0	7.9015391878492665	ISI	1.0		7.0	place	house-36.jpg	0.0	107.59417915264203	0.11668378686408687
16.0	8.018222974713353	house	0.0		46.0	place	house-43.jpg	0.0	107.71086293950611	0.3832931212418771
16.0	8.40151609595523	ISI	1.0		6.0	place	house-43.jpg	0.0	108.09415606074799	0.11670038888041745
16.0	8.450254176841554	pulse	1.0	t		place	house-43.jpg	0.0	108.14289414163432	
17.0	8.518216484835648	house	0.0		46.0	place	house-102.jpg	0.0	108.21085644962841	0.38330036575644044
17.0	8.901516850592088	ISI	1.0		6.0	place	house-102.jpg	0.0	108.59415681538485	0.11668861654288776
18.0	9.018205467134976	house	0.0		46.0	place	house-34.jpg	0.0	108.71084543192774	0.38328587672731373
18.0	9.101629382064857	pulse	0.0	t		place	house-34.jpg	0.0	108.79426934685762	
18.0	9.40149134386229	ISI	1.0		6.0	place	house-34.jpg	0.0	109.09413130865505	0.1167022000081488
19.0	9.518193543870439	house	0.0		46.0	place	house-89.jpg	0.0	109.2108335086632	0.38330368615970656
19.0	9.801602305687993	pulse	0.0	t		place	house-89.jpg	0.0	109.49424227048075	
19.0	9.901497230030145	ISI	1.0		6.0	place	house-89.jpg	0.0	109.5941371948229	0.11669133323448477
20.0	10.01818856326463	house	0.0		46.0	place	house-71.jpg	0.0	109.71082852805739	0.38328285817988217
20.0	10.401471421444512	ISI	1.0		7.0	place	house-71.jpg	0.0	110.09411138623727	0.1166973703311669
21.0	10.518168791775679	house	0.0		45.0	place	house-41.jpg	0.0	110.21080875656844	0.3833070065629727
21.0	10.510449156934556	pulse	0.0	t		place	house-41.jpg	0.0	110.20308912172732	
21.0	10.901475798338652	ISI	1.0		7.0	place	house-41.jpg	0.0	110.59411576313141	0.11668831468705321
22.0	11.018164113025705	house	0.0		46.0	place	house-51.jpg	0.0	110.71080407781847	0.38328587672731373
22.0	11.201571697611143	pulse	0.0	t		place	house-51.jpg	0.0	110.8942116624039	
22.0	11.401449989753019	ISI	1.0		6.0	place	house-51.jpg	0.0	111.09408995454578	0.11670189815413323
23.0	11.518151887907152	house	0.0		46.0	place	house-22.jpg	0.0	111.21079185269991	0.3833048935794068
23.0	11.901456781486559	ISI	1.0		11.0	place	house-22.jpg	0.0	111.59409674627932	0.09998216038002283
23.0	11.90591427142499	pulse	1.0	t		place	house-22.jpg	0.0	111.59855423621775	
24.0	12.001438941866581	baseline	0.0		48.0		baseline	0.0	111.69407890665934	0.39999595514564135
24.0	12.401434897012223	ISI	1.0		11.0		baseline	0.0	112.09407486180498	0.09998216038184182
25.0	12.501417057394065	baseline	0.0		48.0		baseline	0.0	112.19405702218683	0.40008892642617866
25.0	12.601602064205508	pulse	0.0	t			baseline	0.0	112.29424202899827	
25.0	12.901505983820243	ISI	1.0		11.0		baseline	0.0	112.594145948613	0.09998004739645694
26.0	13.0014860312167	baseline	0.0		48.0		baseline	0.0	112.69412599600946	0.39999444587192556
26.0	13.301604871454401	pulse	0.0	t			baseline	0.0	112.99424483624716	
26.0	13.401480477088626	ISI	1.0		11.0		baseline	0.0	113.09412044188139	0.100007214328798
27.0	13.501487691417424	baseline	0.0		48.0		baseline	0.0	113.19412765621018	0.3999956532916258
27.0	13.90148334470905	ISI	1.0		11.0		baseline	0.0	113.59412330950181	0.0999857826391235
28.0	14.001469127348173	baseline	0.0		47.0		baseline	0.0	113.69410909214093	0.3999893143391091
28.0	14.005648910862874	pulse	0.0	t			baseline	0.0	113.69828887565563	
28.0	14.401458441687282	ISI	1.0		11.0		baseline	0.0	114.09409840648004	0.09999966796021909
29.0	14.501458109647501	baseline	0.0		48.0		baseline	0.0	114.19409807444026	0.4000059163536207
29.0	14.701571546684136	pulse	0.0	t			baseline	0.0	114.3942115114769	
29.0	14.901464026001122	ISI	1.0		11.0		baseline	0.0	114.59410399079388	0.09998216038184182
30.0	15.001446186382964	baseline	0.0		48.0		baseline	0.0	114.69408615117572	0.3999944458701066
30.0	15.40144063225307	ISI	1.0		11.0		baseline	0.0	115.09408059704583	0.09999604570293741
30.0	15.406077725801879	pulse	1.0	t			baseline	0.0	115.09871769059464	
31.0	15.501436677956008	baseline	0.0		48.0		baseline	0.0	115.19407664274877	0.4000053126437706
31.0	15.901441990599778	ISI	1.0		11.0		baseline	0.0	115.59408195539254	0.09999785683066875
32.0	16.001439847430447	baseline	0.0		48.0		baseline	0.0	115.69407981222321	0.3999769382935483
32.0	16.10154063675145	pulse	0.0	t			baseline	0.0	115.79418060154421	
32.0	16.401416785723995	ISI	1.0		11.0		baseline	0.0	116.09405675051676	0.09999755497665319
33.0	16.50141434070065	baseline	0.0		48.0		baseline	0.0	116.19405430549341	0.4000071237733209
33.0	16.80153318093835	pulse	0.0	t			baseline	0.0	116.49417314573111	
33.0	16.90142146447397	ISI	1.0		11.0		baseline	0.0	116.59406142926673	0.09998578263730451
34.0	17.001407247111274	baseline	0.0		48.0		baseline	0.0	116.69404721190404	0.3999881069212279
34.0	17.401395354032502	ISI	1.0		11.0		baseline	0.0	117.09403531882526	0.10000208279780054
35.0	17.501397436830302	baseline	0.0		47.0		baseline	0.0	117.19403740162306	0.4000038033718738
35.0	17.505582653733654	pulse	0.0	t			baseline	0.0	117.19822261852642	
35.0	17.901401240202176	ISI	1.0		11.0		baseline	0.0	117.59404120499494	0.09998336779972306
36.0	18.0013846080019	baseline	0.0		48.0		baseline	0.0	117.69402457279466	0.3999920310325251
36.0	18.201497139474668	pulse	0.0	t			baseline	0.0	117.89413710426743	
36.0	18.401376639034424	ISI	1.0		11.0		baseline	0.0	118.09401660382719	0.09999634755695297
37.0	18.501372986591377	baseline	0.0		48.0		baseline	0.0	118.19401295138414	0.40000682191930537
37.0	18.901379808510683	ISI	1.0		11.0		baseline	0.0	118.59401977330344	0.09998397150957317
37.0	18.905918799246137	pulse	1.0	t			baseline	0.0	118.5985587640389	
38.0	19.001363780020256	baseline	0.0		48.0		baseline	0.0	118.69400374481302	0.39998961619494366
38.0	19.4013533962152	ISI	1.0		11.0		baseline	0.0	119.09399336100796	0.10000691247478244
39.0	19.501360308689982	baseline	0.0		48.0		baseline	0.0	119.19400027348274	0.3999977662733727
39.0	19.601468644379565	pulse	0.0	t			baseline	0.0	119.29410860917233	
39.0	19.901358074963355	ISI	1.0		11.0		baseline	0.0	119.59399803975612	0.0999830659457075
40.0	20.001341140909062	baseline	0.0		48.0		baseline	0.0	119.69398110570182	0.39999233288835967
40.0	20.30145515146978	pulse	0.0	t			baseline	0.0	119.99409511626254	
40.0	20.401333473797422	ISI	1.0		11.0		baseline	0.0	120.09397343859018	0.09999906425036897
41.0	20.50133253804779	baseline	0.0		48.0		baseline	0.0	120.19397250284055	0.4000047089339205
41.0	20.90133724698171	ISI	1.0		11.0		baseline	0.0	120.59397721177447	0.09998910304238962
42.0	21.0013263500241	baseline	0.0		47.0		baseline	0.0	120.69396631481686	0.3999865976456931
42.0	21.005519415151866	pulse	0.0	t			baseline	0.0	120.69815937994463	
42.0	21.401312947669794	ISI	1.0		11.0		baseline	0.0	121.09395291246256	0.09999785683066875
43.0	21.501310804500463	baseline	0.0		48.0		baseline	0.0	121.19395076929322	0.40000682191930537
43.0	21.701420619279816	pulse	0.0	t			baseline	0.0	121.39406058407258	
43.0	21.901317626419768	ISI	1.0		11.0		baseline	0.0	121.59395759121253	0.09999423457338708
44.0	22.001311860993155	baseline	0.0		48.0		baseline	0.0	121.69395182578592	0.39998357909826154
44.0	22.401295440091417	ISI	1.0		11.0		baseline	0.0	122.09393540488418	0.09999453642740264
44.0	22.405862805180732	pulse	1.0	t			baseline	0.0	122.09850276997349	
45.0	22.50128997651882	baseline	0.0		48.0		baseline	0.0	122.19392994131158	0.40000682191930537
45.0	22.901296798438125	ISI	1.0		11.0		baseline	0.0	122.59393676323089	0.09999272529967129
46.0	23.001289523737796	baseline	0.0		48.0		baseline	0.0	122.69392948853056	0.3999817679687112
46.0	23.101399368701095	pulse	0.0	t			baseline	0.0	122.79403933349386	
46.0	23.401271291706507	ISI	1.0		11.0		baseline	0.0	123.09391125649927	0.09999664941278752
47.0	23.501267941119295	baseline	0.0		48.0		baseline	0.0	123.19390790591206	0.4000065200634708
47.0	23.801379536840614	pulse	0.0	t			baseline	0.0	123.49401950163337	
47.0	23.901274461182766	ISI	1.0		7.0		baseline	0.0	123.59391442597553	0.11664726243361656
48.0	24.017921723616382	adult	0.0		46.0	face	adult-134.jpg	0.0	123.71056168840914	0.3832599172128539
48.0	24.401181640829236	ISI	1.0		7.0	face	adult-134.jpg	0.0	124.093821605622	0.11669646476730122
49.0	24.517878105596537	adult	0.0		45.0	face	adult-13.jpg	0.0	124.2105180703893	0.3833070065629727
49.0	24.50692802060985	pulse	0.0	t		face	adult-13.jpg	0.0	124.19956798540261	
49.0	24.90118511215951	ISI	1.0		7.0	face	adult-13.jpg	0.0	124.59382507695227	0.10848510844516568
50.0	25.009670220604676	adult	0.0		47.0	face	adult-30.jpg	0.0	124.70231018539744	0.3914902903889015
50.0	25.201282520705718	pulse	0.0	t		face	adult-30.jpg	0.0	124.89392248549848	
50.0	25.401160510993577	ISI	1.0		7.0	face	adult-30.jpg	0.0	125.09380047578634	0.10840179651859216
51.0	25.50956230751217	adult	0.0		47.0	face	adult-9.jpg	0.0	125.20220227230493	0.39160076924599707
51.0	25.901163076758166	ISI	1.0		6.0	face	adult-9.jpg	0.0	125.59380304155093	0.10835319789475761
51.0	25.94209972015051	pulse	1.0	t		face	adult-9.jpg	0.0	125.63473968494327	
52.0	26.009516274652924	adult	0.0		47.0	face	adult-32.jpg	0.0	125.70215623944569	0.39162159722945944
52.0	26.401137871882383	ISI	1.0		6.0	face	adult-32.jpg	0.0	126.09377783667514	0.1083697999092692
53.0	26.509507671791653	adult	0.0		47.0	face	adult-37.jpg	0.0	126.20214763658441	0.391635482550555
53.0	26.60130383165597	pulse	0.0	t		face	adult-37.jpg	0.0	126.29394379644873	
53.0	26.901143154342208	ISI	1.0		5.0	face	adult-37.jpg	0.0	126.59378311913497	0.10835048120134161
54.0	27.00949363554355	adult	0.0		47.0	face	adult-75.jpg	0.0	126.70213360033631	0.3916234083571908
54.0	27.3012375141534	pulse	0.0	t		face	adult-75.jpg	0.0	126.99387747894616	
54.0	27.40111704390074	ISI	1.0		6.0	face	adult-75.jpg	0.0	127.0937570086935	0.10836949805525364
55.0	27.509486541955994	adult	0.0		47.0	face	adult-22.jpg	0.0	127.20212650674875	0.39163608625858615
55.0	27.90112262821458	ISI	1.0		6.0	face	adult-22.jpg	0.0	127.59376259300734	0.10834625523420982
56.0	28.00946888344879	adult	0.0		46.0	face	adult-40.jpg	0.0	127.70210884824155	0.3916255213407567
56.0	28.00522842711689	pulse	0.0	t		face	adult-40.jpg	0.0	127.69786839190965	
56.0	28.401094404789546	ISI	1.0		7.0	face	adult-40.jpg	0.0	128.0937343695823	0.11670310557383345
57.0	28.51779751036338	adult	0.0		46.0	face	adult-17.jpg	0.0	128.21043747515614	0.38330308244985645
57.0	28.701207207930565	pulse	0.0	t		face	adult-17.jpg	0.0	128.39384717272333	
57.0	28.901100592813236	ISI	1.0		7.0	face	adult-17.jpg	0.0	128.593740557606	0.11669133323630376
58.0	29.01779192604954	adult	0.0		46.0	face	adult-91.jpg	0.0	128.7104318908423	0.38328708414519497
58.0	29.401079010194735	ISI	1.0		7.0	face	adult-91.jpg	0.0	129.0937189749875	0.11669646476730122
58.0	29.43646907150469	pulse	1.0	t		face	adult-91.jpg	0.0	129.12910903629745	
59.0	29.517775474962036	adult	0.0		46.0	face	adult-112.jpg	0.0	129.2104154397548	0.38330519543342234
59.0	29.90108067039546	ISI	1.0		6.0	face	adult-112.jpg	0.0	129.59372063518822	0.11668469242977153
60.0	30.01776536282523	word	0.0		46.0	character	word-95.jpg	0.0	129.710405327618	0.38332089188406826
60.0	30.10125296911974	pulse	0.0	t		character	word-95.jpg	0.0	129.7938929339125	
60.0	30.4010862547093	ISI	1.0		7.0	character	word-95.jpg	0.0	130.09372621950206	0.11670310557383345
61.0	30.517789360283132	word	0.0		46.0	character	word-129.jpg	0.0	130.2104293250759	0.3832704821306834
61.0	30.801164012507797	pulse	0.0	t		character	word-129.jpg	0.0	130.49380397730056	
61.0	30.901059842413815	ISI	1.0		7.0	character	word-129.jpg	0.0	130.59369980720658	0.11668650355932186
62.0	31.017746345973137	word	0.0		46.0	character	word-31.jpg	0.0	130.7103863107659	0.38328919712876086
62.0	31.401035543101898	ISI	1.0		7.0	character	word-31.jpg	0.0	131.09367550789466	0.11669555920343555
63.0	31.517731102305333	word	0.0		45.0	character	word-143.jpg	0.0	131.2103710670981	0.38330851583668846
63.0	31.509957737309378	pulse	0.0	t		character	word-143.jpg	0.0	131.20259770210214	
63.0	31.901039618142022	ISI	1.0		6.0	character	word-143.jpg	0.0	131.59367958293478	0.11668167388233996
64.0	32.01772129202436	word	0.0		46.0	character	word-54.jpg	0.0	131.71036125681712	0.38329070640247664
64.0	32.20114427120461	pulse	0.0	t		character	word-54.jpg	0.0	131.89378423599737	
64.0	32.40101199842684	ISI	1.0		6.0	character	word-54.jpg	0.0	132.0936519632196	0.11670521855739935
65.0	32.51771721698424	word	0.0		46.0	character	word-41.jpg	0.0	132.210357181777	0.38329946019257477
65.0	32.90101667717681	ISI	1.0		6.0	character	word-41.jpg	0.0	132.59365664196957	0.11668710726917197
65.0	32.94211571845517	pulse	1.0	t		character	word-41.jpg	0.0	132.63475568324793	
66.0	33.017703784445985	word	0.0		46.0	character	word-51.jpg	0.0	132.71034374923875	0.38328708414519497
66.0	33.40099086859118	ISI	1.0		7.0	character	word-51.jpg	0.0	133.09363083338394	0.11670250186398334
67.0	33.51769337045516	word	0.0		46.0	character	word-51.jpg	1.0	133.21033333524792	0.3833027805958409
67.0	33.60111698352921	pulse	0.0	t		character	word-51.jpg	1.0	133.29375694832197	
67.0	33.900996151051004	ISI	1.0		6.0	character	word-51.jpg	1.0	133.59363611584376	0.1166807683166553
68.0	34.01767691936766	word	0.0		45.0	character	word-80.jpg	0.0	133.71031688416042	0.3832937249517272
68.0	34.00813498705611	response	0.0	b		character	word-80.jpg	0.0	133.70077495184887	
68.0	34.30106877731669	pulse	0.0	t		character	word-80.jpg	0.0	133.99370874210945	
68.0	34.400970644319386	ISI	1.0		6.0	character	word-80.jpg	0.0	134.09361060911215	0.11670189815231424
69.0	34.5176725424717	word	0.0		46.0	character	word-70.jpg	0.0	134.21031250726446	0.383303384305691
69.0	34.90097592677739	ISI	1.0		7.0	character	word-70.jpg	0.0	134.59361589157015	0.11669163509031932
70.0	35.01766756186771	word	0.0		45.0	character	word-52.jpg	0.0	134.71030752666047	0.3832840655977634
70.0	35.00799251158605	pulse	0.0	t		character	word-52.jpg	0.0	134.70063247637881	
70.0	35.400951627465474	ISI	1.0		6.0	character	word-52.jpg	0.0	135.09359159225824	0.11669918146071723
71.0	35.51765080892619	word	0.0		46.0	character	word-126.jpg	0.0	135.21029077371895	0.38330157317614066
71.0	35.70106443060831	pulse	0.0	t		character	word-126.jpg	0.0	135.39370439540107	
71.0	35.90095238210233	ISI	1.0		11.0	character	word-126.jpg	0.0	135.5935923468951	0.10000268650946964
72.0	36.0009550686118	baseline	0.0		48.0		baseline	0.0	135.69359503340456	0.3999775420015794
72.0	36.40093261061338	ISI	1.0		11.0		baseline	0.0	136.09357257540614	0.09999514013725275
72.0	36.40551204989424	pulse	1.0	t			baseline	0.0	136.098152014687	
73.0	36.500927750750634	baseline	0.0		48.0		baseline	0.0	136.1935677155434	0.40007715408864897
73.0	36.90100490483928	ISI	1.0		11.0		baseline	0.0	136.59364486963204	0.09998216038184182
74.0	37.000987065221125	baseline	0.0		48.0		baseline	0.0	136.6936270300139	0.3999920310325251
74.0	37.10110717324824	pulse	0.0	t			baseline	0.0	136.793747138041	
74.0	37.40097909625365	ISI	1.0		11.0		baseline	0.0	137.0936190610464	0.0999981586865033
75.0	37.50097725494015	baseline	0.0		48.0		baseline	0.0	137.19361721973291	0.40000561449778615
75.0	37.80108643582389	pulse	0.0	t			baseline	0.0	137.49372640061665	
75.0	37.90098286943794	ISI	1.0		11.0		baseline	0.0	137.5936228342307	0.0999830659457075
76.0	38.00096593538365	baseline	0.0		48.0		baseline	0.0	137.6936059001764	0.3999920310325251
76.0	38.40095796641617	ISI	1.0		11.0		baseline	0.0	138.09359793120893	0.10000087537991931
77.0	38.50095884179609	baseline	0.0		47.0		baseline	0.0	138.19359880658885	0.4000038033700548
77.0	38.50514285127974	pulse	0.0	t			baseline	0.0	138.1977828160725	
77.0	38.900962645166146	ISI	1.0		11.0		baseline	0.0	138.5936026099589	0.09999755497665319
78.0	39.0009602001428	baseline	0.0		48.0		baseline	0.0	138.69360016493556	0.3999757308738481
78.0	39.201061261132054	pulse	0.0	t			baseline	0.0	138.89370122592481	
78.0	39.40093593101665	ISI	1.0		11.0		baseline	0.0	139.0935758958094	0.10000057352408476
79.0	39.50093650454073	baseline	0.0		48.0		baseline	0.0	139.1935764693335	0.4000044070799049
79.0	39.90094091162064	ISI	1.0		11.0		baseline	0.0	139.5935808764134	0.0999836696555576
79.0	39.90555808275167	pulse	1.0	t			baseline	0.0	139.59819804754443	
80.0	40.000924581276195	baseline	0.0		48.0		baseline	0.0	139.69356454606896	0.3999902199029748
80.0	40.40091480117917	ISI	1.0		11.0		baseline	0.0	140.09355476597193	0.09999936610620352
81.0	40.50091416728537	baseline	0.0		48.0		baseline	0.0	140.19355413207813	0.40000410522407037
81.0	40.60103276603877	pulse	0.0	t			baseline	0.0	140.29367273083153	
81.0	40.90091827250944	ISI	1.0		11.0		baseline	0.0	140.5935582373022	0.09998336779972306
82.0	41.000901640309166	baseline	0.0		48.0		baseline	0.0	140.69354160510193	0.3999920310343441
82.0	41.30101353788632	pulse	0.0	t			baseline	0.0	140.99365350267908	
82.0	41.40089367134351	ISI	1.0		11.0		baseline	0.0	141.09353363613627	0.09999785683066875
83.0	41.50089152817418	baseline	0.0		48.0		baseline	0.0	141.19353149296694	0.39999746441935713
83.0	41.900888992593536	ISI	1.0		5.0		baseline	0.0	141.5935289573863	0.11666205331857782
84.0	42.017551045912114	word	0.0		45.0	character	word-68.jpg	0.0	141.71019101070488	0.3832846693076135
84.0	42.01001584436017	pulse	0.0	t		character	word-68.jpg	0.0	141.70265580915293	
84.0	42.40083571521973	ISI	1.0		7.0	character	word-68.jpg	0.0	142.0934756800125	0.11670461484754924
85.0	42.51754033006728	word	0.0		46.0	character	word-97.jpg	0.0	142.21018029486004	0.38329885648272466
85.0	42.70095757400668	pulse	0.0	t		character	word-97.jpg	0.0	142.39359753879944	
85.0	42.90083918655	ISI	1.0		5.0	character	word-97.jpg	0.0	142.59347915134276	0.11669103138046921
86.0	43.01753021793047	word	0.0		46.0	character	word-5.jpg	0.0	142.71017018272323	0.38328798971087963
86.0	43.40081820764135	ISI	1.0		6.0	character	word-5.jpg	0.0	143.0934581724341	0.1167028037179989
86.0	43.442438250318446	pulse	1.0	t		character	word-5.jpg	0.0	143.1350782151112	
87.0	43.51752101135935	word	0.0		46.0	character	word-96.jpg	0.0	143.2101609761521	0.3832976490648434
87.0	43.90081866042419	ISI	1.0		6.0	character	word-96.jpg	0.0	143.59345862521695	0.11669163509031932
88.0	44.01751029551451	word	0.0		46.0	character	word-92.jpg	0.0	143.71015026030727	0.3832849711616291
88.0	44.10093571971811	pulse	0.0	t		character	word-92.jpg	0.0	143.79357568451087	
88.0	44.40079526667614	ISI	1.0		7.0	character	word-92.jpg	0.0	144.0934352314689	0.11670914266869659
89.0	44.51750440934484	word	0.0		46.0	character	word-16.jpg	0.0	144.2101443741376	0.38329402680574276
89.0	44.80090351181025	pulse	0.0	t		character	word-16.jpg	0.0	144.493543476603	
89.0	44.90079843615058	ISI	1.0		6.0	character	word-16.jpg	0.0	144.59343840094334	0.11669042767243809
90.0	45.01748886382302	word	0.0		46.0	character	word-21.jpg	0.0	144.71012882861578	0.3832508615687402
90.0	45.40073972539176	ISI	1.0		6.0	character	word-21.jpg	0.0	145.09337969018452	0.1167000870245829
91.0	45.51743981241634	word	0.0		45.0	character	word-122.jpg	0.0	145.2100797772091	0.38331213809397013
91.0	45.507858035271056	pulse	0.0	t		character	word-122.jpg	0.0	145.20049800006382	
91.0	45.90075195051031	ISI	1.0		7.0	character	word-122.jpg	0.0	145.59339191530307	0.11667835347907385
92.0	46.017430303989386	word	0.0		46.0	character	word-122.jpg	1.0	145.71007026878215	0.38329402680756175
92.0	46.20084362381567	pulse	0.0	t		character	word-122.jpg	1.0	145.89348358860843	
92.0	46.40072433079695	ISI	1.0		5.0	character	word-122.jpg	1.0	146.0933642955897	0.11669706847533234
93.0	46.51742139927228	word	0.0		46.0	character	word-89.jpg	0.0	146.21006136406504	0.3832922156780114
93.0	46.542512778269156	response	0.0	b		character	word-89.jpg	0.0	146.23515274306192	
93.0	46.90071361495029	ISI	1.0		7.0	character	word-89.jpg	0.0	146.59335357974305	0.11669827589685156
93.0	46.939208856661935	pulse	1.0	t		character	word-89.jpg	0.0	146.6318488214547	
94.0	47.01741189084714	word	0.0		46.0	character	word-9.jpg	0.0	146.7100518556399	0.38328648043534486
94.0	47.40069837128249	ISI	1.0		7.0	character	word-9.jpg	0.0	147.09333833607525	0.11670189815413323
95.0	47.51740026943662	word	0.0		46.0	character	word-130.jpg	0.0	147.21004023422938	0.3833045917253912
95.0	47.60081392130269	pulse	0.0	t		character	word-130.jpg	0.0	147.29345388609545	
95.0	47.90070486116201	ISI	1.0		6.0	character	word-130.jpg	0.0	147.59334482595477	0.11668680541151843
96.0	48.01739166657353	car	0.0		46.0	object	car-140.jpg	0.0	147.7100316313663	0.38328919713057985
96.0	48.30079710798964	pulse	0.0	t		object	car-140.jpg	0.0	147.9934370727824	
96.0	48.40068086370411	ISI	1.0		7.0	object	car-140.jpg	0.0	148.09332082849687	0.1166973703311669
97.0	48.51737823403528	car	0.0		46.0	object	car-47.jpg	0.0	148.21001819882804	0.38330519543524133
97.0	48.90068342947052	ISI	1.0		7.0	object	car-47.jpg	0.0	148.59332339426328	0.11667986275278963
98.0	49.01736329222331	car	0.0		45.0	object	car-6.jpg	0.0	148.71000325701607	0.38329342309589265
98.0	49.00759285582171	pulse	0.0	t		object	car-6.jpg	0.0	148.70023282061447	
98.0	49.4006567153192	ISI	1.0		7.0	object	car-6.jpg	0.0	149.09329668011196	0.11670159629829868
99.0	49.5173583116175	car	0.0		46.0	object	car-44.jpg	0.0	149.20999827641026	0.38330308245167544
99.0	49.70078129079775	pulse	0.0	t		object	car-44.jpg	0.0	149.3934212555905	
99.0	49.900661394069175	ISI	1.0		7.0	object	car-44.jpg	0.0	149.59330135886194	0.11668801283303765
100.0	50.01734940690221	car	0.0		46.0	object	car-67.jpg	0.0	149.70998937169497	0.38329010269262653
100.0	50.40063950959484	ISI	1.0		7.0	object	car-67.jpg	0.0	150.0932794743876	0.11669948331655178
100.0	50.436260791688255	pulse	1.0	t		object	car-67.jpg	0.0	150.12890075648102	
101.0	50.51733899291139	car	0.0		46.0	object	car-129.jpg	0.0	150.20997895770415	0.3833021768859908
101.0	50.90064116979738	ISI	1.0		7.0	object	car-129.jpg	0.0	150.59328113459014	0.11668650355750287
102.0	51.017327673354885	car	0.0		46.0	object	car-109.jpg	0.0	150.70996763814765	0.38331877890050237
102.0	51.10077543481566	pulse	0.0	t		object	car-109.jpg	0.0	150.79341539960842	
102.0	51.40064645225539	ISI	1.0		7.0	object	car-109.jpg	0.0	151.09328641704815	0.11670914266869659
103.0	51.517355594924084	car	0.0		46.0	object	car-113.jpg	0.0	151.20999555971684	0.38326565245552047
103.0	51.800723606344036	pulse	0.0	t		object	car-113.jpg	0.0	151.4933635711368	
103.0	51.900621247379604	ISI	1.0		7.0	object	car-113.jpg	0.0	151.59326121217237	0.11668499428378709
104.0	52.01730624166339	car	0.0		46.0	object	car-40.jpg	0.0	151.70994620645615	0.38328708414701396
104.0	52.400593325810405	ISI	1.0		7.0	object	car-40.jpg	0.0	152.09323329060317	0.11670189815231424
105.0	52.51729522396272	car	0.0		45.0	object	car-130.jpg	0.0	152.20993518875548	0.3833045917253912
105.0	52.507681752062126	pulse	0.0	t		object	car-130.jpg	0.0	152.2003217168549	
105.0	52.90059981568811	ISI	1.0		7.0	object	car-130.jpg	0.0	152.59323978048087	0.11668257944620564
106.0	53.017282395134316	car	0.0		46.0	object	car-134.jpg	0.0	152.70992235992708	0.3832916119681613
106.0	53.20069722423432	pulse	0.0	t		object	car-134.jpg	0.0	152.89333718902708	
106.0	53.40057400710248	ISI	1.0		7.0	object	car-134.jpg	0.0	153.09321397189524	0.11670159629829868
107.0	53.517275603400776	car	0.0		46.0	object	car-21.jpg	0.0	153.20991556819354	0.38330368616152555
107.0	53.9005792895623	ISI	1.0		7.0	object	car-21.jpg	0.0	153.59321925435506	0.11669767218518245
107.0	53.93675477707984	pulse	1.0	t		object	car-21.jpg	0.0	153.6293947418726	
108.0	54.017276961747484	adult	0.0		46.0	face	adult-21.jpg	0.0	153.70991692654025	0.3832904045484611
108.0	54.400567366295945	ISI	1.0		7.0	face	adult-21.jpg	0.0	154.0932073310887	0.11668680541333742
109.0	54.51725417170928	adult	0.0		46.0	face	adult-103.jpg	0.0	154.20989413650204	0.3833039880155411
109.0	54.600679897768714	pulse	0.0	t		face	adult-103.jpg	0.0	154.29331986256148	
109.0	54.900558159724824	ISI	1.0		7.0	face	adult-103.jpg	0.0	154.59319812451758	0.11668801283303765
110.0	55.01724617255786	adult	0.0		46.0	face	adult-61.jpg	0.0	154.70988613735062	0.3832861785813293
110.0	55.3006534251017	pulse	0.0	t		face	adult-61.jpg	0.0	154.99329338989446	
110.0	55.40053235113919	ISI	1.0		7.0	face	adult-61.jpg	0.0	155.09317231593195	0.1167000870245829
111.0	55.517232438163774	adult	0.0		46.0	face	adult-67.jpg	0.0	155.20987240295653	0.3833048935794068
111.0	55.90053733174318	ISI	1.0		6.0	face	adult-67.jpg	0.0	155.59317729653594	0.11668408871992142
112.0	56.0172214204631	adult	0.0		45.0	face	adult-73.jpg	0.0	155.70986138525586	0.38329070640429563
112.0	56.00759617622498	pulse	0.0	t		face	adult-73.jpg	0.0	155.70023614101774	
112.0	56.4005121268674	ISI	1.0		7.0	face	adult-73.jpg	0.0	156.09315209166016	0.11670069073443301
113.0	56.51721281760183	adult	0.0		46.0	face	adult-132.jpg	0.0	156.2098527823946	0.383303384305691
113.0	56.700623118878866	pulse	0.0	t		face	adult-132.jpg	0.0	156.39326308367163	
113.0	56.90051620190752	ISI	1.0		7.0	face	adult-132.jpg	0.0	156.59315616670028	0.11668740912136855
114.0	57.01720361102889	adult	0.0		46.0	face	adult-60.jpg	0.0	156.70984357582165	0.3832873860010295
114.0	57.40049099702992	ISI	1.0		7.0	face	adult-60.jpg	0.0	157.09313096182268	0.1167049167015648
114.0	57.436521292385805	pulse	1.0	t		face	adult-60.jpg	0.0	157.12916125717857	
115.0	57.517195913731484	adult	0.0		46.0	face	adult-111.jpg	0.0	157.20983587852425	0.38333055123803206
115.0	57.900526464969516	ISI	1.0		7.0	face	adult-111.jpg	0.0	157.59316642976228	0.11668227759219008
116.0	58.01720874256171	adult	0.0		46.0	face	adult-65.jpg	0.0	157.70984870735447	0.38329342309589265
116.0	58.10062752595877	pulse	0.0	t		face	adult-65.jpg	0.0	157.79326749075153	
116.0	58.4005021656576	ISI	1.0		7.0	face	adult-65.jpg	0.0	158.09314213045036	0.11670582226724946
117.0	58.51720798792485	adult	0.0		46.0	face	adult-69.jpg	0.0	158.2098479527176	0.3832849711616291
117.0	58.800609203372005	pulse	0.0	t		face	adult-69.jpg	0.0	158.49324916816477	
117.0	58.90049295908648	ISI	1.0		7.0	face	adult-69.jpg	0.0	158.59313292387924	0.11670129444428312
118.0	59.01719425353076	adult	0.0		46.0	face	adult-58.jpg	0.0	158.70983421832352	0.3832861785813293
118.0	59.40048043211209	ISI	1.0		7.0	face	adult-58.jpg	0.0	159.09312039690485	0.11670189815413323
119.0	59.51718233026622	adult	0.0		45.0	face	adult-74.jpg	0.0	159.20982229505898	0.3833027805958409
119.0	59.50743755152325	pulse	0.0	t		face	adult-74.jpg	0.0	159.20007751631601	
119.0	59.900485110862064	ISI	1.0		7.0	face	adult-74.jpg	0.0	159.59312507565483	0.11670189815231424
120.0	60.01718700901438	adult	0.0		46.0	face	adult-139.jpg	0.0	159.70982697380714	0.38327259511606826
120.0	60.20058161384259	pulse	0.0	t		face	adult-139.jpg	0.0	159.89322157863535	
120.0	60.40045960413045	ISI	1.0		7.0	face	adult-139.jpg	0.0	160.0930995689232	0.11670461484754924
121.0	60.517164218977996	adult	0.0		46.0	face	adult-118.jpg	0.0	160.20980418377076	0.38329976204659033
121.0	60.900463981024586	ISI	1.0		7.0	face	adult-118.jpg	0.0	160.59310394581735	0.116695257347601
121.0	60.935902640958375	pulse	1.0	t		face	adult-118.jpg	0.0	160.62854260575114	
122.0	61.01715923837219	adult	0.0		46.0	face	adult-50.jpg	0.0	160.70979920316495	0.38324784302130865
122.0	61.400407081393496	ISI	1.0		7.0	face	adult-50.jpg	0.0	161.09304704618626	0.11669978517056734
123.0	61.51710686656406	adult	0.0		46.0	face	adult-4.jpg	0.0	161.20974683135682	0.3833039880155411
123.0	61.60052232955968	pulse	0.0	t		face	adult-4.jpg	0.0	161.29316229435244	
123.0	61.900410854579604	ISI	1.0		7.0	face	adult-4.jpg	0.0	161.59305081937237	0.11668801283121866
124.0	62.01709886741082	adult	0.0		46.0	face	adult-59.jpg	0.0	161.70973883220358	0.3832855748732982
124.0	62.300505818100646	pulse	0.0	t		face	adult-59.jpg	0.0	161.9931457828934	
124.0	62.40038444228412	ISI	1.0		7.0	face	adult-59.jpg	0.0	162.09302440707688	0.11670189815231424
125.0	62.517086340436435	adult	0.0		46.0	face	adult-20.jpg	0.0	162.2097263052292	0.383303384305691
125.0	62.900389724742126	ISI	1.0		7.0	face	adult-20.jpg	0.0	162.5930296895349	0.11668439057575597
126.0	63.01707411531788	adult	0.0		45.0	face	adult-106.jpg	0.0	162.70971408011064	0.38329764906302444
126.0	63.007287076901775	pulse	0.0	t		face	adult-106.jpg	0.0	162.69992704169454	
126.0	63.40037176438091	ISI	1.0		7.0	face	adult-106.jpg	0.0	163.09301172917367	0.11670431299171469
127.0	63.51707607737262	adult	0.0		46.0	face	adult-141.jpg	0.0	163.20971604216538	0.38329523422726197
127.0	63.70047309704023	pulse	0.0	t		face	adult-141.jpg	0.0	163.393113061833	
127.0	63.90037131159988	ISI	1.0		7.0	face	adult-141.jpg	0.0	163.59301127639264	0.11668469242977153
128.0	64.01705600402966	adult	0.0		46.0	face	adult-141.jpg	1.0	163.70969596882242	0.38329342309589265
128.0	64.39212901516112	response	0.0	b		face	adult-141.jpg	1.0	164.08476897995388	
128.0	64.40034942712555	ISI	1.0		7.0	face	adult-141.jpg	1.0	164.0929893919183	0.11669676662131678
128.0	64.43530572307827	pulse	1.0	t		face	adult-141.jpg	1.0	164.12794568787103	
129.0	64.51704619374686	adult	0.0		46.0	face	adult-6.jpg	0.0	164.20968615853963	0.3833012713221251
129.0	64.90034746506899	ISI	1.0		7.0	face	adult-6.jpg	0.0	164.59298742986175	0.11668318315605575
130.0	65.01703064822505	adult	0.0		46.0	face	adult-120.jpg	0.0	164.7096706130178	0.38329342309771164
130.0	65.10045426130091	pulse	0.0	t		face	adult-120.jpg	0.0	164.79309422609367	
130.0	65.40032407132276	ISI	1.0		7.0	face	adult-120.jpg	0.0	165.09296403611552	0.11670159629829868
131.0	65.51702566762106	adult	0.0		46.0	face	adult-123.jpg	0.0	165.20966563241382	0.3833018750319752
131.0	65.80043593871414	pulse	0.0	t		face	adult-123.jpg	0.0	165.4930759035069	
131.0	65.90032754265303	ISI	1.0		7.0	face	adult-123.jpg	0.0	165.5929675074458	0.11668529613780265
132.0	66.01701283879083	body	0.0		46.0	body	body-20.jpg	0.0	165.7096528035836	0.38328919713057985
132.0	66.40030203592141	ISI	1.0		7.0	body	body-20.jpg	0.0	166.09294200071417	0.11669827589503257
133.0	66.51700031181645	body	0.0		45.0	body	body-68.jpg	0.0	166.2096402766092	0.3833073084188072
133.0	66.50713056518543	pulse	0.0	t		body	body-68.jpg	0.0	166.1997705299782	
133.0	66.90030762023525	ISI	1.0		7.0	body	body-68.jpg	0.0	166.592947585028	0.11669374807388522
134.0	67.01700136830914	body	0.0		46.0	body	body-9.jpg	0.0	166.7096413331019	0.3833118362399546
134.0	67.20043642168093	pulse	0.0	t		body	body-9.jpg	0.0	166.8930763864737	
134.0	67.4003132045491	ISI	1.0		7.0	body	body-9.jpg	0.0	167.09295316934185	0.1167049167015648
135.0	67.51701812125066	body	0.0		46.0	body	body-80.jpg	0.0	167.20965808604342	0.3832991583385592
135.0	67.90031727958922	ISI	1.0		7.0	body	body-80.jpg	0.0	167.59295724438198	0.11668831468705321
135.0	67.9368658596486	pulse	1.0	t		body	body-80.jpg	0.0	167.62950582444137	
136.0	68.01700559427627	body	0.0		46.0	body	body-77.jpg	0.0	167.70964555906903	0.3832867822911794
136.0	68.40029237656745	ISI	1.0		7.0	body	body-77.jpg	0.0	168.0929323413602	0.1167028037179989
137.0	68.51699518028545	body	0.0		46.0	body	body-41.jpg	0.0	168.2096351450782	0.3833012713221251
137.0	68.60041788779563	pulse	0.0	t		body	body-41.jpg	0.0	168.2930578525884	
137.0	68.90029645160757	ISI	1.0		7.0	body	body-41.jpg	0.0	168.59293641640033	0.11669103138046921
138.0	69.01698748298804	body	0.0		46.0	body	body-8.jpg	0.0	168.7096274477808	0.3832849711616291
138.0	69.30039171698445	pulse	0.0	t		body	body-8.jpg	0.0	168.9930316817772	
138.0	69.40027245414967	ISI	1.0		7.0	body	body-8.jpg	0.0	169.09291241894243	0.11670069073443301
139.0	69.5169731448841	body	0.0		46.0	body	body-82.jpg	0.0	169.20961310967687	0.3833024787418253
139.0	69.90027562362593	ISI	1.0		7.0	body	body-82.jpg	0.0	169.5929155884187	0.11668620170348731
140.0	70.01696182532942	body	0.0		45.0	body	body-43.jpg	0.0	169.70960179012218	0.3832888952747453
140.0	70.00715003482037	pulse	0.0	t		body	body-43.jpg	0.0	169.69978999961313	
140.0	70.40025072060416	ISI	1.0		7.0	body	body-43.jpg	0.0	170.09289068539692	0.11670793524899636
141.0	70.51695865585316	body	0.0		46.0	body	body-29.jpg	0.0	170.20959862064592	0.3832653505996859
141.0	70.70033213084571	pulse	0.0	t		body	body-29.jpg	0.0	170.39297209563847	
141.0	70.90022400645285	ISI	1.0		7.0	body	body-29.jpg	0.0	170.5928639712456	0.11668589984947175
142.0	71.01690990630232	body	0.0		46.0	body	body-49.jpg	0.0	170.70954987109508	0.3832922156780114
142.0	71.40020212198033	ISI	1.0		7.0	body	body-49.jpg	0.0	171.0928420867731	0.11669706847533234
142.0	71.43660460431238	pulse	1.0	t		body	body-49.jpg	0.0	171.12924456910514	
143.0	71.51689919045566	body	0.0		46.0	body	body-69.jpg	0.0	171.20953915524842	0.383303384305691
143.0	71.90020257476135	ISI	1.0		11.0	body	body-69.jpg	0.0	171.5928425395541	0.09999876239635341
144.0	72.0002013371577	baseline	0.0		48.0		baseline	0.0	171.69284130195047	0.3999763345818792
144.0	72.1003036357506	pulse	0.0	t			baseline	0.0	171.79294360054337	
144.0	72.40017767173958	ISI	1.0		11.0		baseline	0.0	172.09281763653235	0.09999846054051886
145.0	72.5001761322801	baseline	0.0		48.0		baseline	0.0	172.19281609707286	0.4000059163554397
145.0	72.80036409726927	pulse	0.0	t			baseline	0.0	172.49300406206203	
145.0	72.90018204863554	ISI	1.0		11.0		baseline	0.0	172.5928220134283	0.09998427336358873
146.0	73.00016632199913	baseline	0.0		48.0		baseline	0.0	172.6928062867919	0.39998961619494366
146.0	73.40015593819408	ISI	1.0		11.0		baseline	0.0	173.09279590298684	0.10000117723393487
147.0	73.50015711542801	baseline	0.0		47.0		baseline	0.0	173.19279708022077	0.4000044070799049
147.0	73.50451559698922	pulse	0.0	t			baseline	0.0	173.19715556178198	
147.0	73.90016152250791	ISI	1.0		11.0		baseline	0.0	173.59280148730068	0.09998880118655507
148.0	74.00015032369447	baseline	0.0		48.0		baseline	0.0	173.69279028848723	0.3999853902278119
148.0	74.20025651621654	pulse	0.0	t			baseline	0.0	173.8928964810093	
148.0	74.40013571392228	ISI	1.0		11.0		baseline	0.0	174.09277567871504	0.09999664941096853
149.0	74.50013236333325	baseline	0.0		48.0		baseline	0.0	174.192772328126	0.4000065200652898
149.0	74.90013888339854	ISI	1.0		11.0		baseline	0.0	174.5927788481913	0.09999846053869987
149.0	74.90480918097455	pulse	1.0	t			baseline	0.0	174.5974491457673	
150.0	75.00013734393724	baseline	0.0		48.0		baseline	0.0	174.69277730873	0.39997724014756386
150.0	75.4001145840848	ISI	1.0		11.0		baseline	0.0	175.09275454887756	0.09999725312263763
151.0	75.50011183720744	baseline	0.0		48.0		baseline	0.0	175.1927518020002	0.4000074256273365
151.0	75.600230134105	pulse	0.0	t			baseline	0.0	175.29287009889777	
151.0	75.90011926283478	ISI	1.0		11.0		baseline	0.0	175.59275922762754	0.09998427336540772
152.0	76.00010353620019	baseline	0.0		48.0		baseline	0.0	175.69274350099295	0.399991427322675
152.0	76.30021362264779	pulse	0.0	t			baseline	0.0	175.99285358744055	
152.0	76.40009496352286	ISI	1.0		11.0		baseline	0.0	176.09273492831562	0.09999695126680308
153.0	76.50009191478966	baseline	0.0		48.0		baseline	0.0	176.19273187958242	0.4000750411050831
153.0	76.90016695589475	ISI	1.0		11.0		baseline	0.0	176.5928069206875	0.09998819747670495
154.0	77.00015515337145	baseline	0.0		47.0		baseline	0.0	176.6927951181642	0.399988710631078
154.0	77.00452450170633	pulse	0.0	t			baseline	0.0	176.6971644664991	
154.0	77.40014386400253	ISI	1.0		11.0		baseline	0.0	177.0927838287953	0.09999785683066875
155.0	77.5001417208332	baseline	0.0		48.0		baseline	0.0	177.19278168562596	0.40000561449960514
155.0	77.70025334674028	pulse	0.0	t			baseline	0.0	177.39289331153304	
155.0	77.9001473353328	ISI	1.0		7.0		baseline	0.0	177.59278730012556	0.11665058283506369
156.0	78.01679791816787	car	0.0		46.0	object	car-78.jpg	0.0	177.70943788296063	0.38328859342072974
156.0	78.4000865115886	ISI	1.0		7.0	object	car-78.jpg	0.0	178.09272647638136	0.1167000870245829
156.0	78.43655298714111	pulse	1.0	t		object	car-78.jpg	0.0	178.12919295193387	
157.0	78.51678659861318	car	0.0		46.0	object	car-119.jpg	0.0	178.20942656340594	0.3833000639024249
157.0	78.9000866625156	ISI	1.0		7.0	object	car-119.jpg	0.0	178.59272662730837	0.11668922025273787
158.0	79.01677588276834	car	0.0		46.0	object	car-107.jpg	0.0	178.7094158475611	0.38328648043534486
158.0	79.10019526987526	pulse	0.0	t		object	car-107.jpg	0.0	178.79283523466802	
158.0	79.40006236320369	ISI	1.0		7.0	object	car-107.jpg	0.0	179.09270232799645	0.11670612412126502
159.0	79.51676848732495	car	0.0		46.0	object	car-57.jpg	0.0	179.2094084521177	0.3832985546287091
159.0	79.80017030648378	pulse	0.0	t		object	car-57.jpg	0.0	179.49281027127654	
159.0	79.90006704195366	ISI	1.0		7.0	object	car-57.jpg	0.0	179.59270700674642	0.11669374807388522
160.0	80.01676079002755	car	0.0		46.0	object	car-10.jpg	0.0	179.7094007548203	0.3832508615687402
160.0	80.40001165159629	ISI	1.0		7.0	object	car-10.jpg	0.0	180.09265161638905	0.116692540654185
161.0	80.51670419225047	car	0.0		45.0	object	car-132.jpg	0.0	180.20934415704323	0.383311534385939
161.0	80.50663854184859	pulse	0.0	t		object	car-132.jpg	0.0	180.19927850664135	
161.0	80.90001572663641	ISI	1.0		7.0	object	car-132.jpg	0.0	180.59265569142917	0.11668469242977153
162.0	81.01670041906618	car	0.0		46.0	object	car-139.jpg	0.0	180.70934038385894	0.3833039880155411
162.0	81.20011222961875	pulse	0.0	t		object	car-139.jpg	0.0	180.8927521944115	
162.0	81.40000440708172	ISI	1.0		7.0	object	car-139.jpg	0.0	181.09264437187448	0.11668408871992142
163.0	81.51668849580165	car	0.0		46.0	object	car-26.jpg	0.0	181.2093284605944	0.38330459172357223
163.0	81.89999308752522	ISI	1.0		7.0	object	car-26.jpg	0.0	181.59263305231798	0.11668620170348731
163.0	81.93551626680528	pulse	1.0	t		object	car-26.jpg	0.0	181.62815623159804	
164.0	82.0166792892287	car	0.0		46.0	object	car-26.jpg	1.0	181.70931925402147	0.38328980084042996
164.0	82.39996909006913	ISI	1.0		7.0	object	car-26.jpg	1.0	182.0926090548619	0.11669827589503257
165.0	82.51666736596417	car	0.0		46.0	object	car-115.jpg	0.0	182.20930733075693	0.38330428986955667
165.0	82.53343389123256	response	0.0	b		object	car-115.jpg	0.0	182.22607385602532	
165.0	82.60007015105839	pulse	0.0	t		object	car-115.jpg	0.0	182.29271011585115	
165.0	82.89997165583372	ISI	1.0		7.0	object	car-115.jpg	0.0	182.59261162062649	0.11668620170348731
166.0	83.01665785753721	car	0.0		46.0	object	car-133.jpg	0.0	182.70929782232997	0.3832888952747453
166.0	83.30006692121242	pulse	0.0	t		object	car-133.jpg	0.0	182.99270688600518	
166.0	83.39994675281196	ISI	1.0		7.0	object	car-133.jpg	0.0	183.09258671760472	0.11670582226724946
167.0	83.5166525750792	car	0.0		46.0	object	car-126.jpg	0.0	183.20929253987197	0.383297950918859
167.0	83.89995052599807	ISI	1.0		5.0	object	car-126.jpg	0.0	183.59259049079083	0.11668227759037109
168.0	84.01663280358844	house	0.0		45.0	place	house-112.jpg	0.0	183.7092727683812	0.3832922156780114
168.0	84.00664805027554	pulse	0.0	t		place	house-112.jpg	0.0	183.6992880150683	
168.0	84.39992501926645	ISI	1.0		6.0	place	house-112.jpg	0.0	184.0925649840592	0.11670340742784902
169.0	84.5166284266943	house	0.0		46.0	place	house-138.jpg	0.0	184.20926839148706	0.3833012713221251
169.0	84.70003540756989	pulse	0.0	t		place	house-138.jpg	0.0	184.39267537236265	
169.0	84.89992969801642	ISI	1.0		6.0	place	house-138.jpg	0.0	184.59256966280918	0.11668710726735299
170.0	85.01661680528377	house	0.0		46.0	place	house-60.jpg	0.0	184.70925677007654	0.3832910082583112
170.0	85.39990781354209	ISI	1.0		6.0	place	house-60.jpg	0.0	185.09254777833485	0.11669827589685156
170.0	85.44625278951571	pulse	1.0	t		place	house-60.jpg	0.0	185.13889275430847	
171.0	85.51660608943894	house	0.0		46.0	place	house-8.jpg	0.0	185.2092460542317	0.38330428986955667
171.0	85.8999103793085	ISI	1.0		6.0	place	house-8.jpg	0.0	185.59255034410126	0.11668982396076899
172.0	86.01660020326926	house	0.0		46.0	place	house-58.jpg	0.0	185.70924016806202	0.3833151566432207
172.0	86.10003981464979	pulse	0.0	t		place	house-58.jpg	0.0	185.79267977944255	
172.0	86.39991535991248	ISI	1.0		6.0	place	house-58.jpg	0.0	186.09255532470524	0.11670401113769913
173.0	86.51661937105018	house	0.0		46.0	place	house-97.jpg	0.0	186.20925933584294	0.3832997620484093
173.0	86.80002451061046	pulse	0.0	t		place	house-97.jpg	0.0	186.49266447540322	
173.0	86.89991913309859	ISI	1.0		6.0	place	house-97.jpg	0.0	186.59255909789135	0.11669193694433488
174.0	87.01661107004293	house	0.0		46.0	place	house-122.jpg	0.0	186.7092510348357	0.38328376374374784
174.0	87.39989483378668	ISI	1.0		7.0	place	house-122.jpg	0.0	187.09253479857944	0.1167000870245829
175.0	87.51659492081126	house	0.0		45.0	place	house-25.jpg	0.0	187.20923488560402	0.3833039880155411
175.0	87.50668140523157	pulse	0.0	t		place	house-25.jpg	0.0	187.19932137002434	
175.0	87.8998989088268	ISI	1.0		7.0	place	house-25.jpg	0.0	187.59253887361956	0.11668982396076899
176.0	88.01658873278757	house	0.0		46.0	place	house-25.jpg	1.0	187.70922869758033	0.38328648043534486
176.0	88.19999692108104	pulse	0.0	t		place	house-25.jpg	1.0	187.8926368858738	
176.0	88.39987521322291	ISI	1.0		7.0	place	house-25.jpg	1.0	188.09251517801567	0.1167049167015648
177.0	88.51658012992448	house	0.0		46.0	place	house-59.jpg	0.0	188.20922009471724	0.383297950918859
177.0	88.66666626419465	response	0.0	b		place	house-59.jpg	0.0	188.3593062289874	
177.0	88.89987808084334	ISI	1.0		7.0	place	house-59.jpg	0.0	188.5925180456361	0.11669012581660354
177.0	88.93928341480023	pulse	1.0	t		place	house-59.jpg	0.0	188.631923379593	
178.0	89.01656820665994	house	0.0		46.0	place	house-6.jpg	0.0	188.7092081714527	0.38328497116344806
178.0	89.39985317782339	ISI	1.0		7.0	place	house-6.jpg	0.0	189.09249314261615	0.11670702968513069
179.0	89.51656020750852	house	0.0		46.0	place	house-96.jpg	0.0	189.20920017230128	0.38329674349915877
179.0	89.59997808534172	pulse	0.0	t		place	house-96.jpg	0.0	189.29261805013448	
179.0	89.89985695100768	ISI	1.0		7.0	place	house-96.jpg	0.0	189.59249691580044	0.11668620170348731
180.0	90.01654315271117	adult	0.0		46.0	face	adult-71.jpg	0.0	189.70918311750393	0.38328919713057985
180.0	90.2999540275141	pulse	0.0	t		face	adult-71.jpg	0.0	189.99259399230687	
180.0	90.39983234984174	ISI	1.0		7.0	face	adult-71.jpg	0.0	190.0924723146345	0.11670461484573025
181.0	90.51653696468748	adult	0.0		46.0	face	adult-38.jpg	0.0	190.20917692948024	0.3832991583385592
181.0	90.89983612302603	ISI	1.0		7.0	face	adult-38.jpg	0.0	190.5924760878188	0.11668650355750287
182.0	91.01652262658354	adult	0.0		45.0	face	adult-3.jpg	0.0	190.7091625913763	0.38328768785686407
182.0	91.0066133369728	pulse	0.0	t		face	adult-3.jpg	0.0	190.69925330176557	
182.0	91.3998103144404	ISI	1.0		7.0	face	adult-3.jpg	0.0	191.09245027923316	0.11670702968513069
183.0	91.51651734412553	adult	0.0		46.0	face	adult-76.jpg	0.0	191.2091573089183	0.38329885648272466
183.0	91.69992311758142	pulse	0.0	t		face	adult-76.jpg	0.0	191.39256308237418	
183.0	91.89981620060826	ISI	1.0		7.0	face	adult-76.jpg	0.0	191.59245616540102	0.11669827589685156
184.0	92.01651447650511	adult	0.0		46.0	face	adult-29.jpg	0.0	191.70915444129787	0.3832798396306316
184.0	92.39979431613574	ISI	1.0		7.0	face	adult-29.jpg	0.0	192.0924342809285	0.11669857775086712
184.0	92.4360181004231	pulse	1.0	t		face	adult-29.jpg	0.0	192.12865806521586	
185.0	92.5164928938866	adult	0.0		46.0	face	adult-125.jpg	0.0	192.20913285867937	0.3832876878550451
185.0	92.89978058174165	ISI	1.0		7.0	face	adult-125.jpg	0.0	192.5924205465344	0.1167097463785467
186.0	93.0164903281202	adult	0.0		46.0	face	adult-16.jpg	0.0	192.70913029291296	0.3832475411654741
186.0	93.09987590749006	pulse	0.0	t		face	adult-16.jpg	0.0	192.79251587228282	
186.0	93.39973786928567	ISI	1.0		7.0	face	adult-16.jpg	0.0	193.09237783407843	0.11669978517056734
187.0	93.51643765445624	adult	0.0		46.0	face	adult-28.jpg	0.0	193.209077619249	0.3833054972892569
187.0	93.79984551070993	pulse	0.0	t		face	adult-28.jpg	0.0	193.4924854755027	
187.0	93.8997431517455	ISI	1.0		7.0	face	adult-28.jpg	0.0	193.59238311653826	0.1166877109772031
188.0	94.0164308627227	adult	0.0		46.0	face	adult-28.jpg	1.0	193.70907082751546	0.3832861785813293
188.0	94.39971704130403	ISI	1.0		7.0	face	adult-28.jpg	1.0	194.0923570060968	0.1166931443640351
189.0	94.51641018566806	adult	0.0		45.0	face	adult-142.jpg	0.0	194.20905015046083	0.3833094214023731
189.0	94.50625548809876	pulse	0.0	t		face	adult-142.jpg	0.0	194.19889545289152	
189.0	94.52179467172027	response	0.0	b		face	adult-142.jpg	0.0	194.21443463651303	
189.0	94.89971960707044	ISI	1.0		7.0	face	adult-142.jpg	0.0	194.5923595718632	0.11668861654288776
190.0	95.01640822361333	adult	0.0		46.0	face	adult-115.jpg	0.0	194.7090481884061	0.38328798970906064
190.0	95.19981912860021	pulse	0.0	t		face	adult-115.jpg	0.0	194.89245909339297	
190.0	95.39969621332239	ISI	1.0		7.0	face	adult-115.jpg	0.0	195.09233617811515	0.11670733154096524
191.0	95.51640354486335	adult	0.0		46.0	face	adult-77.jpg	0.0	195.2090435096561	0.38329613978930865
191.0	95.89969968465266	ISI	1.0		5.0	face	adult-77.jpg	0.0	195.59233964944542	0.1166855979936372
191.0	95.95427684493006	pulse	1.0	t		face	adult-77.jpg	0.0	195.64691680972282	
192.0	96.0163852826463	house	0.0		46.0	place	house-105.jpg	0.0	195.70902524743906	0.3832894989845954
192.0	96.39967478163089	ISI	1.0		7.0	place	house-105.jpg	0.0	196.09231474642365	0.11670340742784902
193.0	96.51637818905874	house	0.0		46.0	place	house-72.jpg	0.0	196.2090181538515	0.3833012713221251
193.0	96.59984194882418	pulse	0.0	t		place	house-72.jpg	0.0	196.29248191361694	
193.0	96.89967946038087	ISI	1.0		6.0	place	house-72.jpg	0.0	196.59231942517363	0.11668469242977153
194.0	97.01636415281064	house	0.0		46.0	place	house-131.jpg	0.0	196.7090041176034	0.38329946019257477
194.0	97.29978046100041	pulse	0.0	t		place	house-131.jpg	0.0	196.99242042579317	
194.0	97.39966361300321	ISI	1.0		6.0	place	house-131.jpg	0.0	197.09230357779597	0.11669344621986966
195.0	97.51635705922308	house	0.0		46.0	place	house-144.jpg	0.0	197.20899702401584	0.38330791212683835
195.0	97.89966497134992	ISI	1.0		7.0	place	house-144.jpg	0.0	197.59230493614268	0.11667684420535807
196.0	98.01634181555528	house	0.0		45.0	place	house-119.jpg	0.0	197.70898178034804	0.38329131011232676
196.0	98.00637275869121	pulse	0.0	t		place	house-119.jpg	0.0	197.69901272348397	
196.0	98.3996331256676	ISI	1.0		6.0	place	house-119.jpg	0.0	198.09227309046037	0.11670038888041745
197.0	98.51633351454802	house	0.0		46.0	place	house-55.jpg	0.0	198.20897347934078	0.383303384305691
197.0	98.69975649372827	pulse	0.0	t		place	house-55.jpg	0.0	198.39239645852103	
197.0	98.89963689885371	ISI	1.0		6.0	place	house-55.jpg	0.0	198.59227686364648	0.11669072952463466
198.0	99.01632762837835	house	0.0		46.0	place	house-113.jpg	0.0	198.7089675931711	0.3833184770464868
198.0	99.39964610542484	ISI	1.0		6.0	place	house-113.jpg	0.0	199.0922860702176	0.11670099258844857
198.0	99.44159366056738	pulse	1.0	t		place	house-113.jpg	0.0	199.13423362536014	
199.0	99.51634709801328	house	0.0		46.0	place	house-87.jpg	0.0	199.20898706280605	0.3833157603530708
199.0	99.89966285836636	ISI	1.0		6.0	place	house-87.jpg	0.0	199.59230282315912	0.11667533493164228
200.0	100.016338193298	house	0.0		46.0	place	house-65.jpg	0.0	199.70897815809076	0.3832849711616291
200.0	100.09977538983912	pulse	0.0	t		place	house-65.jpg	0.0	199.79241535463188	
200.0	100.39962316445963	ISI	1.0		0.0	place	house-65.jpg	0.0	200.0922631292524	0.17503684892471938
201.0	100.57466001338435	house	0.0		39.0	place	house-42.jpg	0.0	200.2672999781771	0.32495334079430904
201.0	100.79973593741488	pulse	0.0	t		place	house-42.jpg	0.0	200.49237590220764	
201.0	100.89961335417865	ISI	1.0		0.0	place	house-42.jpg	0.0	200.59225331897142	0.18336441934661707
202.0	101.08297777352527	house	0.0		38.0	place	house-100.jpg	0.0	200.77561773831803	0.3166254685165768
202.0	101.39960324204185	ISI	1.0		0.0	place	house-100.jpg	0.0	201.0922432068346	0.18335989152546972
203.0	101.58296313356732	house	0.0		37.0	place	house-47.jpg	0.0	201.27560309836008	0.31663060004757426
203.0	101.5755906317554	pulse	0.0	t		place	house-47.jpg	0.0	201.26823059654816	
203.0	101.89959373361489	ISI	1.0		7.0	place	house-47.jpg	0.0	201.59223369840765	0.11669767218700144
204.0	102.0162914058019	car	0.0		46.0	object	car-12.jpg	0.0	201.70893137059466	0.3832910082583112
204.0	102.19970261264461	pulse	0.0	t		object	car-12.jpg	0.0	201.89234257743738	
204.0	102.3995824140602	ISI	1.0		7.0	object	car-12.jpg	0.0	202.09222237885297	0.1167076333949808
205.0	102.51629004745519	car	0.0		46.0	object	car-4.jpg	0.0	202.20893001224795	0.3832535782621562
205.0	102.89954362571734	ISI	1.0		7.0	object	car-4.jpg	0.0	202.5921835905101	0.11669676662313577
205.0	102.93573148928226	pulse	1.0	t		object	car-4.jpg	0.0	202.62837145407502	
206.0	103.01624039234048	car	0.0		46.0	object	car-63.jpg	0.0	202.70888035713324	0.38329342309589265
206.0	103.39953381543637	ISI	1.0		7.0	object	car-63.jpg	0.0	203.09217378022913	0.11670582226543047
207.0	103.5162396377018	car	0.0		46.0	object	car-102.jpg	0.0	203.20887960249456	0.38327682108320005
207.0	103.59968679545273	pulse	0.0	t		object	car-102.jpg	0.0	203.2923267602455	
207.0	103.899516458785	ISI	1.0		7.0	object	car-102.jpg	0.0	203.59215642357776	0.11670069073443301
208.0	104.01621714951943	car	0.0		46.0	object	car-128.jpg	0.0	203.7088571143122	0.3832894989845954
208.0	104.29962621319282	pulse	0.0	t		object	car-128.jpg	0.0	203.99226617798558	
208.0	104.39950664850403	ISI	1.0		5.0	object	car-128.jpg	0.0	204.0921466132968	0.11670370928186458
209.0	104.5162103577859	car	0.0		46.0	object	car-11.jpg	0.0	204.20885032257866	0.3832997620484093
209.0	104.8995101198343	ISI	1.0		7.0	object	car-11.jpg	0.0	204.59215008462706	0.11668831468705321
210.0	105.01619843452136	car	0.0		45.0	object	car-127.jpg	0.0	204.70883839931412	0.3832867822911794
210.0	105.00635464740299	pulse	0.0	t		object	car-127.jpg	0.0	204.69899461219575	
210.0	105.39948521681254	ISI	1.0		7.0	object	car-127.jpg	0.0	205.0921251816053	0.11670038888041745
211.0	105.51618560569295	car	0.0		46.0	object	car-88.jpg	0.0	205.20882557048571	0.3833054972892569
211.0	105.69960918858123	pulse	0.0	t		object	car-88.jpg	0.0	205.392249153374	
211.0	105.89949110298221	ISI	1.0		7.0	object	car-88.jpg	0.0	205.59213106777497	0.11668831468705321
212.0	106.01617941766926	car	0.0		46.0	object	car-110.jpg	0.0	205.70881938246202	0.3832882915648952
212.0	106.39946770923416	ISI	1.0		7.0	object	car-110.jpg	0.0	206.09210767402692	0.11670069073443301
212.0	106.43639994675323	pulse	1.0	t		object	car-110.jpg	0.0	206.129039911546	
213.0	106.51616839996859	car	0.0		46.0	object	car-15.jpg	0.0	206.20880836476135	0.38330036575644044
213.0	106.89946876572503	ISI	1.0		7.0	object	car-15.jpg	0.0	206.5921087305178	0.11668922025273787
214.0	107.01615798597777	car	0.0		46.0	object	car-104.jpg	0.0	206.70879795077053	0.3832861785813293
214.0	107.09957103413399	pulse	0.0	t		object	car-104.jpg	0.0	206.79221099892675	
214.0	107.3994441645591	ISI	1.0		7.0	object	car-104.jpg	0.0	207.09208412935186	0.1167022000081488
215.0	107.51614636456725	car	0.0		46.0	object	car-36.jpg	0.0	207.20878632936	0.3833024787418253
215.0	107.79955301340306	pulse	0.0	t		object	car-36.jpg	0.0	207.49219297819582	
215.0	107.89944884330907	ISI	1.0		7.0	object	car-36.jpg	0.0	207.59208880810183	0.1166877109772031
216.0	108.01613655428628	car	0.0		46.0	object	car-125.jpg	0.0	207.70877651907904	0.3832882915648952
216.0	108.39942484585117	ISI	1.0		7.0	object	car-125.jpg	0.0	208.09206481064393	0.11670099258844857
217.0	108.51612583843962	car	0.0		45.0	object	car-96.jpg	0.0	208.20876580323238	0.38333477720698284
217.0	108.50663461773729	pulse	0.0	t		object	car-96.jpg	0.0	208.19927458253005	
217.0	108.8994606156466	ISI	1.0		7.0	object	car-96.jpg	0.0	208.59210058043936	0.11668831468705321
218.0	109.01614893033366	car	0.0		46.0	object	car-96.jpg	1.0	208.70878889512642	0.38328376374192885
218.0	109.19955319451583	pulse	0.0	t		object	car-96.jpg	1.0	208.8921931593086	
218.0	109.39943269407559	ISI	1.0		5.0	object	car-96.jpg	1.0	209.09207265886835	0.11670823710483091
218.0	109.47459574849745	response	1.0	b		object	car-96.jpg	1.0	209.1672357132902	
219.0	109.51614093118042	car	0.0		46.0	object	car-77.jpg	0.0	209.20878089597318	0.3832970453549933
219.0	109.89943797653541	ISI	1.0		7.0	object	car-77.jpg	0.0	209.59207794132817	0.11669193694433488
219.0	109.9365655141155	pulse	1.0	t		object	car-77.jpg	0.0	209.62920547890826	
220.0	110.01612991347974	car	0.0		46.0	object	car-73.jpg	0.0	209.7087698782725	0.38328225447003206
220.0	110.39941216794978	ISI	1.0		7.0	object	car-73.jpg	0.0	210.09205213274254	0.11670672782929614
221.0	110.51611889577907	car	0.0		46.0	object	car-27.jpg	0.0	210.20875886057183	0.38329734721082787
221.0	110.59952952909771	pulse	0.0	t		object	car-27.jpg	0.0	210.29216949389047	
221.0	110.8994162429899	ISI	1.0		7.0	object	car-27.jpg	0.0	210.59205620778266	0.11670733153914625
222.0	111.01612357452905	car	0.0		46.0	object	car-80.jpg	0.0	210.7087635393218	0.3832674635832518
222.0	111.29950848981753	pulse	0.0	t		object	car-80.jpg	0.0	210.9921484546103	
222.0	111.3993910381123	ISI	1.0		7.0	object	car-80.jpg	0.0	211.09203100290506	0.11670702968513069
223.0	111.51609806779743	car	0.0		46.0	object	car-97.jpg	0.0	211.2087380325902	0.3832991583385592
223.0	111.89939722613599	ISI	1.0		7.0	object	car-97.jpg	0.0	211.59203719092875	0.11668801283303765
224.0	112.01608523896903	car	0.0		45.0	object	car-69.jpg	0.0	211.7087252037618	0.3832849711616291
224.0	112.00651161190217	pulse	0.0	t		object	car-69.jpg	0.0	211.69915157669493	
224.0	112.39937021013066	ISI	1.0		7.0	object	car-69.jpg	0.0	212.09201017492342	0.11670250186398334
225.0	112.51607271199464	car	0.0		46.0	object	car-38.jpg	0.0	212.2087126767874	0.3833076102728228
225.0	112.69949237077162	pulse	0.0	t		object	car-38.jpg	0.0	212.39213233556438	
225.0	112.89938032226746	ISI	1.0		7.0	object	car-38.jpg	0.0	212.59202028706022	0.1166855979936372
226.0	113.0160659202611	car	0.0		46.0	object	car-94.jpg	0.0	212.70870588505386	0.3832867822911794
226.0	113.39935270255228	ISI	1.0		7.0	object	car-94.jpg	0.0	213.09199266734504	0.11670370928186458
226.0	113.43561784094891	pulse	1.0	t		object	car-94.jpg	0.0	213.12825780574167	
227.0	113.51605641183414	car	0.0		46.0	object	car-98.jpg	0.0	213.2086963766269	0.3832976490648434
227.0	113.89935406089899	ISI	1.0		5.0	object	car-98.jpg	0.0	213.59199402569175	0.11669072952645365
228.0	114.01604479042544	word	0.0		46.0	character	word-69.jpg	0.0	213.7086847552182	0.38326172834058525
228.0	114.0994216160052	pulse	0.0	t		character	word-69.jpg	0.0	213.79206158079796	
228.0	114.39930651876602	ISI	1.0		7.0	character	word-69.jpg	0.0	214.0919464835588	0.11669978517056734
229.0	114.51600630393659	word	0.0		46.0	character	word-69.jpg	1.0	214.20864626872935	0.383297950918859
229.0	114.79943015849494	pulse	0.0	t		character	word-69.jpg	1.0	214.4920701232877	
229.0	114.89930425485545	ISI	1.0		4.0	character	word-69.jpg	1.0	214.5919442196482	0.11668499428378709
230.0	115.01598924913924	word	0.0		46.0	character	word-45.jpg	0.0	214.708629213932	0.3832882915667142
230.0	115.09939958060386	response	0.0	b		character	word-45.jpg	0.0	214.79203954539662	
230.0	115.39927754070595	ISI	1.0		4.0	character	word-45.jpg	0.0	215.0919175054987	0.11670069073443301
231.0	115.51597823144039	word	0.0		45.0	character	word-60.jpg	0.0	215.20861819623315	0.3833021768859908
231.0	115.5065525132286	pulse	0.0	t		character	word-60.jpg	0.0	215.19919247802136	
231.0	115.89928040832638	ISI	1.0		6.0	character	word-60.jpg	0.0	215.59192037311914	0.11668831468705321
232.0	116.01596872301343	word	0.0		46.0	character	word-115.jpg	0.0	215.7086086878062	0.38328648043534486
232.0	116.1993880799364	pulse	0.0	t		character	word-115.jpg	0.0	215.89202804472916	
232.0	116.39925520344877	ISI	1.0		4.0	character	word-115.jpg	0.0	216.09189516824154	0.11670401113769913
233.0	116.51595921458647	word	0.0		46.0	character	word-43.jpg	0.0	216.20859917937923	0.3833000639024249
233.0	116.8992592784889	ISI	1.0		7.0	character	word-43.jpg	0.0	216.59189924328166	0.11669012581660354
233.0	116.93722023719238	pulse	1.0	t		character	word-43.jpg	0.0	216.62986020198514	
234.0	117.0159494043055	word	0.0		46.0	character	word-116.jpg	0.0	216.70858936909826	0.3832852730174636
234.0	117.39923467732297	ISI	1.0		6.0	character	word-116.jpg	0.0	217.09187464211573	0.11670250186216435
235.0	117.51593717918513	word	0.0		46.0	character	word-87.jpg	0.0	217.2085771439779	0.3833024787418253
235.0	117.59936230153471	pulse	0.0	t		character	word-87.jpg	0.0	217.29200226632747	
235.0	117.89923965792696	ISI	1.0		5.0	character	word-87.jpg	0.0	217.59187962271972	0.11669133323448477
236.0	118.01593099116144	word	0.0		46.0	character	word-134.jpg	0.0	217.7085709559542	0.38328316003389773
236.0	118.29933462144982	pulse	0.0	t		character	word-134.jpg	0.0	217.99197458624258	
236.0	118.39921415119534	ISI	1.0		7.0	character	word-134.jpg	0.0	218.0918541159881	0.11670099259026756
237.0	118.5159151437856	word	0.0		46.0	character	word-98.jpg	0.0	218.20855510857837	0.383303384305691
237.0	118.8992185280913	ISI	1.0		5.0	character	word-98.jpg	0.0	218.59185849288406	0.11668318315423676
238.0	119.01590171124553	word	0.0		45.0	character	word-106.jpg	0.0	218.7085416760383	0.38329070640429563
238.0	119.00635434554715	pulse	0.0	t		character	word-106.jpg	0.0	218.6989943103399	
238.0	119.39919241764983	ISI	1.0		7.0	character	word-106.jpg	0.0	219.0918323824426	0.11670340742784902
239.0	119.51589582507768	word	0.0		46.0	character	word-137.jpg	0.0	219.20853578987044	0.3833021768859908
239.0	119.6993034096613	pulse	0.0	t		character	word-137.jpg	0.0	219.39194337445406	
239.0	119.89919800196367	ISI	1.0		7.0	character	word-137.jpg	0.0	219.59183796675643	0.11668801283303765
240.0	120.0158860147967	word	0.0		46.0	character	word-48.jpg	0.0	219.70852597958947	0.3833199863183836
240.0	120.39920600111509	ISI	1.0		6.0	character	word-48.jpg	0.0	220.09184596590785	0.11670189815413323
240.0	120.440096460723	pulse	1.0	t		character	word-48.jpg	0.0	220.13273642551576	
241.0	120.51590789926922	word	0.0		46.0	character	word-58.jpg	0.0	220.20854786406198	0.3833012713221251
241.0	120.89920917059135	ISI	1.0		7.0	character	word-58.jpg	0.0	220.5918491353841	0.11669012581660354
242.0	121.01589929640795	word	0.0		46.0	character	word-14.jpg	0.0	220.7085392612007	0.3832840655977634
242.0	121.09930721303317	pulse	0.0	t		character	word-14.jpg	0.0	220.79194717782593	
242.0	121.39918336200572	ISI	1.0		7.0	character	word-14.jpg	0.0	221.09182332679848	0.11670642597528058
243.0	121.515889787981	word	0.0		46.0	character	word-120.jpg	0.0	221.20852975277376	0.3832973472090089
243.0	121.79928979601027	pulse	0.0	t		character	word-120.jpg	0.0	221.49192976080303	
243.0	121.89918713519	ISI	1.0		5.0	character	word-120.jpg	0.0	221.59182709998277	0.11668740912318754
244.0	122.01587454431319	word	0.0		46.0	character	word-125.jpg	0.0	221.70851450910595	0.3832867822911794
244.0	122.39916132660437	ISI	1.0		6.0	character	word-125.jpg	0.0	222.09180129139713	0.11670159629829868
245.0	122.51586292290267	word	0.0		45.0	character	word-93.jpg	0.0	222.20850288769543	0.3833021768859908
245.0	122.50648308662312	pulse	0.0	t		character	word-93.jpg	0.0	222.19912305141588	
245.0	122.89916509978866	ISI	1.0		6.0	character	word-93.jpg	0.0	222.59180506458142	0.11668922025273787
246.0	123.0158543200414	word	0.0		46.0	character	word-138.jpg	0.0	222.70849428483416	0.38328648043534486
246.0	123.199261602771	pulse	0.0	t		character	word-138.jpg	0.0	222.89190156756376	
246.0	123.39914080047674	ISI	1.0		7.0	character	word-138.jpg	0.0	223.0917807652695	0.11670672783111513
247.0	123.51584752830786	word	0.0		46.0	character	word-63.jpg	0.0	223.20848749310062	0.38329613979112764
247.0	123.89914366809899	ISI	1.0		5.0	character	word-63.jpg	0.0	223.59178363289175	0.11669978516874835
247.0	123.94836169812697	pulse	1.0	t		character	word-63.jpg	0.0	223.64100166291973	
248.0	124.01584345326773	word	0.0		47.0	character	word-7.jpg	0.0	223.7084834180605	0.3916116360196611
248.0	124.4074550892874	ISI	1.0		6.0	character	word-7.jpg	0.0	224.10009505408016	0.10836678136183764
249.0	124.51582187064923	word	0.0		47.0	character	word-142.jpg	0.0	224.208461835442	0.39163397327502025
249.0	124.59926118017393	pulse	0.0	t		character	word-142.jpg	0.0	224.2919011449667	
249.0	124.90745584392425	ISI	1.0		6.0	character	word-142.jpg	0.0	224.60009580871701	0.10835893313742417
250.0	125.01581477706168	word	0.0		47.0	character	word-77.jpg	0.0	224.70845474185444	0.39161676755065855
250.0	125.2992165962205	pulse	0.0	t		character	word-77.jpg	0.0	224.99185656101326	
250.0	125.40743154461234	ISI	1.0		4.0	character	word-77.jpg	0.0	225.1000715094051	0.10837130918480398
251.0	125.51580285379714	word	0.0		47.0	character	word-22.jpg	0.0	225.2084428185899	0.3916330677111546
251.0	125.9074359215083	ISI	1.0		5.0	character	word-22.jpg	0.0	225.60007588630106	0.10835078305535717
252.0	126.01578670456365	house	0.0		46.0	place	house-82.jpg	0.0	225.7084266693564	0.391624615776891
252.0	126.00590880785239	pulse	0.0	t		place	house-82.jpg	0.0	225.69854877264515	
252.0	126.40741132034054	ISI	1.0		6.0	place	house-82.jpg	0.0	226.1000512851333	0.10837825184535177
253.0	126.5157895721859	house	0.0		47.0	place	house-98.jpg	0.0	226.20842953697866	0.3916267287586379
253.0	126.69919172338268	pulse	0.0	t		place	house-98.jpg	0.0	226.39183168817544	
253.0	126.90741630094453	ISI	1.0		5.0	place	house-98.jpg	0.0	226.6000562657373	0.11668861654288776
254.0	127.02410491748742	house	0.0		46.0	place	house-5.jpg	0.0	226.71674488228018	0.38325689866542234
254.0	127.3991414041866	pulse	0.0	t		place	house-5.jpg	0.0	227.09178136897935	
254.0	127.40736181615284	ISI	1.0		6.0	place	house-5.jpg	0.0	227.1000017809456	0.11670159629829868
255.0	127.52406341245114	house	0.0		46.0	place	house-48.jpg	0.0	227.2167033772439	0.38329885648272466
255.0	127.90736226893387	ISI	1.0		6.0	place	house-48.jpg	0.0	227.60000223372663	0.11668589984947175
256.0	128.02404816878334	house	0.0		46.0	place	house-1.jpg	0.0	227.7166881335761	0.38328798971087963
256.0	128.09914119288806	pulse	0.0	t		place	house-1.jpg	0.0	227.79178115768082	
256.0	128.40733615849422	ISI	1.0		6.0	place	house-1.jpg	0.0	228.09997612328698	0.11670401113769913
257.0	128.52404016963192	house	0.0		46.0	place	house-64.jpg	0.0	228.21668013442468	0.3833021768859908
257.0	128.79911502207688	pulse	0.0	t		place	house-64.jpg	0.0	228.49175498686964	
257.0	128.9073423465179	ISI	1.0		6.0	place	house-64.jpg	0.0	228.59998231131067	0.11668650355750287
258.0	129.0240288500754	house	0.0		46.0	place	house-4.jpg	0.0	228.71666881486817	0.38328708414701396
258.0	129.40731593422242	ISI	1.0		7.0	place	house-4.jpg	0.0	229.09995589901519	0.11670431299171469
258.0	129.49910816997362	pulse	1.0	t		place	house-4.jpg	0.0	229.19174813476639	
259.0	129.52402024721414	house	0.0		46.0	place	house-86.jpg	0.0	229.2166602120069	0.3832985546287091
259.0	129.90731880184285	ISI	1.0		6.0	place	house-86.jpg	0.0	229.5999587666356	0.116692540654185
260.0	130.02401134249703	house	0.0		46.0	place	house-24.jpg	0.0	229.7166513072898	0.3832834618879133
260.0	130.19908713069344	pulse	0.0	t		place	house-24.jpg	0.0	229.8917270954862	
260.0	130.40729480438495	ISI	1.0		5.0	place	house-24.jpg	0.0	230.0999347691777	0.11670250186398334
261.0	130.52399730624893	house	0.0		46.0	place	house-120.jpg	0.0	230.2166372710417	0.383303384305691
261.0	130.89907243036396	pulse	0.0	t		place	house-120.jpg	0.0	230.59171239515672	
261.0	130.90730069055462	ISI	1.0		6.0	place	house-120.jpg	0.0	230.59994065534738	0.1166877109772031
262.0	131.02398840153182	house	0.0		46.0	place	house-18.jpg	0.0	230.71662836632458	0.3832855748714792
262.0	131.4072739764033	ISI	1.0		6.0	place	house-18.jpg	0.0	231.09991394119606	0.11669374807388522
263.0	131.5239677244772	house	0.0		46.0	place	house-76.jpg	0.0	231.21660768926995	0.3833118362399546
263.0	131.59906527640487	pulse	0.0	t		place	house-76.jpg	0.0	231.29170524119763	
263.0	131.90727956071714	ISI	1.0		7.0	place	house-76.jpg	0.0	231.5999195255099	0.11668982396258798
264.0	132.02396938467973	body	0.0		46.0	body	body-84.jpg	0.0	231.7166093494725	0.3832849711616291
264.0	132.299043029705	pulse	0.0	t		body	body-84.jpg	0.0	231.99168299449775	
264.0	132.40725435584136	ISI	1.0		5.0	body	body-84.jpg	0.0	232.09989432063412	0.1167028037179989
265.0	132.52395715955936	body	0.0		46.0	body	body-51.jpg	0.0	232.21659712435212	0.38329885648272466
265.0	132.90725601604208	ISI	1.0		7.0	body	body-51.jpg	0.0	232.59989598083484	0.11668952210675343
265.0	132.99903859243932	pulse	1.0	t		body	body-51.jpg	0.0	232.69167855723208	
266.0	133.02394553814884	body	0.0		46.0	body	body-60.jpg	0.0	232.7165855029416	0.38331817519065225
266.0	133.4072637133395	ISI	1.0		7.0	body	body-60.jpg	0.0	233.09990367813225	0.11670793525081535
267.0	133.5239716485903	body	0.0		46.0	body	body-89.jpg	0.0	233.21661161338307	0.3832656524537015
267.0	133.6990232884018	pulse	0.0	t		body	body-89.jpg	0.0	233.39166325319457	
267.0	133.907237301044	ISI	1.0		7.0	body	body-89.jpg	0.0	233.59987726583677	0.11668348501007131
268.0	134.02392078605408	body	0.0		46.0	body	body-89.jpg	1.0	233.71656075084684	0.3833082139826729
268.0	134.39899500460524	pulse	0.0	t		body	body-89.jpg	1.0	234.091634969398	
268.0	134.40722900003675	ISI	1.0		7.0	body	body-89.jpg	1.0	234.0998689648295	0.11668408871992142
269.0	134.52391308875667	body	0.0		46.0	body	body-70.jpg	0.0	234.21655305354943	0.38330368616152555
269.0	134.5990604467279	response	0.0	b		body	body-70.jpg	0.0	234.29170041152065	
269.0	134.9072167749182	ISI	1.0		6.0	body	body-70.jpg	0.0	234.59985673971096	0.11668469242977153
270.0	135.02390146734797	body	0.0		46.0	body	body-38.jpg	0.0	234.71654143214073	0.3832904045484611
270.0	135.09898483209872	pulse	0.0	t		body	body-38.jpg	0.0	234.79162479689148	
270.0	135.40719187189643	ISI	1.0		7.0	body	body-38.jpg	0.0	235.0998318366892	0.1167000870245829
271.0	135.523891958921	body	0.0		46.0	body	body-115.jpg	0.0	235.21653192371377	0.3833012713221251
271.0	135.79896741507582	pulse	0.0	t		body	body-115.jpg	0.0	235.49160737986858	
271.0	135.90719323024314	ISI	1.0		7.0	body	body-115.jpg	0.0	235.5998331950359	0.11670099258844857
272.0	136.0238942228316	body	0.0		46.0	body	body-13.jpg	0.0	235.71653418762435	0.38327531180948426
272.0	136.40716953464107	ISI	1.0		7.0	body	body-13.jpg	0.0	236.09980949943383	0.11670340742603003
272.0	136.49897776869693	pulse	1.0	t		body	body-13.jpg	0.0	236.1916177334897	
273.0	136.5238729420671	body	0.0		46.0	body	body-5.jpg	0.0	236.21651290685986	0.3833045917253912
273.0	136.9071775337925	ISI	1.0		7.0	body	body-5.jpg	0.0	236.59981749858525	0.11668439057575597
274.0	137.02386192436825	body	0.0		46.0	body	body-33.jpg	0.0	236.716501889161	0.3832888952747453
274.0	137.1989359014351	pulse	0.0	t		body	body-33.jpg	0.0	236.89157586622787	
274.0	137.407150819643	ISI	1.0		7.0	body	body-33.jpg	0.0	237.09979078443575	0.11670099258844857
275.0	137.52385181223144	body	0.0		46.0	body	body-127.jpg	0.0	237.2164917770242	0.3833054972892569
275.0	137.898933577153	pulse	0.0	t		body	body-127.jpg	0.0	237.59157354194576	
275.0	137.9071573095207	ISI	1.0		6.0	body	body-127.jpg	0.0	237.59979727431346	0.11668348501007131
276.0	138.02384079453077	word	0.0		46.0	character	word-33.jpg	0.0	237.71648075932353	0.38328919713057985
276.0	138.40712999166135	ISI	1.0		6.0	character	word-33.jpg	0.0	238.0997699564541	0.11669978516874835
277.0	138.5238297768301	word	0.0		46.0	character	word-19.jpg	0.0	238.21646974162286	0.3833024787418253
277.0	138.59891857496768	pulse	0.0	t		character	word-19.jpg	0.0	238.29155853976044	
277.0	138.90713225557192	ISI	1.0		6.0	character	word-19.jpg	0.0	238.59977222036468	0.11668801283303765
278.0	139.02382026840496	word	0.0		46.0	character	word-30.jpg	0.0	238.71646023319772	0.38328859341891075
278.0	139.29889180044665	pulse	0.0	t		character	word-30.jpg	0.0	238.99153176523942	
278.0	139.40710886182387	ISI	1.0		7.0	character	word-30.jpg	0.0	239.09974882661663	0.11670552041141491
279.0	139.5238143822353	word	0.0		46.0	character	word-38.jpg	0.0	239.21645434702805	0.3833287401103007
279.0	139.9071431223456	ISI	1.0		6.0	character	word-38.jpg	0.0	239.59978308713835	0.1250255444629147
279.0	139.99896011018973	pulse	1.0	t		character	word-38.jpg	0.0	239.6916000749825	
280.0	140.0321686668085	word	0.0		45.0	character	word-78.jpg	0.0	239.72480863160126	0.3749495525153179
280.0	140.40711821932382	ISI	1.0		6.0	character	word-78.jpg	0.0	240.09975818411658	0.1167049167015648
281.0	140.52382313602538	word	0.0		46.0	character	word-37.jpg	0.0	240.21646310081815	0.383297950918859
281.0	140.6989079798641	pulse	0.0	t		character	word-37.jpg	0.0	240.39154794465685	
281.0	140.90712108694424	ISI	1.0		7.0	character	word-37.jpg	0.0	240.599761051737	0.1166904276706191
282.0	141.02381151461486	word	0.0		46.0	character	word-37.jpg	1.0	240.71645147940762	0.38325689866542234
282.0	141.39884709575017	pulse	0.0	t		character	word-37.jpg	1.0	241.09148706054293	
282.0	141.40706841328029	ISI	1.0		5.0	character	word-37.jpg	1.0	241.09970837807305	0.11669948331473279
283.0	141.52376789659502	word	0.0		45.0	character	word-112.jpg	0.0	241.21640786138778	0.3833024787418253
283.0	141.52837118240495	response	0.0	b		character	word-112.jpg	0.0	241.22101114719771	
283.0	141.90707037533684	ISI	1.0		6.0	character	word-112.jpg	0.0	241.5997103401296	0.11671035008839681
284.0	142.02378072542524	word	0.0		46.0	character	word-107.jpg	0.0	241.716420690218	0.38326444503400126
284.0	142.09883843251737	pulse	0.0	t		character	word-107.jpg	0.0	241.79147839731013	
284.0	142.40704517045924	ISI	1.0		7.0	character	word-107.jpg	0.0	242.099685135252	0.1167000870245829
285.0	142.52374525748382	word	0.0		46.0	character	word-109.jpg	0.0	242.21638522227659	0.38330217688780976
285.0	142.7988186006569	pulse	0.0	t		character	word-109.jpg	0.0	242.49145856544965	
285.0	142.90704743437163	ISI	1.0		6.0	character	word-109.jpg	0.0	242.5996873991644	0.116692540654185
286.0	143.02373997502582	word	0.0		46.0	character	word-1.jpg	0.0	242.71637993981858	0.3832973472090089
286.0	143.40703732223483	ISI	1.0		6.0	character	word-1.jpg	0.0	243.0996772870276	0.11669012581660354
286.0	143.49881355968137	pulse	1.0	t		character	word-1.jpg	0.0	243.19145352447413	
287.0	143.52372744805143	word	0.0		46.0	character	word-61.jpg	0.0	243.2163674128442	0.3833000639024249
287.0	143.90702751195386	ISI	1.0		7.0	character	word-61.jpg	0.0	243.59966747674662	0.11668740912318754
288.0	144.02371492107704	adult	0.0		46.0	face	adult-144.jpg	0.0	243.7163548858698	0.3832876878550451
288.0	144.19878950185375	pulse	0.0	t		face	adult-144.jpg	0.0	243.8914294666465	
288.0	144.4070026089321	ISI	1.0		7.0	face	adult-144.jpg	0.0	244.09964257372485	0.1167022000081488
289.0	144.52370480894024	adult	0.0		46.0	face	adult-122.jpg	0.0	244.216344773733	0.38330308245167544
289.0	144.8987880831355	pulse	0.0	t		face	adult-122.jpg	0.0	244.59142804792828	
289.0	144.9070078913919	ISI	1.0		7.0	face	adult-122.jpg	0.0	244.59964785618467	0.11668740912136855
290.0	145.02369530051328	adult	0.0		46.0	face	adult-87.jpg	0.0	244.71633526530604	0.3832861785813293
290.0	145.4069814790946	ISI	1.0		7.0	face	adult-87.jpg	0.0	245.09962144388737	0.11670250186398334
291.0	145.5236839809586	adult	0.0		46.0	face	adult-138.jpg	0.0	245.21632394575136	0.38330096946629055
291.0	145.59877217538633	pulse	0.0	t		face	adult-138.jpg	0.0	245.2914121401791	
291.0	145.90698495042489	ISI	1.0		7.0	face	adult-138.jpg	0.0	245.59962491521765	0.11668891839690332
292.0	146.0236738688218	adult	0.0		46.0	face	adult-108.jpg	0.0	245.71631383361455	0.3832867822911794
292.0	146.2987454008653	pulse	0.0	t		face	adult-108.jpg	0.0	245.99138536565806	
292.0	146.40696065111297	ISI	1.0		7.0	face	adult-108.jpg	0.0	246.09960061590573	0.11670552041141491
293.0	146.52366617152438	adult	0.0		46.0	face	adult-80.jpg	0.0	246.21630613631714	0.3832997620484093
293.0	146.9069659335728	ISI	1.0		7.0	face	adult-80.jpg	0.0	246.59960589836555	0.11668710726735299
293.0	146.99874096359963	pulse	1.0	t		face	adult-80.jpg	0.0	246.6913809283924	
294.0	147.02365304084014	adult	0.0		46.0	face	adult-80.jpg	1.0	246.7162930056329	0.38331666591693647
294.0	147.40696970675708	ISI	1.0		7.0	face	adult-80.jpg	1.0	247.09960967154984	0.11670461484754924
294.0	147.4571367683002	response	1.0	b		face	adult-80.jpg	1.0	247.14977673309295	
295.0	147.52367432160463	adult	0.0		46.0	face	adult-133.jpg	0.0	247.2163142863974	0.3832991583385592
295.0	147.69874890238134	pulse	0.0	t		face	adult-133.jpg	0.0	247.3913888671741	
295.0	147.9069734799432	ISI	1.0		7.0	face	adult-133.jpg	0.0	247.59961344473595	0.11668891839690332
296.0	148.0236623983401	adult	0.0		46.0	face	adult-117.jpg	0.0	247.71630236313285	0.383292517532027
296.0	148.39872031673076	pulse	0.0	t		face	adult-117.jpg	0.0	248.09136028152352	
296.0	148.40695491587212	ISI	1.0		5.0	face	adult-117.jpg	0.0	248.09959488066488	0.11669374807388522
297.0	148.523648663946	adult	0.0		46.0	face	adult-35.jpg	0.0	248.21628862873877	0.38330579914509144
297.0	148.9069544630911	ISI	1.0		7.0	face	adult-35.jpg	0.0	248.59959442788386	0.11669495549176645
298.0	149.02364941858286	adult	0.0		46.0	face	adult-88.jpg	0.0	248.71628938337562	0.38324723931145854
298.0	149.09868720325903	pulse	0.0	t		face	adult-88.jpg	0.0	248.7913271680518	
298.0	149.40689665789432	ISI	1.0		7.0	face	adult-88.jpg	0.0	249.09953662268708	0.11670521855739935
299.0	149.52360187645172	adult	0.0		46.0	face	adult-66.jpg	0.0	249.21624184124448	0.38329764906302444
299.0	149.79867159736568	pulse	0.0	t		face	adult-66.jpg	0.0	249.49131156215844	
299.0	149.90689952551475	ISI	1.0		7.0	face	adult-66.jpg	0.0	249.5995394903075	0.11669133323630376
300.0	150.02359085875105	car	0.0		46.0	object	car-62.jpg	0.0	249.7162308235438	0.38328587672549475
300.0	150.40687673547654	ISI	1.0		7.0	object	car-62.jpg	0.0	250.0995167002693	0.11670552041141491
300.0	150.49866987679343	pulse	1.0	t		object	car-62.jpg	0.0	250.1913098415862	
301.0	150.52358225588796	car	0.0		46.0	object	car-136.jpg	0.0	250.21622222068072	0.3832964416451432
301.0	150.9068786975331	ISI	1.0		7.0	object	car-136.jpg	0.0	250.59951866232586	0.11669223880016943
302.0	151.02357093633327	car	0.0		46.0	object	car-3.jpg	0.0	250.71621090112603	0.3832846693076135
302.0	151.19865698759168	pulse	0.0	t		object	car-3.jpg	0.0	250.89129695238444	
302.0	151.40685560564089	ISI	1.0		7.0	object	car-3.jpg	0.0	251.09949557043365	0.11670159629829868
303.0	151.52355720193918	car	0.0		46.0	object	car-66.jpg	0.0	251.21619716673194	0.3833048935794068
303.0	151.89864289097386	pulse	0.0	t		object	car-66.jpg	0.0	251.59128285576662	
303.0	151.9068620955186	ISI	1.0		5.0	object	car-66.jpg	0.0	251.59950206031135	0.11668650355932186
304.0	152.0235485990779	car	0.0		46.0	object	car-18.jpg	0.0	251.71618856387067	0.3832855748714792
304.0	152.4068341739494	ISI	1.0		7.0	object	car-18.jpg	0.0	252.09947413874215	0.11670552041141491
305.0	152.5235396943608	car	0.0		46.0	object	car-71.jpg	0.0	252.21617965915357	0.38329825277469354
305.0	152.5986146071773	pulse	0.0	t		object	car-71.jpg	0.0	252.29125457197006	
305.0	152.9068379471355	ISI	1.0		7.0	object	car-71.jpg	0.0	252.59947791192826	0.11668710726735299
306.0	153.02352505440285	car	0.0		46.0	object	car-117.jpg	0.0	252.7161650191956	0.38329342309589265
306.0	153.2985996049938	pulse	0.0	t		object	car-117.jpg	0.0	252.99123956978656	
306.0	153.40681847749875	ISI	1.0		7.0	object	car-117.jpg	0.0	253.0994584422915	0.11669918146071723
307.0	153.52351765895946	car	0.0		46.0	object	car-117.jpg	1.0	253.21615762375222	0.38330308245167544
307.0	153.90682074141114	ISI	1.0		7.0	object	car-117.jpg	1.0	253.5994607062039	0.11668197573635553
307.0	153.9985936584544	pulse	1.0	t		object	car-117.jpg	1.0	253.69123362324717	
308.0	154.0235027171475	car	0.0		45.0	object	car-82.jpg	0.0	253.71614268194025	0.383289800838611
308.0	154.01867756805404	response	0.0	b		object	car-82.jpg	0.0	253.7113175328468	
308.0	154.4067925179861	ISI	1.0		5.0	object	car-82.jpg	0.0	254.09943248277887	0.11670099258844857
309.0	154.52349351057455	car	0.0		46.0	object	car-135.jpg	0.0	254.21613347536731	0.383303384305691
309.0	154.69856809135126	pulse	0.0	t		object	car-135.jpg	0.0	254.39120805614402	
309.0	154.90679689488024	ISI	1.0		7.0	object	car-135.jpg	0.0	254.599436859673	0.11670129444428312
310.0	155.02349818932453	car	0.0		46.0	object	car-75.jpg	0.0	254.7161381541173	0.383306100999107
310.0	155.3985865950508	pulse	0.0	t		object	car-75.jpg	0.0	255.09122655984356	
310.0	155.40680429032363	ISI	1.0		7.0	object	car-75.jpg	0.0	255.0994442551164	0.11670250186398334
311.0	155.52350679218762	car	0.0		46.0	object	car-137.jpg	0.0	255.21614675698038	0.3832991583367402
311.0	155.90680595052436	ISI	1.0		7.0	object	car-137.jpg	0.0	255.59944591531712	0.116695257347601
312.0	156.02350120787196	body	0.0		46.0	body	body-109.jpg	0.0	255.71614117266472	0.38325055971472466
312.0	156.098539898112	pulse	0.0	t		body	body-109.jpg	0.0	255.79117986290476	
312.0	156.40675176758668	ISI	1.0		6.0	body	body-109.jpg	0.0	256.09939173237944	0.11669978517056734
313.0	156.52345155275725	body	0.0		46.0	body	body-3.jpg	0.0	256.21609151755	0.38330368615970656
313.0	156.79853455528246	pulse	0.0	t		body	body-3.jpg	0.0	256.4911745200752	
313.0	156.90675523891696	ISI	1.0		7.0	body	body-3.jpg	0.0	256.5993952037097	0.11668710726917197
314.0	157.02344234618613	body	0.0		46.0	body	body-74.jpg	0.0	256.7160823109789	0.383289800838611
314.0	157.40673214702474	ISI	1.0		7.0	body	body-74.jpg	0.0	257.0993721118175	0.1167000870245829
314.0	157.4985189493891	pulse	1.0	t		body	body-74.jpg	0.0	257.19115891418187	
315.0	157.52343223404932	body	0.0		46.0	body	body-34.jpg	0.0	257.2160721988421	0.38330096946629055
315.0	157.9067332035156	ISI	1.0		7.0	body	body-34.jpg	0.0	257.5993731683084	0.11668891839690332
316.0	158.02342212191252	body	0.0		46.0	body	body-81.jpg	0.0	257.7160620867053	0.3832873860010295
316.0	158.19849941938264	pulse	0.0	t		body	body-81.jpg	0.0	257.8911393841754	
316.0	158.40670950791355	ISI	1.0		7.0	body	body-81.jpg	0.0	258.0993494727063	0.11671427420151304
317.0	158.52342378211506	body	0.0		46.0	body	body-16.jpg	0.0	258.2160637469078	0.3832894989845954
317.0	158.89849860437425	pulse	0.0	t		body	body-16.jpg	0.0	258.591138569167	
317.0	158.90671328109966	ISI	1.0		7.0	body	body-16.jpg	0.0	258.5993532458924	0.11668710726735299
318.0	159.023400388367	body	0.0		46.0	body	body-136.jpg	0.0	258.71604035315977	0.38328798971087963
318.0	159.4066883780779	ISI	1.0		7.0	body	body-136.jpg	0.0	259.09932834287065	0.11670521855558036
319.0	159.52339359663347	body	0.0		46.0	body	body-62.jpg	0.0	259.21603356142623	0.38329674350097775
319.0	159.59848058364332	pulse	0.0	t		body	body-62.jpg	0.0	259.2911205484361	
319.0	159.90669034013445	ISI	1.0		7.0	body	body-62.jpg	0.0	259.5993303049272	0.11668861654106877
320.0	160.02337895667551	body	0.0		46.0	body	body-97.jpg	0.0	259.7160189214683	0.3832867822911794
320.0	160.29844988500918	pulse	0.0	t		body	body-97.jpg	0.0	259.99108984980194	
320.0	160.4066657389667	ISI	1.0		7.0	body	body-97.jpg	0.0	260.09930570375946	0.11670370928368357
321.0	160.52336944825038	body	0.0		46.0	body	body-97.jpg	1.0	260.21600941304314	0.38329976204659033
321.0	160.90666921029697	ISI	1.0		7.0	body	body-97.jpg	1.0	260.59930917508973	0.11668891839690332
321.0	160.9984442403238	pulse	1.0	t		body	body-97.jpg	1.0	260.69108420511657	
322.0	161.02335812869387	body	0.0		46.0	body	body-40.jpg	0.0	260.71599809348663	0.3832861785813293
322.0	161.08176129865205	response	0.0	b		body	body-40.jpg	0.0	260.7744012634448	
322.0	161.4066443072752	ISI	1.0		7.0	body	body-40.jpg	0.0	261.09928427206796	0.11670521855739935
323.0	161.5233495258326	body	0.0		46.0	body	body-53.jpg	0.0	261.21598949062536	0.38329885648272466
323.0	161.69842078620604	pulse	0.0	t		body	body-53.jpg	0.0	261.3910607509988	
323.0	161.90664838231532	ISI	1.0		7.0	body	body-53.jpg	0.0	261.5992883471081	0.11669404992971977
324.0	162.02334243224504	body	0.0		46.0	body	body-85.jpg	0.0	261.7159823970378	0.38332089188406826
324.0	162.39843898805157	pulse	0.0	t		body	body-85.jpg	0.0	262.0910789528443	
324.0	162.4066633241291	ISI	1.0		7.0	body	body-85.jpg	0.0	262.0993032889219	0.11669887960488268
325.0	162.523362203734	body	0.0		46.0	body	body-140.jpg	0.0	262.21600216852676	0.3832970453549933
325.0	162.906659249089	ISI	1.0		7.0	body	body-140.jpg	0.0	262.59929921388175	0.11669284250820056
326.0	163.0233520915972	body	0.0		46.0	body	body-66.jpg	0.0	262.71599205638995	0.3832529745541251
326.0	163.09846926408864	pulse	0.0	t		body	body-66.jpg	0.0	262.7911092288814	
326.0	163.40660506615131	ISI	1.0		7.0	body	body-66.jpg	0.0	263.0992450309441	0.11670038887859846
327.0	163.5233054550299	body	0.0		46.0	body	body-6.jpg	0.0	263.2159454198227	0.38330157317795965
327.0	163.79837698707342	pulse	0.0	t		body	body-6.jpg	0.0	263.4910169518662	
327.0	163.90660702820787	ISI	1.0		7.0	body	body-6.jpg	0.0	263.59924699300063	0.11668952210493444
328.0	164.0232965503128	body	0.0		46.0	body	body-47.jpg	0.0	263.71593651510557	0.38328708414701396
328.0	164.40658363445982	ISI	1.0		7.0	body	body-47.jpg	0.0	264.0992235992526	0.11670310557201446
328.0	164.49837254980775	pulse	1.0	t		body	body-47.jpg	0.0	264.1910125146005	
329.0	164.52328674003184	body	0.0		46.0	body	body-128.jpg	0.0	264.2159267048246	0.3832976490648434
329.0	164.90658438909668	ISI	1.0		7.0	body	body-128.jpg	0.0	264.59922435388944	0.11668891839690332
330.0	165.02327330749358	body	0.0		46.0	body	body-129.jpg	0.0	264.71591327228634	0.38328859341891075
330.0	165.1983506049637	pulse	0.0	t		body	body-129.jpg	0.0	264.89099056975647	
330.0	165.4065619009125	ISI	1.0		7.0	body	body-129.jpg	0.0	265.09920186570525	0.11670159630011767
331.0	165.5232634972126	body	0.0		46.0	body	body-122.jpg	0.0	265.2159034620054	0.3833027805958409
331.0	165.89834767697175	pulse	0.0	t		body	body-122.jpg	0.0	265.5909876417645	
331.0	165.90656627780845	ISI	1.0		7.0	body	body-122.jpg	0.0	265.5992062426012	0.1166877109772031
332.0	166.02325398878565	body	0.0		46.0	body	body-11.jpg	0.0	265.7158939535784	0.3832882915648952
332.0	166.40654228035055	ISI	1.0		5.0	body	body-11.jpg	0.0	266.0991822451433	0.11670250186398334
333.0	166.52324478221453	body	0.0		46.0	body	body-73.jpg	0.0	266.2158847470073	0.3833000639024249
333.0	166.59840270510358	pulse	0.0	t		body	body-73.jpg	0.0	266.29104266989634	
333.0	166.90654484611696	ISI	1.0		7.0	body	body-73.jpg	0.0	266.5991848109097	0.11668740912318754
334.0	167.02323225524015	body	0.0		46.0	body	body-2.jpg	0.0	266.7158722200329	0.3832882915648952
334.0	167.29830469284752	pulse	0.0	t		body	body-2.jpg	0.0	266.9909446576403	
334.0	167.40652054680504	ISI	1.0		7.0	body	body-2.jpg	0.0	267.0991605115978	0.1167022000081488
335.0	167.5232227468132	body	0.0		46.0	body	body-83.jpg	0.0	267.21586271160595	0.38330036575825943
335.0	167.90652311257145	ISI	1.0		7.0	body	body-83.jpg	0.0	267.5991630773642	0.11669555920161656
335.0	167.99830387783913	pulse	1.0	t		body	body-83.jpg	0.0	267.6909438426319	
336.0	168.02321867177307	car	0.0		46.0	object	car-22.jpg	0.0	267.7158586365658	0.3832804433404817
336.0	168.40649911511355	ISI	1.0		7.0	object	car-22.jpg	0.0	268.0991390799063	0.11670159629829868
337.0	168.52320071141185	car	0.0		46.0	object	car-68.jpg	0.0	268.2158406762046	0.3833012713221251
337.0	168.6982755940444	pulse	0.0	t		object	car-68.jpg	0.0	268.39091555883715	
337.0	168.90650198273397	ISI	1.0		5.0	object	car-68.jpg	0.0	268.59914194752673	0.11668922025273787
338.0	169.0231912029867	car	0.0		46.0	object	car-92.jpg	0.0	268.71583116777947	0.38332089188406826
338.0	169.39829198476036	pulse	0.0	t		object	car-92.jpg	0.0	269.0909319495531	
338.0	169.40651209487078	ISI	1.0		7.0	object	car-92.jpg	0.0	269.09915205966354	0.11670099258844857
339.0	169.52321308745923	car	0.0		46.0	object	car-54.jpg	0.0	269.215853052252	0.3832985546287091
339.0	169.90651164208793	ISI	1.0		6.0	object	car-54.jpg	0.0	269.5991516068807	0.11668016460680519
340.0	170.02319180669474	car	0.0		46.0	object	car-64.jpg	0.0	269.7158317714875	0.38329613979112764
340.0	170.09832044966788	pulse	0.0	t		object	car-64.jpg	0.0	269.79096041446064	
340.0	170.40648794648587	ISI	1.0		7.0	object	car-64.jpg	0.0	270.09912791127863	0.11670401113769913
341.0	170.52319195762357	car	0.0		46.0	object	car-20.jpg	0.0	270.2158319224163	0.38328255632222863
341.0	170.7982640933751	pulse	0.0	t		object	car-20.jpg	0.0	270.49090405816787	
341.0	170.9064745139458	ISI	1.0		7.0	object	car-20.jpg	0.0	270.59911447873856	0.11670853896066546
342.0	171.02318305290646	car	0.0		46.0	object	car-23.jpg	0.0	270.7158230176992	0.3832517671326059
342.0	171.40643482003907	ISI	1.0		6.0	object	car-23.jpg	0.0	271.0990747848318	0.12504154276757617
342.0	171.49822554651655	pulse	1.0	t		object	car-23.jpg	0.0	271.1908655113093	
343.0	171.53147636280664	car	0.0		45.0	object	car-39.jpg	0.0	271.2241163275994	0.37496434340209817
343.0	171.90644070620874	ISI	1.0		6.0	object	car-39.jpg	0.0	271.5990806710015	0.11668620170348731
344.0	172.02312690791223	car	0.0		46.0	object	car-79.jpg	0.0	271.715766872705	0.3832855748714792
344.0	172.19820329981667	pulse	0.0	t		object	car-79.jpg	0.0	271.89084326460943	
344.0	172.4064124827837	ISI	1.0		7.0	object	car-79.jpg	0.0	272.09905244757647	0.1167028037179989
345.0	172.5231152865017	car	0.0		46.0	object	car-79.jpg	1.0	272.21575525129447	0.3833048935794068
345.0	172.8982000699707	pulse	0.0	t		object	car-79.jpg	1.0	272.59084003476346	
345.0	172.9064201800811	ISI	1.0		7.0	object	car-79.jpg	1.0	272.5990601448739	0.11668348501007131
346.0	173.02310366509118	car	0.0		46.0	object	car-65.jpg	0.0	272.71574362988395	0.3832888952747453
346.0	173.16484562692494	response	0.0	b		object	car-65.jpg	0.0	272.8574855917177	
346.0	173.40639256036593	ISI	1.0		6.0	object	car-65.jpg	0.0	273.0990325251587	0.11670431299353368
347.0	173.52309687335946	car	0.0		46.0	object	car-108.jpg	0.0	273.2157368381522	0.38330096946629055
347.0	173.5981889918985	pulse	0.0	t		object	car-108.jpg	0.0	273.29082895669126	
347.0	173.90639784282575	ISI	1.0		11.0	object	car-108.jpg	0.0	273.5990378076185	0.0999830659457075
348.0	174.00638090877146	baseline	0.0		48.0		baseline	0.0	273.6990208735642	0.3999908236128249
348.0	174.29815859512019	pulse	0.0	t			baseline	0.0	273.99079855991295	
348.0	174.4063717323843	ISI	1.0		11.0		baseline	0.0	274.09901169717705	0.09999785683066875
349.0	174.50636958921496	baseline	0.0		48.0		baseline	0.0	274.1990095540077	0.4000080293390056
349.0	174.90637761855396	ISI	1.0		11.0		baseline	0.0	274.5990175833467	0.09999031046027085
349.0	174.99815083745125	pulse	1.0	t			baseline	0.0	274.690790802244	
350.0	175.00636792901423	baseline	0.0		48.0		baseline	0.0	274.699007893807	0.39998297538841143
350.0	175.40635090440264	ISI	1.0		11.0		baseline	0.0	275.0989908691954	0.09999966796021909
351.0	175.50635057236286	baseline	0.0		48.0		baseline	0.0	275.1989905371556	0.4000031996602047
351.0	175.69812859075319	pulse	0.0	t			baseline	0.0	275.39076855554595	
351.0	175.90635377202307	ISI	1.0		11.0		baseline	0.0	275.5989937368158	0.09998548078510794
352.0	176.00633925280817	baseline	0.0		48.0		baseline	0.0	275.69897921760094	0.3999956532898068
352.0	176.39811177744014	pulse	0.0	t			baseline	0.0	276.0907517422329	
352.0	176.40633490609798	ISI	1.0		11.0		baseline	0.0	276.09897487089074	0.09999212158982118
353.0	176.5063270276878	baseline	0.0		48.0		baseline	0.0	276.19896699248056	0.40000772748317104
353.0	176.90633475517097	ISI	1.0		11.0		baseline	0.0	276.59897471996373	0.09999725312081864
354.0	177.0063320082918	baseline	0.0		48.0		baseline	0.0	276.69897197308455	0.40004968530229235
354.0	177.09817193710296	pulse	0.0	t			baseline	0.0	276.7908119018957	
354.0	177.40638169359408	ISI	1.0		11.0		baseline	0.0	277.09902165838685	0.09999544199126831
355.0	177.50637713558535	baseline	0.0		48.0		baseline	0.0	277.1990171003781	0.40000621820945526
355.0	177.79815542564393	pulse	0.0	t			baseline	0.0	277.4907953904367	
355.0	177.9063833537948	ISI	1.0		11.0		baseline	0.0	277.59902331858757	0.09998336779972306
356.0	178.00636672159453	baseline	0.0		48.0		baseline	0.0	277.6990066863873	0.3999902199047938
356.0	178.40635694149933	ISI	1.0		11.0		baseline	0.0	278.0989969062921	0.10000117723393487
356.0	178.49821015192174	pulse	1.0	t			baseline	0.0	278.1908501167145	
357.0	178.50635811873326	baseline	0.0		48.0		baseline	0.0	278.198998083526	0.40000410522588936
357.0	178.90636222395915	ISI	1.0		11.0		baseline	0.0	278.5990021887519	0.09998185852600727
358.0	179.00634408248516	baseline	0.0		48.0		baseline	0.0	278.6989840472779	0.3999920310325251
358.0	179.1981278361145	pulse	0.0	t			baseline	0.0	278.89076780090727	
358.0	179.40633611351768	ISI	1.0		11.0		baseline	0.0	279.09897607831044	0.09999785683066875
359.0	179.50633397034835	baseline	0.0		48.0		baseline	0.0	279.1989739351411	0.40000953861272137
359.0	179.8981264173981	pulse	0.0	t			baseline	0.0	279.59076638219085	
359.0	179.90634350896107	ISI	1.0		7.0		baseline	0.0	279.59898347375383	0.11664997912521358
360.0	180.02299348808629	body	0.0		46.0	body	body-71.jpg	0.0	279.71563345287905	0.38328376374374784
360.0	180.40627725183003	ISI	1.0		7.0	body	body-71.jpg	0.0	280.0989172166228	0.11670702968513069
361.0	180.52298428151516	body	0.0		46.0	body	body-142.jpg	0.0	280.2156242463079	0.3832964416451432
361.0	180.59807157037903	pulse	0.0	t		body	body-142.jpg	0.0	280.2907115351718	
361.0	180.9062807231603	ISI	1.0		7.0	body	body-142.jpg	0.0	280.59892068795307	0.11669465363775089
362.0	181.02297537679806	body	0.0		46.0	body	body-75.jpg	0.0	280.7156153415908	0.38328165076018195
362.0	181.2980435884383	pulse	0.0	t		body	body-75.jpg	0.0	280.99068355323107	
362.0	181.40625702755824	ISI	1.0		7.0	body	body-75.jpg	0.0	281.098896992351	0.11670250186216435
363.0	181.5229595294204	body	0.0		46.0	body	body-95.jpg	0.0	281.21559949421317	0.3833024787418253
363.0	181.90626200816223	ISI	1.0		7.0	body	body-95.jpg	0.0	281.598901972955	0.12502192220563302
363.0	181.9981161241485	pulse	1.0	t		body	body-95.jpg	0.0	281.69075608894127	
364.0	182.03128393036786	body	0.0		45.0	body	body-94.jpg	0.0	281.7239238951606	0.3749510617890337
364.0	182.4062349921569	ISI	1.0		7.0	body	body-94.jpg	0.0	282.09887495694966	0.11670189815413323
365.0	182.52293689031103	body	0.0		46.0	body	body-121.jpg	0.0	282.2155768551038	0.3833021768859908
365.0	182.69802777124642	pulse	0.0	t		body	body-121.jpg	0.0	282.3906677360392	
365.0	182.90623906719702	ISI	1.0		7.0	body	body-121.jpg	0.0	282.5988790319898	0.11669374807388522
366.0	183.0229328152709	body	0.0		46.0	body	body-114.jpg	0.0	282.71557278006367	0.3832849711616291
366.0	183.39799677075825	pulse	0.0	t		body	body-114.jpg	0.0	283.090636735551	
366.0	183.40621778643253	ISI	1.0		7.0	body	body-114.jpg	0.0	283.0988577512253	0.11670250186398334
367.0	183.52292028829652	body	0.0		46.0	body	body-120.jpg	0.0	283.2155602530893	0.3832662561635516
367.0	183.90618654446007	ISI	1.0		6.0	body	body-120.jpg	0.0	283.59882650925283	0.11668740912318754
368.0	184.02287395358326	body	0.0		46.0	body	body-90.jpg	0.0	283.715513918376	0.3832873860010295
368.0	184.09795762018985	pulse	0.0	t		body	body-90.jpg	0.0	283.7905975849826	
368.0	184.4061613395843	ISI	1.0		4.0	body	body-90.jpg	0.0	284.09880130437705	0.11670431299171469
369.0	184.522865652576	body	0.0		46.0	body	body-14.jpg	0.0	284.21550561736876	0.38329946019257477
369.0	184.79795016437674	pulse	0.0	t		body	body-14.jpg	0.0	284.4905901291695	
369.0	184.90616511276858	ISI	1.0		7.0	body	body-14.jpg	0.0	284.59880507756134	0.11668771097902209
370.0	185.0228528237476	body	0.0		46.0	body	body-46.jpg	0.0	284.71549278854036	0.38328798970906064
370.0	185.40614081345666	ISI	1.0		7.0	body	body-46.jpg	0.0	285.0987807782494	0.11670340742784902
370.0	185.49793636961112	pulse	1.0	t		body	body-46.jpg	0.0	285.1905763344039	
371.0	185.5228442208845	body	0.0		46.0	body	body-37.jpg	0.0	285.21548418567727	0.3833000639024249
371.0	185.90614428478693	ISI	1.0		7.0	body	body-37.jpg	0.0	285.5987842495797	0.11668801283303765
372.0	186.02283229761997	adult	0.0		46.0	face	adult-127.jpg	0.0	285.71547226241273	0.3832873860010295
372.0	186.1979098969441	pulse	0.0	t		face	adult-127.jpg	0.0	285.8905498617369	
372.0	186.406119683621	ISI	1.0		7.0	face	adult-127.jpg	0.0	286.09875964841376	0.11670250186216435
373.0	186.52282218548316	adult	0.0		46.0	face	adult-98.jpg	0.0	286.2154621502759	0.3833073084188072
373.0	186.89790455411458	pulse	0.0	t		face	adult-98.jpg	0.0	286.59054451890734	
373.0	186.90612949390197	ISI	1.0		7.0	face	adult-98.jpg	0.0	286.59876945869473	0.11668469242977153
374.0	187.02281418633174	adult	0.0		46.0	face	adult-136.jpg	0.0	286.7154541511245	0.3832840655977634
374.0	187.4060982519295	ISI	1.0		7.0	face	adult-136.jpg	0.0	287.09873821672227	0.11670159629829868
375.0	187.5227998482278	adult	0.0		46.0	face	adult-55.jpg	0.0	287.21543981302057	0.3832852730174636
375.0	187.59788049628696	pulse	0.0	t		face	adult-55.jpg	0.0	287.2905204610797	
375.0	187.90608512124527	ISI	1.0		7.0	face	adult-55.jpg	0.0	287.59872508603803	0.11670884081468103
376.0	188.02279396205995	adult	0.0		46.0	face	adult-47.jpg	0.0	287.7154339268527	0.3832834618879133
376.0	188.2978612681345	pulse	0.0	t		face	adult-47.jpg	0.0	287.9905012329273	
376.0	188.40607742394786	ISI	1.0		5.0	face	adult-47.jpg	0.0	288.0987173887406	0.1167022000081488
377.0	188.522779623956	adult	0.0		46.0	face	adult-12.jpg	0.0	288.2154195887488	0.3833021768859908
377.0	188.906081800842	ISI	1.0		7.0	face	adult-12.jpg	0.0	288.59872176563476	0.1166904276706191
377.0	188.9978601512721	pulse	1.0	t		face	adult-12.jpg	0.0	288.69050011606487	
378.0	189.02277222851262	adult	0.0		46.0	face	adult-33.jpg	0.0	288.7154121933054	0.3832852730174636
378.0	189.40605750153009	ISI	1.0		7.0	face	adult-33.jpg	0.0	289.09869746632285	0.11670099259026756
379.0	189.52275849412035	adult	0.0		46.0	face	adult-126.jpg	0.0	289.2153984589131	0.3833335697854636
379.0	189.69786839190783	pulse	0.0	t		face	adult-126.jpg	0.0	289.3905083567006	
379.0	189.90609206390582	ISI	1.0		7.0	face	adult-126.jpg	0.0	289.5987320286986	0.11669072952645365
380.0	190.02278279343227	adult	0.0		46.0	face	adult-48.jpg	0.0	289.71542275822503	0.3832876878550451
380.0	190.39785308787032	pulse	0.0	t		face	adult-48.jpg	0.0	290.0904930526631	
380.0	190.40607048128732	ISI	1.0		7.0	face	adult-48.jpg	0.0	290.0987104460801	0.11670552041141491
381.0	190.52277600169873	adult	0.0		46.0	face	adult-5.jpg	0.0	290.2154159664915	0.38329674349915877
381.0	190.9060727451979	ISI	1.0		7.0	face	adult-5.jpg	0.0	290.59871270999065	0.1166877109772031
382.0	191.0227604561751	adult	0.0		46.0	face	adult-104.jpg	0.0	290.71540042096785	0.3832852730174636
382.0	191.09783868939485	pulse	0.0	t		face	adult-104.jpg	0.0	290.7904786541876	
382.0	191.40604572919256	ISI	1.0		7.0	face	adult-104.jpg	0.0	291.0986856939853	0.1167076333949808
383.0	191.52275336258754	adult	0.0		46.0	face	adult-97.jpg	0.0	291.2153933273803	0.38326504874567036
383.0	191.79779108689218	pulse	0.0	t		face	adult-97.jpg	0.0	291.49043105168494	
383.0	191.9060184113332	ISI	1.0		11.0	face	adult-97.jpg	0.0	291.59865837612597	0.09998397150957317
384.0	192.00600238284278	baseline	0.0		48.0		baseline	0.0	291.69864234763554	0.39999233288835967
384.0	192.40599471573114	ISI	1.0		11.0		baseline	0.0	292.0986346805239	0.0999996679584001
384.0	192.49777849954626	pulse	1.0	t			baseline	0.0	292.190418464339	
385.0	192.50599438368954	baseline	0.0		48.0		baseline	0.0	292.1986343484823	0.40000289780618914
385.0	192.90599728149573	ISI	1.0		11.0		baseline	0.0	292.5986372462885	0.0999836696555576
386.0	193.0059809511513	baseline	0.0		48.0		baseline	0.0	292.69862091594405	0.3999920310325251
386.0	193.1977625917989	pulse	0.0	t			baseline	0.0	292.89040255659165	
386.0	193.4059729821838	ISI	1.0		11.0		baseline	0.0	293.0986129469766	0.09999725312263763
387.0	193.50597023530645	baseline	0.0		48.0		baseline	0.0	293.1986102000992	0.4000080293371866
387.0	193.8977605693708	pulse	0.0	t			baseline	0.0	293.59040053416356	
387.0	193.90597826464364	ISI	1.0		11.0		baseline	0.0	293.5986182294364	0.10001083658789867
388.0	194.00598910123153	baseline	0.0		48.0		baseline	0.0	293.6986290660243	0.3999624492607836
388.0	194.40595155049232	ISI	1.0		11.0		baseline	0.0	294.0985915152851	0.09999755497665319
389.0	194.50594910546897	baseline	0.0		48.0		baseline	0.0	294.19858907026173	0.4000065200634708
389.0	194.59773590783334	pulse	0.0	t			baseline	0.0	294.2903758726261	
389.0	194.90595562553244	ISI	1.0		11.0		baseline	0.0	294.5985955903252	0.09998397150957317
390.0	195.00593959704202	baseline	0.0		48.0		baseline	0.0	294.6985795618348	0.3999905217606283
390.0	195.29771698153672	pulse	0.0	t			baseline	0.0	294.9903569463295	
390.0	195.40593011880264	ISI	1.0		11.0		baseline	0.0	295.0985700835954	0.09999725312081864
391.0	195.50592737192346	baseline	0.0		48.0		baseline	0.0	295.1985673367162	0.4000068219174864
391.0	195.90593419384095	ISI	1.0		11.0		baseline	0.0	295.5985741586337	0.09999272529967129
391.0	195.99770741274006	pulse	1.0	t			baseline	0.0	295.6903473775328	
