trial_nr	onset	event_type	phase	response	nr_frames	face_age	face_sex	face_eth	attractiveness	expression	face_id	sub_id	ses	run	trial_type	catch	rating_type	onset_abs	duration
-1.0	0.05348126101671369	fix	0.0		714													21.797906655236147	5.957972821233852
-1.0	0.70342270169931	pulse	0.0	t														22.447848095918744	
-1.0	1.4033937238891667	pulse	0.0	t														23.1478191181086	
-1.0	2.103369273863791	pulse	0.0	t														23.847794668083225	
-1.0	2.80335146458674	pulse	0.0	t														24.547776858806174	
-1.0	3.5033387867952115	pulse	0.0	t														25.247764181014645	
-1.0	4.203310714543477	pulse	0.0	t														25.94773610876291	
-1.0	4.903271775616304	pulse	0.0	t														26.647697169835737	
-1.0	5.603276303398161	pulse	0.0	t														27.347701697617595	
0.0	6.011454082250566	face	0.0		145	26.0	male	white	2.7966573816155993	smiling	117	sub-10	1.0	6.0	117_smiling	0.0		27.75587947647	1.241640506144904
0.0	6.30325849412111	pulse	0.0	t		26.0	male	white	2.7966573816155993	smiling	117	sub-10	1.0	6.0	117_smiling	0.0		28.047683888340543	
0.0	7.003219555190299	pulse	0.0	t		26.0	male	white	2.7966573816155993	smiling	117	sub-10	1.0	6.0	117_smiling	0.0		28.747644949409732	
0.0	7.25309458839547	fix	1.0		444	26.0	male	white	2.7966573816155993	smiling	117	sub-10	1.0	6.0	117_smiling	0.0		28.997519982614904	3.758213699256885
0.0	7.703189369975007	pulse	1.0	t		26.0	male	white	2.7966573816155993	smiling	117	sub-10	1.0	6.0	117_smiling	0.0		29.44761476419444	
0.0	8.403181823669001	pulse	1.0	t		26.0	male	white	2.7966573816155993	smiling	117	sub-10	1.0	6.0	117_smiling	0.0		30.147607217888435	
0.0	9.10315254400848	pulse	1.0	t		26.0	male	white	2.7966573816155993	smiling	117	sub-10	1.0	6.0	117_smiling	0.0		30.847577938227914	
0.0	9.803139262516197	pulse	1.0	t		26.0	male	white	2.7966573816155993	smiling	117	sub-10	1.0	6.0	117_smiling	0.0		31.54756465673563	
0.0	10.503109982855676	pulse	1.0	t		26.0	male	white	2.7966573816155993	smiling	117	sub-10	1.0	6.0	117_smiling	0.0		32.24753537707511	
1.0	11.011308287652355	face	0.0		146	19.0	female	white	4.298846000795861	neutral	100	sub-10	1.0	6.0	100_neutral	0.0		32.75573368187179	1.241659522831469
1.0	11.203111492115568	pulse	0.0	t		19.0	female	white	4.298846000795861	neutral	100	sub-10	1.0	6.0	100_neutral	0.0		32.947536886335	
1.0	11.903078892082704	pulse	0.0	t		19.0	female	white	4.298846000795861	neutral	100	sub-10	1.0	6.0	100_neutral	0.0		33.64750428630214	
1.0	12.252967810483824	fix	1.0		445	19.0	female	white	4.298846000795861	neutral	100	sub-10	1.0	6.0	100_neutral	0.0		33.99739320470326	3.7582070585121983
1.0	12.603066817995568	pulse	1.0	t		19.0	female	white	4.298846000795861	neutral	100	sub-10	1.0	6.0	100_neutral	0.0		34.347492212215	
1.0	13.303044782787765	pulse	1.0	t		19.0	female	white	4.298846000795861	neutral	100	sub-10	1.0	6.0	100_neutral	0.0		35.0474701770072	
1.0	14.003004938302183	pulse	1.0	t		19.0	female	white	4.298846000795861	neutral	100	sub-10	1.0	6.0	100_neutral	0.0		35.74743033252162	
1.0	14.70299527903262	pulse	1.0	t		19.0	female	white	4.298846000795861	neutral	100	sub-10	1.0	6.0	100_neutral	0.0		36.447420673252054	
1.0	15.402971432711638	pulse	1.0	t		19.0	female	white	4.298846000795861	neutral	100	sub-10	1.0	6.0	100_neutral	0.0		37.14739682693107	
2.0	16.011174868996022	face	0.0		146	54.0	female	white	2.286908077994429	neutral	136	sub-10	1.0	6.0	136_neutral	0.0		37.755600263215456	1.2416438265208853
2.0	16.103013088311855	pulse	0.0	t		54.0	female	white	2.286908077994429	neutral	136	sub-10	1.0	6.0	136_neutral	0.0		37.84743848253129	
2.0	16.802944567869417	pulse	0.0	t		54.0	female	white	2.286908077994429	neutral	136	sub-10	1.0	6.0	136_neutral	0.0		38.54736996208885	
2.0	17.252818695516908	fix	1.0		444	54.0	female	white	2.286908077994429	neutral	136	sub-10	1.0	6.0	136_neutral	0.0		38.99724408973634	3.758202228877053
2.0	17.502923136366007	pulse	1.0	t		54.0	female	white	2.286908077994429	neutral	136	sub-10	1.0	6.0	136_neutral	0.0		39.24734853058544	
2.0	18.202895064114273	pulse	1.0	t		54.0	female	white	2.286908077994429	neutral	136	sub-10	1.0	6.0	136_neutral	0.0		39.94732045833371	
2.0	18.902867293712916	pulse	1.0	t		54.0	female	white	2.286908077994429	neutral	136	sub-10	1.0	6.0	136_neutral	0.0		40.64729268793235	
2.0	19.602843447391933	pulse	1.0	t		54.0	female	white	2.286908077994429	neutral	136	sub-10	1.0	6.0	136_neutral	0.0		41.34726884161137	
2.0	20.30282473256011	pulse	1.0	t		54.0	female	white	2.286908077994429	neutral	136	sub-10	1.0	6.0	136_neutral	0.0		42.047250126779545	
3.0	21.01102092439396	face	0.0		147	23.0	male	white	2.6275368085953046	neutral	141	sub-10	1.0	6.0	141_neutral	0.0		42.755446318613394	1.2416519765247358
3.0	21.003064101325435	pulse	0.0	t		23.0	male	white	2.6275368085953046	neutral	141	sub-10	1.0	6.0	141_neutral	0.0		42.74748949554487	
3.0	21.702801791794627	pulse	0.0	t		23.0	male	white	2.6275368085953046	neutral	141	sub-10	1.0	6.0	141_neutral	0.0		43.44722718601406	
3.0	22.252672900918697	fix	1.0		443	23.0	male	white	2.6275368085953046	neutral	141	sub-10	1.0	6.0	141_neutral	0.0		43.99709829513813	3.7581934751651715
3.0	22.402780360291217	pulse	1.0	t		23.0	male	white	2.6275368085953046	neutral	141	sub-10	1.0	6.0	141_neutral	0.0		44.14720575451065	
3.0	23.102744741736387	pulse	1.0	t		23.0	male	white	2.6275368085953046	neutral	141	sub-10	1.0	6.0	141_neutral	0.0		44.84717013595582	
3.0	23.802742025065527	pulse	1.0	t		23.0	male	white	2.6275368085953046	neutral	141	sub-10	1.0	6.0	141_neutral	0.0		45.54716741928496	
3.0	24.5027133491094	pulse	1.0	t		23.0	male	white	2.6275368085953046	neutral	141	sub-10	1.0	6.0	141_neutral	0.0		46.24713874332883	
3.0	25.202673806477833	pulse	1.0	t		23.0	male	white	2.6275368085953046	neutral	141	sub-10	1.0	6.0	141_neutral	0.0		46.94709920069727	
3.0	25.902653884233587	pulse	1.0	t		23.0	male	white	2.6275368085953046	neutral	141	sub-10	1.0	6.0	141_neutral	0.0		47.64707927845302	
4.0	26.010866376083868	face	0.0		147	21.0	male	black	2.969757262236371	smiling	137	sub-10	1.0	6.0	137_smiling	0.0		47.7552917703033	1.2416586172766984
4.0	26.602655695347494	pulse	0.0	t		21.0	male	black	2.969757262236371	smiling	137	sub-10	1.0	6.0	137_smiling	0.0		48.34708108956693	
4.0	27.252524993360566	fix	1.0		444	21.0	male	black	2.969757262236371	smiling	137	sub-10	1.0	6.0	137_smiling	0.0		48.99695038758	3.758183212190488
4.0	27.302631245322118	pulse	1.0	t		21.0	male	black	2.969757262236371	smiling	137	sub-10	1.0	6.0	137_smiling	0.0		49.04705663954155	
4.0	28.00261313419105	pulse	1.0	t		21.0	male	black	2.969757262236371	smiling	137	sub-10	1.0	6.0	137_smiling	0.0		49.747038528410485	
4.0	28.70258385453053	pulse	1.0	t		21.0	male	black	2.969757262236371	smiling	137	sub-10	1.0	6.0	137_smiling	0.0		50.447009248749964	
4.0	29.402565441549086	pulse	1.0	t		21.0	male	black	2.969757262236371	smiling	137	sub-10	1.0	6.0	137_smiling	0.0		51.14699083576852	
4.0	30.10253736929735	pulse	1.0	t		21.0	male	black	2.969757262236371	smiling	137	sub-10	1.0	6.0	137_smiling	0.0		51.846962763516785	
4.0	30.80251080630842	pulse	1.0	t		21.0	male	black	2.969757262236371	smiling	137	sub-10	1.0	6.0	137_smiling	0.0		52.54693620052785	
5.0	31.010708205551055	face	0.0		146	26.0	male	white	2.7966573816155993	neutral	117	sub-10	1.0	6.0	117_neutral	0.0		52.75513359977049	1.2416540894919308
5.0	31.502498732221284	pulse	0.0	t		26.0	male	white	2.7966573816155993	neutral	117	sub-10	1.0	6.0	117_neutral	0.0		53.24692412644072	
5.0	32.20246281181244	pulse	0.0	t		26.0	male	white	2.7966573816155993	neutral	117	sub-10	1.0	6.0	117_neutral	0.0		53.94688820603187	
5.0	32.252362295042985	fix	1.0		445	26.0	male	white	2.7966573816155993	neutral	117	sub-10	1.0	6.0	117_neutral	0.0		53.99678768926242	3.7582224529724044
5.0	32.902454963656055	pulse	1.0	t		26.0	male	white	2.7966573816155993	neutral	117	sub-10	1.0	6.0	117_neutral	0.0		54.64688035787549	
5.0	33.60243564511984	pulse	1.0	t		26.0	male	white	2.7966573816155993	neutral	117	sub-10	1.0	6.0	117_neutral	0.0		55.346861039339274	
5.0	34.30241089324045	pulse	1.0	t		26.0	male	white	2.7966573816155993	neutral	117	sub-10	1.0	6.0	117_neutral	0.0		56.04683628745988	
5.0	35.00237768950319	pulse	1.0	t		26.0	male	white	2.7966573816155993	neutral	117	sub-10	1.0	6.0	117_neutral	0.0		56.746803083722625	
5.0	35.70237165245999	pulse	1.0	t		26.0	male	white	2.7966573816155993	neutral	117	sub-10	1.0	6.0	117_neutral	0.0		57.44679704667942	
6.0	36.01058474801539	face	0.0		146	25.0	female	west_asian	2.6756864305610826	smiling	064	sub-10	1.0	6.0	064_smiling	0.0		57.75501014223482	1.2416308468746138
6.0	36.40236742652996	pulse	0.0	t		25.0	female	west_asian	2.6756864305610826	smiling	064	sub-10	1.0	6.0	064_smiling	0.0		58.1467928207494	
6.0	37.102330902416725	pulse	0.0	t		25.0	female	west_asian	2.6756864305610826	smiling	064	sub-10	1.0	6.0	064_smiling	0.0		58.84675629663616	
6.0	37.252215594890004	fix	1.0		444	25.0	female	west_asian	2.6756864305610826	smiling	064	sub-10	1.0	6.0	064_smiling	0.0		58.99664098910944	3.766554780129809
6.0	37.80230977276733	pulse	1.0	t		25.0	female	west_asian	2.6756864305610826	smiling	064	sub-10	1.0	6.0	064_smiling	0.0		59.546735166986764	
6.0	38.502287133855134	pulse	1.0	t		25.0	female	west_asian	2.6756864305610826	smiling	064	sub-10	1.0	6.0	064_smiling	0.0		60.24671252807457	
6.0	39.20226328753415	pulse	1.0	t		25.0	female	west_asian	2.6756864305610826	smiling	064	sub-10	1.0	6.0	064_smiling	0.0		60.946688681753585	
6.0	39.902244270844676	pulse	1.0	t		25.0	female	west_asian	2.6756864305610826	smiling	064	sub-10	1.0	6.0	064_smiling	0.0		61.64666966506411	
6.0	40.60222253749089	pulse	1.0	t		25.0	female	west_asian	2.6756864305610826	smiling	064	sub-10	1.0	6.0	064_smiling	0.0		62.34664793171032	
7.0	41.01877037501981	face	0.0		145	32.0	male	white	2.389176283326701	smiling	092	sub-10	1.0	6.0	092_smiling	0.0		62.763195769239246	1.233295199344866
7.0	41.30222495230919	pulse	0.0	t		32.0	male	white	2.389176283326701	smiling	092	sub-10	1.0	6.0	092_smiling	0.0		63.04665034652862	
7.0	42.0021682041006	pulse	0.0	t		32.0	male	white	2.389176283326701	smiling	092	sub-10	1.0	6.0	092_smiling	0.0		63.74659359832003	
7.0	42.25206557436468	fix	1.0		444	32.0	male	white	2.389176283326701	smiling	092	sub-10	1.0	6.0	092_smiling	0.0		63.99649096858411	3.7583434956904966
7.0	42.70216760039693	pulse	1.0	t		32.0	male	white	2.389176283326701	smiling	092	sub-10	1.0	6.0	092_smiling	0.0		64.44659299461637	
7.0	43.40216065779532	pulse	1.0	t		32.0	male	white	2.389176283326701	smiling	092	sub-10	1.0	6.0	092_smiling	0.0		65.14658605201475	
7.0	44.102115681824216	pulse	1.0	t		32.0	male	white	2.389176283326701	smiling	092	sub-10	1.0	6.0	092_smiling	0.0		65.84654107604365	
7.0	44.80210572070064	pulse	1.0	t		32.0	male	white	2.389176283326701	smiling	092	sub-10	1.0	6.0	092_smiling	0.0		66.54653111492007	
7.0	45.50209123179957	pulse	1.0	t		32.0	male	white	2.389176283326701	smiling	092	sub-10	1.0	6.0	092_smiling	0.0		67.246516626019	
8.0	46.010409070055175	face	0.0		146	19.0	female	white	4.298846000795861	smiling	100	sub-10	1.0	6.0	100_smiling	0.0		67.75483446427461	1.241509502306144
8.0	46.20209274105946	pulse	0.0	t		19.0	female	white	4.298846000795861	smiling	100	sub-10	1.0	6.0	100_smiling	0.0		67.9465181352789	
8.0	46.902039916931244	pulse	0.0	t		19.0	female	white	4.298846000795861	smiling	100	sub-10	1.0	6.0	100_smiling	0.0		68.64646531115068	
8.0	47.25191857236132	fix	1.0		444	19.0	female	white	4.298846000795861	smiling	100	sub-10	1.0	6.0	100_smiling	0.0		68.99634396658075	3.7583006326822215
8.0	47.602035389147204	pulse	1.0	t		19.0	female	white	4.298846000795861	smiling	100	sub-10	1.0	6.0	100_smiling	0.0		69.34646078336664	
8.0	48.30201093912183	pulse	1.0	t		19.0	female	white	4.298846000795861	smiling	100	sub-10	1.0	6.0	100_smiling	0.0		70.04643633334126	
8.0	49.00197864093934	pulse	1.0	t		19.0	female	white	4.298846000795861	smiling	100	sub-10	1.0	6.0	100_smiling	0.0		70.74640403515878	
8.0	49.70195811499434	pulse	1.0	t		19.0	female	white	4.298846000795861	smiling	100	sub-10	1.0	6.0	100_smiling	0.0		71.44638350921377	
8.0	50.40193577793252	pulse	1.0	t		19.0	female	white	4.298846000795861	smiling	100	sub-10	1.0	6.0	100_smiling	0.0		72.14636117215196	
9.0	51.01021920504354	face	0.0		146	22.0	female	west_asian	3.8205332272184642	neutral	066	sub-10	1.0	6.0	066_neutral	0.0		72.75464459926297	1.2415442153032927
9.0	51.10193336311568	pulse	0.0	t		22.0	female	west_asian	3.8205332272184642	neutral	066	sub-10	1.0	6.0	066_neutral	0.0		72.84635875733511	
9.0	51.80190438530917	pulse	0.0	t		22.0	female	west_asian	3.8205332272184642	neutral	066	sub-10	1.0	6.0	066_neutral	0.0		73.5463297795286	
9.0	52.25176342034683	fix	1.0		445	22.0	female	west_asian	3.8205332272184642	neutral	066	sub-10	1.0	6.0	066_neutral	0.0		73.99618881456627	3.7665550819838245
9.0	52.50188929270007	pulse	1.0	t		22.0	female	west_asian	3.8205332272184642	neutral	066	sub-10	1.0	6.0	066_neutral	0.0		74.2463146869195	
9.0	53.20185940933516	pulse	1.0	t		22.0	female	west_asian	3.8205332272184642	neutral	066	sub-10	1.0	6.0	066_neutral	0.0		74.94628480355459	
9.0	53.90184190191212	pulse	1.0	t		22.0	female	west_asian	3.8205332272184642	neutral	066	sub-10	1.0	6.0	066_neutral	0.0		75.64626729613155	
9.0	54.60181473521516	pulse	1.0	t		22.0	female	west_asian	3.8205332272184642	neutral	066	sub-10	1.0	6.0	066_neutral	0.0		76.34624012943459	
9.0	55.30179300186137	pulse	1.0	t		22.0	female	west_asian	3.8205332272184642	neutral	066	sub-10	1.0	6.0	066_neutral	0.0		77.0462183960808	
10.0	56.01831850233066	face	0.0		146	40.0	male	white	1.868682849184242	smiling	172	sub-10	1.0	6.0	172_smiling	0.0		77.76274389655009	1.2333232715936902
10.0	56.00449638984719	pulse	0.0	t		40.0	male	white	1.868682849184242	smiling	172	sub-10	1.0	6.0	172_smiling	0.0		77.74892178406662	
10.0	56.70175466663568	pulse	0.0	t		40.0	male	white	1.868682849184242	smiling	172	sub-10	1.0	6.0	172_smiling	0.0		78.44618006085511	
10.0	57.25164177392435	fix	1.0		443	40.0	male	white	1.868682849184242	smiling	172	sub-10	1.0	6.0	172_smiling	0.0		78.99606716814378	3.7582574678235687
10.0	57.40173051846068	pulse	1.0	t		40.0	male	white	1.868682849184242	smiling	172	sub-10	1.0	6.0	172_smiling	0.0		79.14615591268011	
10.0	58.10169520175987	pulse	1.0	t		40.0	male	white	1.868682849184242	smiling	172	sub-10	1.0	6.0	172_smiling	0.0		79.8461205959793	
10.0	58.80167165728926	pulse	1.0	t		40.0	male	white	1.868682849184242	smiling	172	sub-10	1.0	6.0	172_smiling	0.0		80.5460970515087	
10.0	59.50166169616932	pulse	1.0	t		40.0	male	white	1.868682849184242	smiling	172	sub-10	1.0	6.0	172_smiling	0.0		81.24608709038876	
10.0	60.20164388688863	pulse	1.0	t		40.0	male	white	1.868682849184242	smiling	172	sub-10	1.0	6.0	172_smiling	0.0		81.94606928110807	
10.0	60.90161672019531	pulse	1.0	t		40.0	male	white	1.868682849184242	smiling	172	sub-10	1.0	6.0	172_smiling	0.0		82.64604211441474	
11.0	61.00989924174792	face	0.0		147	21.0	male	east_asian/white	3.501790688420215	smiling	036	sub-10	1.0	6.0	036_smiling	0.0		82.75432463596735	1.2415879838699766
11.0	61.60160736277976	pulse	0.0	t		21.0	male	east_asian/white	3.501790688420215	smiling	036	sub-10	1.0	6.0	036_smiling	0.0		83.3460327569992	
11.0	62.25148722561789	fix	1.0		443	21.0	male	east_asian/white	3.501790688420215	smiling	036	sub-10	1.0	6.0	036_smiling	0.0		83.99591261983733	3.7582197363008163
11.0	62.301601325736556	pulse	1.0	t		21.0	male	east_asian/white	3.501790688420215	smiling	036	sub-10	1.0	6.0	036_smiling	0.0		84.04602671995599	
11.0	63.00156963125846	pulse	1.0	t		21.0	male	east_asian/white	3.501790688420215	smiling	036	sub-10	1.0	6.0	036_smiling	0.0		84.7459950254779	
11.0	63.70155574605815	pulse	1.0	t		21.0	male	east_asian/white	3.501790688420215	smiling	036	sub-10	1.0	6.0	036_smiling	0.0		85.44598114027758	
11.0	64.40153250344156	pulse	1.0	t		21.0	male	east_asian/white	3.501790688420215	smiling	036	sub-10	1.0	6.0	036_smiling	0.0		86.14595789766099	
11.0	65.10149265895598	pulse	1.0	t		21.0	male	east_asian/white	3.501790688420215	smiling	036	sub-10	1.0	6.0	036_smiling	0.0		86.84591805317541	
11.0	65.8014772644965	pulse	1.0	t		21.0	male	east_asian/white	3.501790688420215	smiling	036	sub-10	1.0	6.0	036_smiling	0.0		87.54590265871593	
12.0	66.00970696191871	face	0.0		146	31.0	female	west_asian	2.364902506963788	smiling	006	sub-10	1.0	6.0	006_smiling	0.0		87.75413235613814	1.2416338653965795
12.0	66.50147484967965	pulse	0.0	t		31.0	female	west_asian	2.364902506963788	smiling	006	sub-10	1.0	6.0	006_smiling	0.0		88.24590024389909	
12.0	67.20144104223436	pulse	0.0	t		31.0	female	west_asian	2.364902506963788	smiling	006	sub-10	1.0	6.0	006_smiling	0.0		88.9458664364538	
12.0	67.25134082731529	fix	1.0		445	31.0	female	west_asian	2.364902506963788	smiling	006	sub-10	1.0	6.0	006_smiling	0.0		88.99576622153472	3.758322667890752
12.0	67.9014319866692	pulse	1.0	t		31.0	female	west_asian	2.364902506963788	smiling	006	sub-10	1.0	6.0	006_smiling	0.0		89.64585738088863	
12.0	68.601409347757	pulse	1.0	t		31.0	female	west_asian	2.364902506963788	smiling	006	sub-10	1.0	6.0	006_smiling	0.0		90.34583474197643	
12.0	69.30137674772413	pulse	1.0	t		31.0	female	west_asian	2.364902506963788	smiling	006	sub-10	1.0	6.0	006_smiling	0.0		91.04580214194357	
12.0	70.00134988288119	pulse	1.0	t		31.0	female	west_asian	2.364902506963788	smiling	006	sub-10	1.0	6.0	006_smiling	0.0		91.74577527710062	
12.0	70.70132965878656	pulse	1.0	t		31.0	female	west_asian	2.364902506963788	smiling	006	sub-10	1.0	6.0	006_smiling	0.0		92.445755053006	
13.0	71.00966349520604	face	0.0		146	21.0	male	black	2.969757262236371	neutral	137	sub-10	1.0	6.0	137_neutral	1.0	attractiveness	92.75408888942547	1.241511615273339
13.0	71.40131728284905	pulse	0.0	t		21.0	male	black	2.969757262236371	neutral	137	sub-10	1.0	6.0	137_neutral	1.0	attractiveness	93.14574267706848	
13.0	72.10128649392573	pulse	0.0	t		21.0	male	black	2.969757262236371	neutral	137	sub-10	1.0	6.0	137_neutral	1.0	attractiveness	93.84571188814516	
13.0	72.25117511047938	fix	1.0		177	21.0	male	black	2.969757262236371	neutral	137	sub-10	1.0	6.0	137_neutral	1.0	attractiveness	93.99560050469881	1.5083175364015915
13.0	72.80128619207608	pulse	1.0	t		21.0	male	black	2.969757262236371	neutral	137	sub-10	1.0	6.0	137_neutral	1.0	attractiveness	94.54571158629551	
13.0	73.50125630871116	pulse	1.0	t		21.0	male	black	2.969757262236371	neutral	137	sub-10	1.0	6.0	137_neutral	1.0	attractiveness	95.2456817029306	
13.0	73.75949264688097	rating	2.0		294	21.0	male	black	2.969757262236371	neutral	137	sub-10	1.0	6.0	137_neutral	1.0	attractiveness	95.5039180411004	2.491584059789602
13.0	74.20124966796357	pulse	2.0	t		21.0	male	black	2.969757262236371	neutral	137	sub-10	1.0	6.0	137_neutral	1.0	attractiveness	95.945675062183	
13.0	74.9012086160692	pulse	2.0	t		21.0	male	black	2.969757262236371	neutral	137	sub-10	1.0	6.0	137_neutral	1.0	attractiveness	96.64563401028863	
13.0	75.56273997247263	response	2.0	e		21.0	male	black	2.969757262236371	neutral	137	sub-10	1.0	6.0	137_neutral	1.0	attractiveness	97.30716536669206	
13.0	75.6011775252955	pulse	2.0	t		21.0	male	black	2.969757262236371	neutral	137	sub-10	1.0	6.0	137_neutral	1.0	attractiveness	97.34560291951493	
13.0	76.25107670667057	fix	3.0		443	21.0	male	black	2.969757262236371	neutral	137	sub-10	1.0	6.0	137_neutral	1.0	attractiveness	97.99550210089001	3.7581886455300264
13.0	76.30118567530371	pulse	3.0	t		21.0	male	black	2.969757262236371	neutral	137	sub-10	1.0	6.0	137_neutral	1.0	attractiveness	98.04561106952315	
13.0	77.00114794378169	pulse	3.0	t		21.0	male	black	2.969757262236371	neutral	137	sub-10	1.0	6.0	137_neutral	1.0	attractiveness	98.74557333800112	
13.0	77.70112168264313	pulse	3.0	t		21.0	male	black	2.969757262236371	neutral	137	sub-10	1.0	6.0	137_neutral	1.0	attractiveness	99.44554707686257	
13.0	78.40110689188805	pulse	3.0	t		21.0	male	black	2.969757262236371	neutral	137	sub-10	1.0	6.0	137_neutral	1.0	attractiveness	100.14553228610748	
13.0	79.10107459370556	pulse	3.0	t		21.0	male	black	2.969757262236371	neutral	137	sub-10	1.0	6.0	137_neutral	1.0	attractiveness	100.845499987925	
13.0	79.80106523629001	pulse	3.0	t		21.0	male	black	2.969757262236371	neutral	137	sub-10	1.0	6.0	137_neutral	1.0	attractiveness	101.54549063050945	
14.0	80.0092653522006	face	0.0		146	28.0	male	white	3.9076800636689217	neutral	033	sub-10	1.0	6.0	033_neutral	1.0	dominance	101.75369074642003	1.2416622395030572
14.0	80.50105406776129	pulse	0.0	t		28.0	male	white	3.9076800636689217	neutral	033	sub-10	1.0	6.0	033_neutral	1.0	dominance	102.24547946198072	
14.0	81.20103203255348	pulse	0.0	t		28.0	male	white	3.9076800636689217	neutral	033	sub-10	1.0	6.0	033_neutral	1.0	dominance	102.94545742677292	
14.0	81.25092759170366	fix	1.0		177	28.0	male	white	3.9076800636689217	neutral	033	sub-10	1.0	6.0	033_neutral	1.0	dominance	102.99535298592309	1.4999393277139461
14.0	81.90100939364129	pulse	1.0	t		28.0	male	white	3.9076800636689217	neutral	033	sub-10	1.0	6.0	033_neutral	1.0	dominance	103.64543478786072	
14.0	82.60098162323993	pulse	1.0	t		28.0	male	white	3.9076800636689217	neutral	033	sub-10	1.0	6.0	033_neutral	1.0	dominance	104.34540701745937	
14.0	82.7508669194176	rating	2.0		295	28.0	male	white	3.9076800636689217	neutral	033	sub-10	1.0	6.0	033_neutral	1.0	dominance	104.49529231363704	2.499940233272355
14.0	83.3009786047187	pulse	2.0	t		28.0	male	white	3.9076800636689217	neutral	033	sub-10	1.0	6.0	033_neutral	1.0	dominance	105.04540399893813	
14.0	84.00095234358014	pulse	2.0	t		28.0	male	white	3.9076800636689217	neutral	033	sub-10	1.0	6.0	033_neutral	1.0	dominance	105.74537773779957	
14.0	84.15926716331523	response	2.0	y		28.0	male	white	3.9076800636689217	neutral	033	sub-10	1.0	6.0	033_neutral	1.0	dominance	105.90369255753467	
14.0	84.70091853613849	pulse	2.0	t		28.0	male	white	3.9076800636689217	neutral	033	sub-10	1.0	6.0	033_neutral	1.0	dominance	106.44534393035792	
14.0	85.25080715268996	fix	3.0		443	28.0	male	white	3.9076800636689217	neutral	033	sub-10	1.0	6.0	033_neutral	1.0	dominance	106.99523254690939	3.766523689355381
14.0	85.40091491391286	pulse	3.0	t		28.0	male	white	3.9076800636689217	neutral	033	sub-10	1.0	6.0	033_neutral	1.0	dominance	107.14534030813229	
14.0	86.10088080461719	pulse	3.0	t		28.0	male	white	3.9076800636689217	neutral	033	sub-10	1.0	6.0	033_neutral	1.0	dominance	107.84530619883662	
14.0	86.80086541015771	pulse	3.0	t		28.0	male	white	3.9076800636689217	neutral	033	sub-10	1.0	6.0	033_neutral	1.0	dominance	108.54529080437715	
14.0	87.5008445823587	pulse	3.0	t		28.0	male	white	3.9076800636689217	neutral	033	sub-10	1.0	6.0	033_neutral	1.0	dominance	109.24526997657813	
14.0	88.20083522493951	pulse	3.0	t		28.0	male	white	3.9076800636689217	neutral	033	sub-10	1.0	6.0	033_neutral	1.0	dominance	109.94526061915894	
14.0	88.90080051194309	pulse	3.0	t		28.0	male	white	3.9076800636689217	neutral	033	sub-10	1.0	6.0	033_neutral	1.0	dominance	110.64522590616252	
15.0	89.01733084204534	face	0.0		146	22.0	male	black	2.767608436132113	neutral	044	sub-10	1.0	6.0	044_neutral	0.0		110.76175623626477	1.2333124049182516
15.0	89.60077606191771	pulse	0.0	t		22.0	male	black	2.767608436132113	neutral	044	sub-10	1.0	6.0	044_neutral	0.0		111.34520145613715	
15.0	90.25064324696359	fix	1.0		443	22.0	male	black	2.767608436132113	neutral	044	sub-10	1.0	6.0	044_neutral	0.0		111.99506864118302	3.7665375745564234
15.0	90.30075493226468	pulse	1.0	t		22.0	male	black	2.767608436132113	neutral	044	sub-10	1.0	6.0	044_neutral	0.0		112.04518032648411	
15.0	91.00075131003905	pulse	1.0	t		22.0	male	black	2.767608436132113	neutral	044	sub-10	1.0	6.0	044_neutral	0.0		112.74517670425848	
15.0	91.70072172852815	pulse	1.0	t		22.0	male	black	2.767608436132113	neutral	044	sub-10	1.0	6.0	044_neutral	0.0		113.44514712274758	
15.0	92.40070059887512	pulse	1.0	t		22.0	male	black	2.767608436132113	neutral	044	sub-10	1.0	6.0	044_neutral	0.0		114.14512599309455	
15.0	93.10068097848489	pulse	1.0	t		22.0	male	black	2.767608436132113	neutral	044	sub-10	1.0	6.0	044_neutral	0.0		114.84510637270432	
15.0	93.80065260437914	pulse	1.0	t		22.0	male	black	2.767608436132113	neutral	044	sub-10	1.0	6.0	044_neutral	0.0		115.54507799859857	
16.0	94.01718082152001	face	0.0		145	21.0	male	east_asian/white	3.501790688420215	neutral	036	sub-10	1.0	6.0	036_neutral	0.0		115.76160621573945	1.2333139141774154
16.0	94.50063328584292	pulse	0.0	t		21.0	male	east_asian/white	3.501790688420215	neutral	036	sub-10	1.0	6.0	036_neutral	0.0		116.24505868006236	
16.0	95.20060189321521	pulse	0.0	t		21.0	male	east_asian/white	3.501790688420215	neutral	036	sub-10	1.0	6.0	036_neutral	0.0		116.94502728743464	
16.0	95.25049473569743	fix	1.0		445	21.0	male	east_asian/white	3.501790688420215	neutral	036	sub-10	1.0	6.0	036_neutral	0.0		116.99492012991686	3.758296708605485
16.0	95.90060460988752	pulse	1.0	t		21.0	male	east_asian/white	3.501790688420215	neutral	036	sub-10	1.0	6.0	036_neutral	0.0		117.64503000410696	
16.0	96.6005744246686	pulse	1.0	t		21.0	male	east_asian/white	3.501790688420215	neutral	036	sub-10	1.0	6.0	036_neutral	0.0		118.34499981888803	
16.0	97.30056385984426	pulse	1.0	t		21.0	male	east_asian/white	3.501790688420215	neutral	036	sub-10	1.0	6.0	036_neutral	0.0		119.0449892540637	
16.0	98.00053397647935	pulse	1.0	t		21.0	male	east_asian/white	3.501790688420215	neutral	036	sub-10	1.0	6.0	036_neutral	0.0		119.74495937069878	
16.0	98.70051646905267	pulse	1.0	t		21.0	male	east_asian/white	3.501790688420215	neutral	036	sub-10	1.0	6.0	036_neutral	0.0		120.4449418632721	
17.0	99.00879144430291	face	0.0		146	31.0	female	white	2.1822522881018704	neutral	102	sub-10	1.0	6.0	102_neutral	0.0		120.75321683852235	1.2415553838363849
17.0	99.4004920190273	pulse	0.0	t		31.0	female	white	2.1822522881018704	neutral	102	sub-10	1.0	6.0	102_neutral	0.0		121.14491741324673	
17.0	100.10044945787376	pulse	0.0	t		31.0	female	white	2.1822522881018704	neutral	102	sub-10	1.0	6.0	102_neutral	0.0		121.8448748520932	
17.0	100.2503468281393	fix	1.0		444	31.0	female	white	2.1822522881018704	neutral	102	sub-10	1.0	6.0	102_neutral	0.0		121.99477222235873	3.766544215304748
17.0	100.80046153195872	pulse	1.0	t		31.0	female	white	2.1822522881018704	neutral	102	sub-10	1.0	6.0	102_neutral	0.0		122.54488692617815	
17.0	101.50043587452456	pulse	1.0	t		31.0	female	white	2.1822522881018704	neutral	102	sub-10	1.0	6.0	102_neutral	0.0		123.24486126874399	
17.0	102.20039603003897	pulse	1.0	t		31.0	female	white	2.1822522881018704	neutral	102	sub-10	1.0	6.0	102_neutral	0.0		123.94482142425841	
17.0	102.90037580594435	pulse	1.0	t		31.0	female	white	2.1822522881018704	neutral	102	sub-10	1.0	6.0	102_neutral	0.0		124.64480120016378	
17.0	103.60037671150349	pulse	1.0	t		31.0	female	white	2.1822522881018704	neutral	102	sub-10	1.0	6.0	102_neutral	0.0		125.34480210572292	
18.0	104.01689104344405	face	0.0		145	28.0	male	east_asian	1.5563072025467568	smiling	005	sub-10	1.0	6.0	005_smiling	0.0		125.76131643766348	1.2333084808378771
18.0	104.30035407259129	pulse	0.0	t		28.0	male	east_asian	1.5563072025467568	smiling	005	sub-10	1.0	6.0	005_smiling	0.0		126.04477946681072	
18.0	105.00031694477366	pulse	0.0	t		28.0	male	east_asian	1.5563072025467568	smiling	005	sub-10	1.0	6.0	005_smiling	0.0		126.74474233899309	
18.0	105.25019952428192	fix	1.0		444	28.0	male	east_asian	1.5563072025467568	smiling	005	sub-10	1.0	6.0	005_smiling	0.0		126.99462491850136	3.7665381782608165
18.0	105.70030004105138	pulse	1.0	t		28.0	male	east_asian	1.5563072025467568	smiling	005	sub-10	1.0	6.0	005_smiling	0.0		127.44472543527081	
18.0	106.40028253362834	pulse	1.0	t		28.0	male	east_asian	1.5563072025467568	smiling	005	sub-10	1.0	6.0	005_smiling	0.0		128.14470792784778	
18.0	107.10027015768719	pulse	1.0	t		28.0	male	east_asian	1.5563072025467568	smiling	005	sub-10	1.0	6.0	005_smiling	0.0		128.84469555190663	
18.0	107.80023363357759	pulse	1.0	t		28.0	male	east_asian	1.5563072025467568	smiling	005	sub-10	1.0	6.0	005_smiling	0.0		129.54465902779702	
18.0	108.50021250392456	pulse	1.0	t		28.0	male	east_asian	1.5563072025467568	smiling	005	sub-10	1.0	6.0	005_smiling	0.0		130.244637898144	
19.0	109.01673770254274	face	0.0		145	30.0	female	black	2.7345801830481498	smiling	062	sub-10	1.0	6.0	062_smiling	0.0		130.76116309676217	1.2333232715936902
19.0	109.20019560020228	pulse	0.0	t		30.0	female	black	2.7345801830481498	smiling	062	sub-10	1.0	6.0	062_smiling	0.0		130.9446209944217	
19.0	109.90016632054176	pulse	0.0	t		30.0	female	black	2.7345801830481498	smiling	062	sub-10	1.0	6.0	062_smiling	0.0		131.6445917147612	
19.0	110.25006097413643	fix	1.0		444	30.0	female	black	2.7345801830481498	smiling	062	sub-10	1.0	6.0	062_smiling	0.0		131.99448636835587	3.7582469029985077
19.0	110.600158170535	pulse	1.0	t		30.0	female	black	2.7345801830481498	smiling	062	sub-10	1.0	6.0	062_smiling	0.0		132.34458356475443	
19.0	111.30013070198765	pulse	1.0	t		30.0	female	black	2.7345801830481498	smiling	062	sub-10	1.0	6.0	062_smiling	0.0		133.0445560962071	
19.0	112.00010323344031	pulse	1.0	t		30.0	female	black	2.7345801830481498	smiling	062	sub-10	1.0	6.0	062_smiling	0.0		133.74452862765975	
19.0	112.70008783898083	pulse	1.0	t		30.0	female	black	2.7345801830481498	smiling	062	sub-10	1.0	6.0	062_smiling	0.0		134.44451323320027	
19.0	113.40007274637173	pulse	1.0	t		30.0	female	black	2.7345801830481498	smiling	062	sub-10	1.0	6.0	062_smiling	0.0		135.14449814059117	
20.0	114.00830787713494	face	0.0		146	27.0	male	black	3.5523278949462798	smiling	042	sub-10	1.0	6.0	042_smiling	0.0		135.75273327135437	1.2416097172244918
20.0	114.10007244451845	pulse	0.0	t		27.0	male	black	3.5523278949462798	smiling	042	sub-10	1.0	6.0	042_smiling	0.0		135.84449783873788	
20.0	114.80004376856232	pulse	0.0	t		27.0	male	black	3.5523278949462798	smiling	042	sub-10	1.0	6.0	042_smiling	0.0		136.54446916278175	
20.0	115.24991759435943	fix	1.0		1185	27.0	male	black	3.5523278949462798	smiling	042	sub-10	1.0	6.0	042_smiling	0.0		136.99434298857886	10.016359481778636
20.0	115.50002565743489	pulse	1.0	t		27.0	male	black	3.5523278949462798	smiling	042	sub-10	1.0	6.0	042_smiling	0.0		137.24445105165432	
20.0	116.20000724445345	pulse	1.0	t		27.0	male	black	3.5523278949462798	smiling	042	sub-10	1.0	6.0	042_smiling	0.0		137.94443263867288	
20.0	116.89996800367226	pulse	1.0	t		27.0	male	black	3.5523278949462798	smiling	042	sub-10	1.0	6.0	042_smiling	0.0		138.6443933978917	
20.0	117.5999423462381	pulse	1.0	t		27.0	male	black	3.5523278949462798	smiling	042	sub-10	1.0	6.0	042_smiling	0.0		139.34436774045753	
20.0	118.29992695177498	pulse	1.0	t		27.0	male	black	3.5523278949462798	smiling	042	sub-10	1.0	6.0	042_smiling	0.0		140.0443523459944	
20.0	118.99988891840258	pulse	1.0	t		27.0	male	black	3.5523278949462798	smiling	042	sub-10	1.0	6.0	042_smiling	0.0		140.744314312622	
20.0	119.69987774987385	pulse	1.0	t		27.0	male	black	3.5523278949462798	smiling	042	sub-10	1.0	6.0	042_smiling	0.0		141.44430314409328	
20.0	120.39985873318801	pulse	1.0	t		27.0	male	black	3.5523278949462798	smiling	042	sub-10	1.0	6.0	042_smiling	0.0		142.14428412740745	
20.0	121.09984816836004	pulse	1.0	t		27.0	male	black	3.5523278949462798	smiling	042	sub-10	1.0	6.0	042_smiling	0.0		142.84427356257947	
20.0	121.79983096278738	pulse	1.0	t		27.0	male	black	3.5523278949462798	smiling	042	sub-10	1.0	6.0	042_smiling	0.0		143.54425635700682	
20.0	122.49981104054677	pulse	1.0	t		27.0	male	black	3.5523278949462798	smiling	042	sub-10	1.0	6.0	042_smiling	0.0		144.2442364347662	
20.0	123.1997760256927	pulse	1.0	t		27.0	male	black	3.5523278949462798	smiling	042	sub-10	1.0	6.0	042_smiling	0.0		144.94420141991213	
20.0	123.89977481828464	pulse	1.0	t		27.0	male	black	3.5523278949462798	smiling	042	sub-10	1.0	6.0	042_smiling	0.0		145.64420021250407	
20.0	124.5997494627045	pulse	1.0	t		27.0	male	black	3.5523278949462798	smiling	042	sub-10	1.0	6.0	042_smiling	0.0		146.34417485692393	
21.0	125.26627707613807	face	0.0		145	20.0	female	white	3.9502586549940313	smiling	091	sub-10	1.0	6.0	091_smiling	0.0		147.0107024703575	1.2333075752831064
21.0	125.29981587018119	pulse	0.0	t		20.0	female	white	3.9502586549940313	smiling	091	sub-10	1.0	6.0	091_smiling	0.0		147.04424126440063	
21.0	125.9997026756173	pulse	0.0	t		20.0	female	white	3.9502586549940313	smiling	091	sub-10	1.0	6.0	091_smiling	0.0		147.74412806983673	
21.0	126.49958465142117	fix	1.0		443	20.0	female	white	3.9502586549940313	smiling	091	sub-10	1.0	6.0	091_smiling	0.0		148.2440100456406	3.7665312356621143
21.0	126.69967852744594	pulse	1.0	t		20.0	female	white	3.9502586549940313	smiling	091	sub-10	1.0	6.0	091_smiling	0.0		148.44410392166537	
21.0	127.3996670570632	pulse	1.0	t		20.0	female	white	3.9502586549940313	smiling	091	sub-10	1.0	6.0	091_smiling	0.0		149.14409245128263	
21.0	128.09963113665435	pulse	1.0	t		20.0	female	white	3.9502586549940313	smiling	091	sub-10	1.0	6.0	091_smiling	0.0		149.8440565308738	
21.0	128.79962630701993	pulse	1.0	t		20.0	female	white	3.9502586549940313	smiling	091	sub-10	1.0	6.0	091_smiling	0.0		150.54405170123937	
21.0	129.4996009514398	pulse	1.0	t		20.0	female	white	3.9502586549940313	smiling	091	sub-10	1.0	6.0	091_smiling	0.0		151.24402634565922	
21.0	130.20011862790125	pulse	1.0	t		20.0	female	white	3.9502586549940313	smiling	091	sub-10	1.0	6.0	091_smiling	0.0		151.94454402212068	
22.0	130.2661158870833	face	0.0		146	30.0	female	black	2.7345801830481498	neutral	062	sub-10	1.0	6.0	062_neutral	0.0		152.01054128130272	1.2333208567761176
22.0	130.89956986066682	pulse	0.0	t		30.0	female	black	2.7345801830481498	neutral	062	sub-10	1.0	6.0	062_neutral	0.0		152.64399525488625	
22.0	131.4994367438594	fix	1.0		443	30.0	female	black	2.7345801830481498	neutral	062	sub-10	1.0	6.0	062_neutral	0.0		153.24386213807884	3.758281314145279
22.0	131.5995469199006	pulse	1.0	t		30.0	female	black	2.7345801830481498	neutral	062	sub-10	1.0	6.0	062_neutral	0.0		153.34397231412004	
22.0	132.29952246987523	pulse	1.0	t		30.0	female	black	2.7345801830481498	neutral	062	sub-10	1.0	6.0	062_neutral	0.0		154.04394786409466	
22.0	132.99949047354676	pulse	1.0	t		30.0	female	black	2.7345801830481498	neutral	062	sub-10	1.0	6.0	062_neutral	0.0		154.7439158677662	
22.0	133.69948232353636	pulse	1.0	t		30.0	female	black	2.7345801830481498	neutral	062	sub-10	1.0	6.0	062_neutral	0.0		155.4439077177558	
22.0	134.39945938277378	pulse	1.0	t		30.0	female	black	2.7345801830481498	neutral	062	sub-10	1.0	6.0	062_neutral	0.0		156.14388477699322	
22.0	135.09942044384297	pulse	1.0	t		30.0	female	black	2.7345801830481498	neutral	062	sub-10	1.0	6.0	062_neutral	0.0		156.8438458380624	
23.0	135.25771805800468	face	0.0		147	40.0	male	white	1.868682849184242	neutral	172	sub-10	1.0	6.0	172_neutral	1.0	trustworthiness	157.00214345222412	1.2415590060591057
23.0	135.79942587718324	pulse	0.0	t		40.0	male	white	1.868682849184242	neutral	172	sub-10	1.0	6.0	172_neutral	1.0	trustworthiness	157.54385127140267	
23.0	136.4992770640638	fix	1.0		176	40.0	male	white	1.868682849184242	neutral	172	sub-10	1.0	6.0	172_neutral	1.0	trustworthiness	158.24370245828322	1.4999550240281678
23.0	136.5072335852783	pulse	1.0	t		40.0	male	white	1.868682849184242	neutral	172	sub-10	1.0	6.0	172_neutral	1.0	trustworthiness	158.25165897949773	
23.0	137.1993694308294	pulse	1.0	t		40.0	male	white	1.868682849184242	neutral	172	sub-10	1.0	6.0	172_neutral	1.0	trustworthiness	158.94379482504883	
23.0	137.8993368307929	pulse	1.0	t		40.0	male	white	1.868682849184242	neutral	172	sub-10	1.0	6.0	172_neutral	1.0	trustworthiness	159.64376222501232	
23.0	137.99923208809196	rating	2.0		295	40.0	male	white	1.868682849184242	neutral	172	sub-10	1.0	6.0	172_neutral	1.0	trustworthiness	159.7436574823114	2.499924536958133
23.0	138.59932717152333	pulse	2.0	t		40.0	male	white	1.868682849184242	neutral	172	sub-10	1.0	6.0	172_neutral	1.0	trustworthiness	160.34375256574276	
23.0	139.2993069474287	pulse	2.0	t		40.0	male	white	1.868682849184242	neutral	172	sub-10	1.0	6.0	172_neutral	1.0	trustworthiness	161.04373234164814	
23.0	139.9992770640638	pulse	2.0	t		40.0	male	white	1.868682849184242	neutral	172	sub-10	1.0	6.0	172_neutral	1.0	trustworthiness	161.74370245828322	
23.0	140.2742734418389	response	2.0	b		40.0	male	white	1.868682849184242	neutral	172	sub-10	1.0	6.0	172_neutral	1.0	trustworthiness	162.01869883605832	
23.0	140.4991566250501	fix	3.0		444	40.0	male	white	1.868682849184242	neutral	172	sub-10	1.0	6.0	172_neutral	1.0	trustworthiness	162.24358201926952	3.774873222093447
23.0	140.69926589553506	pulse	3.0	t		40.0	male	white	1.868682849184242	neutral	172	sub-10	1.0	6.0	172_neutral	1.0	trustworthiness	162.4436912897545	
23.0	141.3992568399699	pulse	3.0	t		40.0	male	white	1.868682849184242	neutral	172	sub-10	1.0	6.0	172_neutral	1.0	trustworthiness	163.14368223418933	
23.0	142.09922967327657	pulse	3.0	t		40.0	male	white	1.868682849184242	neutral	172	sub-10	1.0	6.0	172_neutral	1.0	trustworthiness	163.843655067496	
23.0	142.79920733621475	pulse	3.0	t		40.0	male	white	1.868682849184242	neutral	172	sub-10	1.0	6.0	172_neutral	1.0	trustworthiness	164.54363273043418	
23.0	143.49918379174778	pulse	3.0	t		40.0	male	white	1.868682849184242	neutral	172	sub-10	1.0	6.0	172_neutral	1.0	trustworthiness	165.24360918596722	
23.0	144.19915300282446	pulse	3.0	t		40.0	male	white	1.868682849184242	neutral	172	sub-10	1.0	6.0	172_neutral	1.0	trustworthiness	165.9435783970439	
24.0	144.27402984714354	face	0.0		146	22.0	female	white	4.614007162753682	neutral	009	sub-10	1.0	6.0	009_neutral	0.0		166.01845524136297	1.2333105938014342
24.0	144.89913941947816	pulse	0.0	t		22.0	female	white	4.614007162753682	neutral	009	sub-10	1.0	6.0	009_neutral	0.0		166.6435648136976	
24.0	145.50734044094497	fix	1.0		443	22.0	female	white	4.614007162753682	neutral	009	sub-10	1.0	6.0	009_neutral	0.0		167.2517658351644	3.7665587042101834
24.0	145.5991686991365	pulse	1.0	t		22.0	female	white	4.614007162753682	neutral	009	sub-10	1.0	6.0	009_neutral	0.0		167.34359409335593	
24.0	146.29910138610649	pulse	1.0	t		22.0	female	white	4.614007162753682	neutral	009	sub-10	1.0	6.0	009_neutral	0.0		168.04352678032592	
24.0	146.99907271015036	pulse	1.0	t		22.0	female	white	4.614007162753682	neutral	009	sub-10	1.0	6.0	009_neutral	0.0		168.7434981043698	
24.0	147.69905641013247	pulse	1.0	t		22.0	female	white	4.614007162753682	neutral	009	sub-10	1.0	6.0	009_neutral	0.0		169.4434818043519	
24.0	148.39903860085542	pulse	1.0	t		22.0	female	white	4.614007162753682	neutral	009	sub-10	1.0	6.0	009_neutral	0.0		170.14346399507485	
24.0	149.09903980826493	pulse	1.0	t		22.0	female	white	4.614007162753682	neutral	009	sub-10	1.0	6.0	009_neutral	0.0		170.84346520248437	
25.0	149.27389914515516	face	0.0		146	27.0	female	white	4.181058495821727	smiling	039	sub-10	1.0	6.0	039_smiling	0.0		171.0183245393746	1.2416450339296716
25.0	149.79900539711525	pulse	0.0	t		27.0	female	white	4.181058495821727	smiling	039	sub-10	1.0	6.0	039_smiling	0.0		171.54343079133469	
25.0	150.49897702301314	pulse	0.0	t		27.0	female	white	4.181058495821727	smiling	039	sub-10	1.0	6.0	039_smiling	0.0		172.24340241723257	
25.0	150.51554417908483	fix	1.0		443	27.0	female	white	4.181058495821727	smiling	039	sub-10	1.0	6.0	039_smiling	0.0		172.25996957330426	3.7581892492307816
25.0	151.1989664581888	pulse	1.0	t		27.0	female	white	4.181058495821727	smiling	039	sub-10	1.0	6.0	039_smiling	0.0		172.94339185240824	
25.0	151.89894019705025	pulse	1.0	t		27.0	female	white	4.181058495821727	smiling	039	sub-10	1.0	6.0	039_smiling	0.0		173.64336559126968	
25.0	152.59890880442254	pulse	1.0	t		27.0	female	white	4.181058495821727	smiling	039	sub-10	1.0	6.0	039_smiling	0.0		174.34333419864197	
25.0	153.2988906932951	pulse	1.0	t		27.0	female	white	4.181058495821727	smiling	039	sub-10	1.0	6.0	039_smiling	0.0		175.04331608751454	
25.0	153.99886050807618	pulse	1.0	t		27.0	female	white	4.181058495821727	smiling	039	sub-10	1.0	6.0	039_smiling	0.0		175.7432859022956	
26.0	154.2737334283156	face	0.0		145	40.0	female	west_asian	1.5777954635893354	neutral	038	sub-10	1.0	6.0	038_neutral	1.0	attractiveness	176.01815882253504	1.2333124049182516
26.0	154.69885084881025	pulse	0.0	t		40.0	female	west_asian	1.5777954635893354	neutral	038	sub-10	1.0	6.0	038_neutral	1.0	attractiveness	176.4432762430297	
26.0	155.3988233802629	pulse	0.0	t		40.0	female	west_asian	1.5777954635893354	neutral	038	sub-10	1.0	6.0	038_neutral	1.0	attractiveness	177.14324877448234	
26.0	155.50704583323386	fix	1.0		177	40.0	female	west_asian	1.5777954635893354	neutral	038	sub-10	1.0	6.0	038_neutral	1.0	attractiveness	177.2514712274533	1.4999586462508887
26.0	156.0988179469241	pulse	1.0	t		40.0	female	west_asian	1.5777954635893354	neutral	038	sub-10	1.0	6.0	038_neutral	1.0	attractiveness	177.84324334114353	
26.0	156.7987847431832	pulse	1.0	t		40.0	female	west_asian	1.5777954635893354	neutral	038	sub-10	1.0	6.0	038_neutral	1.0	attractiveness	178.54321013740264	
26.0	157.00700447948475	rating	2.0		295	40.0	female	west_asian	1.5777954635893354	neutral	038	sub-10	1.0	6.0	038_neutral	1.0	attractiveness	178.75142987370418	2.4999230276989692
26.0	157.49877448020925	pulse	2.0	t		40.0	female	west_asian	1.5777954635893354	neutral	038	sub-10	1.0	6.0	038_neutral	1.0	attractiveness	179.24319987442868	
26.0	158.1987587838994	pulse	2.0	t		40.0	female	west_asian	1.5777954635893354	neutral	038	sub-10	1.0	6.0	038_neutral	1.0	attractiveness	179.94318417811883	
26.0	158.8987276931257	pulse	2.0	t		40.0	female	west_asian	1.5777954635893354	neutral	038	sub-10	1.0	6.0	038_neutral	1.0	attractiveness	180.64315308734513	
26.0	159.1769004612288	response	2.0	e		40.0	female	west_asian	1.5777954635893354	neutral	038	sub-10	1.0	6.0	038_neutral	1.0	attractiveness	180.92132585544823	
26.0	159.50692750718372	fix	3.0		443	40.0	female	west_asian	1.5777954635893354	neutral	038	sub-10	1.0	6.0	038_neutral	1.0	attractiveness	181.25135290140315	3.7665402912280115
26.0	159.59870686532668	pulse	3.0	t		40.0	female	west_asian	1.5777954635893354	neutral	038	sub-10	1.0	6.0	038_neutral	1.0	attractiveness	181.3431322595461	
26.0	160.29867909492532	pulse	3.0	t		40.0	female	west_asian	1.5777954635893354	neutral	038	sub-10	1.0	6.0	038_neutral	1.0	attractiveness	182.04310448914475	
26.0	160.99872950423742	pulse	3.0	t		40.0	female	west_asian	1.5777954635893354	neutral	038	sub-10	1.0	6.0	038_neutral	1.0	attractiveness	182.74315489845685	
26.0	161.698644381926	pulse	3.0	t		40.0	female	west_asian	1.5777954635893354	neutral	038	sub-10	1.0	6.0	038_neutral	1.0	attractiveness	183.44306977614542	
26.0	162.39861963005023	pulse	3.0	t		40.0	female	west_asian	1.5777954635893354	neutral	038	sub-10	1.0	6.0	038_neutral	1.0	attractiveness	184.14304502426967	
26.0	163.09858884113055	pulse	3.0	t		40.0	female	west_asian	1.5777954635893354	neutral	038	sub-10	1.0	6.0	038_neutral	1.0	attractiveness	184.84301423534998	
27.0	163.27346779841173	face	0.0		146	20.0	female	white	3.9502586549940313	neutral	091	sub-10	1.0	6.0	091_neutral	0.0		185.01789319263116	1.241661635795026
27.0	163.7985861244597	pulse	0.0	t		20.0	female	white	3.9502586549940313	neutral	091	sub-10	1.0	6.0	091_neutral	0.0		185.54301151867912	
27.0	164.49856952259142	pulse	0.0	t		20.0	female	white	3.9502586549940313	neutral	091	sub-10	1.0	6.0	091_neutral	0.0		186.24299491681086	
27.0	164.51512943420676	fix	1.0		443	20.0	female	white	3.9502586549940313	neutral	091	sub-10	1.0	6.0	091_neutral	0.0		186.2595548284262	3.7499924536969047
27.0	165.19855292072316	pulse	1.0	t		20.0	female	white	3.9502586549940313	neutral	091	sub-10	1.0	6.0	091_neutral	0.0		186.9429783149426	
27.0	165.89852213179984	pulse	1.0	t		20.0	female	white	3.9502586549940313	neutral	091	sub-10	1.0	6.0	091_neutral	0.0		187.64294752601927	
27.0	166.59850794474914	pulse	1.0	t		20.0	female	white	3.9502586549940313	neutral	091	sub-10	1.0	6.0	091_neutral	0.0		188.34293333896858	
27.0	167.29847775953385	pulse	1.0	t		20.0	female	white	3.9502586549940313	neutral	091	sub-10	1.0	6.0	091_neutral	0.0		189.0429031537533	
27.0	167.99844274467978	pulse	1.0	t		20.0	female	white	3.9502586549940313	neutral	091	sub-10	1.0	6.0	091_neutral	0.0		189.7428681388992	
28.0	168.26512188790366	face	0.0		146	20.0	male	black	2.609629924393156	smiling	043	sub-10	1.0	6.0	043_smiling	1.0	trustworthiness	190.0095472821231	1.241524293061957
28.0	168.69844153727172	pulse	0.0	t		20.0	male	black	2.609629924393156	smiling	043	sub-10	1.0	6.0	043_smiling	1.0	trustworthiness	190.44286693149115	
28.0	169.3984222187355	pulse	0.0	t		20.0	male	black	2.609629924393156	smiling	043	sub-10	1.0	6.0	043_smiling	1.0	trustworthiness	191.14284761295494	
28.0	169.50664618096562	fix	1.0		177	20.0	male	black	2.609629924393156	smiling	043	sub-10	1.0	6.0	043_smiling	1.0	trustworthiness	191.25107157518505	1.4999369129000115
28.0	170.09839595759695	pulse	1.0	t		20.0	male	black	2.609629924393156	smiling	043	sub-10	1.0	6.0	043_smiling	1.0	trustworthiness	191.84282135181638	
28.0	170.79836305571007	pulse	1.0	t		20.0	male	black	2.609629924393156	smiling	043	sub-10	1.0	6.0	043_smiling	1.0	trustworthiness	192.5427884499295	
28.0	171.00658309386563	rating	2.0		295	20.0	male	black	2.609629924393156	smiling	043	sub-10	1.0	6.0	043_smiling	1.0	trustworthiness	192.75100848808506	2.499930272148049
28.0	171.4983546038493	pulse	2.0	t		20.0	male	black	2.609629924393156	smiling	043	sub-10	1.0	6.0	043_smiling	1.0	trustworthiness	193.24277999806873	
28.0	172.19832864456475	pulse	2.0	t		20.0	male	black	2.609629924393156	smiling	043	sub-10	1.0	6.0	043_smiling	1.0	trustworthiness	193.9427540387842	
28.0	172.35983826761003	response	2.0	b		20.0	male	black	2.609629924393156	smiling	043	sub-10	1.0	6.0	043_smiling	1.0	trustworthiness	194.10426366182946	
28.0	172.89829996860863	pulse	2.0	t		20.0	male	black	2.609629924393156	smiling	043	sub-10	1.0	6.0	043_smiling	1.0	trustworthiness	194.64272536282806	
28.0	173.50651336601368	fix	3.0		443	20.0	male	black	2.609629924393156	smiling	043	sub-10	1.0	6.0	043_smiling	1.0	trustworthiness	195.2509387602331	3.766554176425416
28.0	173.598296346383	pulse	3.0	t		20.0	male	black	2.609629924393156	smiling	043	sub-10	1.0	6.0	043_smiling	1.0	trustworthiness	195.34272174060243	
28.0	174.2982646519049	pulse	3.0	t		20.0	male	black	2.609629924393156	smiling	043	sub-10	1.0	6.0	043_smiling	1.0	trustworthiness	196.04269004612433	
28.0	174.99823899447074	pulse	3.0	t		20.0	male	black	2.609629924393156	smiling	043	sub-10	1.0	6.0	043_smiling	1.0	trustworthiness	196.74266438869017	
28.0	175.69823808891306	pulse	3.0	t		20.0	male	black	2.609629924393156	smiling	043	sub-10	1.0	6.0	043_smiling	1.0	trustworthiness	197.4426634831325	
28.0	176.3982214870448	pulse	3.0	t		20.0	male	black	2.609629924393156	smiling	043	sub-10	1.0	6.0	043_smiling	1.0	trustworthiness	198.14264688126423	
28.0	177.09819552776025	pulse	3.0	t		20.0	male	black	2.609629924393156	smiling	043	sub-10	1.0	6.0	043_smiling	1.0	trustworthiness	198.8426209219797	
29.0	177.2730675424391	face	0.0		146	27.0	female	white	3.504576203740549	smiling	144	sub-10	1.0	6.0	144_smiling	0.0		199.01749293665853	1.2416522783823893
29.0	177.79816443698655	pulse	0.0	t		27.0	female	white	3.504576203740549	smiling	144	sub-10	1.0	6.0	144_smiling	0.0		199.542589831206	
29.0	178.49814964622783	pulse	0.0	t		27.0	female	white	3.504576203740549	smiling	144	sub-10	1.0	6.0	144_smiling	0.0		200.24257504044726	
29.0	178.51471982082148	fix	1.0		443	27.0	female	white	3.504576203740549	smiling	144	sub-10	1.0	6.0	144_smiling	0.0		200.25914521504092	3.7582019270230376
29.0	179.19814300548023	pulse	1.0	t		27.0	female	white	3.504576203740549	smiling	144	sub-10	1.0	6.0	144_smiling	0.0		200.94256839969967	
29.0	179.89811161285616	pulse	1.0	t		27.0	female	white	3.504576203740549	smiling	144	sub-10	1.0	6.0	144_smiling	0.0		201.6425370070756	
29.0	180.59808927579797	pulse	1.0	t		27.0	female	white	3.504576203740549	smiling	144	sub-10	1.0	6.0	144_smiling	0.0		202.3425146700174	
29.0	181.2981599092018	pulse	1.0	t		27.0	female	white	3.504576203740549	smiling	144	sub-10	1.0	6.0	144_smiling	0.0		203.04258530342122	
29.0	181.99805003501388	pulse	1.0	t		27.0	female	white	3.504576203740549	smiling	144	sub-10	1.0	6.0	144_smiling	0.0		203.7424754292333	
30.0	182.27292174784452	face	0.0		145	37.0	male	white	3.898925586947871	neutral	101	sub-10	1.0	6.0	101_neutral	0.0		204.01734714206395	1.2332988215712248
30.0	182.69803645166758	pulse	0.0	t		37.0	male	white	3.898925586947871	neutral	101	sub-10	1.0	6.0	101_neutral	0.0		204.442461845887	
30.0	183.3980050590435	pulse	0.0	t		37.0	male	white	3.898925586947871	neutral	101	sub-10	1.0	6.0	101_neutral	0.0		205.14243045326293	
30.0	183.50622056941575	fix	1.0		444	37.0	male	white	3.898925586947871	neutral	101	sub-10	1.0	6.0	101_neutral	0.0		205.25064596363518	3.7665366689980146
30.0	184.09798272198168	pulse	1.0	t		37.0	male	white	3.898925586947871	neutral	101	sub-10	1.0	6.0	101_neutral	0.0		205.8424081162011	
30.0	184.79795374417517	pulse	1.0	t		37.0	male	white	3.898925586947871	neutral	101	sub-10	1.0	6.0	101_neutral	0.0		206.5423791383946	
30.0	185.49793472748934	pulse	1.0	t		37.0	male	white	3.898925586947871	neutral	101	sub-10	1.0	6.0	101_neutral	0.0		207.24236012170877	
30.0	186.19792687933295	pulse	1.0	t		37.0	male	white	3.898925586947871	neutral	101	sub-10	1.0	6.0	101_neutral	0.0		207.9423522735524	
30.0	186.89789488300084	pulse	1.0	t		37.0	male	white	3.898925586947871	neutral	101	sub-10	1.0	6.0	101_neutral	0.0		208.64232027722028	
31.0	187.27275723841376	face	0.0		145	27.0	female	white	3.504576203740549	neutral	144	sub-10	1.0	6.0	144_neutral	0.0		209.0171826326332	1.2333127067686291
31.0	187.59787828113258	pulse	0.0	t		27.0	female	white	3.504576203740549	neutral	144	sub-10	1.0	6.0	144_neutral	0.0		209.342303675352	
31.0	188.29785745333356	pulse	0.0	t		27.0	female	white	3.504576203740549	neutral	144	sub-10	1.0	6.0	144_neutral	0.0		210.042282847553	
31.0	188.5060699451824	fix	1.0		444	27.0	female	white	3.504576203740549	neutral	144	sub-10	1.0	6.0	144_neutral	0.0		210.25049533940182	3.766539989377634
31.0	188.99784960517718	pulse	1.0	t		27.0	female	white	3.504576203740549	neutral	144	sub-10	1.0	6.0	144_neutral	0.0		210.7422749993966	
31.0	189.69782213662984	pulse	1.0	t		27.0	female	white	3.504576203740549	neutral	144	sub-10	1.0	6.0	144_neutral	0.0		211.44224753084927	
31.0	190.39780070512643	pulse	1.0	t		27.0	female	white	3.504576203740549	neutral	144	sub-10	1.0	6.0	144_neutral	0.0		212.14222609934586	
31.0	191.09777565139666	pulse	1.0	t		27.0	female	white	3.504576203740549	neutral	144	sub-10	1.0	6.0	144_neutral	0.0		212.8422010456161	
31.0	191.79775663471082	pulse	1.0	t		27.0	female	white	3.504576203740549	neutral	144	sub-10	1.0	6.0	144_neutral	0.0		213.54218202893026	
32.0	192.27260993456002	face	0.0		145	34.0	male	white	2.651014723438122	neutral	121	sub-10	1.0	6.0	121_neutral	0.0		214.01703532877946	1.2333108956554497
32.0	192.4977349013534	pulse	0.0	t		34.0	male	white	2.651014723438122	neutral	121	sub-10	1.0	6.0	121_neutral	0.0		214.24216029557283	
32.0	193.19770501799212	pulse	0.0	t		34.0	male	white	2.651014723438122	neutral	121	sub-10	1.0	6.0	121_neutral	0.0		214.94213041221155	
32.0	193.50592083021547	fix	1.0		444	34.0	male	white	2.651014723438122	neutral	121	sub-10	1.0	6.0	121_neutral	0.0		215.2503462244349	3.766540593078389
32.0	193.89769535872256	pulse	1.0	t		34.0	male	white	2.651014723438122	neutral	121	sub-10	1.0	6.0	121_neutral	0.0		215.642120752942	
32.0	194.59767151240158	pulse	1.0	t		34.0	male	white	2.651014723438122	neutral	121	sub-10	1.0	6.0	121_neutral	0.0		216.342096906621	
32.0	195.29765098645294	pulse	1.0	t		34.0	male	white	2.651014723438122	neutral	121	sub-10	1.0	6.0	121_neutral	0.0		217.04207638067237	
32.0	195.99762593272317	pulse	1.0	t		34.0	male	white	2.651014723438122	neutral	121	sub-10	1.0	6.0	121_neutral	0.0		217.7420513269426	
32.0	196.6976105382637	pulse	1.0	t		34.0	male	white	2.651014723438122	neutral	121	sub-10	1.0	6.0	121_neutral	0.0		218.44203593248312	
33.0	197.27246142329386	face	0.0		145	36.0	female	white	2.7548746518105847	smiling	011	sub-10	1.0	6.0	011_smiling	0.0		219.0168868175133	1.2333124049146136
33.0	197.39759182342823	pulse	0.0	t		36.0	female	white	2.7548746518105847	smiling	011	sub-10	1.0	6.0	011_smiling	0.0		219.14201721764766	
33.0	198.09754956412507	pulse	0.0	t		36.0	female	white	2.7548746518105847	smiling	011	sub-10	1.0	6.0	011_smiling	0.0		219.8419749583445	
33.0	198.50577382820848	fix	1.0		444	36.0	female	white	2.7548746518105847	smiling	011	sub-10	1.0	6.0	011_smiling	0.0		220.2501992224279	3.758309990102134
33.0	198.79754775301262	pulse	1.0	t		36.0	female	white	2.7548746518105847	smiling	011	sub-10	1.0	6.0	011_smiling	0.0		220.54197314723206	
33.0	199.49752269928285	pulse	1.0	t		36.0	female	white	2.7548746518105847	smiling	011	sub-10	1.0	6.0	011_smiling	0.0		221.2419480935023	
33.0	200.19749311777196	pulse	1.0	t		36.0	female	white	2.7548746518105847	smiling	011	sub-10	1.0	6.0	011_smiling	0.0		221.9419185119914	
33.0	200.89747561034528	pulse	1.0	t		36.0	female	white	2.7548746518105847	smiling	011	sub-10	1.0	6.0	011_smiling	0.0		222.64190100456472	
33.0	201.59746172514497	pulse	1.0	t		36.0	female	white	2.7548746518105847	smiling	011	sub-10	1.0	6.0	011_smiling	0.0		223.3418871193644	
34.0	202.2640838183106	face	0.0		146	23.0	male	white	2.6275368085953046	smiling	141	sub-10	1.0	6.0	141_smiling	0.0		224.00850921253004	1.2415418004857202
34.0	202.29744844364905	pulse	0.0	t		23.0	male	white	2.6275368085953046	smiling	141	sub-10	1.0	6.0	141_smiling	0.0		224.04187383786848	
34.0	202.99741252324384	pulse	0.0	t		23.0	male	white	2.6275368085953046	smiling	141	sub-10	1.0	6.0	141_smiling	0.0		224.74183791746327	
34.0	203.50562561879633	fix	1.0		443	23.0	male	white	2.6275368085953046	smiling	141	sub-10	1.0	6.0	141_smiling	0.0		225.25005101301576	3.766539989373996
34.0	203.69740407138306	pulse	1.0	t		23.0	male	white	2.6275368085953046	smiling	141	sub-10	1.0	6.0	141_smiling	0.0		225.4418294656025	
34.0	204.3973769046861	pulse	1.0	t		23.0	male	white	2.6275368085953046	smiling	141	sub-10	1.0	6.0	141_smiling	0.0		226.14180229890553	
34.0	205.09735728429587	pulse	1.0	t		23.0	male	white	2.6275368085953046	smiling	141	sub-10	1.0	6.0	141_smiling	0.0		226.8417826785153	
34.0	205.7973343435333	pulse	1.0	t		23.0	male	white	2.6275368085953046	smiling	141	sub-10	1.0	6.0	141_smiling	0.0		227.54175973775273	
34.0	206.4973165342526	pulse	1.0	t		23.0	male	white	2.6275368085953046	smiling	141	sub-10	1.0	6.0	141_smiling	0.0		228.24174192847204	
34.0	207.1972938953404	pulse	1.0	t		23.0	male	white	2.6275368085953046	smiling	141	sub-10	1.0	6.0	141_smiling	0.0		228.94171928955984	
35.0	207.27216560817033	face	0.0		146	40.0	male	black	2.408674890569041	smiling	061	sub-10	1.0	6.0	061_smiling	0.0		229.01659100238976	1.2333114993634808
35.0	207.89727850088093	pulse	0.0	t		40.0	male	black	2.408674890569041	smiling	061	sub-10	1.0	6.0	061_smiling	0.0		229.64170389510036	
35.0	208.5054771075338	fix	1.0		443	40.0	male	black	2.408674890569041	smiling	061	sub-10	1.0	6.0	061_smiling	0.0		230.24990250175324	3.7665577986517746
35.0	208.5972582767863	pulse	1.0	t		40.0	male	black	2.408674890569041	smiling	061	sub-10	1.0	6.0	061_smiling	0.0		230.34168367100574	
35.0	209.29724499529038	pulse	1.0	t		40.0	male	black	2.408674890569041	smiling	061	sub-10	1.0	6.0	061_smiling	0.0		231.04167038950982	
35.0	209.99721631933426	pulse	1.0	t		40.0	male	black	2.408674890569041	smiling	061	sub-10	1.0	6.0	061_smiling	0.0		231.7416417135537	
35.0	210.69719881191122	pulse	1.0	t		40.0	male	black	2.408674890569041	smiling	061	sub-10	1.0	6.0	061_smiling	0.0		232.44162420613065	
35.0	211.39718522856128	pulse	1.0	t		40.0	male	black	2.408674890569041	smiling	061	sub-10	1.0	6.0	061_smiling	0.0		233.14161062278072	
35.0	212.09714025259018	pulse	1.0	t		40.0	male	black	2.408674890569041	smiling	061	sub-10	1.0	6.0	061_smiling	0.0		233.8415656468096	
36.0	212.27203490618558	face	0.0		146	26.0	female	white	4.854755272582572	neutral	027	sub-10	1.0	6.0	027_neutral	0.0		234.01646030040502	1.2416308468746138
36.0	212.79714508222605	pulse	0.0	t		26.0	female	white	4.854755272582572	neutral	027	sub-10	1.0	6.0	027_neutral	0.0		234.5415704764455	
36.0	213.4971109729304	pulse	0.0	t		26.0	female	white	4.854755272582572	neutral	027	sub-10	1.0	6.0	027_neutral	0.0		235.24153636714982	
36.0	213.5136657530602	fix	1.0		443	26.0	female	white	4.854755272582572	neutral	027	sub-10	1.0	6.0	027_neutral	0.0		235.25809114727963	3.7582034362858394
36.0	214.19709316365334	pulse	1.0	t		26.0	female	white	4.854755272582572	neutral	027	sub-10	1.0	6.0	027_neutral	0.0		235.94151855787277	
36.0	214.89707535437628	pulse	1.0	t		26.0	female	white	4.854755272582572	neutral	027	sub-10	1.0	6.0	027_neutral	0.0		236.64150074859572	
36.0	215.5970596580628	pulse	1.0	t		26.0	female	white	4.854755272582572	neutral	027	sub-10	1.0	6.0	027_neutral	0.0		237.34148505228222	
36.0	216.29703883026377	pulse	1.0	t		26.0	female	white	4.854755272582572	neutral	027	sub-10	1.0	6.0	027_neutral	0.0		238.0414642244832	
36.0	216.99700230615053	pulse	1.0	t		26.0	female	white	4.854755272582572	neutral	027	sub-10	1.0	6.0	027_neutral	0.0		238.74142770036997	
37.0	217.27186918934603	face	0.0		145	20.0	male	black	3.1070433744528456	neutral	082	sub-10	1.0	6.0	082_neutral	0.0		239.01629458356547	1.2333139141774154
37.0	217.69698781724583	pulse	0.0	t		20.0	male	black	3.1070433744528456	neutral	082	sub-10	1.0	6.0	082_neutral	0.0		239.44141321146526	
37.0	218.3969703098228	pulse	0.0	t		20.0	male	black	3.1070433744528456	neutral	082	sub-10	1.0	6.0	082_neutral	0.0		240.14139570404222	
37.0	218.50518310352345	fix	1.0		444	20.0	male	black	3.1070433744528456	neutral	082	sub-10	1.0	6.0	082_neutral	0.0		240.24960849774288	3.7583549660703284
37.0	219.0969476709106	pulse	1.0	t		20.0	male	black	3.1070433744528456	neutral	082	sub-10	1.0	6.0	082_neutral	0.0		240.84137306513003	
37.0	219.79691808939606	pulse	1.0	t		20.0	male	black	3.1070433744528456	neutral	082	sub-10	1.0	6.0	082_neutral	0.0		241.5413434836155	
37.0	220.49690239308256	pulse	1.0	t		20.0	male	black	3.1070433744528456	neutral	082	sub-10	1.0	6.0	082_neutral	0.0		242.241327787302	
37.0	221.1968885078859	pulse	1.0	t		20.0	male	black	3.1070433744528456	neutral	082	sub-10	1.0	6.0	082_neutral	0.0		242.94131390210532	
37.0	221.8968710004592	pulse	1.0	t		20.0	male	black	3.1070433744528456	neutral	082	sub-10	1.0	6.0	082_neutral	0.0		243.64129639467865	
38.0	222.26353806959378	face	0.0		146	24.0	female	east_asian	2.9076800636689217	smiling	034	sub-10	1.0	6.0	034_smiling	0.0		244.0079634638132	1.241496824517526
38.0	222.59685681340852	pulse	0.0	t		24.0	female	east_asian	2.9076800636689217	smiling	034	sub-10	1.0	6.0	034_smiling	0.0		244.34128220762796	
38.0	223.2968266281896	pulse	0.0	t		24.0	female	east_asian	2.9076800636689217	smiling	034	sub-10	1.0	6.0	034_smiling	0.0		245.04125202240903	
38.0	223.5050348941113	fix	1.0		444	24.0	female	east_asian	2.9076800636689217	smiling	034	sub-10	1.0	6.0	034_smiling	0.0		245.24946028833074	3.7665577986517746
38.0	223.99680187631384	pulse	1.0	t		24.0	female	east_asian	2.9076800636689217	smiling	034	sub-10	1.0	6.0	034_smiling	0.0		245.74122727053327	
38.0	224.69677410591248	pulse	1.0	t		24.0	female	east_asian	2.9076800636689217	smiling	034	sub-10	1.0	6.0	034_smiling	0.0		246.44119950013192	
38.0	225.39675599478505	pulse	1.0	t		24.0	female	east_asian	2.9076800636689217	smiling	034	sub-10	1.0	6.0	034_smiling	0.0		247.1411813890045	
38.0	226.09674965588783	pulse	1.0	t		24.0	female	east_asian	2.9076800636689217	smiling	034	sub-10	1.0	6.0	034_smiling	0.0		247.84117505010727	
38.0	226.79672641327124	pulse	1.0	t		24.0	female	east_asian	2.9076800636689217	smiling	034	sub-10	1.0	6.0	034_smiling	0.0		248.54115180749068	
39.0	227.27159269276308	face	0.0		145	26.0	female	white	4.854755272582572	smiling	027	sub-10	1.0	6.0	027_smiling	0.0		249.0160180869825	1.2332921808229003
39.0	227.49670226509988	pulse	0.0	t		26.0	female	white	4.854755272582572	smiling	027	sub-10	1.0	6.0	027_smiling	0.0		249.24112765931932	
39.0	228.19666574098665	pulse	0.0	t		26.0	female	white	4.854755272582572	smiling	027	sub-10	1.0	6.0	027_smiling	0.0		249.94109113520608	
39.0	228.50488487358598	fix	1.0		444	26.0	female	white	4.854755272582572	smiling	027	sub-10	1.0	6.0	027_smiling	0.0		250.2493102678054	3.749889522106969
39.0	228.89666543913336	pulse	1.0	t		26.0	female	white	4.854755272582572	smiling	027	sub-10	1.0	6.0	027_smiling	0.0		250.6410908333528	
39.0	229.5966563835682	pulse	1.0	t		26.0	female	white	4.854755272582572	smiling	027	sub-10	1.0	6.0	027_smiling	0.0		251.34108177778762	
39.0	230.29662076501336	pulse	1.0	t		26.0	female	white	4.854755272582572	smiling	027	sub-10	1.0	6.0	027_smiling	0.0		252.0410461592328	
39.0	230.99660084277275	pulse	1.0	t		26.0	female	white	4.854755272582572	smiling	027	sub-10	1.0	6.0	027_smiling	0.0		252.74102623699218	
39.0	231.69656975199905	pulse	1.0	t		26.0	female	white	4.854755272582572	smiling	027	sub-10	1.0	6.0	027_smiling	0.0		253.44099514621848	
40.0	232.25477439569295	fix	0.0		720													253.99919978991238	5.999837905386812
40.0	232.39655647050313	pulse	0.0	t														254.14098186472256	
40.0	233.09652055009428	pulse	0.0	t														254.84094594431372	
40.0	233.79650998526995	pulse	0.0	t														255.54093537948938	
40.0	234.49648825191252	pulse	0.0	t														256.24091364613196	
40.0	235.19646350003677	pulse	0.0	t														256.9408888942562	
40.0	235.8964556518804	pulse	0.0	t														257.6408810460998	
40.0	236.59643723889894	pulse	0.0	t														258.3408626331184	
40.0	237.29641399628235	pulse	0.0	t														259.0408393905018	
40.0	237.996386527735	pulse	0.0	t														259.74081192195445	
