trial_nr	onset	event_type	phase	response	nr_frames	trial_type	stim_name	task_probe	onset_abs	duration
0.0	0.05990286397354794	baseline	0.0		40.0		baseline	0.0	32.59537562483456	0.3413658206773107
0.0	0.40126868465085863	ISI	1.0		11.0		baseline	0.0	32.93674144551187	0.10001901668510982
1.0	0.5012877013359684	baseline	0.0		48.0		baseline	0.0	33.03676046219698	0.3999683055226342
1.0	0.7013740310540015	pulse	0.0	t			baseline	0.0	33.23684679191501	
1.0	0.9012560068586026	ISI	1.0		11.0		baseline	0.0	33.436728767719615	0.0999936611042358
2.0	1.0012496679628384	baseline	0.0		48.0		baseline	0.0	33.53672242882385	0.39997102219058434
2.0	1.4012206901534228	ISI	1.0		11.0		baseline	0.0	33.936693451014435	0.09999758518461022
2.0	1.405740624471946	pulse	1.0	t			baseline	0.0	33.94121338533296	
3.0	1.501218275338033	baseline	0.0		48.0		baseline	0.0	34.036691036199045	0.3999876240595768
3.0	1.9012058993976098	ISI	1.0		11.0		baseline	0.0	34.43667866025862	0.09999094443628564
4.0	2.0011968438338954	baseline	0.0		48.0		baseline	0.0	34.53666960469491	0.3999945666619169
4.0	2.101409045906621	pulse	0.0	t			baseline	0.0	34.63688180676763	
4.0	2.4011914104958123	ISI	1.0		11.0		baseline	0.0	34.936664171356824	0.09999849073938094
5.0	2.5011899012351932	baseline	0.0		48.0		baseline	0.0	35.036662662096205	0.3999861148004129
5.0	2.801289814302436	pulse	0.0	t			baseline	0.0	35.33676257516345	
5.0	2.901176016035606	ISI	1.0		11.0		baseline	0.0	35.43664877689662	0.10000060370293795
6.0	3.001176619738544	baseline	0.0		48.0		baseline	0.0	35.536649380599556	0.39998460554124904
6.0	3.401161225279793	ISI	1.0		11.0		baseline	0.0	35.936633986140805	0.09998762406030437
7.0	3.5011488493400975	baseline	0.0		47.0		baseline	0.0	36.03662161020111	0.3999975851838826
7.0	3.505334633311577	pulse	0.0	t			baseline	0.0	36.04080739417259	
7.0	3.90114643452398	ISI	1.0		11.0		baseline	0.0	36.43661919538499	0.09999667962620151
8.0	4.001143114150182	baseline	0.0		48.0		baseline	0.0	36.536615875011194	0.39999305739911506
8.0	4.201244234624028	pulse	0.0	t			baseline	0.0	36.73671699548504	
8.0	4.401136171549297	ISI	1.0		11.0		baseline	0.0	36.93660893241031	0.09999456665900652
9.0	4.501130738208303	baseline	0.0		48.0		baseline	0.0	37.036603499069315	0.3999891333223786
9.0	4.901119871530682	ISI	1.0		11.0		baseline	0.0	37.436592632391694	0.09999396295825136
9.0	4.905656407718197	pulse	1.0	t			baseline	0.0	37.44112916857921	
10.0	5.001113834488933	baseline	0.0		48.0		baseline	0.0	37.536586595349945	0.39998883146836306
10.0	5.401102665957296	ISI	1.0		11.0		baseline	0.0	37.93657542681831	0.09999607592180837
11.0	5.501098741879105	baseline	0.0		48.0		baseline	0.0	38.03657150274012	0.39998973702677176
11.0	5.601211936442269	pulse	0.0	t			baseline	0.0	38.13668469730328	
11.0	5.901088478905876	ISI	1.0		4.0		baseline	0.0	38.43656123976689	0.13333172345664934
12.0	6.034420202362526	car	0.0		44.0	object	car-76.jpg	0.0	38.56989296322354	0.36663869503172464
12.0	6.301171186398278	pulse	0.0	t		object	car-76.jpg	0.0	38.83664394725929	
12.0	6.40105889739425	ISI	1.0		7.0	object	car-76.jpg	0.0	38.93653165825526	0.11668367100719479
13.0	6.517742568401445	car	0.0		46.0	object	car-137.jpg	0.0	39.05321532926246	0.3832674289442366
13.0	6.901009997345682	ISI	1.0		6.0	object	car-137.jpg	0.0	39.436482758206694	0.11667703025523224
14.0	7.017687027600914	car	0.0		45.0	object	car-28.jpg	0.0	39.553159788461926	0.38330757528092363
14.0	7.008574110743211	pulse	0.0	t		object	car-28.jpg	0.0	39.54404687160422	
14.0	7.400994602881838	ISI	1.0		5.0	object	car-28.jpg	0.0	39.93646736374285	0.11668910434673307
15.0	7.517683707228571	car	0.0		46.0	object	car-7.jpg	0.0	40.05315646808958	0.3832961048974539
15.0	7.7010978363250615	pulse	0.0	t		object	car-7.jpg	0.0	40.23657059718607	
15.0	7.900979812126025	ISI	1.0		7.0	object	car-7.jpg	0.0	40.43645257298704	0.11668970805112622
16.0	8.01766952017715	car	0.0		46.0	object	car-7.jpg	1.0	40.55314228103816	0.3832951993426832
16.0	8.400964719519834	ISI	1.0		1.0	object	car-7.jpg	1.0	40.936437480380846	0.10835164569652989
16.0	8.47943571756332	pulse	1.0	t		object	car-7.jpg	1.0	41.01490847842433	
16.0	8.47960475477521	response	1.0	b		object	car-7.jpg	1.0	41.01507751563622	
17.0	8.509316365216364	car	0.0		47.0	object	car-116.jpg	0.0	41.044789126077376	0.39163507280682097
17.0	8.900951438023185	ISI	1.0		5.0	object	car-116.jpg	0.0	41.4364241988842	0.10835164570016786
18.0	9.009303083723353	car	0.0		47.0	object	car-92.jpg	0.0	41.544775844584365	0.3916314505804621
18.0	9.101058595540962	pulse	0.0	t		object	car-92.jpg	0.0	41.636531356401974	
18.0	9.400934534303815	ISI	1.0		6.0	object	car-92.jpg	0.0	41.93640729516483	0.10835436236811802
19.0	9.509288896671933	car	0.0		47.0	object	car-10.jpg	0.0	42.044761657532945	0.3916335635440191
19.0	9.801035051073995	pulse	0.0	t		object	car-10.jpg	0.0	42.33650781193501	
19.0	9.900922460215952	ISI	1.0		5.0	object	car-10.jpg	0.0	42.436395221076964	0.11668306730280165
20.0	10.017605527518754	car	0.0		46.0	object	car-61.jpg	0.0	42.553078288379766	0.3832985197150265
20.0	10.40090404723378	ISI	1.0		6.0	object	car-61.jpg	0.0	42.93637680809479	0.10835224940092303
21.0	10.509256296634703	car	0.0		46.0	object	car-46.jpg	0.0	43.044729057495715	0.39163416725205025
21.0	10.504887892107945	pulse	0.0	t		object	car-46.jpg	0.0	43.04036065296896	
21.0	10.900890463886753	ISI	1.0		6.0	object	car-46.jpg	0.0	43.436363224747765	0.1083546642184956
22.0	11.009245128105249	car	0.0		47.0	object	car-68.jpg	0.0	43.54471788896626	0.3916317524344777
22.0	11.20099701770232	pulse	0.0	t		object	car-68.jpg	0.0	43.73646977856333	
22.0	11.400876880539727	ISI	1.0		6.0	object	car-68.jpg	0.0	43.93634964140074	0.11668095433560666
23.0	11.517557834875333	car	0.0		46.0	object	car-51.jpg	0.0	44.053030595736345	0.3833036512041872
23.0	11.90086148607952	ISI	1.0		2.0	object	car-51.jpg	0.0	44.43633424694053	0.11668397285757237
23.0	11.982988215691876	pulse	1.0	t		object	car-51.jpg	0.0	44.51846097655289	
24.0	12.017545458937093	adult	0.0		46.0	face	adult-81.jpg	0.0	44.553018219798105	0.3833003308282059
24.0	12.400845789765299	ISI	1.0		4.0	face	adult-81.jpg	0.0	44.93631855062631	0.11667069136456121
25.0	12.51751648112986	adult	0.0		46.0	face	adult-10.jpg	0.0	45.05298924199087	0.38334772161761066
25.0	12.60098977324742	pulse	0.0	t		face	adult-10.jpg	0.0	45.13646253410843	
25.0	12.90086420274747	ISI	1.0		6.0	face	adult-10.jpg	0.0	45.43633696360848	0.12501811113179429
26.0	13.025882313879265	adult	0.0		45.0	face	adult-69.jpg	0.0	45.56135507474028	0.374966192557622
26.0	13.300966832484846	pulse	0.0	t		face	adult-69.jpg	0.0	45.83643959334586	
26.0	13.400848506436887	ISI	1.0		7.0	face	adult-69.jpg	0.0	45.9363212672979	0.11668759508393123
27.0	13.517536101520818	adult	0.0		46.0	face	adult-84.jpg	0.0	46.05300886238183	0.38325324188917875
27.0	13.900789343409997	ISI	1.0		6.0	face	adult-84.jpg	0.0	46.43626210427101	0.11668940619711066
28.0	14.017478749607108	adult	0.0		45.0	face	adult-140.jpg	0.0	46.55295151046812	0.38330938639410306
28.0	14.009340815242467	pulse	0.0	t		face	adult-140.jpg	0.0	46.54481357610348	
28.0	14.40078813600121	ISI	1.0		6.0	face	adult-140.jpg	0.0	46.93626089686222	0.11666827654698864
29.0	14.5174564125482	adult	0.0		46.0	face	adult-112.jpg	0.0	47.05292917340921	0.3833187438103778
29.0	14.700905858346232	pulse	0.0	t		face	adult-112.jpg	0.0	47.236378619207244	
29.0	14.900775156358577	ISI	1.0		7.0	face	adult-112.jpg	0.0	47.43624791721959	0.11668397285757237
30.0	15.01745912921615	adult	0.0		46.0	face	adult-72.jpg	0.0	47.55293189007716	0.3832979160142713
30.0	15.40075704523042	ISI	1.0		7.0	face	adult-72.jpg	0.0	47.93622980609143	0.11668457656196551
30.0	15.435917992803297	pulse	1.0	t		face	adult-72.jpg	0.0	47.97139075366431	
31.0	15.517441621792386	adult	0.0		46.0	face	adult-105.jpg	0.0	48.0529143826534	0.3833012363866146
31.0	15.900742858179001	ISI	1.0		7.0	face	adult-105.jpg	0.0	48.43621561904001	0.1166857839707518
32.0	16.017428642149753	adult	0.0		46.0	face	adult-102.jpg	0.0	48.552901403010765	0.38329912341941963
32.0	16.100852128660335	pulse	0.0	t		face	adult-102.jpg	0.0	48.63632488952135	
32.0	16.400727765569172	ISI	1.0		7.0	face	adult-102.jpg	0.0	48.936200526430184	0.11668457656196551
33.0	16.517412342131138	adult	0.0		46.0	face	adult-124.jpg	0.0	49.05288510299215	0.38330002897782833
33.0	16.800833111974498	pulse	0.0	t		face	adult-124.jpg	0.0	49.33630587283551	
33.0	16.900712371108966	ISI	1.0		8.0	face	adult-124.jpg	0.0	49.43618513196998	0.11668789693430881
34.0	17.017400268043275	adult	0.0		46.0	face	adult-124.jpg	1.0	49.55287302890429	0.3832979160142713
34.0	17.400698184057546	ISI	1.0		4.0	face	adult-124.jpg	1.0	49.93617094491856	0.1166773321092478
35.0	17.517375516166794	adult	0.0		45.0	face	adult-55.jpg	0.0	50.052848277027806	0.38330817898531677
35.0	17.509194115089485	pulse	0.0	t		face	adult-55.jpg	0.0	50.0446668759505	
35.0	17.6091346502144	response	0.0	b		face	adult-55.jpg	0.0	50.14460741107541	
35.0	17.90068369515211	ISI	1.0		11.0	face	adult-55.jpg	0.0	50.43615645601312	0.09999486851302208
36.0	18.000678563665133	baseline	0.0		48.0		baseline	0.0	50.536151324526145	0.39999064258518047
36.0	18.200788739708514	pulse	0.0	t			baseline	0.0	50.736261500569526	
36.0	18.400669206250313	ISI	1.0		11.0		baseline	0.0	50.936141967111325	0.09999909444377408
37.0	18.500668300694088	baseline	0.0		48.0		baseline	0.0	51.0361410615551	0.39998551109601976
37.0	18.900653811790107	ISI	1.0		11.0		baseline	0.0	51.43612657265112	0.0999978870349878
37.0	18.905165294247126	pulse	1.0	t			baseline	0.0	51.44063805510814	
38.0	19.000651698825095	baseline	0.0		48.0		baseline	0.0	51.53612445968611	0.39998702035518363
38.0	19.40063871918028	ISI	1.0		11.0		baseline	0.0	51.93611148004129	0.10000452778331237
39.0	19.50064324696359	baseline	0.0		48.0		baseline	0.0	52.0361160078246	0.4000531259807758
39.0	19.6008162082544	pulse	0.0	t			baseline	0.0	52.13628896911541	
39.0	19.900696372944367	ISI	1.0		11.0		baseline	0.0	52.43616913380538	0.09999396295825136
40.0	20.00069033590262	baseline	0.0		48.0		baseline	0.0	52.53616309676363	0.39998792591359233
40.0	20.30079326748819	pulse	0.0	t			baseline	0.0	52.8362660283492	
40.0	20.40067826181621	ISI	1.0		11.0		baseline	0.0	52.93615102267722	0.09999849073938094
41.0	20.50067675255559	baseline	0.0		48.0		baseline	0.0	53.0361495134166	0.3999885296143475
41.0	20.90066528216994	ISI	1.0		11.0		baseline	0.0	53.43613804303095	0.09999728333059466
42.0	21.000662565500534	baseline	0.0		47.0		baseline	0.0	53.536135326361546	0.39998762406321475
42.0	21.00482993648984	pulse	0.0	t			baseline	0.0	53.54030269735085	
42.0	21.40065018956375	ISI	1.0		11.0		baseline	0.0	53.93612295042476	0.09999818888536538
43.0	21.500648378449114	baseline	0.0		48.0		baseline	0.0	54.036121139310126	0.3999891333223786
43.0	21.700763685978018	pulse	0.0	t			baseline	0.0	54.23623644683903	
43.0	21.900637511771492	ISI	1.0		11.0		baseline	0.0	54.436110272632504	0.09999517036703764
44.0	22.00063268213853	baseline	0.0		48.0		baseline	0.0	54.53610544299954	0.39998973702677176
44.0	22.400622419165302	ISI	1.0		11.0		baseline	0.0	54.936095180026314	0.09999215184143395
44.0	22.40514205162981	pulse	1.0	t			baseline	0.0	54.94061481249082	
45.0	22.500614571006736	baseline	0.0		48.0		baseline	0.0	55.03608733186775	0.39999064258518047
45.0	22.900605213591916	ISI	1.0		11.0		baseline	0.0	55.43607797445293	0.10000633889285382
46.0	23.00061155248477	baseline	0.0		48.0		baseline	0.0	55.53608431334578	0.39998037961049704
46.0	23.100732595205045	pulse	0.0	t			baseline	0.0	55.63620535606606	
46.0	23.400591932095267	ISI	1.0		11.0		baseline	0.0	55.93606469295628	0.09999607592180837
47.0	23.500588008017075	baseline	0.0		48.0		baseline	0.0	56.03606076887809	0.39998762406321475
47.0	23.80069305256984	pulse	0.0	t			baseline	0.0	56.33616581343085	
47.0	23.90057563208029	ISI	1.0		3.0		baseline	0.0	56.4360483929413	0.11665167467435822
48.0	24.01722730675465	house	0.0		46.0	place	house-113.jpg	0.0	56.55270006761566	0.3832632030134846
48.0	24.400490509768133	ISI	1.0		7.0	place	house-113.jpg	0.0	56.935963270629145	0.11666495617100736
49.0	24.51715546593914	house	0.0		45.0	place	house-24.jpg	0.0	57.05262822680015	0.3833235734455229
49.0	24.50901119268019	pulse	0.0	t		place	house-24.jpg	0.0	57.0444839535412	
49.0	24.900479039384663	ISI	1.0		7.0	place	house-24.jpg	0.0	57.435951800245675	0.1166866895291605
50.0	25.017165728913824	house	0.0		46.0	place	house-24.jpg	1.0	57.552638489774836	0.3832955011930608
50.0	25.20058136726948	pulse	0.0	t		place	house-24.jpg	1.0	57.73605412813049	
50.0	25.400461230106885	ISI	1.0		5.0	place	house-24.jpg	1.0	57.9359339909679	0.1166815580399998
50.0	25.4530785902316	response	1.0	b		place	house-24.jpg	1.0	57.98855135109261	
51.0	25.517142788146884	house	0.0		46.0	place	house-18.jpg	0.0	58.052615549007896	0.38330304749979405
51.0	25.90044583564668	ISI	1.0		7.0	place	house-18.jpg	0.0	58.43591859650769	0.11669966917179408
51.0	25.936007642896584	pulse	1.0	t		place	house-18.jpg	0.0	58.471480403757596	
52.0	26.017145504818473	house	0.0		46.0	place	house-21.jpg	0.0	58.552618265679484	0.3832876530395879
52.0	26.40043315785806	ISI	1.0		5.0	place	house-21.jpg	0.0	58.93590591871907	0.11666314505782793
53.0	26.51709630291589	house	0.0		46.0	place	house-128.jpg	0.0	59.0525690637769	0.3833214604819659
53.0	26.600588611720013	pulse	0.0	t		place	house-128.jpg	0.0	59.136061372581025	
53.0	26.900417763397854	ISI	1.0		7.0	place	house-128.jpg	0.0	59.435890524258866	0.11668397285757237
54.0	27.017101736255427	house	0.0		46.0	place	house-118.jpg	0.0	59.55257449711644	0.38330093453259906
54.0	27.300516770905233	pulse	0.0	t		place	house-118.jpg	0.0	59.835989531766245	
54.0	27.400402670788026	ISI	1.0		7.0	place	house-118.jpg	0.0	59.93587543164904	0.11668759508393123
55.0	27.517090265871957	house	0.0		46.0	place	house-69.jpg	0.0	60.05256302673297	0.38329761416025576
55.0	27.900387880032213	ISI	1.0		7.0	place	house-69.jpg	0.0	60.435860640893225	0.11668970804748824
56.0	28.0170775880797	house	0.0		45.0	place	house-8.jpg	0.0	60.55255034894071	0.3832973123098782
56.0	28.008406582790485	pulse	0.0	t		place	house-8.jpg	0.0	60.5438793436515	
56.0	28.40037490038958	ISI	1.0		6.0	place	house-8.jpg	0.0	60.93584766125059	0.11668306729916367
57.0	28.517057967688743	house	0.0		46.0	place	house-79.jpg	0.0	61.052530728549755	0.3833036512041872
57.0	28.700479039387574	pulse	0.0	t		place	house-79.jpg	0.0	61.235951800248586	
57.0	28.90036161889293	ISI	1.0		5.0	place	house-79.jpg	0.0	61.43583437975394	0.11668216174439294
58.0	29.017043780637323	house	0.0		46.0	place	house-138.jpg	0.0	61.552516541498335	0.38329761416025576
58.0	29.40034139479758	ISI	1.0		6.0	place	house-138.jpg	0.0	61.93581415565859	0.10835466422213358
58.0	29.442427132886223	pulse	1.0	t		place	house-138.jpg	0.0	61.977899893747235	
59.0	29.508696059019712	house	0.0		47.0	place	house-70.jpg	0.0	62.044168819880724	0.39163507280682097
59.0	29.900331131826533	ISI	1.0		1.0	place	house-70.jpg	0.0	62.435803892687545	0.1083504382877436
60.0	30.008681570114277	word	0.0		47.0	character	word-16.jpg	0.0	62.54415433097529	0.3916722006215423
60.0	30.100472398637066	pulse	0.0	t		character	word-16.jpg	0.0	62.63594515949808	
60.0	30.40035377073582	ISI	1.0		3.0	character	word-16.jpg	0.0	62.93582653159683	0.11667793581727892
61.0	30.517031706553098	word	0.0		46.0	character	word-125.jpg	0.0	63.05250446741411	0.3832779937692976
61.0	30.800420781917637	pulse	0.0	t		character	word-125.jpg	0.0	63.33589354277865	
61.0	30.900309700322396	ISI	1.0		5.0	character	word-125.jpg	0.0	63.43578246118341	0.11670872473405325
62.0	31.01701842505645	word	0.0		46.0	character	word-46.jpg	0.0	63.55249118591746	0.3833012363866146
62.0	31.400319661443064	ISI	1.0		1.0	character	word-46.jpg	0.0	63.935792422304075	0.11669242471907637
63.0	31.51701208616214	word	0.0		45.0	character	word-37.jpg	0.0	64.05248484702315	0.3832879548899655
63.0	31.50398927821152	pulse	0.0	t		character	word-37.jpg	0.0	64.03946203907253	
63.0	31.900300041052105	ISI	1.0		5.0	character	word-37.jpg	0.0	64.43577280191312	0.1166891043430951
64.0	32.0169891453952	word	0.0		46.0	character	word-1.jpg	0.0	64.55246190625621	0.38329882156904205
64.0	32.20040689671805	pulse	0.0	t		character	word-1.jpg	0.0	64.73587965757906	
64.0	32.40028796696424	ISI	1.0		1.0	character	word-1.jpg	0.0	64.93576072782525	0.11668850064233993
65.0	32.51697646760658	word	0.0		46.0	character	word-6.jpg	0.0	65.0524492284676	0.38329369007988134
65.0	32.900270157686464	ISI	1.0		7.0	character	word-6.jpg	0.0	65.43574291854748	0.11669272657309193
65.0	32.939826978337805	pulse	1.0	t		character	word-6.jpg	0.0	65.47529973919882	
66.0	33.016962884259556	word	0.0		46.0	character	word-6.jpg	1.0	65.55243564512057	0.38329338822950376
66.0	33.40025627248906	ISI	1.0		6.0	character	word-6.jpg	1.0	65.93572903335007	0.11668880249271751
66.0	33.46707396585407	response	1.0	b		character	word-6.jpg	1.0	66.00254672671508	
67.0	33.51694507498178	word	0.0		46.0	character	word-62.jpg	0.0	66.05241783584279	0.3832653159770416
67.0	33.60033143367764	pulse	0.0	t		character	word-62.jpg	0.0	66.13580419453865	
67.0	33.90021039095882	ISI	1.0		7.0	character	word-62.jpg	0.0	66.43568315181983	0.11668608582112938
68.0	34.01689647677995	word	0.0		46.0	character	word-135.jpg	0.0	66.55236923764096	0.38330002897782833
68.0	34.30031603921816	pulse	0.0	t		character	word-135.jpg	0.0	66.83578880007917	
68.0	34.400196505757776	ISI	1.0		3.0	character	word-135.jpg	0.0	66.93566926661879	0.1166857839707518
69.0	34.51688228972853	word	0.0		46.0	character	word-99.jpg	0.0	67.05235505058954	0.38329851971866447
69.0	34.90018080944719	ISI	1.0		4.0	character	word-99.jpg	0.0	67.4356535703082	0.1166806524815911
70.0	35.016861461928784	word	0.0		45.0	character	word-24.jpg	0.0	67.5523342227898	0.3833036512041872
70.0	35.01000609741459	pulse	0.0	t		character	word-24.jpg	0.0	67.5454788582756	
70.0	35.40016511313297	ISI	1.0		6.0	character	word-24.jpg	0.0	67.93563787399398	0.11668729323355365
71.0	35.516852406366525	word	0.0		46.0	character	word-128.jpg	0.0	68.05232516722754	0.38329912341941963
71.0	35.700271968802554	pulse	0.0	t		character	word-128.jpg	0.0	68.23574472966357	
71.0	35.900151529785944	ISI	1.0		7.0	character	word-128.jpg	0.0	68.43562429064696	0.11668397285757237
72.0	36.01683550264352	house	0.0		46.0	place	house-104.jpg	0.0	68.55230826350453	0.3832991234230576
72.0	36.400134626066574	ISI	1.0		3.0	place	house-104.jpg	0.0	68.93560738692759	0.11668638767514494
72.0	36.47189484678165	pulse	1.0	t		place	house-104.jpg	0.0	69.00736760764266	
73.0	36.51682101374172	house	0.0		46.0	place	house-14.jpg	0.0	69.05229377460273	0.3833003308282059
73.0	36.900121344569925	ISI	1.0		7.0	place	house-14.jpg	0.0	69.43559410543094	0.1166857839707518
74.0	37.01680712854068	house	0.0		46.0	place	house-16.jpg	0.0	69.55227988940169	0.3832991234230576
74.0	37.10022970949649	pulse	0.0	t		place	house-16.jpg	0.0	69.6357024703575	
74.0	37.400106251963734	ISI	1.0		6.0	place	house-16.jpg	0.0	69.93557901282475	0.11668548211673624
75.0	37.51679173408047	house	0.0		46.0	place	house-111.jpg	0.0	70.05226449494148	0.38329972712745075
75.0	37.800221861340106	pulse	0.0	t		place	house-111.jpg	0.0	70.33569462220112	
75.0	37.90009146120792	ISI	1.0		7.0	place	house-111.jpg	0.0	70.43556422206893	0.11669302841983153
76.0	38.01678448962775	house	0.0		46.0	place	house-111.jpg	1.0	70.55225725048876	0.3832936900835193
76.0	38.40007817971127	ISI	1.0		6.0	place	house-111.jpg	1.0	70.93555094057228	0.11668004877719795
76.0	38.44789095892338	response	1.0	b		place	house-111.jpg	1.0	70.98336371978439	
77.0	38.51675822848847	house	0.0		45.0	place	house-85.jpg	0.0	71.05223098934948	0.38330184009100776
77.0	38.50844612542642	pulse	0.0	t		place	house-85.jpg	0.0	71.04391888628743	
77.0	38.90006006857948	ISI	1.0		6.0	place	house-85.jpg	0.0	71.43553282944049	0.11668699137953809
78.0	39.016747059959016	house	0.0		46.0	place	house-57.jpg	0.0	71.55221982082003	0.38329882156904205
78.0	39.2001793001873	pulse	0.0	t		place	house-57.jpg	0.0	71.73565206104831	
78.0	39.40004588152806	ISI	1.0		6.0	place	house-57.jpg	0.0	71.93551864238907	0.11669302842346951
79.0	39.51673890995153	house	0.0		46.0	place	house-34.jpg	0.0	72.05221167081254	0.3833290067850612
79.0	39.90006791673659	ISI	1.0		6.0	place	house-34.jpg	0.0	72.4355406775976	0.11668397285757237
79.0	39.941166900098324	pulse	1.0	t		place	house-34.jpg	0.0	72.47663966095934	
80.0	40.01675188959416	house	0.0		46.0	place	house-33.jpg	0.0	72.55222465045517	0.38329851971866447
80.0	40.400050409312826	ISI	1.0		6.0	place	house-33.jpg	0.0	72.93552317017384	0.11668668952552252
81.0	40.51673709883835	house	0.0		46.0	place	house-74.jpg	0.0	73.05220985969936	0.38329851971866447
81.0	40.60017296129081	pulse	0.0	t		place	house-74.jpg	0.0	73.13564572215182	
81.0	40.90003561855701	ISI	1.0		6.0	place	house-74.jpg	0.0	73.43550837941802	0.11667552099606837
82.0	41.01671113955308	house	0.0		46.0	place	house-127.jpg	0.0	73.5521839004141	0.38331270676644635
82.0	41.30013885199514	pulse	0.0	t		place	house-127.jpg	0.0	73.83561161285616	
82.0	41.40002384631953	ISI	1.0		7.0	place	house-127.jpg	0.0	73.93549660718054	0.11669242471907637
83.0	41.516716271038604	house	0.0		46.0	place	house-58.jpg	0.0	74.05218903189962	0.3832888604483742
83.0	41.90000513148698	ISI	1.0		7.0	place	house-58.jpg	0.0	74.43547789234799	0.11669483953664894
84.0	42.01669997102363	house	0.0		45.0	place	house-78.jpg	0.0	74.55217273188464	0.3832897660031449
84.0	42.00718377967132	pulse	0.0	t		place	house-78.jpg	0.0	74.54265654053233	
84.0	42.39998973702677	ISI	1.0		7.0	place	house-78.jpg	0.0	74.93546249788778	0.11668367100355681
85.0	42.51667340803033	house	0.0		46.0	place	house-9.jpg	0.0	75.05214616889134	0.3833024437954009
85.0	42.70009719639711	pulse	0.0	t		place	house-9.jpg	0.0	75.23556995725812	
85.0	42.89997585182573	ISI	1.0		7.0	place	house-9.jpg	0.0	75.43544861268674	0.11669695250020595
86.0	43.016672804325935	house	0.0		46.0	place	house-92.jpg	0.0	75.55214556518695	0.38328704933519475
86.0	43.39995985366113	ISI	1.0		4.0	place	house-92.jpg	0.0	75.93543261452214	0.11668729323355365
86.0	43.46030855328354	pulse	1.0	t		place	house-92.jpg	0.0	75.99578131414455	
87.0	43.516647146894684	house	0.0		46.0	place	house-64.jpg	0.0	76.0521199077557	0.38330002897782833
87.0	43.89994717587251	ISI	1.0		6.0	place	house-64.jpg	0.0	76.43541993673352	0.11668729322991567
88.0	44.01663446910243	house	0.0		46.0	place	house-32.jpg	0.0	76.55210722996344	0.3832964067514695
88.0	44.10005252227711	pulse	0.0	t		place	house-32.jpg	0.0	76.63552528313812	
88.0	44.3999308758539	ISI	1.0		6.0	place	house-32.jpg	0.0	76.93540363671491	0.11669483953664894
89.0	44.516625715390546	house	0.0		46.0	place	house-23.jpg	0.0	77.05209847625156	0.38329248267473304
89.0	44.80003350559127	pulse	0.0	t		place	house-23.jpg	0.0	77.33550626645228	
89.0	44.89991819806528	ISI	1.0		6.0	place	house-23.jpg	0.0	77.43539095892629	0.11668608582112938
90.0	45.01660428388641	house	0.0		46.0	place	house-98.jpg	0.0	77.55207704474742	0.38329670860548504
90.0	45.399900992491894	ISI	1.0		6.0	place	house-98.jpg	0.0	77.9353737533529	0.11668125618598424
91.0	45.51658224867788	house	0.0		45.0	place	house-133.jpg	0.0	78.05205500953889	0.38330425490858033
91.0	45.507117975899746	pulse	0.0	t		place	house-133.jpg	0.0	78.04259073676076	
91.0	45.89988650358646	ISI	1.0		7.0	place	house-133.jpg	0.0	78.43535926444747	0.11668548211673624
92.0	46.016571985703195	house	0.0		46.0	place	house-87.jpg	0.0	78.5520447465642	0.38329972712745075
92.0	46.20000784815784	pulse	0.0	t		place	house-87.jpg	0.0	78.73548060901885	
92.0	46.399871712830645	ISI	1.0		7.0	place	house-87.jpg	0.0	78.93534447369166	0.11668850063870195
93.0	46.51656021346935	house	0.0		46.0	place	house-77.jpg	0.0	79.05203297433036	0.3832961049010919
93.0	46.89985631837044	ISI	1.0		4.0	place	house-77.jpg	0.0	79.43532907923145	0.11669061360589694
93.0	46.96037375335072	pulse	1.0	t		place	house-77.jpg	0.0	79.49584651421173	
94.0	47.016546931976336	house	0.0		46.0	place	house-143.jpg	0.0	79.55201969283735	0.3832879548899655
94.0	47.3998348868663	ISI	1.0		6.0	place	house-143.jpg	0.0	79.93530764772731	0.11669604694543523
95.0	47.51653093381174	house	0.0		46.0	place	house-7.jpg	0.0	80.05200369467275	0.3832462992904766
95.0	47.59992182028873	pulse	0.0	t		place	house-7.jpg	0.0	80.13539458114974	
95.0	47.89977723310221	ISI	1.0		5.0	place	house-7.jpg	0.0	80.43524999396323	0.11670329139451496
96.0	48.01648052449673	body	0.0		46.0	body	body-19.jpg	0.0	80.55195328535774	0.38329218082435546
96.0	48.29990069063933	pulse	0.0	t		body	body-19.jpg	0.0	80.83537345150035	
96.0	48.399772705321084	ISI	1.0		3.0	body	body-19.jpg	0.0	80.9352454661821	0.11669483953301096
97.0	48.516467544854095	body	0.0		46.0	body	body-123.jpg	0.0	81.0519403057151	0.3832982178646489
97.0	48.899765762718744	ISI	1.0		6.0	body	body-123.jpg	0.0	81.43523852357976	0.11668457656196551
98.0	49.01645033928071	body	0.0		45.0	body	body-71.jpg	0.0	81.55192310014172	0.3833021419450233
98.0	49.006978218349104	pulse	0.0	t		body	body-71.jpg	0.0	81.54245097921012	
98.0	49.39975248122573	ISI	1.0		7.0	body	body-71.jpg	0.0	81.93522524208674	0.1166857839707518
99.0	49.516438265196484	body	0.0		46.0	body	body-25.jpg	0.0	82.0519110260575	0.3833003308282059
99.0	49.69985812948289	pulse	0.0	t		body	body-25.jpg	0.0	82.2353308903439	
99.0	49.89973859602469	ISI	1.0		7.0	body	body-25.jpg	0.0	82.4352113568857	0.11668336915317923
100.0	50.01642196517787	body	0.0		46.0	body	body-104.jpg	0.0	82.55189472603888	0.38330093453623704
100.0	50.39972289971411	ISI	1.0		5.0	body	body-104.jpg	0.0	82.93519566057512	0.11669483953301096
100.0	50.45089167129481	pulse	1.0	t		body	body-104.jpg	0.0	82.98636443215582	
101.0	50.51641773924712	body	0.0		46.0	body	body-87.jpg	0.0	83.05189050010813	0.38328916230238974
101.0	50.89970690154951	ISI	1.0		6.0	body	body-87.jpg	0.0	83.43517966241052	0.11668638767514494
102.0	51.01639328922465	body	0.0		46.0	body	body-16.jpg	0.0	83.55186605008566	0.38329912341941963
102.0	51.09981888870243	pulse	0.0	t		body	body-16.jpg	0.0	83.63529164956344	
102.0	51.39969241264407	ISI	1.0		6.0	body	body-16.jpg	0.0	83.93516517350508	0.11668397285757237
103.0	51.516376385501644	body	0.0		46.0	body	body-64.jpg	0.0	84.05184914636266	0.38330002897782833
103.0	51.79979806090341	pulse	0.0	t		body	body-64.jpg	0.0	84.33527082176442	
103.0	51.89967641447947	ISI	1.0		6.0	body	body-64.jpg	0.0	84.43514917534048	0.11668548211673624
104.0	52.01636189659621	body	0.0		46.0	body	body-82.jpg	0.0	84.55183465745722	0.3833021419450233
104.0	52.39966403854123	ISI	1.0		6.0	body	body-82.jpg	0.0	84.93513679940224	0.11667582285008393
105.0	52.516339861391316	body	0.0		45.0	body	body-28.jpg	0.0	85.05181262225233	0.3833102919488738
105.0	52.50682729226537	pulse	0.0	t		body	body-28.jpg	0.0	85.04230005312638	
105.0	52.89965015334019	ISI	1.0		6.0	body	body-28.jpg	0.0	85.4351229142012	0.11668216174439294
106.0	53.01633231508458	body	0.0		46.0	body	body-116.jpg	0.0	85.5518050759456	0.3832994252734352
106.0	53.199758518268936	pulse	0.0	t		body	body-116.jpg	0.0	85.73523127912995	
106.0	53.39963174035802	ISI	1.0		6.0	body	body-116.jpg	0.0	85.93510450121903	0.11668819878832437
107.0	53.51631993914634	body	0.0		46.0	body	body-59.jpg	0.0	86.05179270000735	0.38332961048945435
107.0	53.8996495496358	ISI	1.0		11.0	body	body-59.jpg	0.0	86.43512231049681	0.10004799449598067
107.0	53.90410850981789	pulse	1.0	t		body	body-59.jpg	0.0	86.4395812706789	
108.0	53.99969754413178	baseline	0.0		48.0		baseline	0.0	86.53517030499279	0.39997494627095875
108.0	54.399672490402736	ISI	1.0		11.0		baseline	0.0	86.93514525126375	0.09999426480862894
109.0	54.499666755211365	baseline	0.0		48.0		baseline	0.0	87.03513951607238	0.3999924536947219
109.0	54.5997793460665	pulse	0.0	t			baseline	0.0	87.13525210692751	
109.0	54.89965920890609	ISI	1.0		11.0		baseline	0.0	87.4351319697671	0.09999969814816723
110.0	54.999658907054254	baseline	0.0		48.0		baseline	0.0	87.53513166791527	0.3999840018332179
110.0	55.29975972567627	pulse	0.0	t			baseline	0.0	87.83523248653728	
110.0	55.39964290888747	ISI	1.0		11.0		baseline	0.0	87.93511566974848	0.10000030185256037
111.0	55.49964321074003	baseline	0.0		48.0		baseline	0.0	88.03511597160104	0.3999861148004129
111.0	55.899629325540445	ISI	1.0		11.0		baseline	0.0	88.43510208640146	0.09999728333059466
112.0	55.99962660887104	baseline	0.0		47.0		baseline	0.0	88.53509936973205	0.3999873222091992
112.0	56.003888157734764	pulse	0.0	t			baseline	0.0	88.53936091859578	
112.0	56.39961393108024	ISI	1.0		11.0		baseline	0.0	88.93508669194125	0.0999978870349878
113.0	56.49961181811523	baseline	0.0		48.0		baseline	0.0	89.03508457897624	0.3999885296179855
113.0	56.69971867378263	pulse	0.0	t			baseline	0.0	89.23519143464364	
113.0	56.89960034773321	ISI	1.0		11.0		baseline	0.0	89.43507310859422	0.09999667962620151
114.0	56.999597027359414	baseline	0.0		48.0		baseline	0.0	89.53506978822043	0.3999891333223786
114.0	57.39958616068179	ISI	1.0		11.0		baseline	0.0	89.9350589215428	0.10000875371406437
114.0	57.404201782133896	pulse	1.0	t			baseline	0.0	89.93967454299491	
115.0	57.49959491439586	baseline	0.0		48.0		baseline	0.0	90.03506767525687	0.39997826664330205
115.0	57.89957318103916	ISI	1.0		11.0		baseline	0.0	90.43504594190017	0.09999637777218595
116.0	57.999569558811345	baseline	0.0		48.0		baseline	0.0	90.53504231967236	0.3999861148004129
116.0	58.09967882929777	pulse	0.0	t			baseline	0.0	90.63515159015878	
116.0	58.39955567361176	ISI	1.0		11.0		baseline	0.0	90.93502843447277	0.09998641665515606
117.0	58.499542090266914	baseline	0.0		48.0		baseline	0.0	91.03501485112793	0.3999999999978172
117.0	58.79965769964474	pulse	0.0	t			baseline	0.0	91.33513046050575	
117.0	58.89954209026473	ISI	1.0		11.0		baseline	0.0	91.43501485112574	0.09999637777582393
118.0	58.999538468040555	baseline	0.0		48.0		baseline	0.0	91.53501122890157	0.3999849073916266
118.0	59.39952337543218	ISI	1.0		11.0		baseline	0.0	91.9349961362932	0.09999969814816723
119.0	59.49952307358035	baseline	0.0		47.0		baseline	0.0	92.03499583444136	0.3999876240595768
119.0	59.50385193547481	pulse	0.0	t			baseline	0.0	92.03932469633583	
119.0	59.899510697639926	ISI	1.0		7.0		baseline	0.0	92.43498345850094	0.11666857839736622
120.0	60.01617927603729	body	0.0		46.0	body	body-23.jpg	0.0	92.5516520368983	0.38327829562331317
120.0	60.19957740696918	pulse	0.0	t		body	body-23.jpg	0.0	92.7350501678302	
120.0	60.399457571660605	ISI	1.0		4.0	body	body-23.jpg	0.0	92.93493033252162	0.11669242471907637
121.0	60.51614999637968	body	0.0		46.0	body	body-77.jpg	0.0	93.0516227572407	0.3832921808207175
121.0	60.8994421772004	ISI	1.0		5.0	body	body-77.jpg	0.0	93.43491493806141	0.1166891043430951
121.0	60.9484699113782	pulse	1.0	t		body	body-77.jpg	0.0	93.48394267223921	
122.0	61.016131281543494	body	0.0		46.0	body	body-140.jpg	0.0	93.5516040424045	0.38326591968507273
122.0	61.39939720122857	ISI	1.0		7.0	body	body-140.jpg	0.0	93.93486996208958	0.11668518026272068
123.0	61.51608238149129	body	0.0		46.0	body	body-62.jpg	0.0	94.0515551423523	0.38329882157268
123.0	61.599505264301115	pulse	0.0	t		body	body-62.jpg	0.0	94.13497802516213	
123.0	61.89938120306397	ISI	1.0		5.0	body	body-62.jpg	0.0	94.43485396392498	0.11668518026272068
124.0	62.01606638332669	body	0.0		46.0	body	body-55.jpg	0.0	94.5515391441877	0.3833024437954009
124.0	62.299485643910884	pulse	0.0	t		body	body-55.jpg	0.0	94.8349584047719	
124.0	62.39936882712209	ISI	1.0		6.0	body	body-55.jpg	0.0	94.9348415879831	0.11668457656196551
125.0	62.516053403684055	body	0.0		46.0	body	body-86.jpg	0.0	95.05152616454507	0.3833024437954009
125.0	62.899355847479455	ISI	1.0		6.0	body	body-86.jpg	0.0	95.43482860834047	0.11667491729167523
126.0	63.01603076477113	body	0.0		45.0	body	body-130.jpg	0.0	95.55150352563214	0.38330516046698904
126.0	63.00655321049999	pulse	0.0	t		body	body-130.jpg	0.0	95.542025971361	
126.0	63.39933592523812	ISI	1.0		7.0	body	body-130.jpg	0.0	95.93480868609913	0.11668850063870195
127.0	63.51602442587682	body	0.0		46.0	body	body-130.jpg	1.0	96.05149718673783	0.3832973123098782
127.0	63.699447308685194	pulse	0.0	t		body	body-130.jpg	1.0	96.2349200695462	
127.0	63.8993217381867	ISI	1.0		7.0	body	body-130.jpg	1.0	96.43479449904771	0.11668638767514494
128.0	64.01600812586184	body	0.0		46.0	body	body-21.jpg	0.0	96.55148088672286	0.38329882156904205
128.0	64.02444700683554	response	0.0	b		body	body-21.jpg	0.0	96.55991976769656	
128.0	64.39930694743089	ISI	1.0		7.0	body	body-21.jpg	0.0	96.9347797082919	0.1166857839707518
128.0	64.43963892443935	pulse	1.0	t		body	body-21.jpg	0.0	96.97511168530036	
129.0	64.51599273140164	body	0.0		46.0	body	body-27.jpg	0.0	97.05146549226265	0.3832707493165799
129.0	64.89926348071822	ISI	1.0		6.0	body	body-27.jpg	0.0	97.43473624157923	0.11671476177798468
130.0	65.0159782424962	body	0.0		46.0	body	body-96.jpg	0.0	97.55145100335722	0.3832979160142713
130.0	65.09939810678407	pulse	0.0	t		body	body-96.jpg	0.0	97.63487086764508	
130.0	65.39927615851047	ISI	1.0		7.0	body	body-96.jpg	0.0	97.93474891937149	0.11668819878468639
131.0	65.51596435729516	body	0.0		46.0	body	body-93.jpg	0.0	98.05143711815617	0.38330002897782833
131.0	65.79938361787936	pulse	0.0	t		body	body-93.jpg	0.0	98.33485637874037	
131.0	65.89926438627299	ISI	1.0		6.0	body	body-93.jpg	0.0	98.434737147134	0.11668367100719479
132.0	66.01594805728018	house	0.0		46.0	place	house-65.jpg	0.0	98.5514208181412	0.3833024437954009
132.0	66.39925050107558	ISI	1.0		7.0	place	house-65.jpg	0.0	98.9347232619366	0.1166764265508391
133.0	66.51592692762642	house	0.0		45.0	place	house-5.jpg	0.0	99.05139968848744	0.3833063678757753
133.0	66.50644484557415	pulse	0.0	t		place	house-5.jpg	0.0	99.04191760643516	
133.0	66.8992332955022	ISI	1.0		6.0	place	house-5.jpg	0.0	99.43470605636321	0.11668880249271751
134.0	67.01592209799492	house	0.0		46.0	place	house-10.jpg	0.0	99.55139485885593	0.38332749752225936
134.0	67.19937094008856	pulse	0.0	t		place	house-10.jpg	0.0	99.73484370094957	
134.0	67.39924959551718	ISI	1.0		6.0	place	house-10.jpg	0.0	99.93472235637819	0.11668940619711066
135.0	67.51593900171429	house	0.0		46.0	place	house-47.jpg	0.0	100.0514117625753	0.38329580304707633
135.0	67.89923480476136	ISI	1.0		6.0	place	house-47.jpg	0.0	100.43470756562238	0.11668910434673307
135.0	67.9469992876293	pulse	1.0	t		place	house-47.jpg	0.0	100.48247204849031	
136.0	68.0159239091081	house	0.0		46.0	place	house-2.jpg	0.0	100.55139666996911	0.3832970104558626
136.0	68.39922091956396	ISI	1.0		7.0	place	house-2.jpg	0.0	100.93469368042497	0.11668970804748824
137.0	68.51591062761145	house	0.0		46.0	place	house-15.jpg	0.0	101.05138338847246	0.3832951993426832
137.0	68.5993310956037	pulse	0.0	t		place	house-15.jpg	0.0	101.13480385646471	
137.0	68.89920582695413	ISI	1.0		6.0	place	house-15.jpg	0.0	101.43467858781514	0.11668065248522907
138.0	69.01588647943936	house	0.0		46.0	place	house-73.jpg	0.0	101.55135924030037	0.3832804085868702
138.0	69.29927827147549	pulse	0.0	t		place	house-73.jpg	0.0	101.8347510323365	
138.0	69.39916688802623	ISI	1.0		7.0	place	house-73.jpg	0.0	101.93463964888724	0.11668548211673624
139.0	69.51585237014297	house	0.0		46.0	place	house-102.jpg	0.0	102.05132513100398	0.3832936900835193
139.0	69.89914606022649	ISI	1.0		6.0	place	house-102.jpg	0.0	102.4346188210875	0.11667763395962538
140.0	70.01582369418611	house	0.0		45.0	place	house-103.jpg	0.0	102.55129645504712	0.38330848083933233
140.0	70.00622690831005	pulse	0.0	t		place	house-103.jpg	0.0	102.54169966917107	
140.0	70.39913217502544	ISI	1.0		6.0	place	house-103.jpg	0.0	102.93460493588645	0.11668427471158793
141.0	70.51581644973703	house	0.0		47.0	place	house-109.jpg	0.0	103.05128921059804	0.39162692279569455
141.0	70.69923601216942	pulse	0.0	t		place	house-109.jpg	0.0	103.23470877303043	
141.0	70.90744337253273	ISI	1.0		5.0	place	house-109.jpg	0.0	103.44291613339374	0.1166900099015038
142.0	71.02413338243423	house	0.0		46.0	place	house-13.jpg	0.0	103.55960614329524	0.38331663084682077
142.0	71.39921246770245	pulse	0.0	t		place	house-13.jpg	0.0	103.93468522856347	
142.0	71.40745001328105	ISI	1.0		6.0	place	house-13.jpg	0.0	103.94292277414206	0.11667038951054565
143.0	71.5241204027916	house	0.0		46.0	place	house-83.jpg	0.0	104.05959316365261	0.3832964067514695
143.0	71.90741680954307	ISI	1.0		6.0	place	house-83.jpg	0.0	104.44288957040408	0.11668487841598107
144.0	72.02410168795905	car	0.0		46.0	object	car-88.jpg	0.0	104.55957444882006	0.38330093453259906
144.0	72.09919586583419	pulse	0.0	t		object	car-88.jpg	0.0	104.6346686266952	
144.0	72.40740262249165	ISI	1.0		7.0	object	car-88.jpg	0.0	104.94287538335266	0.1166891043430951
145.0	72.52409172683474	car	0.0		46.0	object	car-85.jpg	0.0	105.05956448769575	0.38329580304707633
145.0	72.79917201951321	pulse	0.0	t		object	car-85.jpg	0.0	105.33464478037422	
145.0	72.90738752988182	ISI	1.0		6.0	object	car-85.jpg	0.0	105.44286029074283	0.11669031175551936
146.0	73.02407784163734	car	0.0		46.0	object	car-55.jpg	0.0	105.55955060249835	0.38329580304707633
146.0	73.40737364468441	ISI	1.0		6.0	object	car-55.jpg	0.0	105.94284640554542	0.11668397285757237
146.0	73.49915270097335	pulse	1.0	t		object	car-55.jpg	0.0	106.03462546183437	
147.0	73.52405761754198	car	0.0		46.0	object	car-114.jpg	0.0	106.059530378403	0.3833006326822215
147.0	73.9073582502242	ISI	1.0		6.0	object	car-114.jpg	0.0	106.44283101108522	0.1166857839707518
148.0	74.02404403419496	car	0.0		46.0	object	car-101.jpg	0.0	106.55951679505597	0.3832985197150265
148.0	74.19913157132032	pulse	0.0	t		object	car-101.jpg	0.0	106.73460433218133	
148.0	74.40734255390998	ISI	1.0		6.0	object	car-101.jpg	0.0	106.942815314771	0.11668638767514494
149.0	74.52402894158513	car	0.0		46.0	object	car-128.jpg	0.0	107.05950170244614	0.38330425490858033
149.0	74.89911044167093	pulse	0.0	t		object	car-128.jpg	0.0	107.43458320253194	
149.0	74.90733319649371	ISI	1.0		7.0	object	car-128.jpg	0.0	107.44280595735472	0.11668185989401536
150.0	75.02401505638773	car	0.0		46.0	object	car-128.jpg	1.0	107.55948781724874	0.3833314216026338
150.0	75.40734647799036	ISI	1.0		7.0	object	car-128.jpg	1.0	107.94281923885137	0.1166996691681561
150.0	75.46582942938039	response	1.0	b		object	car-128.jpg	1.0	108.0013021902414	
151.0	75.52404614715851	car	0.0		46.0	object	car-31.jpg	0.0	108.05951890801953	0.38328584192640847
151.0	75.5991207046427	pulse	0.0	t		object	car-31.jpg	0.0	108.13459346550371	
151.0	75.90733198908492	ISI	1.0		7.0	object	car-31.jpg	0.0	108.44280474994594	0.11668759508393123
152.0	76.02401958416885	car	0.0		46.0	object	car-133.jpg	0.0	108.55949234502987	0.3832964067514695
152.0	76.29910078240209	pulse	0.0	t		object	car-133.jpg	0.0	108.8345735432631	
152.0	76.40731599092032	ISI	1.0		4.0	object	car-133.jpg	0.0	108.94278875178134	0.11669182101468323
153.0	76.52400781193501	car	0.0		46.0	object	car-35.jpg	0.0	109.05948057279602	0.38326259930909146
153.0	76.9072704112441	ISI	1.0		6.0	object	car-35.jpg	0.0	109.44274317210511	0.11668789693430881
153.0	76.9990440341935	pulse	1.0	t		object	car-35.jpg	0.0	109.53451679505451	
154.0	77.02395830817841	car	0.0		46.0	object	car-26.jpg	0.0	109.55943106903942	0.3832991234230576
154.0	77.40725743160147	ISI	1.0		7.0	object	car-26.jpg	0.0	109.94273019246248	0.11668336915317923
155.0	77.52394080075464	car	0.0		46.0	object	car-9.jpg	0.0	110.05941356161566	0.38330093453259906
155.0	77.6990289415844	pulse	0.0	t		object	car-9.jpg	0.0	110.23450170244541	
155.0	77.90724173528724	ISI	1.0		6.0	object	car-9.jpg	0.0	110.44271449614826	0.11668608582476736
156.0	78.02392782111201	house	0.0		46.0	place	house-132.jpg	0.0	110.55940058197302	0.3832997271238128
156.0	78.39900569896781	pulse	0.0	t		place	house-132.jpg	0.0	110.93447845982882	
156.0	78.40722754823582	ISI	1.0		3.0	place	house-132.jpg	0.0	110.94270030909684	0.11668518026635866
157.0	78.52391272850218	house	0.0		46.0	place	house-52.jpg	0.0	111.0593854893632	0.38330002897782833
157.0	78.90721275748001	ISI	1.0		6.0	place	house-52.jpg	0.0	111.44268551834102	0.11668608582112938
158.0	79.02389884330114	house	0.0		46.0	place	house-67.jpg	0.0	111.55937160416215	0.38329972712745075
158.0	79.09898819154478	pulse	0.0	t		place	house-67.jpg	0.0	111.63446095240579	
158.0	79.40719857042859	ISI	1.0		7.0	place	house-67.jpg	0.0	111.9426713312896	0.1166848784123431
159.0	79.52388344884093	house	0.0		46.0	place	house-67.jpg	1.0	112.05935620970195	0.3833012363866146
159.0	79.7989643452238	pulse	0.0	t		place	house-67.jpg	1.0	112.3344371060848	
159.0	79.90718468522755	ISI	1.0		6.0	place	house-67.jpg	1.0	112.44265744608856	0.11668638767514494
160.0	80.0238710729027	house	0.0		46.0	place	house-25.jpg	0.0	112.5593438337637	0.3832951993426832
160.0	80.06562447175747	response	0.0	b		place	house-25.jpg	0.0	112.60109723261849	
160.0	80.40716627224538	ISI	1.0		6.0	place	house-25.jpg	0.0	112.94263903310639	0.11668638767514494
160.0	80.49893989519842	pulse	1.0	t		place	house-25.jpg	0.0	113.03441265605943	
161.0	80.52385265992052	house	0.0		46.0	place	house-62.jpg	0.0	113.05932542078153	0.38330093453623704
161.0	80.90715359445676	ISI	1.0		7.0	place	house-62.jpg	0.0	113.44262635531777	0.11668457656196551
162.0	81.02383817101872	house	0.0		46.0	place	house-60.jpg	0.0	113.55931093187974	0.3832997271238128
162.0	81.1989196711038	pulse	0.0	t		place	house-60.jpg	0.0	113.7343924319648	
162.0	81.40713789814254	ISI	1.0		6.0	place	house-60.jpg	0.0	113.94261065900355	0.11669031175188138
163.0	81.52382820989442	house	0.0		46.0	place	house-82.jpg	0.0	114.05930097075543	0.38329338823314174
163.0	81.89888495810374	pulse	0.0	t		place	house-82.jpg	0.0	114.43435771896475	
163.0	81.90712159812756	ISI	1.0		6.0	place	house-82.jpg	0.0	114.44259435898857	0.1166722006200871
164.0	82.02379379874765	house	0.0		46.0	place	house-51.jpg	0.0	114.55926655960866	0.38331572529205005
164.0	82.4071095240397	ISI	1.0		7.0	place	house-51.jpg	0.0	114.94258228490071	0.11668367100355681
165.0	82.52379319504325	house	0.0		46.0	place	house-54.jpg	0.0	115.05926595590427	0.3833320253106649
165.0	82.59891665257965	pulse	0.0	t		place	house-54.jpg	0.0	115.13438941344066	
165.0	82.90712522035392	ISI	1.0		7.0	place	house-54.jpg	0.0	115.44259798121493	0.11668638767150696
166.0	83.02381160802543	house	0.0		46.0	place	house-61.jpg	0.0	115.55928436888644	0.3832973123098782
166.0	83.2988919007039	pulse	0.0	t		place	house-61.jpg	0.0	115.8343646615649	
166.0	83.4071089203353	ISI	1.0		6.0	place	house-61.jpg	0.0	115.94258168119632	0.1166891043430951
167.0	83.5237980246784	house	0.0		46.0	place	house-59.jpg	0.0	116.05927078553941	0.38329761416025576
167.0	83.90709563883865	ISI	1.0		2.0	place	house-59.jpg	0.0	116.44256839969967	0.12502052594936686
167.0	83.99891061553717	pulse	1.0	t		place	house-59.jpg	0.0	116.53438337639818	
168.0	84.03211616478802	adult	0.0		45.0	face	adult-116.jpg	0.0	116.56758892564903	0.3749652869992133
168.0	84.40708145178723	ISI	1.0		6.0	face	adult-116.jpg	0.0	116.94255421264825	0.11667129506895435
169.0	84.52375274685619	adult	0.0		46.0	face	adult-11.jpg	0.0	117.0592255077172	0.3833154234380345
169.0	84.69887499698234	pulse	0.0	t		face	adult-11.jpg	0.0	117.23434775784335	
169.0	84.90706817029422	ISI	1.0		6.0	face	adult-11.jpg	0.0	117.44254093115524	0.11669061360225896
170.0	85.02375878389648	adult	0.0		46.0	face	adult-138.jpg	0.0	117.5592315447575	0.3832939919375349
170.0	85.39883424693835	pulse	0.0	t		face	adult-138.jpg	0.0	117.93430700779936	
170.0	85.40705277583402	ISI	1.0		6.0	face	adult-138.jpg	0.0	117.94252553669503	0.1166697858061525
171.0	85.52372256164017	adult	0.0		46.0	face	adult-109.jpg	0.0	118.05919532250118	0.3833142160292482
171.0	85.90703677766942	ISI	1.0		6.0	face	adult-109.jpg	0.0	118.44250953853043	0.11667491729167523
172.0	86.0237116949611	adult	0.0		46.0	face	adult-106.jpg	0.0	118.5591844558221	0.3833111975072825
172.0	86.09881160802615	pulse	0.0	t		face	adult-106.jpg	0.0	118.63428436888717	
172.0	86.40702289246838	ISI	1.0		7.0	face	adult-106.jpg	0.0	118.94249565332939	0.1166697858061525
173.0	86.52369267827453	adult	0.0		46.0	face	adult-108.jpg	0.0	119.05916543913554	0.38330636787213734
173.0	86.7987868561504	pulse	0.0	t		face	adult-108.jpg	0.0	119.33425961701141	
173.0	86.90699904614667	ISI	1.0		7.0	face	adult-108.jpg	0.0	119.44247180700768	0.11668065248522907
174.0	87.0236796986319	adult	0.0		46.0	face	adult-108.jpg	1.0	119.5591524594929	0.3833187438103778
174.0	87.40699844244227	ISI	1.0		7.0	face	adult-108.jpg	1.0	119.94247120330328	0.12499788703644299
174.0	87.49882247470669	pulse	1.0	t		face	adult-108.jpg	1.0	120.0342952355677	
175.0	87.53199632947872	adult	0.0		45.0	face	adult-14.jpg	0.0	120.06746909033973	0.3749743425651104
175.0	87.70708326289969	response	0.0	b		face	adult-14.jpg	0.0	120.2425560237607	
175.0	87.90697067204383	ISI	1.0		6.0	face	adult-14.jpg	0.0	120.44244343290484	0.1166782376676565
176.0	88.02364890971148	adult	0.0		46.0	face	adult-114.jpg	0.0	120.5591216705725	0.38332749752225936
176.0	88.19874882277509	pulse	0.0	t		face	adult-114.jpg	0.0	120.7342215836361	
176.0	88.40697640723374	ISI	1.0		6.0	face	adult-114.jpg	0.0	120.94244916809475	0.11666012653586222
177.0	88.5236365337696	adult	0.0		46.0	face	adult-80.jpg	0.0	121.05910929463062	0.3833105938065273
177.0	88.89872920238486	pulse	0.0	t		face	adult-80.jpg	0.0	121.43420196324587	
177.0	88.90694712757613	ISI	1.0		6.0	face	adult-80.jpg	0.0	121.44241988843714	0.1166722006200871
178.0	89.02361932819622	adult	0.0		46.0	face	adult-45.jpg	0.0	121.55909208905723	0.38331270677008433
178.0	89.4069320349663	ISI	1.0		6.0	face	adult-45.jpg	0.0	121.94240479582731	0.11667370988288894
179.0	89.52360574484919	adult	0.0		46.0	face	adult-64.jpg	0.0	122.0590785057102	0.3833133104744775
179.0	89.59874037091504	pulse	0.0	t		face	adult-64.jpg	0.0	122.13421313177605	
179.0	89.90691905532367	ISI	1.0		6.0	face	adult-64.jpg	0.0	122.44239181618468	0.11667069136092323
180.0	90.02358974668459	body	0.0		46.0	body	body-108.jpg	0.0	122.5590625075456	0.38331240491606877
180.0	90.29868483011887	pulse	0.0	t		body	body-108.jpg	0.0	122.83415759097988	
180.0	90.40690215160066	ISI	1.0		4.0	body	body-108.jpg	0.0	122.94237491246167	0.11667340803251136
181.0	90.52357555963317	body	0.0		46.0	body	body-100.jpg	0.0	123.05904832049418	0.38331059380288934
181.0	90.90688615343606	ISI	1.0		6.0	body	body-100.jpg	0.0	123.44235891429707	0.12503773152275244
181.0	90.99871833570796	pulse	1.0	t		body	body-100.jpg	0.0	123.53419109656897	
182.0	91.03192388495881	body	0.0		45.0	body	body-57.jpg	0.0	123.56739664581983	0.37494868513022084
182.0	91.40687257008904	ISI	1.0		7.0	body	body-57.jpg	0.0	123.94234533095005	0.11667370988652692
183.0	91.52354627997556	body	0.0		46.0	body	body-114.jpg	0.0	124.05901904083657	0.38331180121167563
183.0	91.6986452874844	pulse	0.0	t		body	body-114.jpg	0.0	124.23411804834541	
183.0	91.90685808118724	ISI	1.0		6.0	body	body-114.jpg	0.0	124.44233084204825	0.11668789693430881
184.0	92.02354597812155	body	0.0		46.0	body	body-14.jpg	0.0	124.55901873898256	0.3832674289442366
184.0	92.39859367076497	pulse	0.0	t		body	body-14.jpg	0.0	124.93406643162598	
184.0	92.40681340706578	ISI	1.0		2.0	body	body-14.jpg	0.0	124.9422861679268	0.11666827654335066
185.0	92.52348168360913	body	0.0		46.0	body	body-91.jpg	0.0	125.05895444447015	0.3833133104744775
185.0	92.90679499408361	ISI	1.0		7.0	body	body-91.jpg	0.0	125.44226775494462	0.1166740117369045
186.0	93.02346900582052	body	0.0		46.0	body	body-97.jpg	0.0	125.55894176668153	0.38331481973364134
186.0	93.0986395522923	pulse	0.0	t		body	body-97.jpg	0.0	125.63411231315331	
186.0	93.40678382555416	ISI	1.0		7.0	body	body-97.jpg	0.0	125.94225658641517	0.11666918210175936
187.0	93.52345300765592	body	0.0		46.0	body	body-97.jpg	1.0	126.05892576851693	0.38331481973364134
187.0	93.79854899664497	pulse	0.0	t		body	body-97.jpg	1.0	126.33402175750598	
187.0	93.90676782738956	ISI	1.0		6.0	body	body-97.jpg	1.0	126.44224058825057	0.11667008765653009
188.0	94.02343791504609	body	0.0		46.0	body	body-83.jpg	0.0	126.5589106759071	0.3833142160292482
188.0	94.20686894786559	response	0.0	b		body	body-83.jpg	0.0	126.7423417087266	
188.0	94.40675213107534	ISI	1.0		6.0	body	body-83.jpg	0.0	126.94222489193635	0.11667461544129765
188.0	94.49850070029788	pulse	1.0	t		body	body-83.jpg	0.0	127.0339734611589	
189.0	94.52342674651663	body	0.0		46.0	body	body-48.jpg	0.0	127.05889950737765	0.3833121030656912
189.0	94.90673884958233	ISI	1.0		6.0	body	body-48.jpg	0.0	127.44221161044334	0.11666948395213694
190.0	95.02340833353446	body	0.0		46.0	body	body-26.jpg	0.0	127.55888109439547	0.3833133104744775
190.0	95.19851035956526	pulse	0.0	t		body	body-26.jpg	0.0	127.73398312042627	
190.0	95.40672164400894	ISI	1.0		4.0	body	body-26.jpg	0.0	127.94219440486995	0.11668819878832437
191.0	95.52340984279726	body	0.0		46.0	body	body-1.jpg	0.0	128.05888260365828	0.3833006326822215
191.0	95.89848772065307	pulse	0.0	t		body	body-1.jpg	0.0	128.43396048151408	
191.0	95.90671047547949	ISI	1.0		6.0	body	body-1.jpg	0.0	128.4421832363405	0.11666827654335066
192.0	96.02337875202284	body	0.0		46.0	body	body-73.jpg	0.0	128.55885151288385	0.38331572528841207
192.0	96.40669447731125	ISI	1.0		6.0	body	body-73.jpg	0.0	128.94216723817226	0.11667008766016806
193.0	96.52336456497142	body	0.0		46.0	body	body-2.jpg	0.0	129.05883732583243	0.38331481973364134
193.0	96.59850854845354	pulse	0.0	t		body	body-2.jpg	0.0	129.13398130931455	
193.0	96.90667938470506	ISI	1.0		6.0	body	body-2.jpg	0.0	129.44215214556607	0.1166688802477438
194.0	97.0233482649528	body	0.0		46.0	body	body-133.jpg	0.0	129.5588210258138	0.3833151215876569
194.0	97.29844968728139	pulse	0.0	t		body	body-133.jpg	0.0	129.8339224481424	
194.0	97.40666338654046	ISI	1.0		6.0	body	body-133.jpg	0.0	129.94213614740147	0.11667008765653009
195.0	97.52333347419699	body	0.0		46.0	body	body-41.jpg	0.0	130.058806235058	0.3833154234380345
195.0	97.90664889763502	ISI	1.0		6.0	body	body-41.jpg	0.0	130.44212165849603	0.11668638767514494
195.0	97.99842614281079	pulse	1.0	t		body	body-41.jpg	0.0	130.5338989036718	
196.0	98.02333528531017	body	0.0		46.0	body	body-141.jpg	0.0	130.55880804617118	0.38333051604786306
196.0	98.40666580135803	ISI	1.0		6.0	body	body-141.jpg	0.0	130.94213856221904	0.11669453768263338
197.0	98.52336033904066	body	0.0		46.0	body	body-99.jpg	0.0	131.05883309990168	0.38328916229875176
197.0	98.69843368911825	pulse	0.0	t		body	body-99.jpg	0.0	131.23390644997926	
197.0	98.90664950133942	ISI	1.0		7.0	body	body-99.jpg	0.0	131.44212226220043	0.11666284320745035
198.0	99.02331234454687	body	0.0		46.0	body	body-20.jpg	0.0	131.55878510540788	0.3833226678907522
198.0	99.39841105020605	pulse	0.0	t		body	body-20.jpg	0.0	131.93388381106706	
198.0	99.40663501243762	ISI	1.0		7.0	body	body-20.jpg	0.0	131.94210777329863	0.11668276544878609
199.0	99.5233177778864	body	0.0		46.0	body	body-76.jpg	0.0	132.05879053874742	0.3833057641677442
199.0	99.90662354205415	ISI	1.0		7.0	body	body-76.jpg	0.0	132.44209630291516	0.11666918210175936
200.0	100.02329272415591	body	0.0		46.0	body	body-10.jpg	0.0	132.55876548501692	0.38331361232485506
200.0	100.0983980705605	pulse	0.0	t		body	body-10.jpg	0.0	132.63387083142152	
200.0	100.40660633648076	ISI	1.0		6.0	body	body-10.jpg	0.0	132.94207909734178	0.11668789693430881
201.0	100.52329423341507	body	0.0		46.0	body	body-11.jpg	0.0	133.05876699427608	0.3832665233894659
201.0	100.7983446427279	pulse	0.0	t		body	body-11.jpg	0.0	133.3338174035889	
201.0	100.90656075680454	ISI	1.0		6.0	body	body-11.jpg	0.0	133.44203351766555	0.11666948395213694
202.0	101.02323024075667	body	0.0		46.0	body	body-13.jpg	0.0	133.5587030016177	0.3833133104744775
202.0	101.40654355123115	ISI	1.0		7.0	body	body-13.jpg	0.0	133.94201631209216	0.11668789693430881
202.0	101.49832109825729	pulse	1.0	t		body	body-13.jpg	0.0	134.0337938591183	
203.0	101.52323144816546	body	0.0		46.0	body	body-134.jpg	0.0	134.05870420902647	0.38329851971866447
203.0	101.90652996788413	ISI	1.0		6.0	body	body-134.jpg	0.0	134.44200272874514	0.11668397285757237
204.0	102.0232139407417	car	0.0		46.0	object	car-69.jpg	0.0	134.5586867016027	0.3832997271238128
204.0	102.19830147786706	pulse	0.0	t		object	car-69.jpg	0.0	134.73377423872807	
204.0	102.40651366786551	ISI	1.0		6.0	object	car-69.jpg	0.0	134.94198642872652	0.1166857839707518
205.0	102.52319945183626	car	0.0		46.0	object	car-6.jpg	0.0	135.05867221269727	0.38330093453623704
205.0	102.89828004636365	pulse	0.0	t		object	car-6.jpg	0.0	135.43375280722466	
205.0	102.9065003863725	ISI	1.0		6.0	object	car-6.jpg	0.0	135.4419731472335	0.11668246359477052
206.0	103.02318284996727	car	0.0		46.0	object	car-34.jpg	0.0	135.55865561082828	0.38330304749979405
206.0	103.40648589746706	ISI	1.0		7.0	object	car-34.jpg	0.0	135.94195865832808	0.11668306729916367
207.0	103.52316896476623	car	0.0		46.0	object	car-71.jpg	0.0	136.05864172562724	0.3832958030507143
207.0	103.59826253894062	pulse	0.0	t		object	car-71.jpg	0.0	136.13373529980163	
207.0	103.90646476781694	ISI	1.0		7.0	object	car-71.jpg	0.0	136.44193752867795	0.11668246359477052
208.0	104.02314723141171	car	0.0		46.0	object	car-65.jpg	0.0	136.55861999227272	0.38327437154293875
208.0	104.29823990002842	pulse	0.0	t		object	car-65.jpg	0.0	136.83371266088943	
208.0	104.40642160295465	ISI	1.0		6.0	object	car-65.jpg	0.0	136.94189436381566	0.11672019511752296
209.0	104.52314179807217	car	0.0		46.0	object	car-89.jpg	0.0	137.0586145589332	0.3832970104558626
209.0	104.90643880852804	ISI	1.0		6.0	object	car-89.jpg	0.0	137.44191156938905	0.11668970805112622
209.0	104.99827189635471	pulse	1.0	t		object	car-89.jpg	0.0	137.53374465721572	
210.0	105.02312851657916	car	0.0		46.0	object	car-44.jpg	0.0	137.55860127744018	0.38331180121167563
210.0	105.40644031779084	ISI	1.0		6.0	object	car-44.jpg	0.0	137.94191307865185	0.11667159691933193
211.0	105.52311191471017	car	0.0		46.0	object	car-11.jpg	0.0	138.05858467557118	0.38329912341941963
211.0	105.69819764072236	pulse	0.0	t		object	car-11.jpg	0.0	138.23367040158337	
211.0	105.90641103812959	ISI	1.0		7.0	object	car-11.jpg	0.0	138.4418837989906	0.11668759508393123
212.0	106.02309863321352	car	0.0		46.0	object	car-38.jpg	0.0	138.55857139407453	0.3832979160142713
212.0	106.39817651107296	pulse	0.0	t		object	car-38.jpg	0.0	138.93364927193397	
212.0	106.4063965492278	ISI	1.0		7.0	object	car-38.jpg	0.0	138.9418693100888	0.11668427470794995
213.0	106.52308082393574	car	0.0		46.0	object	car-60.jpg	0.0	139.05855358479675	0.38333262901142007
213.0	106.90641345294716	ISI	1.0		6.0	object	car-60.jpg	0.0	139.44188621380817	0.11668729322991567
214.0	107.02310074617708	car	0.0		46.0	object	car-123.jpg	0.0	139.5585735070381	0.3832973123098782
214.0	107.09819099997549	pulse	0.0	t		object	car-123.jpg	0.0	139.6336637608365	
214.0	107.40639805848696	ISI	1.0		7.0	object	car-123.jpg	0.0	139.94187081934797	0.11667340803251136
215.0	107.52307146651947	car	0.0		46.0	object	car-58.jpg	0.0	140.05854422738048	0.3833130086204619
215.0	107.79816896476768	pulse	0.0	t		object	car-58.jpg	0.0	140.3336417256287	
215.0	107.90638447513993	ISI	1.0		11.0	object	car-58.jpg	0.0	140.44185723600094	0.10003229818175896
216.0	108.00641677332169	baseline	0.0		48.0		baseline	0.0	140.5418895341827	0.39999305739911506
216.0	108.4064098307208	ISI	1.0		11.0		baseline	0.0	140.94188259158182	0.09999909444377408
216.0	108.49823567409476	pulse	1.0	t			baseline	0.0	141.03370843495577	
217.0	108.50640892516458	baseline	0.0		48.0		baseline	0.0	141.0418816860256	0.3999852092456422
217.0	108.90639413441022	ISI	1.0		11.0		baseline	0.0	141.44186689527123	0.09997645553085022
218.0	109.00637058994107	baseline	0.0		48.0		baseline	0.0	141.54184335080208	0.40000271666940534
218.0	109.19816232402081	pulse	0.0	t			baseline	0.0	141.73363508488183	
218.0	109.40637330661048	ISI	1.0		11.0		baseline	0.0	141.9418460674715	0.09998973702386138
219.0	109.50636304363434	baseline	0.0		48.0		baseline	0.0	142.04183580449535	0.40000150926061906
219.0	109.89814391103937	pulse	0.0	t			baseline	0.0	142.43361667190038	
219.0	109.90636455289496	ISI	1.0		11.0		baseline	0.0	142.44183731375597	0.09999426481226692
220.0	110.00635881770722	baseline	0.0		48.0		baseline	0.0	142.54183157856824	0.3999876240595768
220.0	110.4063464417668	ISI	1.0		11.0		baseline	0.0	142.9418192026278	0.09999939629415167
221.0	110.50634583806095	baseline	0.0		48.0		baseline	0.0	143.04181859892196	0.39998641665442847
221.0	110.59812127212717	pulse	0.0	t			baseline	0.0	143.13359403298819	
221.0	110.90633225471538	ISI	1.0		11.0		baseline	0.0	143.4418050155764	0.10001448890398024
222.0	111.00634674361936	baseline	0.0		48.0		baseline	0.0	143.54181950448037	0.3999673999642255
222.0	111.29809802951058	pulse	0.0	t			baseline	0.0	143.8335707903716	
222.0	111.40631414358359	ISI	1.0		11.0		baseline	0.0	143.9417869044446	0.09998852961871307
223.0	111.5063026732023	baseline	0.0		48.0		baseline	0.0	144.0417754340633	0.40000150926061906
223.0	111.90630418246292	ISI	1.0		11.0		baseline	0.0	144.44177694332393	0.0999870203595492
223.0	111.9980802202299	pulse	1.0	t			baseline	0.0	144.5335529810909	
224.0	112.00629120282247	baseline	0.0		48.0		baseline	0.0	144.54176396368348	0.3999957740670652
224.0	112.40628697688953	ISI	1.0		11.0		baseline	0.0	144.94175973775054	0.09999818888900336
225.0	112.50628516577854	baseline	0.0		48.0		baseline	0.0	145.04175792663955	0.39998973702677176
225.0	112.69806029798929	pulse	0.0	t			baseline	0.0	145.2335330588503	
225.0	112.90627490280531	ISI	1.0		11.0		baseline	0.0	145.44174766366632	0.09999426480862894
226.0	113.00626916761394	baseline	0.0		48.0		baseline	0.0	145.54174192847495	0.3999894351727562
226.0	113.39803614981429	pulse	0.0	t			baseline	0.0	145.9335089106753	
226.0	113.40625860278669	ISI	1.0		11.0		baseline	0.0	145.9417313636477	0.09998279442515923
227.0	113.50624139721185	baseline	0.0		48.0		baseline	0.0	146.04171415807286	0.4000030185234209
227.0	113.90624441573527	ISI	1.0		6.0		baseline	0.0	146.44171717659628	0.11665107096996508
228.0	114.02289548670524	adult	0.0		46.0	face	adult-29.jpg	0.0	146.55836824756625	0.3832964067514695
228.0	114.09798121272252	pulse	0.0	t		face	adult-29.jpg	0.0	146.63345397358353	
228.0	114.40619189345671	ISI	1.0		6.0	face	adult-29.jpg	0.0	146.94166465431772	0.11668699137953809
229.0	114.52287888483625	adult	0.0		46.0	face	adult-57.jpg	0.0	147.05835164569726	0.3832994252734352
229.0	114.79795917751471	pulse	0.0	t		face	adult-57.jpg	0.0	147.33343193837572	
229.0	114.90617831010968	ISI	1.0		6.0	face	adult-57.jpg	0.0	147.4416510709707	0.11668608582476736
230.0	115.02286439593445	adult	0.0		46.0	face	adult-133.jpg	0.0	147.55833715679546	0.3832964067514695
230.0	115.40616080268592	ISI	1.0		5.0	face	adult-133.jpg	0.0	147.94163356354693	0.12502173335451516
230.0	115.49797487382602	pulse	1.0	t		face	adult-133.jpg	0.0	148.03344763468704	
231.0	115.53118253604043	adult	0.0		45.0	face	adult-113.jpg	0.0	148.06665529690144	0.37496438144444255
231.0	115.90614691748488	ISI	1.0		6.0	face	adult-113.jpg	0.0	148.4416196783459	0.11667431359092006
232.0	116.0228212310758	adult	0.0		46.0	face	adult-107.jpg	0.0	148.5582939919368	0.38331059380288934
232.0	116.19791450339471	pulse	0.0	t		face	adult-107.jpg	0.0	148.73338726425573	
232.0	116.40613182487868	ISI	1.0		6.0	face	adult-107.jpg	0.0	148.9416045857397	0.1166848784123431
233.0	116.52281670329103	adult	0.0		46.0	face	adult-7.jpg	0.0	149.05828946415204	0.38329972712745075
233.0	116.89789578855925	pulse	0.0	t		face	adult-7.jpg	0.0	149.43336854942027	
233.0	116.90611643041848	ISI	1.0		7.0	face	adult-7.jpg	0.0	149.4415891912795	0.1166912173066521
234.0	117.02280764772513	adult	0.0		46.0	face	adult-47.jpg	0.0	149.55828040858614	0.383262901163107
234.0	117.40607054888824	ISI	1.0		7.0	face	adult-47.jpg	0.0	149.94154330974925	0.11668518026635866
235.0	117.5227557291546	adult	0.0		46.0	face	adult-65.jpg	0.0	150.0582284900156	0.3832994252734352
235.0	117.59786167926359	pulse	0.0	t		face	adult-65.jpg	0.0	150.1333344401246	
235.0	117.90605515442803	ISI	1.0		7.0	face	adult-65.jpg	0.0	150.44152791528904	0.11668668952552252
236.0	118.02274184395355	adult	0.0		46.0	face	adult-27.jpg	0.0	150.55821460481457	0.38329972712745075
236.0	118.2978239477452	pulse	0.0	t		face	adult-27.jpg	0.0	150.8332967086062	
236.0	118.406041571081	ISI	1.0		7.0	face	adult-27.jpg	0.0	150.94151433194202	0.11668518026635866
237.0	118.52272675134736	adult	0.0		46.0	face	adult-27.jpg	1.0	151.05819951220838	0.3832985197150265
237.0	118.90602527106239	ISI	1.0		7.0	face	adult-27.jpg	1.0	151.4414980319234	0.11668699137953809
237.0	118.99780100697899	pulse	1.0	t		face	adult-27.jpg	1.0	151.53327376784	
238.0	119.02271226244193	adult	0.0		46.0	face	adult-24.jpg	0.0	151.55818502330294	0.38330002897782833
238.0	119.29779255511676	response	0.0	b		face	adult-24.jpg	0.0	151.83326531597777	
238.0	119.40601229141976	ISI	1.0		5.0	face	adult-24.jpg	0.0	151.94148505228077	0.11670751732526696
239.0	119.52271980874502	adult	0.0		46.0	face	adult-94.jpg	0.0	152.05819256960604	0.38327618265975616
239.0	119.69778349955232	pulse	0.0	t		face	adult-94.jpg	0.0	152.23325626041333	
239.0	119.90599599140478	ISI	1.0		7.0	face	adult-94.jpg	0.0	152.4414687522658	0.11668518026635866
240.0	120.02268117167114	house	0.0		46.0	place	house-110.jpg	0.0	152.55815393253215	0.38330214194138534
240.0	120.39776387916208	pulse	0.0	t		place	house-110.jpg	0.0	152.9332366400231	
240.0	120.40598331361252	ISI	1.0		5.0	place	house-110.jpg	0.0	152.94145607447354	0.11668336915317923
241.0	120.5226666827657	house	0.0		46.0	place	house-1.jpg	0.0	153.05813944362671	0.3832982178646489
241.0	120.90596490063035	ISI	1.0		6.0	place	house-1.jpg	0.0	153.44143766149136	0.11668729322991567
242.0	121.02265219386027	house	0.0		46.0	place	house-93.jpg	0.0	153.55812495472128	0.3833090845437255
242.0	121.0977415421039	pulse	0.0	t		place	house-93.jpg	0.0	153.63321430296492	
242.0	121.40596127840399	ISI	1.0		6.0	place	house-93.jpg	0.0	153.941434039265	0.11667491729167523
243.0	121.52263619569567	house	0.0		46.0	place	house-116.jpg	0.0	154.05810895655668	0.38328674748481717
243.0	121.79771980874648	pulse	0.0	t		place	house-116.jpg	0.0	154.3331925696075	
243.0	121.90592294318049	ISI	1.0		3.0	place	house-116.jpg	0.0	154.4413957040415	0.11670057472656481
244.0	122.02262351790705	house	0.0		46.0	place	house-39.jpg	0.0	154.55809627876806	0.38331481973364134
244.0	122.40593833764069	ISI	1.0		6.0	place	house-39.jpg	0.0	154.9414110985017	0.11667159691933193
244.0	122.49769626427951	pulse	1.0	t		place	house-39.jpg	0.0	155.03316902514052	
245.0	122.52260993456002	house	0.0		46.0	place	house-131.jpg	0.0	155.05808269542104	0.38329761416025576
245.0	122.90590754872028	ISI	1.0		6.0	place	house-131.jpg	0.0	155.4413803095813	0.1167081210296601
246.0	123.02261566974994	house	0.0		46.0	place	house-140.jpg	0.0	155.55808843061095	0.38330817898531677
246.0	123.19771588466756	pulse	0.0	t		place	house-140.jpg	0.0	155.73318864552857	
246.0	123.40592384873526	ISI	1.0		7.0	place	house-140.jpg	0.0	155.94139660959627	0.11668608582476736
247.0	123.52260993456002	house	0.0		46.0	place	house-101.jpg	0.0	156.05808269542104	0.38330093453259906
247.0	123.89768781241582	pulse	0.0	t		place	house-101.jpg	0.0	156.43316057327684	
247.0	123.90591086909262	ISI	1.0		6.0	place	house-101.jpg	0.0	156.44138362995363	0.11668638767514494
248.0	124.02259725676777	house	0.0		46.0	place	house-107.jpg	0.0	156.55807001762878	0.3832964067514695
248.0	124.40589366351924	ISI	1.0		5.0	place	house-107.jpg	0.0	156.94136642438025	0.11668699137953809
249.0	124.52258065489877	house	0.0		46.0	place	house-81.jpg	0.0	157.0580534157598	0.38330002897782833
249.0	124.59767151240158	pulse	0.0	t		place	house-81.jpg	0.0	157.1331442732626	
249.0	124.9058806838766	ISI	1.0		7.0	place	house-81.jpg	0.0	157.44135344473762	0.1166900099015038
250.0	125.0225706937781	house	0.0		46.0	place	house-84.jpg	0.0	157.55804345463912	0.3832942937842745
250.0	125.29764977904415	pulse	0.0	t		place	house-84.jpg	0.0	157.83312253990516	
250.0	125.40586498756238	ISI	1.0		6.0	place	house-84.jpg	0.0	157.9413377484234	0.11668759508393123
251.0	125.52255258264631	house	0.0		46.0	place	house-125.jpg	0.0	158.05802534350732	0.3832973123098782
251.0	125.90584989495619	ISI	1.0		11.0	place	house-125.jpg	0.0	158.4413226558172	0.1000362222584954
251.0	125.99766306053789	pulse	1.0	t		place	house-125.jpg	0.0	158.5331358213989	
252.0	126.00588611721469	baseline	0.0		48.0		baseline	0.0	158.5413588780757	0.3999861148004129
252.0	126.4058722320151	ISI	1.0		11.0		baseline	0.0	158.9413449928761	0.09999939629778964
253.0	126.50587162831289	baseline	0.0		48.0		baseline	0.0	159.0413443891739	0.39998671850480605
253.0	126.69764404385205	pulse	0.0	t			baseline	0.0	159.23311680471306	
253.0	126.9058583468177	ISI	1.0		11.0		baseline	0.0	159.4413311076787	0.09999517036339967
254.0	127.0058535171811	baseline	0.0		48.0		baseline	0.0	159.5413262780421	0.3999843036872335
254.0	127.39761204752358	pulse	0.0	t			baseline	0.0	159.9330848083846	
254.0	127.40583782086833	ISI	1.0		11.0		baseline	0.0	159.94131058172934	0.10000452778331237
255.0	127.50584234865164	baseline	0.0		48.0		baseline	0.0	160.04131510951265	0.3999873222091992
255.0	127.90582967086084	ISI	1.0		11.0		baseline	0.0	160.44130243172185	0.0999969814765791
256.0	128.00582665233742	baseline	0.0		48.0		baseline	0.0	160.54129941319843	0.39997705923815374
256.0	128.09760238825402	pulse	0.0	t			baseline	0.0	160.63307514911503	
256.0	128.40580371157557	ISI	1.0		11.0		baseline	0.0	160.94127647243658	0.1000075463016401
257.0	128.5058112578772	baseline	0.0		48.0		baseline	0.0	161.04128401873822	0.39998762406321475
257.0	128.79758337156818	pulse	0.0	t			baseline	0.0	161.3330561324292	
257.0	128.90579888194043	ISI	1.0		11.0		baseline	0.0	161.44127164280144	0.09999879258975852
258.0	129.00579767453019	baseline	0.0		48.0		baseline	0.0	161.5412704353912	0.3999752481249743
258.0	129.40577292265516	ISI	1.0		11.0		baseline	0.0	161.94124568351617	0.10001056482360582
258.0	129.4975664678459	pulse	1.0	t			baseline	0.0	162.0330392287069	
259.0	129.50578348747877	baseline	0.0		48.0		baseline	0.0	162.04125624833978	0.3999882277676079
259.0	129.90577171524637	ISI	1.0		11.0		baseline	0.0	162.44124447610739	0.10000573518846068
260.0	130.00577745043483	baseline	0.0		48.0		baseline	0.0	162.54125021129585	0.3999773610885313
260.0	130.19754020670734	pulse	0.0	t			baseline	0.0	162.73301296756836	
260.0	130.40575481152337	ISI	1.0		11.0		baseline	0.0	162.94122757238438	0.09999698148021707
261.0	130.50575179300358	baseline	0.0		48.0		baseline	0.0	163.0412245538646	0.3999918499903288
261.0	130.89751998261272	pulse	0.0	t			baseline	0.0	163.43299274347373	
261.0	130.9057436429939	ISI	1.0		11.0		baseline	0.0	163.44121640385492	0.09999517036339967
262.0	131.0057388133573	baseline	0.0		48.0		baseline	0.0	163.54121157421832	0.39997373886217247
262.0	131.40571255221948	ISI	1.0		11.0		baseline	0.0	163.9411853130805	0.10001086667762138
263.0	131.5057234188971	baseline	0.0		48.0		baseline	0.0	164.04119617975812	0.3999852092456422
263.0	131.5975000603721	pulse	0.0	t			baseline	0.0	164.13297282123312	
263.0	131.90570862814275	ISI	1.0		11.0		baseline	0.0	164.44118138900376	0.0999978870349878
264.0	132.00570651517774	baseline	0.0		48.0		baseline	0.0	164.54117927603875	0.39998883146836306
264.0	132.2974834585002	pulse	0.0	t			baseline	0.0	164.83295621936122	
264.0	132.4056953466461	ISI	1.0		11.0		baseline	0.0	164.9411681075071	0.09999849073938094
265.0	132.50569383738548	baseline	0.0		48.0		baseline	0.0	165.0411665982465	0.3999861148004129
265.0	132.9056799521859	ISI	1.0		11.0		baseline	0.0	165.4411527130469	0.0999987925933965
265.0	132.99743667141593	pulse	1.0	t			baseline	0.0	165.53290943227694	
266.0	133.0056787447793	baseline	0.0		48.0		baseline	0.0	165.5411515056403	0.3999830962784472
266.0	133.40566184105774	ISI	1.0		11.0		baseline	0.0	165.94113460191875	0.10002294076548424
267.0	133.50568478182322	baseline	0.0		48.0		baseline	0.0	166.04115754268423	0.39996558885104605
267.0	133.6974387843802	pulse	0.0	t			baseline	0.0	166.23291154524122	
267.0	133.90565037067427	ISI	1.0		11.0		baseline	0.0	166.44112313153528	0.09998671850553364
268.0	134.0056370891798	baseline	0.0		48.0		baseline	0.0	166.5411098500408	0.4000009055562259
268.0	134.3974179565812	pulse	0.0	t			baseline	0.0	166.9328907174422	
268.0	134.40563799473603	ISI	1.0		11.0		baseline	0.0	166.94111075559704	0.09998279442515923
269.0	134.50562078916118	baseline	0.0		48.0		baseline	0.0	167.0410935500222	0.4000045277825848
269.0	134.90562531694377	ISI	1.0		11.0		baseline	0.0	167.44109807780478	0.09999547221741523
270.0	135.00562078916118	baseline	0.0		48.0		baseline	0.0	167.5410935500222	0.39998460554124904
270.0	135.09739501581862	pulse	0.0	t			baseline	0.0	167.63286777667963	
270.0	135.40560539470243	ISI	1.0		11.0		baseline	0.0	167.94107815556345	0.09999939629415167
271.0	135.50560479099659	baseline	0.0		48.0		baseline	0.0	168.0410775518576	0.3999870203588216
271.0	135.79738837507102	pulse	0.0	t			baseline	0.0	168.33286113593203	
271.0	135.9055918113554	ISI	1.0		11.0		baseline	0.0	168.44106457221642	0.09999637777218595
272.0	136.0055881891276	baseline	0.0		48.0		baseline	0.0	168.5410609499886	0.39998973702677176
272.0	136.40557792615436	ISI	1.0		11.0		baseline	0.0	168.94105068701538	0.09999909444377408
272.0	136.497367547272	pulse	1.0	t			baseline	0.0	169.03284030813302	
273.0	136.50557702059814	baseline	0.0		48.0		baseline	0.0	169.04104978145915	0.39998460554124904
273.0	136.9055616261394	ISI	1.0		11.0		baseline	0.0	169.4410343870004	0.1000012074073311
274.0	137.00556283354672	baseline	0.0		48.0		baseline	0.0	169.54103559440773	0.3999852092456422
274.0	137.19732589167324	pulse	0.0	t			baseline	0.0	169.73279865253426	
274.0	137.40554804279236	ISI	1.0		11.0		baseline	0.0	169.94102080365337	0.09999879258975852
275.0	137.50554683538212	baseline	0.0		48.0		baseline	0.0	170.04101959624313	0.3999858129500353
275.0	137.89731261017732	pulse	0.0	t			baseline	0.0	170.43278537103834	
275.0	137.90553264833216	ISI	1.0		2.0		baseline	0.0	170.44100540919317	0.11665137282034266
276.0	138.0221840211525	word	0.0		46.0	character	word-73.jpg	0.0	170.5576567820135	0.3833063678757753
276.0	138.40549038902827	ISI	1.0		6.0	character	word-73.jpg	0.0	170.94096314988928	0.11668004877719795
277.0	138.52217043780547	word	0.0		46.0	character	word-36.jpg	0.0	171.05764319866648	0.38329127526594675
277.0	138.59725556011836	pulse	0.0	t		character	word-36.jpg	0.0	171.13272832097937	
277.0	138.90546171307142	ISI	1.0		6.0	character	word-36.jpg	0.0	171.44093447393243	0.11668970804748824
278.0	139.0221514211189	word	0.0		46.0	character	word-139.jpg	0.0	171.55762418197992	0.3833118012153136
278.0	139.29723141194336	pulse	0.0	t		character	word-139.jpg	0.0	171.83270417280437	
278.0	139.40546322233422	ISI	1.0		7.0	character	word-139.jpg	0.0	171.94093598319523	0.11667612470046151
279.0	139.52213934703468	word	0.0		46.0	character	word-139.jpg	1.0	172.0576121078957	0.3832970104558626
279.0	139.90543635749054	ISI	1.0		6.0	character	word-139.jpg	1.0	172.44090911835156	0.12501841298217187
279.0	139.99724378788233	pulse	1.0	t		character	word-139.jpg	1.0	172.53271654874334	
280.0	140.03045477047272	word	0.0		44.0	character	word-28.jpg	0.0	172.56592753133373	0.37496438144444255
280.0	140.0349762140504	response	0.0	b		character	word-28.jpg	0.0	172.57044897491141	
280.0	140.40541915191716	ISI	1.0		6.0	character	word-28.jpg	0.0	172.94089191277817	0.11667884136841167
281.0	140.52209799328557	word	0.0		46.0	character	word-52.jpg	0.0	173.05757075414658	0.3833078771349392
281.0	140.69719730264842	pulse	0.0	t		character	word-52.jpg	0.0	173.23267006350943	
281.0	140.9054058704205	ISI	1.0		4.0	character	word-52.jpg	0.0	173.44087863128152	0.11669302842346951
282.0	141.02209889884398	word	0.0		46.0	character	word-104.jpg	0.0	173.557571659705	0.3832921808207175
282.0	141.39717134336388	pulse	0.0	t		character	word-104.jpg	0.0	173.9326441042249	
282.0	141.4053910796647	ISI	1.0		6.0	character	word-104.jpg	0.0	173.9408638405257	0.11667340803251136
283.0	141.5220644876972	word	0.0		46.0	character	word-98.jpg	0.0	174.05753724855822	0.3833111975072825
283.0	141.9053756852045	ISI	1.0		6.0	character	word-98.jpg	0.0	174.4408484460655	0.11671053584723268
284.0	142.02208622105172	word	0.0		46.0	character	word-117.jpg	0.0	174.55755898191273	0.3832761826561182
284.0	142.09714206370336	pulse	0.0	t		character	word-117.jpg	0.0	174.63261482456437	
284.0	142.40536240370784	ISI	1.0		5.0	character	word-117.jpg	0.0	174.94083516456885	0.1166866895291605
285.0	142.522049093237	word	0.0		46.0	character	word-90.jpg	0.0	175.057521854098	0.3832973123062402
285.0	142.79712998961622	pulse	0.0	t		character	word-90.jpg	0.0	175.33260275047724	
285.0	142.90534640554324	ISI	1.0		6.0	character	word-90.jpg	0.0	175.44081916640425	0.11668819878832437
286.0	143.02203460433157	word	0.0		46.0	character	word-105.jpg	0.0	175.55750736519258	0.3832961049010919
286.0	143.40533070923266	ISI	1.0		4.0	character	word-105.jpg	0.0	175.94080347009367	0.12502112965012202
286.0	143.4971496100079	pulse	1.0	t		character	word-105.jpg	0.0	176.03262237086892	
287.0	143.53035183888278	word	0.0		45.0	character	word-130.jpg	0.0	176.0658245997438	0.37496558885322884
287.0	143.905317427736	ISI	1.0		6.0	character	word-130.jpg	0.0	176.44079018859702	0.11668789693794679
288.0	144.02200532467396	adult	0.0		46.0	face	adult-110.jpg	0.0	176.55747808553497	0.3832955011930608
288.0	144.1970883340182	pulse	0.0	t		face	adult-110.jpg	0.0	176.7325610948792	
288.0	144.40530082586702	ISI	1.0		7.0	face	adult-110.jpg	0.0	176.94077358672803	0.11669242471907637
289.0	144.5219932505861	adult	0.0		46.0	face	adult-104.jpg	0.0	177.0574660114471	0.38328282340444275
289.0	144.89707173214993	pulse	0.0	t		face	adult-104.jpg	0.0	177.43254449301094	
289.0	144.90527607399054	ISI	1.0		6.0	face	adult-104.jpg	0.0	177.44074883485155	0.11669936731777852
290.0	145.0219754413083	adult	0.0		46.0	face	adult-70.jpg	0.0	177.55744820216933	0.38329761416025576
290.0	145.40527305546857	ISI	1.0		5.0	face	adult-70.jpg	0.0	177.94074581632958	0.11669212286506081
291.0	145.52196517833363	adult	0.0		46.0	face	adult-44.jpg	0.0	178.05743793919464	0.38329338822950376
291.0	145.59706177102635	pulse	0.0	t		face	adult-44.jpg	0.0	178.13253453188736	
291.0	145.90525856656313	ISI	1.0		7.0	face	adult-44.jpg	0.0	178.44073132742415	0.11667431359092006
292.0	146.02193288015405	adult	0.0		46.0	face	adult-90.jpg	0.0	178.55740564101507	0.38331059380288934
292.0	146.2970273598803	pulse	0.0	t		face	adult-90.jpg	0.0	178.83250012074132	
292.0	146.40524347395694	ISI	1.0		6.0	face	adult-90.jpg	0.0	178.94071623481796	0.1166942358322558
293.0	146.5219377097892	adult	0.0		46.0	face	adult-143.jpg	0.0	179.0574104706502	0.38328916229875176
293.0	146.90522687208795	ISI	1.0		7.0	face	adult-143.jpg	0.0	179.44069963294896	0.12502112965012202
293.0	146.99704275434124	pulse	1.0	t		face	adult-143.jpg	0.0	179.53251551520225	
294.0	147.03024800173807	adult	0.0		45.0	face	adult-67.jpg	0.0	179.56572076259908	0.3749658907072444
294.0	147.40521389244532	ISI	1.0		5.0	face	adult-67.jpg	0.0	179.94068665330633	0.1166764265508391
295.0	147.52189031899616	adult	0.0		46.0	face	adult-75.jpg	0.0	180.05736307985717	0.3833087826933479
295.0	147.69698660983704	pulse	0.0	t		face	adult-75.jpg	0.0	180.23245937069805	
295.0	147.9051991016895	ISI	1.0		5.0	face	adult-75.jpg	0.0	180.44067186255052	0.11669091545627452
296.0	148.02189001714578	adult	0.0		46.0	face	adult-125.jpg	0.0	180.5573627780068	0.38329580304707633
296.0	148.3969669894468	pulse	0.0	t		face	adult-125.jpg	0.0	180.93243975030782	
296.0	148.40518582019286	ISI	1.0		7.0	face	adult-125.jpg	0.0	180.94065858105387	0.11667461544129765
297.0	148.52186043563415	adult	0.0		46.0	face	adult-59.jpg	0.0	181.05733319649516	0.38330727343054605
297.0	148.9051677090647	ISI	1.0		7.0	face	adult-59.jpg	0.0	181.4406404699257	0.1166806524815911
298.0	149.0218483615463	adult	0.0		46.0	face	adult-127.jpg	0.0	181.5573211224073	0.3832737678385456
298.0	149.09691325976382	pulse	0.0	t		face	adult-127.jpg	0.0	181.63238602062484	
298.0	149.40512212938484	ISI	1.0		7.0	face	adult-127.jpg	0.0	181.94059489024585	0.11668548212037422
299.0	149.5218076115052	adult	0.0		46.0	face	adult-111.jpg	0.0	182.05728037236622	0.3833006326822215
299.0	149.79686526526712	pulse	0.0	t		face	adult-111.jpg	0.0	182.33233802612813	
299.0	149.90510824418743	ISI	1.0		7.0	face	adult-111.jpg	0.0	182.44058100504844	0.11666827654335066
300.0	150.02177652073078	car	0.0		46.0	object	car-43.jpg	0.0	182.5572492815918	0.3833175364052295
300.0	150.405094057136	ISI	1.0		4.0	object	car-43.jpg	0.0	182.94056681799702	0.11668336915317923
300.0	150.49686496341747	pulse	1.0	t		object	car-43.jpg	0.0	183.03233772427848	
301.0	150.5217774262892	car	0.0		46.0	object	car-105.jpg	0.0	183.0572501871502	0.38330093453259906
301.0	150.9050783608218	ISI	1.0		6.0	object	car-105.jpg	0.0	183.4405511216828	0.1166857839707518
302.0	151.02176414479254	car	0.0		46.0	object	car-56.jpg	0.0	183.55723690565355	0.38329882156904205
302.0	151.19684926710397	pulse	0.0	t		object	car-56.jpg	0.0	183.73232202796498	
302.0	151.40506296636158	ISI	1.0		6.0	object	car-56.jpg	0.0	183.9405357272226	0.11668638767514494
303.0	151.52174935403673	car	0.0		46.0	object	car-140.jpg	0.0	184.05722211489774	0.38330093453259906
303.0	151.89683025041813	pulse	0.0	t		object	car-140.jpg	0.0	184.43230301127915	
303.0	151.90505028856933	ISI	1.0		7.0	object	car-140.jpg	0.0	184.44052304943034	0.1166866895291605
304.0	152.0217369780985	car	0.0		46.0	object	car-57.jpg	0.0	184.5572097389595	0.3832982178646489
304.0	152.40503519596314	ISI	1.0		1.0	object	car-57.jpg	0.0	184.94050795682415	0.11668668952552252
305.0	152.52172188548866	car	0.0		46.0	object	car-99.jpg	0.0	185.05719464634967	0.3832951993426832
305.0	152.59681244113744	pulse	0.0	t		object	car-99.jpg	0.0	185.13228520199846	
305.0	152.90501708483134	ISI	1.0		6.0	object	car-99.jpg	0.0	185.44048984569235	0.11668608582476736
306.0	153.0217031706561	car	0.0		46.0	object	car-2.jpg	0.0	185.55717593151712	0.3832997271238128
306.0	153.29678829296608	pulse	0.0	t		object	car-2.jpg	0.0	185.8322610538271	
306.0	153.40500289777992	ISI	1.0		7.0	object	car-2.jpg	0.0	185.94047565864093	0.11668427471158793
307.0	153.5216871724915	car	0.0		46.0	object	car-90.jpg	0.0	186.05715993335252	0.38330214194138534
307.0	153.9049893144329	ISI	1.0		6.0	object	car-90.jpg	0.0	186.4404620752939	0.11668548212037422
307.0	153.99678195406887	pulse	1.0	t		object	car-90.jpg	0.0	186.53225471492988	
308.0	154.02167479655327	car	0.0		46.0	object	car-66.jpg	0.0	186.55714755741428	0.38329882156904205
308.0	154.4049736181223	ISI	1.0		6.0	object	car-66.jpg	0.0	186.94044637898332	0.11668668952552252
309.0	154.52166030764783	car	0.0		46.0	object	car-1.jpg	0.0	187.05713306850885	0.3833027456457785
309.0	154.69674784477684	pulse	0.0	t		object	car-1.jpg	0.0	187.23222060563785	
309.0	154.9049630532936	ISI	1.0		7.0	object	car-1.jpg	0.0	187.44043581415463	0.11667552099970635
310.0	155.02163857429332	car	0.0		46.0	object	car-52.jpg	0.0	187.55711133515433	0.38334681606283993
310.0	155.39675508922664	pulse	0.0	t		object	car-52.jpg	0.0	187.93222785008766	
310.0	155.40498539035616	ISI	1.0		2.0	object	car-52.jpg	0.0	187.94045815121717	0.11667884136841167
311.0	155.52166423172457	car	0.0		46.0	object	car-119.jpg	0.0	188.05713699258558	0.38329248267473304
311.0	155.9049567143993	ISI	1.0		6.0	object	car-119.jpg	0.0	188.44042947526032	0.11669363212786266
312.0	156.02165034652717	car	0.0		46.0	object	car-47.jpg	0.0	188.55712310738818	0.3833121030620532
312.0	156.09673909106277	pulse	0.0	t		object	car-47.jpg	0.0	188.63221185192378	
312.0	156.40496244958922	ISI	1.0		7.0	object	car-47.jpg	0.0	188.94043521045023	0.11667008766016806
313.0	156.5216325372494	car	0.0		46.0	object	car-24.jpg	0.0	189.0571052981104	0.38329791601063334
313.0	156.796714037333	pulse	0.0	t		object	car-24.jpg	0.0	189.33218679819402	
313.0	156.90493045326002	ISI	1.0		7.0	object	car-24.jpg	0.0	189.44040321412103	0.11668729323355365
314.0	157.02161774649358	car	0.0		46.0	object	car-48.jpg	0.0	189.5570905073546	0.3833027456457785
314.0	157.40492049213935	ISI	1.0		6.0	object	car-48.jpg	0.0	189.94039325300037	0.12501660186899244
314.0	157.49673335587067	pulse	1.0	t		object	car-48.jpg	0.0	190.0322061167317	
315.0	157.52993709400835	car	0.0		45.0	object	car-29.jpg	0.0	190.06540985486936	0.37496438144444255
315.0	157.9049014754528	ISI	1.0		7.0	object	car-29.jpg	0.0	190.4403742363138	0.11668970805112622
316.0	158.02159118350392	car	0.0		46.0	object	car-25.jpg	0.0	190.55706394436493	0.38329670860184706
316.0	158.19667509840292	pulse	0.0	t		object	car-25.jpg	0.0	190.73214785926393	
316.0	158.40488789210576	ISI	1.0		7.0	object	car-25.jpg	0.0	190.94036065296677	0.11669151916066767
317.0	158.52157941126643	car	0.0		46.0	object	car-54.jpg	0.0	191.05705217212744	0.3832936900835193
317.0	158.89665336504913	pulse	0.0	t		object	car-54.jpg	0.0	191.43212612591014	
317.0	158.90487310134995	ISI	1.0		6.0	object	car-54.jpg	0.0	191.44034586221096	0.11668729322991567
318.0	159.02156039457986	car	0.0		46.0	object	car-102.jpg	0.0	191.55703315544088	0.38329670860548504
318.0	159.40485710318535	ISI	1.0		7.0	object	car-102.jpg	0.0	191.94032986404636	0.11668850063870195
319.0	159.52154560382405	car	0.0		46.0	object	car-102.jpg	1.0	192.05701836468506	0.38329851971866447
319.0	159.5967052836204	pulse	0.0	t		object	car-102.jpg	1.0	192.1321780444814	
319.0	159.90484412354272	ISI	1.0		7.0	object	car-102.jpg	1.0	192.44031688440373	0.11668638767514494
320.0	160.02153051121786	car	0.0		46.0	object	car-136.jpg	0.0	192.55700327207887	0.38329670860184706
320.0	160.16327757117688	response	0.0	b		object	car-136.jpg	0.0	192.6987503320379	
320.0	160.29659691869165	pulse	0.0	t		object	car-136.jpg	0.0	192.83206967955266	
320.0	160.4048272198197	ISI	1.0		4.0	object	car-136.jpg	0.0	192.94029998068072	0.1166866895291605
321.0	160.52151390934887	car	0.0		46.0	object	car-41.jpg	0.0	193.05698667020988	0.3833006326822215
321.0	160.9048145420311	ISI	1.0		7.0	object	car-41.jpg	0.0	193.4402873028921	0.12500724445271771
321.0	160.99663132983915	pulse	1.0	t		object	car-41.jpg	0.0	193.53210409070016	
322.0	161.0298217864838	car	0.0		45.0	object	car-98.jpg	0.0	193.56529454734482	0.37497615367828985
322.0	161.4047979401621	ISI	1.0		6.0	object	car-98.jpg	0.0	193.9402707010231	0.11668880249271751
323.0	161.52148674265482	car	0.0		46.0	object	car-143.jpg	0.0	194.05695950351583	0.38329580304707633
323.0	161.69657065755382	pulse	0.0	t		object	car-143.jpg	0.0	194.23204341841483	
323.0	161.9047825457019	ISI	1.0		6.0	object	car-143.jpg	0.0	194.4402553065629	0.11669151916066767
324.0	162.02147406486256	body	0.0		46.0	body	body-60.jpg	0.0	194.55694682572357	0.38326380671787774
324.0	162.3965172297212	pulse	0.0	t		body	body-60.jpg	0.0	194.93198999058222	
324.0	162.40473787158044	ISI	1.0		6.0	body	body-60.jpg	0.0	194.94021063244145	0.11669121731029009
325.0	162.52142908889073	body	0.0		46.0	body	body-69.jpg	0.0	195.05690184975174	0.3832918789667019
325.0	162.90472096785743	ISI	1.0		5.0	body	body-69.jpg	0.0	195.44019372871844	0.11667370988652692
326.0	163.02139467774396	body	0.0		46.0	body	body-113.jpg	0.0	195.55686743860497	0.38331391417523264
326.0	163.0965676390333	pulse	0.0	t		body	body-113.jpg	0.0	195.63204039989432	
326.0	163.4047085919192	ISI	1.0		6.0	body	body-113.jpg	0.0	195.9401813527802	0.11668276544878609
327.0	163.52139135736797	body	0.0		46.0	body	body-139.jpg	0.0	196.056864118229	0.38330093453623704
327.0	163.79647798894075	pulse	0.0	t		body	body-139.jpg	0.0	196.33195074980176	
327.0	163.9046922919042	ISI	1.0		7.0	body	body-139.jpg	0.0	196.44016505276522	0.11667521914205281
328.0	164.02136751104626	body	0.0		46.0	body	body-7.jpg	0.0	196.55684027190728	0.3833099901021342
328.0	164.4046775011484	ISI	1.0		6.0	body	body-7.jpg	0.0	196.9401502620094	0.11668638767514494
328.0	164.49646953707997	pulse	1.0	t		body	body-7.jpg	0.0	197.031942297941	
329.0	164.52136388882354	body	0.0		46.0	body	body-56.jpg	0.0	197.05683664968456	0.38330093453259906
329.0	164.90466482335614	ISI	1.0		6.0	body	body-56.jpg	0.0	197.44013758421715	0.11668367100719479
330.0	165.02134849436334	body	0.0		46.0	body	body-105.jpg	0.0	197.55682125522435	0.38330093453259906
330.0	165.1964366351931	pulse	0.0	t		body	body-105.jpg	0.0	197.7319093960541	
330.0	165.40464942889594	ISI	1.0		3.0	body	body-105.jpg	0.0	197.94012218975695	0.11668427470794995
331.0	165.5213337036039	body	0.0		46.0	body	body-128.jpg	0.0	198.0568064644649	0.3832994252734352
331.0	165.8964133925765	pulse	0.0	t		body	body-128.jpg	0.0	198.43188615343752	
331.0	165.90463312887732	ISI	1.0		6.0	body	body-128.jpg	0.0	198.44010588973833	0.11668819878832437
332.0	166.02132132766565	body	0.0		46.0	body	body-49.jpg	0.0	198.55679408852666	0.3832951993426832
332.0	166.40461652700833	ISI	1.0		6.0	body	body-49.jpg	0.0	198.94008928786934	0.11668940619711066
333.0	166.52130593320544	body	0.0		46.0	body	body-42.jpg	0.0	199.05677869406645	0.3832970104558626
333.0	166.5964004129346	pulse	0.0	t		body	body-42.jpg	0.0	199.1318731737956	
333.0	166.9046029436613	ISI	1.0		7.0	body	body-42.jpg	0.0	199.44007570452231	0.11667129506895435
334.0	167.02127423873026	body	0.0		46.0	body	body-111.jpg	0.0	199.55674699959127	0.38331270676644635
334.0	167.29637535920483	pulse	0.0	t		body	body-111.jpg	0.0	199.83184812006584	
334.0	167.4045869454967	ISI	1.0		6.0	body	body-111.jpg	0.0	199.94005970635772	0.11668759508393123
335.0	167.52127454058063	body	0.0		46.0	body	body-90.jpg	0.0	200.05674730144165	0.3832991234230576
335.0	167.9045736640037	ISI	1.0		3.0	body	body-90.jpg	0.0	200.4400464248647	0.12502082779974444
335.0	167.99634909806628	pulse	1.0	t		body	body-90.jpg	0.0	200.5318218589273	
336.0	168.02959449180344	word	0.0		45.0	character	word-70.jpg	0.0	200.56506725266445	0.3749990944415913
336.0	168.40459358624503	ISI	1.0		6.0	character	word-70.jpg	0.0	200.94006634710604	0.11668427471158793
337.0	168.52127786095662	word	0.0		46.0	character	word-80.jpg	0.0	201.05675062181763	0.3832970104558626
337.0	168.69636720919516	pulse	0.0	t		character	word-80.jpg	0.0	201.23183997005617	
337.0	168.90457487141248	ISI	1.0		6.0	character	word-80.jpg	0.0	201.4400476322735	0.11668819878468639
338.0	169.02126307019716	word	0.0		46.0	character	word-34.jpg	0.0	201.55673583105818	0.38326893820703845
338.0	169.396308348023	pulse	0.0	t		character	word-34.jpg	0.0	201.93178110888402	
338.0	169.4045320084042	ISI	1.0		7.0	character	word-34.jpg	0.0	201.94000476926522	0.11668518026635866
339.0	169.52121718867056	word	0.0		46.0	character	word-51.jpg	0.0	202.05668994953157	0.38329912341941963
339.0	169.90451631208998	ISI	1.0		6.0	character	word-51.jpg	0.0	202.439989072951	0.11668548212037422
340.0	170.02120179421036	word	0.0		46.0	character	word-83.jpg	0.0	202.55667455507137	0.3832964067514695
340.0	170.0962947646767	pulse	0.0	t		character	word-83.jpg	0.0	202.63176752553773	
340.0	170.40449820096183	ISI	1.0		6.0	character	word-83.jpg	0.0	202.93997096182284	0.11667672840485466
341.0	170.52117492936668	word	0.0		46.0	character	word-71.jpg	0.0	203.0566476902277	0.38330817898531677
341.0	170.79626910724255	pulse	0.0	t		character	word-71.jpg	0.0	203.33174186810356	
341.0	170.904483108352	ISI	1.0		6.0	character	word-71.jpg	0.0	203.439955869213	0.11668638767514494
342.0	171.02116949602714	word	0.0		46.0	character	word-97.jpg	0.0	203.55664225688815	0.38330093453623704
342.0	171.40447043056338	ISI	1.0		2.0	character	word-97.jpg	0.0	203.9399431914244	0.11668699137953809
342.0	171.49626216464094	pulse	1.0	t		character	word-97.jpg	0.0	204.03173492550195	
343.0	171.52115742194292	word	0.0		46.0	character	word-113.jpg	0.0	204.05663018280393	0.3832942937842745
343.0	171.9044517157272	ISI	1.0		6.0	character	word-113.jpg	0.0	204.4399244765882	0.11668850064233993
344.0	172.02114021636953	word	0.0		46.0	character	word-136.jpg	0.0	204.55661297723054	0.38331180121167563
344.0	172.1962280553489	pulse	0.0	t		character	word-136.jpg	0.0	204.73170081620992	
344.0	172.4044520175812	ISI	1.0		6.0	character	word-136.jpg	0.0	204.93992477844222	0.11667401173326652
345.0	172.52112602931447	word	0.0		46.0	character	word-86.jpg	0.0	205.05659879017549	0.3832991234230576
345.0	172.8962066238455	pulse	0.0	t		character	word-86.jpg	0.0	205.4316793847065	
345.0	172.90442515273753	ISI	1.0		7.0	character	word-86.jpg	0.0	205.43989791359854	0.11668336915317923
346.0	173.0211085218907	word	0.0		46.0	character	word-69.jpg	0.0	205.55658128275172	0.3833139141788706
346.0	173.40442243606958	ISI	1.0		6.0	character	word-69.jpg	0.0	205.9398951969306	0.1166731061784958
347.0	173.52109554224808	word	0.0		46.0	character	word-55.jpg	0.0	206.0565683031091	0.38330093453259906
347.0	173.59619243679117	pulse	0.0	t		character	word-55.jpg	0.0	206.13166519765218	
347.0	173.90439647678068	ISI	1.0		5.0	character	word-55.jpg	0.0	206.4398692376417	0.11669665064982837
348.0	174.0210931274305	car	0.0		46.0	object	car-30.jpg	0.0	206.55656588829152	0.3832879548899655
348.0	174.29616708121102	pulse	0.0	t		object	car-30.jpg	0.0	206.83163984207204	
348.0	174.40438108232047	ISI	1.0		6.0	object	car-30.jpg	0.0	206.93985384318148	0.1166866895291605
349.0	174.52106777184963	car	0.0		46.0	object	car-17.jpg	0.0	207.05654053271064	0.3832994252734352
349.0	174.90436719712307	ISI	1.0		7.0	object	car-17.jpg	0.0	207.43983995798408	0.11667008765653009
349.0	174.99621567940994	pulse	1.0	t		object	car-17.jpg	0.0	207.53168844027095	
350.0	175.0210372847796	car	0.0		46.0	object	car-36.jpg	0.0	207.5565100456406	0.3833459105080692
350.0	175.40438319528766	ISI	1.0		6.0	object	car-36.jpg	0.0	207.93985595614868	0.11668638767514494
351.0	175.5210695829628	car	0.0		46.0	object	car-109.jpg	0.0	208.05654234382382	0.38330002897782833
351.0	175.6961568182378	pulse	0.0	t		object	car-109.jpg	0.0	208.2316295790988	
351.0	175.90436961194064	ISI	1.0		7.0	object	car-109.jpg	0.0	208.43984237280165	0.11668548211673624
352.0	176.02105509405737	car	0.0		46.0	object	car-18.jpg	0.0	208.5565278549184	0.38329851971866447
352.0	176.39613478303	pulse	0.0	t		object	car-18.jpg	0.0	208.931607543891	
352.0	176.40435361377604	ISI	1.0		7.0	object	car-18.jpg	0.0	208.93982637463705	0.1166848784123431
353.0	176.52103849218838	car	0.0		46.0	object	car-4.jpg	0.0	209.0565112530494	0.3833012363866146
353.0	176.904339728575	ISI	1.0		7.0	object	car-4.jpg	0.0	209.439812489436	0.11668789693430881
354.0	177.0210276255093	car	0.0		46.0	object	car-127.jpg	0.0	209.55650038637032	0.3832644104222709
354.0	177.09608467556973	pulse	0.0	t		object	car-127.jpg	0.0	209.63155743643074	
354.0	177.40429203593158	ISI	1.0		5.0	object	car-127.jpg	0.0	209.9397647967926	0.11668699137953809
355.0	177.5209790273111	car	0.0		46.0	object	car-39.jpg	0.0	210.05645178817213	0.38329670860548504
355.0	177.7960656588839	pulse	0.0	t		object	car-39.jpg	0.0	210.3315384197449	
355.0	177.9042757359166	ISI	1.0		6.0	object	car-39.jpg	0.0	210.4397484967776	0.11668699137953809
356.0	178.02096272729614	car	0.0		46.0	object	car-96.jpg	0.0	210.55643548815715	0.3833006326822215
356.0	178.40426335997836	ISI	1.0		6.0	object	car-96.jpg	0.0	210.93973612083937	0.11667159691569395
356.0	178.49604060515412	pulse	1.0	t		object	car-96.jpg	0.0	211.03151336601513	
357.0	178.52093495689405	car	0.0		46.0	object	car-64.jpg	0.0	211.05640771775506	0.38331361232849304
357.0	178.90424856922255	ISI	1.0		6.0	object	car-64.jpg	0.0	211.43972133008356	0.11668518026272068
358.0	179.02093374948527	car	0.0		46.0	object	car-124.jpg	0.0	211.55640651034628	0.3832970104595006
358.0	179.19603034218017	pulse	0.0	t		object	car-124.jpg	0.0	211.73150310304118	
358.0	179.40423075994477	ISI	1.0		7.0	object	car-124.jpg	0.0	211.93970352080578	0.11669000989786582
359.0	179.52092076984263	car	0.0		46.0	object	car-126.jpg	0.0	212.05639353070364	0.38330093453623704
359.0	179.89599985511086	pulse	0.0	t		object	car-126.jpg	0.0	212.43147261597187	
359.0	179.90422170437887	ISI	1.0		4.0	object	car-126.jpg	0.0	212.43969446523988	0.11668185989037738
360.0	180.02090356426925	word	0.0		46.0	character	word-106.jpg	0.0	212.55637632513026	0.3832970104558626
360.0	180.4042005747251	ISI	1.0		2.0	character	word-106.jpg	0.0	212.93967333558612	0.11668789693794679
361.0	180.52088847166306	word	0.0		46.0	character	word-22.jpg	0.0	213.05636123252407	0.3832997271238128
361.0	180.59598717731933	pulse	0.0	t		character	word-22.jpg	0.0	213.13145993818034	
361.0	180.90418819878687	ISI	1.0		6.0	character	word-22.jpg	0.0	213.43966095964788	0.11668638767514494
362.0	181.020874586462	word	0.0		46.0	character	word-94.jpg	0.0	213.55634734732303	0.38329882156904205
362.0	181.29595487913684	pulse	0.0	t		character	word-94.jpg	0.0	213.83142763999786	
362.0	181.40417340803106	ISI	1.0		7.0	character	word-94.jpg	0.0	213.93964616889207	0.11668457656196551
363.0	181.52085798459302	word	0.0		46.0	character	word-9.jpg	0.0	214.05633074545403	0.38330002897782833
363.0	181.90415801357085	ISI	1.0		6.0	character	word-9.jpg	0.0	214.43963077443186	0.11667220062372508
363.0	181.99593827726858	pulse	1.0	t		character	word-9.jpg	0.0	214.5314110381296	
364.0	182.02083021419458	word	0.0		46.0	character	word-4.jpg	0.0	214.5563029750556	0.38331149936129805
364.0	182.40414171355587	ISI	1.0		7.0	character	word-4.jpg	0.0	214.93961447441689	0.11668518026635866
365.0	182.52082689382223	word	0.0		46.0	character	word-33.jpg	0.0	215.05629965468324	0.3833012363866146
365.0	182.6959307309662	pulse	0.0	t		character	word-33.jpg	0.0	215.23140349182722	
365.0	182.90412813020885	ISI	1.0		6.0	character	word-33.jpg	0.0	215.43960089106986	0.11668578396711382
366.0	183.02081391417596	word	0.0		46.0	character	word-119.jpg	0.0	215.55628667503697	0.3833024437954009
366.0	183.3959983458517	pulse	0.0	t		character	word-119.jpg	0.0	215.9314711067127	
366.0	183.40411635797136	ISI	1.0		7.0	character	word-119.jpg	0.0	215.93958911883237	0.11671234696405008
367.0	183.5208287049354	word	0.0		46.0	character	word-35.jpg	0.0	216.05630146579642	0.38327316413415247
367.0	183.90410186906956	ISI	1.0		6.0	character	word-35.jpg	0.0	216.43957462993058	0.11668095433560666
368.0	184.02078282340517	word	0.0		46.0	character	word-29.jpg	0.0	216.55625558426618	0.38332085677757277
368.0	184.09596755692837	pulse	0.0	t		character	word-29.jpg	0.0	216.63144031778938	
368.0	184.40410368018274	ISI	1.0		4.0	character	word-29.jpg	0.0	216.93957644104376	0.11668336915317923
369.0	184.52078704933592	word	0.0		46.0	character	word-112.jpg	0.0	217.05625981019693	0.3832843326636066
369.0	184.7958540605141	pulse	0.0	t		character	word-112.jpg	0.0	217.33132682137511	
369.0	184.90407138199953	ISI	1.0		7.0	character	word-112.jpg	0.0	217.43954414286054	0.1166857839707518
370.0	185.02075716597028	word	0.0		46.0	character	word-112.jpg	1.0	217.5562299268313	0.38329851971866447
370.0	185.40405568568895	ISI	1.0		6.0	character	word-112.jpg	1.0	217.93952844654996	0.11666978580251453
370.0	185.49583111975153	pulse	1.0	t		character	word-112.jpg	1.0	218.03130388061254	
371.0	185.52072547149146	word	0.0		46.0	character	word-57.jpg	0.0	218.05619823235247	0.3833130086240999
371.0	185.7708347419757	response	0.0	b		character	word-57.jpg	0.0	218.30630750283672	
371.0	185.90403848011556	ISI	1.0		7.0	character	word-57.jpg	0.0	218.43951124097657	0.11668548211673624
372.0	186.0207239622323	body	0.0		46.0	body	body-127.jpg	0.0	218.5561967230933	0.3833012363866146
372.0	186.19581481973364	pulse	0.0	t		body	body-127.jpg	0.0	218.73128758059465	
372.0	186.4040251986189	ISI	1.0		6.0	body	body-127.jpg	0.0	218.93949795947992	0.11668427470794995
373.0	186.52070947332686	body	0.0		46.0	body	body-138.jpg	0.0	219.05618223418787	0.38330304749979405
373.0	186.89579278452584	pulse	0.0	t		body	body-138.jpg	0.0	219.43126554538685	
373.0	186.90401252082665	ISI	1.0		6.0	body	body-138.jpg	0.0	219.43948528168767	0.11668276544878609
374.0	187.02069528627544	body	0.0		46.0	body	body-81.jpg	0.0	219.55616804713645	0.38330093453623704
374.0	187.40399622081168	ISI	1.0		7.0	body	body-81.jpg	0.0	219.9394689816727	0.11668427470794995
375.0	187.52068049551963	body	0.0		46.0	body	body-79.jpg	0.0	220.05615325638064	0.3832994252734352
375.0	187.59577527709916	pulse	0.0	t		body	body-79.jpg	0.0	220.13124803796018	
375.0	187.90397992079306	ISI	1.0		3.0	body	body-79.jpg	0.0	220.43945268165407	0.11668910434673307
376.0	188.0206690251398	body	0.0		46.0	body	body-12.jpg	0.0	220.5561417860008	0.38329580304707633
376.0	188.29574871411023	pulse	0.0	t		body	body-12.jpg	0.0	220.83122147497124	
376.0	188.40396482818687	ISI	1.0		5.0	body	body-12.jpg	0.0	220.93943758904788	0.11668759508393123
377.0	188.5206524232708	body	0.0		46.0	body	body-46.jpg	0.0	221.05612518413182	0.38329489748866763
377.0	188.90394732075947	ISI	1.0		6.0	body	body-46.jpg	0.0	221.43942008162048	0.11667461544129765
377.0	188.995728791866	pulse	1.0	t		body	body-46.jpg	0.0	221.531201552727	
378.0	189.02062193620077	body	0.0		46.0	body	body-17.jpg	0.0	221.55609469706178	0.3832822197000496
378.0	189.40390415590082	ISI	1.0		3.0	body	body-17.jpg	0.0	221.93937691676183	0.11674675810718327
379.0	189.520650914008	body	0.0		46.0	body	body-3.jpg	0.0	222.056123674869	0.38330002897782833
379.0	189.69574026225018	pulse	0.0	t		body	body-3.jpg	0.0	222.2312130231112	
379.0	189.90395094298583	ISI	1.0		7.0	body	body-3.jpg	0.0	222.43942370384684	0.11669031175188138
380.0	190.0206412547377	body	0.0		46.0	body	body-50.jpg	0.0	222.55611401559872	0.38330274564941647
380.0	190.39572245297313	pulse	0.0	t		body	body-50.jpg	0.0	222.93119521383414	
380.0	190.40394400038713	ISI	1.0		7.0	body	body-50.jpg	0.0	222.93941676124814	0.11668276544878609
381.0	190.5206267658359	body	0.0		46.0	body	body-47.jpg	0.0	223.05609952669693	0.3832653159770416
381.0	190.90389208181296	ISI	1.0		7.0	body	body-47.jpg	0.0	223.43936484267397	0.1166824635984085
382.0	191.02057454541136	body	0.0		46.0	body	body-47.jpg	1.0	223.55604730627238	0.3833015382369922
382.0	191.0956699306953	pulse	0.0	t		body	body-47.jpg	1.0	223.6311426915563	
382.0	191.40387608364836	ISI	1.0		7.0	body	body-47.jpg	1.0	223.93934884450937	0.11668759508393123
383.0	191.5205636787323	body	0.0		46.0	body	body-9.jpg	0.0	224.0560364395933	0.3832961049010919
383.0	191.60400557822868	response	0.0	b		body	body-9.jpg	0.0	224.1394783390897	
383.0	191.79570283258	pulse	0.0	t		body	body-9.jpg	0.0	224.331175593441	
383.0	191.90385978363338	ISI	1.0		6.0	body	body-9.jpg	0.0	224.4393325444944	0.11668699137953809
384.0	192.02054677501292	adult	0.0		46.0	face	adult-122.jpg	0.0	224.55601953587393	0.38329791601063334
384.0	192.40384469102355	ISI	1.0		6.0	face	adult-122.jpg	0.0	224.93931745188456	0.11668729323355365
384.0	192.49562072879053	pulse	1.0	t		face	adult-122.jpg	0.0	225.03109348965154	
385.0	192.5205319842571	adult	0.0		46.0	face	adult-99.jpg	0.0	225.05600474511812	0.3832997271238128
385.0	192.90383171138092	ISI	1.0		6.0	face	adult-99.jpg	0.0	225.43930447224193	0.11669906546740094
386.0	193.02053077684832	adult	0.0		46.0	face	adult-21.jpg	0.0	225.55600353770933	0.3832855400723929
386.0	193.19560473062666	pulse	0.0	t		face	adult-21.jpg	0.0	225.73107749148767	
386.0	193.4038163169207	ISI	1.0		5.0	face	adult-21.jpg	0.0	225.93928907778172	0.11668548211673624
387.0	193.52050179903745	adult	0.0		46.0	face	adult-73.jpg	0.0	226.05597455989846	0.3833036512041872
387.0	193.8955863176452	pulse	0.0	t		face	adult-73.jpg	0.0	226.43105907850622	
387.0	193.90380545024163	ISI	1.0		6.0	face	adult-73.jpg	0.0	226.43927821110265	0.11668638767514494
388.0	194.02049183791678	adult	0.0		46.0	face	adult-87.jpg	0.0	226.5559645987778	0.3832964067514695
388.0	194.40378824466825	ISI	1.0		7.0	face	adult-87.jpg	0.0	226.93926100552926	0.11668276544878609
389.0	194.52047101011703	adult	0.0		46.0	face	adult-121.jpg	0.0	227.05594377097805	0.38330184009100776
389.0	194.59556156576946	pulse	0.0	t		face	adult-121.jpg	0.0	227.13103432663047	
389.0	194.90377285020804	ISI	1.0		7.0	face	adult-121.jpg	0.0	227.43924561106905	0.1166857839707518
390.0	195.0204586341788	adult	0.0		46.0	face	adult-9.jpg	0.0	227.5559313950398	0.3832970104558626
390.0	195.29553953055802	pulse	0.0	t		face	adult-9.jpg	0.0	227.83101229141903	
390.0	195.40375564463466	ISI	1.0		5.0	face	adult-9.jpg	0.0	227.93922840549567	0.11668699137953809
391.0	195.5204426360142	adult	0.0		46.0	face	adult-115.jpg	0.0	228.0559153968752	0.38330093453623704
391.0	195.90374357055043	ISI	1.0		6.0	face	adult-115.jpg	0.0	228.43921633141144	0.11668397285757237
