trial_nr	onset	event_type	phase	response	nr_frames	face_age	face_sex	face_eth	attractiveness	expression	face_id	sub_id	ses	run	trial_type	catch	rating_type	onset_abs	duration
-1.0	0.07774912144395785	fix	0.0		711													88.17035657213091	5.95732460120098
-1.0	0.7017871772163744	pulse	0.0	t														88.79439462790333	
-1.0	1.4017807174668633	pulse	0.0	t														89.49438816815382	
-1.0	2.101767314996323	pulse	0.0	t														90.19437476568328	
-1.0	2.8017548180978338	pulse	0.0	t														90.89436226878479	
-1.0	3.5017501694933344	pulse	0.0	t														91.59435762018029	
-1.0	4.201751859895012	pulse	0.0	t														92.29435931058197	
-1.0	4.901739061138869	pulse	0.0	t														92.99434651182582	
-1.0	5.601731997674506	pulse	0.0	t														93.69433944836146	
0.0	6.035073722644938	face	0.0		142	20.0	female	white	3.9502586549940313	neutral	091	sub-17	1.0	1.0	091_neutral	0.0		94.1276811733319	1.216518424473179
0.0	6.301724028638091	pulse	0.0	t		20.0	female	white	3.9502586549940313	neutral	091	sub-17	1.0	1.0	091_neutral	0.0		94.39433147932505	
0.0	7.001714550314318	pulse	0.0	t		20.0	female	white	3.9502586549940313	neutral	091	sub-17	1.0	1.0	091_neutral	0.0		95.09432200100127	
0.0	7.251592147118117	fix	1.0		445	20.0	female	white	3.9502586549940313	neutral	091	sub-17	1.0	1.0	091_neutral	0.0		95.34419959780507	3.7666116682394204
0.0	7.7017322391607195	pulse	1.0	t		20.0	female	white	3.9502586549940313	neutral	091	sub-17	1.0	1.0	091_neutral	0.0		95.79433968984767	
0.0	8.401704649389558	pulse	1.0	t		20.0	female	white	3.9502586549940313	neutral	091	sub-17	1.0	1.0	091_neutral	0.0		96.49431210007651	
0.0	9.101708452793446	pulse	1.0	t		20.0	female	white	3.9502586549940313	neutral	091	sub-17	1.0	1.0	091_neutral	0.0		97.1943159034804	
0.0	9.801679957450233	pulse	1.0	t		20.0	female	white	3.9502586549940313	neutral	091	sub-17	1.0	1.0	091_neutral	0.0		97.89428740813719	
0.0	10.502529263570523	pulse	1.0	t		20.0	female	white	3.9502586549940313	neutral	091	sub-17	1.0	1.0	091_neutral	0.0		98.59513671425748	
1.0	11.018203815357538	face	0.0		145	26.0	male	white	2.7966573816155993	neutral	117	sub-17	1.0	1.0	117_neutral	0.0		99.1108112660445	1.2333349029922829
1.0	11.201670056525927	pulse	0.0	t		26.0	male	white	2.7966573816155993	neutral	117	sub-17	1.0	1.0	117_neutral	0.0		99.29427750721288	
1.0	11.90165363548067	pulse	0.0	t		26.0	male	white	2.7966573816155993	neutral	117	sub-17	1.0	1.0	117_neutral	0.0		99.99426108616763	
1.0	12.25153871834982	fix	1.0		444	26.0	male	white	2.7966573816155993	neutral	117	sub-17	1.0	1.0	117_neutral	0.0		100.34414616903678	3.7666288741138487
1.0	12.601652609165285	pulse	1.0	t		26.0	male	white	2.7966573816155993	neutral	117	sub-17	1.0	1.0	117_neutral	0.0		100.69426005985224	
1.0	13.301637395550188	pulse	1.0	t		26.0	male	white	2.7966573816155993	neutral	117	sub-17	1.0	1.0	117_neutral	0.0		101.39424484623714	
1.0	14.001627011653909	pulse	1.0	t		26.0	male	white	2.7966573816155993	neutral	117	sub-17	1.0	1.0	117_neutral	0.0		102.09423446234086	
1.0	14.701632022487502	pulse	1.0	t		26.0	male	white	2.7966573816155993	neutral	117	sub-17	1.0	1.0	117_neutral	0.0		102.79423947317446	
1.0	15.40161680887195	pulse	1.0	t		26.0	male	white	2.7966573816155993	neutral	117	sub-17	1.0	1.0	117_neutral	0.0		103.4942242595589	
2.0	16.01816759246367	face	0.0		145	31.0	female	white	2.1822522881018704	smiling	102	sub-17	1.0	1.0	102_smiling	1.0	attractiveness	104.11077504315062	1.2333125655409276
2.0	16.101619404846133	pulse	0.0	t		31.0	female	white	2.1822522881018704	smiling	102	sub-17	1.0	1.0	102_smiling	1.0	attractiveness	104.19422685553309	
2.0	16.80159966336896	pulse	0.0	t		31.0	female	white	2.1822522881018704	smiling	102	sub-17	1.0	1.0	102_smiling	1.0	attractiveness	104.89420711405592	
2.0	17.251480158004597	fix	1.0		177	31.0	female	white	2.1822522881018704	smiling	102	sub-17	1.0	1.0	102_smiling	1.0	attractiveness	105.34408760869155	1.5083385101884232
2.0	17.501592901761796	pulse	1.0	t		31.0	female	white	2.1822522881018704	smiling	102	sub-17	1.0	1.0	102_smiling	1.0	attractiveness	105.59420035244875	
2.0	18.201581612293467	pulse	1.0	t		31.0	female	white	2.1822522881018704	smiling	102	sub-17	1.0	1.0	102_smiling	1.0	attractiveness	106.29418906298042	
2.0	18.75981866819302	rating	2.0		294	31.0	female	white	2.1822522881018704	smiling	102	sub-17	1.0	1.0	102_smiling	1.0	attractiveness	106.85242611887998	2.4916252669177084
2.0	18.901579076690723	pulse	2.0	t		31.0	female	white	2.1822522881018704	smiling	102	sub-17	1.0	1.0	102_smiling	1.0	attractiveness	106.99418652737768	
2.0	19.60157201322636	pulse	2.0	t		31.0	female	white	2.1822522881018704	smiling	102	sub-17	1.0	1.0	102_smiling	1.0	attractiveness	107.69417946391331	
2.0	20.301562233044933	pulse	2.0	t		31.0	female	white	2.1822522881018704	smiling	102	sub-17	1.0	1.0	102_smiling	1.0	attractiveness	108.39416968373189	
2.0	21.001556678867928	pulse	2.0	t		31.0	female	white	2.1822522881018704	smiling	102	sub-17	1.0	1.0	102_smiling	1.0	attractiveness	109.09416412955488	
2.0	21.25144393511073	fix	3.0		443	31.0	female	white	2.1822522881018704	smiling	102	sub-17	1.0	1.0	102_smiling	1.0	attractiveness	109.34405138579768	3.7582888546380673
2.0	21.68487923589055	response	3.0	n		31.0	female	white	2.1822522881018704	smiling	102	sub-17	1.0	1.0	102_smiling	1.0	attractiveness	109.7774866865775	
2.0	21.701529994669272	pulse	3.0	t		31.0	female	white	2.1822522881018704	smiling	102	sub-17	1.0	1.0	102_smiling	1.0	attractiveness	109.79413744535623	
2.0	22.401550098375537	pulse	3.0	t		31.0	female	white	2.1822522881018704	smiling	102	sub-17	1.0	1.0	102_smiling	1.0	attractiveness	110.49415754906249	
2.0	23.10152914946866	pulse	3.0	t		31.0	female	white	2.1822522881018704	smiling	102	sub-17	1.0	1.0	102_smiling	1.0	attractiveness	111.19413660015562	
2.0	23.801520878574593	pulse	3.0	t		31.0	female	white	2.1822522881018704	smiling	102	sub-17	1.0	1.0	102_smiling	1.0	attractiveness	111.89412832926155	
2.0	24.501499627810063	pulse	3.0	t		31.0	female	white	2.1822522881018704	smiling	102	sub-17	1.0	1.0	102_smiling	1.0	attractiveness	112.59410707849702	
3.0	25.009732789748796	face	0.0		146	26.0	male	white	2.7966573816155993	smiling	117	sub-17	1.0	1.0	117_smiling	0.0		113.10234024043575	1.2416498682996462
3.0	25.201523051948243	pulse	0.0	t		26.0	male	white	2.7966573816155993	smiling	117	sub-17	1.0	1.0	117_smiling	0.0		113.2941305026352	
3.0	25.90149334917487	pulse	0.0	t		26.0	male	white	2.7966573816155993	smiling	117	sub-17	1.0	1.0	117_smiling	0.0		113.99410079986183	
3.0	26.251382658048442	fix	1.0		444	26.0	male	white	2.7966573816155993	smiling	117	sub-17	1.0	1.0	117_smiling	0.0		114.3439901087354	3.766602612515726
3.0	26.601489908000076	pulse	1.0	t		26.0	male	white	2.7966573816155993	smiling	117	sub-17	1.0	1.0	117_smiling	0.0		114.69409735868703	
3.0	27.301476807386734	pulse	1.0	t		26.0	male	white	2.7966573816155993	smiling	117	sub-17	1.0	1.0	117_smiling	0.0		115.39408425807369	
3.0	28.001465819775603	pulse	1.0	t		26.0	male	white	2.7966573816155993	smiling	117	sub-17	1.0	1.0	117_smiling	0.0		116.09407327046256	
3.0	28.701468415749787	pulse	1.0	t		26.0	male	white	2.7966573816155993	smiling	117	sub-17	1.0	1.0	117_smiling	0.0		116.79407586643674	
3.0	29.40145440956394	pulse	1.0	t		26.0	male	white	2.7966573816155993	smiling	117	sub-17	1.0	1.0	117_smiling	0.0		117.4940618602509	
4.0	30.017985270564168	face	0.0		145	27.0	female	white	3.504576203740549	smiling	144	sub-17	1.0	1.0	144_smiling	0.0		118.11059272125112	1.2333336955621235
4.0	30.101448251672082	pulse	0.0	t		27.0	female	white	3.504576203740549	smiling	144	sub-17	1.0	1.0	144_smiling	0.0		118.19405570235904	
4.0	30.80143937706316	pulse	0.0	t		27.0	female	white	3.504576203740549	smiling	144	sub-17	1.0	1.0	144_smiling	0.0		118.89404682775012	
4.0	31.25131896612629	fix	1.0		444	27.0	female	white	3.504576203740549	smiling	144	sub-17	1.0	1.0	144_smiling	0.0		119.34392641681325	3.766602310658527
4.0	31.501431709883946	pulse	1.0	t		27.0	female	white	3.504576203740549	smiling	144	sub-17	1.0	1.0	144_smiling	0.0		119.5940391605709	
4.0	32.201419514842655	pulse	1.0	t		27.0	female	white	3.504576203740549	smiling	144	sub-17	1.0	1.0	144_smiling	0.0		120.29402696552961	
4.0	32.90140701794462	pulse	1.0	t		27.0	female	white	3.504576203740549	smiling	144	sub-17	1.0	1.0	144_smiling	0.0		120.99401446863158	
4.0	33.601412934350265	pulse	1.0	t		27.0	female	white	3.504576203740549	smiling	144	sub-17	1.0	1.0	144_smiling	0.0		121.69402038503722	
4.0	34.301395909590155	pulse	1.0	t		27.0	female	white	3.504576203740549	smiling	144	sub-17	1.0	1.0	144_smiling	0.0		122.39400336027711	
5.0	35.01792127678482	face	0.0		146	21.0	male	black	2.969757262236371	smiling	137	sub-17	1.0	1.0	137_smiling	0.0		123.11052872747177	1.2333397327111015
5.0	35.004157784511335	pulse	0.0	t		21.0	male	black	2.969757262236371	smiling	137	sub-17	1.0	1.0	137_smiling	0.0		123.09676523519829	
5.0	35.70139114024278	pulse	0.0	t		21.0	male	black	2.969757262236371	smiling	137	sub-17	1.0	1.0	137_smiling	0.0		123.79399859092973	
5.0	36.25126100949592	fix	1.0		443	21.0	male	black	2.969757262236371	smiling	137	sub-17	1.0	1.0	137_smiling	0.0		124.34386846018288	3.766608347807505
5.0	36.40137532291237	pulse	1.0	t		21.0	male	black	2.969757262236371	smiling	137	sub-17	1.0	1.0	137_smiling	0.0		124.49398277359933	
5.0	37.101365844588145	pulse	1.0	t		21.0	male	black	2.969757262236371	smiling	137	sub-17	1.0	1.0	137_smiling	0.0		125.1939732952751	
5.0	37.80154170673859	pulse	1.0	t		21.0	male	black	2.969757262236371	smiling	137	sub-17	1.0	1.0	137_smiling	0.0		125.89414915742555	
5.0	38.501348699085156	pulse	1.0	t		21.0	male	black	2.969757262236371	smiling	137	sub-17	1.0	1.0	137_smiling	0.0		126.59395614977211	
5.0	39.20134465419551	pulse	1.0	t		21.0	male	black	2.969757262236371	smiling	137	sub-17	1.0	1.0	137_smiling	0.0		127.29395210488246	
5.0	39.901337590731146	pulse	1.0	t		21.0	male	black	2.969757262236371	smiling	137	sub-17	1.0	1.0	137_smiling	0.0		127.9939450414181	
6.0	40.017869357303425	face	0.0		146	47.0	male	east_asian	2.171110226820533	neutral	024	sub-17	1.0	1.0	024_neutral	0.0		128.11047680799038	1.233340034568755
6.0	40.60133233841134	pulse	0.0	t		47.0	male	east_asian	2.171110226820533	neutral	024	sub-17	1.0	1.0	024_neutral	0.0		128.6939397890983	
6.0	41.25120939187218	fix	1.0		443	47.0	male	east_asian	2.171110226820533	neutral	024	sub-17	1.0	1.0	024_neutral	0.0		129.34381684255914	3.7666186109604496
6.0	41.301322256372714	pulse	1.0	t		47.0	male	east_asian	2.171110226820533	neutral	024	sub-17	1.0	1.0	024_neutral	0.0		129.39392970705967	
6.0	42.00130221303789	pulse	1.0	t		47.0	male	east_asian	2.171110226820533	neutral	024	sub-17	1.0	1.0	024_neutral	0.0		130.09390966372484	
6.0	42.70130209229501	pulse	1.0	t		47.0	male	east_asian	2.171110226820533	neutral	024	sub-17	1.0	1.0	024_neutral	0.0		130.79390954298196	
6.0	43.40129231211358	pulse	1.0	t		47.0	male	east_asian	2.171110226820533	neutral	024	sub-17	1.0	1.0	024_neutral	0.0		131.49389976280054	
6.0	44.10128675793658	pulse	1.0	t		47.0	male	east_asian	2.171110226820533	neutral	024	sub-17	1.0	1.0	024_neutral	0.0		132.19389420862353	
6.0	44.80127456289574	pulse	1.0	t		47.0	male	east_asian	2.171110226820533	neutral	024	sub-17	1.0	1.0	024_neutral	0.0		132.8938820135827	
7.0	45.01782800283263	face	0.0		145	40.0	male	black	2.408674890569041	smiling	061	sub-17	1.0	1.0	061_smiling	0.0		133.11043545351959	1.233319206404758
7.0	45.50129164802729	pulse	0.0	t		40.0	male	black	2.408674890569041	smiling	061	sub-17	1.0	1.0	061_smiling	0.0		133.59389909871425	
7.0	46.20127462326718	pulse	0.0	t		40.0	male	black	2.408674890569041	smiling	061	sub-17	1.0	1.0	061_smiling	0.0		134.29388207395414	
7.0	46.25114720923739	fix	1.0		444	40.0	male	black	2.408674890569041	smiling	061	sub-17	1.0	1.0	061_smiling	0.0		134.34375465992434	3.766608347807505
7.0	46.90125669293457	pulse	1.0	t		40.0	male	black	2.408674890569041	smiling	061	sub-17	1.0	1.0	061_smiling	0.0		134.99386414362152	
7.0	47.601245705323436	pulse	1.0	t		40.0	male	black	2.408674890569041	smiling	061	sub-17	1.0	1.0	061_smiling	0.0		135.6938531560104	
7.0	48.3012338121398	pulse	1.0	t		40.0	male	black	2.408674890569041	smiling	061	sub-17	1.0	1.0	061_smiling	0.0		136.39384126282675	
7.0	49.00123157839471	pulse	1.0	t		40.0	male	black	2.408674890569041	smiling	061	sub-17	1.0	1.0	061_smiling	0.0		137.09383902908166	
7.0	49.70122179821328	pulse	1.0	t		40.0	male	black	2.408674890569041	smiling	061	sub-17	1.0	1.0	061_smiling	0.0		137.79382924890024	
8.0	50.01775555704489	face	0.0		145	40.0	male	white	1.868682849184242	smiling	172	sub-17	1.0	1.0	172_smiling	0.0		138.11036300773185	1.2333330918472711
8.0	50.401224696044665	pulse	0.0	t		40.0	male	white	1.868682849184242	smiling	172	sub-17	1.0	1.0	172_smiling	0.0		138.49383214673162	
8.0	51.10119801184646	pulse	0.0	t		40.0	male	white	1.868682849184242	smiling	172	sub-17	1.0	1.0	172_smiling	0.0		139.19380546253342	
8.0	51.251088648892164	fix	1.0		445	40.0	male	white	1.868682849184242	smiling	172	sub-17	1.0	1.0	172_smiling	0.0		139.34369609957912	3.766606838520147
8.0	51.80119698553108	pulse	1.0	t		40.0	male	white	1.868682849184242	smiling	172	sub-17	1.0	1.0	172_smiling	0.0		139.89380443621803	
8.0	52.50118297934523	pulse	1.0	t		40.0	male	white	1.868682849184242	smiling	172	sub-17	1.0	1.0	172_smiling	0.0		140.5937904300322	
8.0	53.2011825567447	pulse	1.0	t		40.0	male	white	1.868682849184242	smiling	172	sub-17	1.0	1.0	172_smiling	0.0		141.29379000743165	
8.0	53.90117156913357	pulse	1.0	t		40.0	male	white	1.868682849184242	smiling	172	sub-17	1.0	1.0	172_smiling	0.0		141.99377901982052	
8.0	54.60116903353128	pulse	1.0	t		40.0	male	white	1.868682849184242	smiling	172	sub-17	1.0	1.0	172_smiling	0.0		142.69377648421823	
9.0	55.01769548741231	face	0.0		145	19.0	male	white	2.243931555909272	smiling	130	sub-17	1.0	1.0	130_smiling	0.0		143.11030293809927	1.233344562430375
9.0	55.301158649635	pulse	0.0	t		19.0	male	white	2.243931555909272	smiling	130	sub-17	1.0	1.0	130_smiling	0.0		143.39376610032195	
9.0	56.00115218988549	pulse	0.0	t		19.0	male	white	2.243931555909272	smiling	130	sub-17	1.0	1.0	130_smiling	0.0		144.09375964057244	
9.0	56.251040049842686	fix	1.0		444	19.0	male	white	2.243931555909272	smiling	130	sub-17	1.0	1.0	130_smiling	0.0		144.34364750052964	3.7665983865117596
9.0	56.701151465427756	pulse	1.0	t		19.0	male	white	2.243931555909272	smiling	130	sub-17	1.0	1.0	130_smiling	0.0		144.7937589161147	
9.0	57.40113293138029	pulse	1.0	t		19.0	male	white	2.243931555909272	smiling	130	sub-17	1.0	1.0	130_smiling	0.0		145.49374038206724	
9.0	58.101121340054306	pulse	1.0	t		19.0	male	white	2.243931555909272	smiling	130	sub-17	1.0	1.0	130_smiling	0.0		146.19372879074126	
9.0	58.801098881859616	pulse	1.0	t		19.0	male	white	2.243931555909272	smiling	130	sub-17	1.0	1.0	130_smiling	0.0		146.89370633254657	
9.0	59.50111536327677	pulse	1.0	t		19.0	male	white	2.243931555909272	smiling	130	sub-17	1.0	1.0	130_smiling	0.0		147.59372281396372	
10.0	60.017638436354446	face	0.0		145	28.0	male	white	3.9076800636689217	smiling	033	sub-17	1.0	1.0	033_smiling	0.0		148.1102458870414	1.2333346011346293
10.0	60.20110316823548	pulse	0.0	t		28.0	male	white	3.9076800636689217	smiling	033	sub-17	1.0	1.0	033_smiling	0.0		148.29371061892243	
10.0	60.90110999021408	pulse	0.0	t		28.0	male	white	3.9076800636689217	smiling	033	sub-17	1.0	1.0	033_smiling	0.0		148.99371744090104	
10.0	61.250973037489075	fix	1.0		444	28.0	male	white	3.9076800636689217	smiling	033	sub-17	1.0	1.0	033_smiling	0.0		149.34358048817603	3.766607744092653
10.0	61.60109236173912	pulse	1.0	t		28.0	male	white	3.9076800636689217	smiling	033	sub-17	1.0	1.0	033_smiling	0.0		149.69369981242608	
10.0	62.30108710941931	pulse	1.0	t		28.0	male	white	3.9076800636689217	smiling	033	sub-17	1.0	1.0	033_smiling	0.0		150.39369456010627	
10.0	63.001072197661415	pulse	1.0	t		28.0	male	white	3.9076800636689217	smiling	033	sub-17	1.0	1.0	033_smiling	0.0		151.09367964834837	
10.0	63.70105819147557	pulse	1.0	t		28.0	male	white	3.9076800636689217	smiling	033	sub-17	1.0	1.0	033_smiling	0.0		151.79366564216252	
10.0	64.40104448714737	pulse	1.0	t		28.0	male	white	3.9076800636689217	smiling	033	sub-17	1.0	1.0	033_smiling	0.0		152.49365193783433	
11.0	65.01758078158173	face	0.0		145	24.0	female	black	3.0955033824114606	neutral	099	sub-17	1.0	1.0	099_neutral	0.0		153.11018823226868	1.233333997419777
11.0	65.1010350088236	pulse	0.0	t		24.0	female	black	3.0955033824114606	neutral	099	sub-17	1.0	1.0	099_neutral	0.0		153.19364245951056	
11.0	65.80105450881456	pulse	0.0	t		24.0	female	black	3.0955033824114606	neutral	099	sub-17	1.0	1.0	099_neutral	0.0		153.89366195950151	
11.0	66.2509147790015	fix	1.0		444	24.0	female	black	3.0955033824114606	neutral	099	sub-17	1.0	1.0	099_neutral	0.0		154.34352222968846	3.7666065366624935
11.0	66.5010272209015	pulse	1.0	t		24.0	female	black	3.0955033824114606	neutral	099	sub-17	1.0	1.0	099_neutral	0.0		154.59363467158846	
11.0	67.20102015743714	pulse	1.0	t		24.0	female	black	3.0955033824114606	neutral	099	sub-17	1.0	1.0	099_neutral	0.0		155.2936276081241	
11.0	67.90101490511734	pulse	1.0	t		24.0	female	black	3.0955033824114606	neutral	099	sub-17	1.0	1.0	099_neutral	0.0		155.9936223558043	
11.0	68.60100603050842	pulse	1.0	t		24.0	female	black	3.0955033824114606	neutral	099	sub-17	1.0	1.0	099_neutral	0.0		156.69361348119537	
11.0	69.30099987261656	pulse	1.0	t		24.0	female	black	3.0955033824114606	neutral	099	sub-17	1.0	1.0	099_neutral	0.0		157.3936073233035	
12.0	70.017521315664	face	0.0		146	26.0	female	white	4.854755272582572	neutral	027	sub-17	1.0	1.0	027_neutral	0.0		158.11012876635095	1.2333355067071352
12.0	70.00391629855176	pulse	0.0	t		26.0	female	white	4.854755272582572	neutral	027	sub-17	1.0	1.0	027_neutral	0.0		158.0965237492387	
12.0	70.70098182154106	pulse	0.0	t		26.0	female	white	4.854755272582572	neutral	027	sub-17	1.0	1.0	027_neutral	0.0		158.79358927222802	
12.0	71.25085682237113	fix	1.0		443	26.0	female	white	4.854755272582572	neutral	027	sub-17	1.0	1.0	027_neutral	0.0		159.3434642730581	3.7666074422349993
12.0	71.40097053207228	pulse	1.0	t		26.0	female	white	4.854755272582572	neutral	027	sub-17	1.0	1.0	027_neutral	0.0		159.49357798275923	
12.0	72.1009613556057	pulse	1.0	t		26.0	female	white	4.854755272582572	neutral	027	sub-17	1.0	1.0	027_neutral	0.0		160.19356880629266	
12.0	72.80093829369662	pulse	1.0	t		26.0	female	white	4.854755272582572	neutral	027	sub-17	1.0	1.0	027_neutral	0.0		160.89354574438357	
12.0	73.50095477511331	pulse	1.0	t		26.0	female	white	4.854755272582572	neutral	027	sub-17	1.0	1.0	027_neutral	0.0		161.59356222580027	
12.0	74.20093624106585	pulse	1.0	t		26.0	female	white	4.854755272582572	neutral	027	sub-17	1.0	1.0	027_neutral	0.0		162.2935436917528	
12.0	74.90092464973986	pulse	1.0	t		26.0	female	white	4.854755272582572	neutral	027	sub-17	1.0	1.0	027_neutral	0.0		162.99353210042682	
13.0	75.01746426460613	face	0.0		146	24.0	male	white	3.1153999204138483	smiling	012	sub-17	1.0	1.0	012_smiling	0.0		163.1100717152931	1.2333213194065138
13.0	75.6009187937052	pulse	0.0	t		24.0	male	white	3.1153999204138483	smiling	012	sub-17	1.0	1.0	012_smiling	0.0		163.69352624439216	
13.0	76.25078558401265	fix	1.0		443	24.0	male	white	3.1153999204138483	smiling	012	sub-17	1.0	1.0	012_smiling	0.0		164.3433930346996	3.766620723963115
13.0	76.30089844851318	pulse	1.0	t		24.0	male	white	3.1153999204138483	smiling	012	sub-17	1.0	1.0	012_smiling	0.0		164.39350589920014	
13.0	77.0009085909237	pulse	1.0	t		24.0	male	white	3.1153999204138483	smiling	012	sub-17	1.0	1.0	012_smiling	0.0		165.09351604161066	
13.0	77.70088583087181	pulse	1.0	t		24.0	male	white	3.1153999204138483	smiling	012	sub-17	1.0	1.0	012_smiling	0.0		165.79349328155877	
13.0	78.40089506770983	pulse	1.0	t		24.0	male	white	3.1153999204138483	smiling	012	sub-17	1.0	1.0	012_smiling	0.0		166.49350251839678	
13.0	79.10088106152398	pulse	1.0	t		24.0	male	white	3.1153999204138483	smiling	012	sub-17	1.0	1.0	012_smiling	0.0		167.19348851221093	
13.0	79.80091082466879	pulse	1.0	t		24.0	male	white	3.1153999204138483	smiling	012	sub-17	1.0	1.0	012_smiling	0.0		167.89351827535575	
14.0	80.01740630797576	face	0.0		145	28.0	female	white	5.676880222841227	neutral	124	sub-17	1.0	1.0	124_neutral	0.0		168.11001375866272	1.2333282621279977
14.0	80.50087387731674	pulse	0.0	t		28.0	female	white	5.676880222841227	neutral	124	sub-17	1.0	1.0	124_neutral	0.0		168.5934813280037	
14.0	81.20085081540765	pulse	0.0	t		28.0	female	white	5.676880222841227	neutral	124	sub-17	1.0	1.0	124_neutral	0.0		169.2934582660946	
14.0	81.25073457010376	fix	1.0		445	28.0	female	white	5.676880222841227	neutral	124	sub-17	1.0	1.0	124_neutral	0.0		169.34334202079071	3.7666149886713356
14.0	81.90085160023727	pulse	1.0	t		28.0	female	white	5.676880222841227	neutral	124	sub-17	1.0	1.0	124_neutral	0.0		169.99345905092423	
14.0	82.60084031076849	pulse	1.0	t		28.0	female	white	5.676880222841227	neutral	124	sub-17	1.0	1.0	124_neutral	0.0		170.69344776145545	
14.0	83.30083113430192	pulse	1.0	t		28.0	female	white	5.676880222841227	neutral	124	sub-17	1.0	1.0	124_neutral	0.0		171.39343858498887	
14.0	84.00082165597814	pulse	1.0	t		28.0	female	white	5.676880222841227	neutral	124	sub-17	1.0	1.0	124_neutral	0.0		172.0934291066651	
14.0	84.70080312193068	pulse	1.0	t		28.0	female	white	5.676880222841227	neutral	124	sub-17	1.0	1.0	124_neutral	0.0		172.79341057261763	
15.0	85.0173495587751	face	0.0		145	27.0	female	white	3.504576203740549	neutral	144	sub-17	1.0	1.0	144_neutral	0.0		173.10995700946205	1.233335808564334
15.0	85.40083590364975	pulse	0.0	t		27.0	female	white	3.504576203740549	neutral	144	sub-17	1.0	1.0	144_neutral	0.0		173.4934433543367	
15.0	86.1008010692999	pulse	0.0	t		27.0	female	white	3.504576203740549	neutral	144	sub-17	1.0	1.0	144_neutral	0.0		174.19340851998686	
15.0	86.25068536733943	fix	1.0		444	27.0	female	white	3.504576203740549	neutral	144	sub-17	1.0	1.0	144_neutral	0.0		174.34329281802638	3.766609253380011
15.0	86.80078555382715	pulse	1.0	t		27.0	female	white	3.504576203740549	neutral	144	sub-17	1.0	1.0	144_neutral	0.0		174.8933930045141	
15.0	87.50078543308427	pulse	1.0	t		27.0	female	white	3.504576203740549	neutral	144	sub-17	1.0	1.0	144_neutral	0.0		175.59339288377123	
15.0	88.20078531234094	pulse	1.0	t		27.0	female	white	3.504576203740549	neutral	144	sub-17	1.0	1.0	144_neutral	0.0		176.2933927630279	
15.0	88.90076708015113	pulse	1.0	t		27.0	female	white	3.504576203740549	neutral	144	sub-17	1.0	1.0	144_neutral	0.0		176.99337453083808	
15.0	89.60076001668676	pulse	1.0	t		27.0	female	white	3.504576203740549	neutral	144	sub-17	1.0	1.0	144_neutral	0.0		177.69336746737372	
16.0	90.01729462071944	face	0.0		145	25.0	female	west_asian	2.6756864305610826	smiling	064	sub-17	1.0	1.0	064_smiling	0.0		178.1099020714064	1.2333379215665445
16.0	90.3007737813864	pulse	0.0	t		25.0	female	west_asian	2.6756864305610826	smiling	064	sub-17	1.0	1.0	064_smiling	0.0		178.39338123207335	
16.0	91.00076581234998	pulse	0.0	t		25.0	female	west_asian	2.6756864305610826	smiling	064	sub-17	1.0	1.0	064_smiling	0.0		179.09337326303694	
16.0	91.25063254228598	fix	1.0		444	25.0	female	west_asian	2.6756864305610826	smiling	064	sub-17	1.0	1.0	064_smiling	0.0		179.34323999297294	3.766602310658527
16.0	91.70073580771941	pulse	1.0	t		25.0	female	west_asian	2.6756864305610826	smiling	064	sub-17	1.0	1.0	064_smiling	0.0		179.79334325840637	
16.0	92.40072663125284	pulse	1.0	t		25.0	female	west_asian	2.6756864305610826	smiling	064	sub-17	1.0	1.0	064_smiling	0.0		180.4933340819398	
16.0	93.10071413435435	pulse	1.0	t		25.0	female	west_asian	2.6756864305610826	smiling	064	sub-17	1.0	1.0	064_smiling	0.0		181.1933215850413	
16.0	93.80071582475648	pulse	1.0	t		25.0	female	west_asian	2.6756864305610826	smiling	064	sub-17	1.0	1.0	064_smiling	0.0		181.89332327544344	
16.0	94.50069729070901	pulse	1.0	t		25.0	female	west_asian	2.6756864305610826	smiling	064	sub-17	1.0	1.0	064_smiling	0.0		182.59330474139597	
17.0	95.01723485294451	face	0.0		145	36.0	female	white	2.7548746518105847	neutral	011	sub-17	1.0	1.0	011_neutral	1.0	dominance	183.10984230363147	1.2333346011346293
17.0	95.2007004903976	pulse	0.0	t		36.0	female	white	2.7548746518105847	neutral	011	sub-17	1.0	1.0	011_neutral	1.0	dominance	183.29330794108455	
17.0	95.90070459565914	pulse	0.0	t		36.0	female	white	2.7548746518105847	neutral	011	sub-17	1.0	1.0	011_neutral	1.0	dominance	183.9933120463461	
17.0	96.25056945407914	fix	1.0		177	36.0	female	white	2.7548746518105847	neutral	011	sub-17	1.0	1.0	011_neutral	1.0	dominance	184.3431769047661	1.4999755495464342
17.0	96.6011536388014	pulse	1.0	t		36.0	female	white	2.7548746518105847	neutral	011	sub-17	1.0	1.0	011_neutral	1.0	dominance	184.69376108948836	
17.0	97.30069227987497	pulse	1.0	t		36.0	female	white	2.7548746518105847	neutral	011	sub-17	1.0	1.0	011_neutral	1.0	dominance	185.39329973056192	
17.0	97.75054500362558	rating	2.0		294	36.0	female	white	2.7548746518105847	neutral	011	sub-17	1.0	1.0	011_neutral	1.0	dominance	185.84315245431253	2.499977360690991
17.0	98.00066770867898	pulse	2.0	t		36.0	female	white	2.7548746518105847	neutral	011	sub-17	1.0	1.0	011_neutral	1.0	dominance	186.09327515936593	
17.0	98.53714204989001	response	2.0	n		36.0	female	white	2.7548746518105847	neutral	011	sub-17	1.0	1.0	011_neutral	1.0	dominance	186.62974950057696	
17.0	98.70065279692062	pulse	2.0	t		36.0	female	white	2.7548746518105847	neutral	011	sub-17	1.0	1.0	011_neutral	1.0	dominance	186.79326024760758	
17.0	99.40064573345626	pulse	2.0	t		36.0	female	white	2.7548746518105847	neutral	011	sub-17	1.0	1.0	011_neutral	1.0	dominance	187.4932531841432	
17.0	100.10063776441984	pulse	2.0	t		36.0	female	white	2.7548746518105847	neutral	011	sub-17	1.0	1.0	011_neutral	1.0	dominance	188.1932452151068	
17.0	100.25052236431657	fix	3.0		444	36.0	female	white	2.7548746518105847	neutral	011	sub-17	1.0	1.0	011_neutral	1.0	dominance	188.34312981500352	3.7666044236607377
17.0	100.80063100281313	pulse	3.0	t		36.0	female	white	2.7548746518105847	neutral	011	sub-17	1.0	1.0	011_neutral	1.0	dominance	188.8932384535001	
17.0	101.5006191096295	pulse	3.0	t		36.0	female	white	2.7548746518105847	neutral	011	sub-17	1.0	1.0	011_neutral	1.0	dominance	189.59322656031645	
17.0	102.2006168758844	pulse	3.0	t		36.0	female	white	2.7548746518105847	neutral	011	sub-17	1.0	1.0	011_neutral	1.0	dominance	190.29322432657136	
17.0	102.90061101984975	pulse	3.0	t		36.0	female	white	2.7548746518105847	neutral	011	sub-17	1.0	1.0	011_neutral	1.0	dominance	190.9932184705367	
17.0	103.6005967118067	pulse	3.0	t		36.0	female	white	2.7548746518105847	neutral	011	sub-17	1.0	1.0	011_neutral	1.0	dominance	191.69320416249366	
18.0	104.0171267879773	face	0.0		145	31.0	female	west_asian	2.364902506963788	neutral	006	sub-17	1.0	1.0	006_neutral	0.0		192.10973423866426	1.233323432409179
18.0	104.30059206320175	pulse	0.0	t		31.0	female	west_asian	2.364902506963788	neutral	006	sub-17	1.0	1.0	006_neutral	0.0		192.3931995138887	
18.0	105.00059073502916	pulse	0.0	t		31.0	female	west_asian	2.364902506963788	neutral	006	sub-17	1.0	1.0	006_neutral	0.0		193.09319818571612	
18.0	105.25045022038648	fix	1.0		444	31.0	female	west_asian	2.364902506963788	neutral	006	sub-17	1.0	1.0	006_neutral	0.0		193.34305767107344	3.7666222332500183
18.0	105.70057672884332	pulse	1.0	t		31.0	female	west_asian	2.364902506963788	neutral	006	sub-17	1.0	1.0	006_neutral	0.0		193.79318417953027	
18.0	106.40055819479585	pulse	1.0	t		31.0	female	west_asian	2.364902506963788	neutral	006	sub-17	1.0	1.0	006_neutral	0.0		194.4931656454828	
18.0	107.10055867776782	pulse	1.0	t		31.0	female	west_asian	2.364902506963788	neutral	006	sub-17	1.0	1.0	006_neutral	0.0		195.19316612845478	
18.0	107.80055221801877	pulse	1.0	t		31.0	female	west_asian	2.364902506963788	neutral	006	sub-17	1.0	1.0	006_neutral	0.0		195.89315966870572	
18.0	108.50055602142265	pulse	1.0	t		31.0	female	west_asian	2.364902506963788	neutral	006	sub-17	1.0	1.0	006_neutral	0.0		196.5931634721096	
19.0	109.0170724536365	face	0.0		145	54.0	female	white	2.286908077994429	smiling	136	sub-17	1.0	1.0	136_smiling	0.0		197.10967990432346	1.233329771415356
19.0	109.20053627994503	pulse	0.0	t		54.0	female	white	2.286908077994429	smiling	136	sub-17	1.0	1.0	136_smiling	0.0		197.29314373063198	
19.0	109.9005147273233	pulse	0.0	t		54.0	female	white	2.286908077994429	smiling	136	sub-17	1.0	1.0	136_smiling	0.0		197.99312217801025	
19.0	110.25040222505186	fix	1.0		444	54.0	female	white	2.286908077994429	smiling	136	sub-17	1.0	1.0	136_smiling	0.0		198.3430096757388	3.7666186109604496
19.0	110.60050856943144	pulse	1.0	t		54.0	female	white	2.286908077994429	smiling	136	sub-17	1.0	1.0	136_smiling	0.0		198.6931160201184	
19.0	111.30051116540562	pulse	1.0	t		54.0	female	white	2.286908077994429	smiling	136	sub-17	1.0	1.0	136_smiling	0.0		199.39311861609258	
19.0	112.00049866850713	pulse	1.0	t		54.0	female	white	2.286908077994429	smiling	136	sub-17	1.0	1.0	136_smiling	0.0		200.0931061191941	
19.0	112.70049281247248	pulse	1.0	t		54.0	female	white	2.286908077994429	smiling	136	sub-17	1.0	1.0	136_smiling	0.0		200.79310026315943	
19.0	113.40049238987194	pulse	1.0	t		54.0	female	white	2.286908077994429	smiling	136	sub-17	1.0	1.0	136_smiling	0.0		201.4930998405589	
20.0	114.0170208360123	face	0.0		145	37.0	male	white	3.898925586947871	neutral	101	sub-17	1.0	1.0	101_neutral	0.0		202.10962828669926	1.2333342992774305
20.0	114.10053392545706	pulse	0.0	t		37.0	male	white	3.898925586947871	neutral	101	sub-17	1.0	1.0	101_neutral	0.0		202.193141376144	
20.0	114.80047222579424	pulse	0.0	t		37.0	male	white	3.898925586947871	neutral	101	sub-17	1.0	1.0	101_neutral	0.0		202.8930796764812	
20.0	115.25035513528974	fix	1.0		1185	37.0	male	white	3.898925586947871	neutral	101	sub-17	1.0	1.0	101_neutral	0.0		203.3429625859767	10.016530619514015
20.0	115.50046697347489	pulse	1.0	t		37.0	male	white	3.898925586947871	neutral	101	sub-17	1.0	1.0	101_neutral	0.0		203.59307442416184	
20.0	116.20047047502112	pulse	1.0	t		37.0	male	white	3.898925586947871	neutral	101	sub-17	1.0	1.0	101_neutral	0.0		204.29307792570808	
20.0	116.90044439453777	pulse	1.0	t		37.0	male	white	3.898925586947871	neutral	101	sub-17	1.0	1.0	101_neutral	0.0		204.99305184522473	
20.0	117.60043733107341	pulse	1.0	t		37.0	male	white	3.898925586947871	neutral	101	sub-17	1.0	1.0	101_neutral	0.0		205.69304478176036	
20.0	118.30042966389419	pulse	1.0	t		37.0	male	white	3.898925586947871	neutral	101	sub-17	1.0	1.0	101_neutral	0.0		206.39303711458115	
20.0	119.00041927999791	pulse	1.0	t		37.0	male	white	3.898925586947871	neutral	101	sub-17	1.0	1.0	101_neutral	0.0		207.09302673068487	
20.0	119.70041614068032	pulse	1.0	t		37.0	male	white	3.898925586947871	neutral	101	sub-17	1.0	1.0	101_neutral	0.0		207.79302359136727	
20.0	120.40041330322038	pulse	1.0	t		37.0	male	white	3.898925586947871	neutral	101	sub-17	1.0	1.0	101_neutral	0.0		208.49302075390733	
20.0	121.10039808960482	pulse	1.0	t		37.0	male	white	3.898925586947871	neutral	101	sub-17	1.0	1.0	101_neutral	0.0		209.19300554029178	
20.0	121.80038770570854	pulse	1.0	t		37.0	male	white	3.898925586947871	neutral	101	sub-17	1.0	1.0	101_neutral	0.0		209.8929951563955	
20.0	122.50037007723358	pulse	1.0	t		37.0	male	white	3.898925586947871	neutral	101	sub-17	1.0	1.0	101_neutral	0.0		210.59297752792054	
20.0	123.20037327692262	pulse	1.0	t		37.0	male	white	3.898925586947871	neutral	101	sub-17	1.0	1.0	101_neutral	0.0		211.29298072760957	
20.0	123.90037134503473	pulse	1.0	t		37.0	male	white	3.898925586947871	neutral	101	sub-17	1.0	1.0	101_neutral	0.0		211.99297879572168	
20.0	124.60035673513403	pulse	1.0	t		37.0	male	white	3.898925586947871	neutral	101	sub-17	1.0	1.0	101_neutral	0.0		212.69296418582098	
21.0	125.26688575480375	face	0.0		145	30.0	female	black	2.7345801830481498	smiling	062	sub-17	1.0	1.0	062_smiling	1.0	attractiveness	213.3594932054907	1.233335808564334
21.0	125.30036536825719	pulse	0.0	t		30.0	female	black	2.7345801830481498	smiling	062	sub-17	1.0	1.0	062_smiling	1.0	attractiveness	213.39297281894414	
21.0	126.00034321192061	pulse	0.0	t		30.0	female	black	2.7345801830481498	smiling	062	sub-17	1.0	1.0	062_smiling	1.0	attractiveness	214.09295066260756	
21.0	126.50022156336809	fix	1.0		177	30.0	female	black	2.7345801830481498	smiling	062	sub-17	1.0	1.0	062_smiling	1.0	attractiveness	214.59282901405504	1.4999610603890687
21.0	126.7003367521711	pulse	1.0	t		30.0	female	black	2.7345801830481498	smiling	062	sub-17	1.0	1.0	062_smiling	1.0	attractiveness	214.79294420285805	
21.0	127.40034236671954	pulse	1.0	t		30.0	female	black	2.7345801830481498	smiling	062	sub-17	1.0	1.0	062_smiling	1.0	attractiveness	215.4929498174065	
21.0	128.00018262375715	rating	2.0		294	30.0	female	black	2.7345801830481498	smiling	062	sub-17	1.0	1.0	062_smiling	1.0	attractiveness	216.0927900744441	2.4999918498488114
21.0	128.10032051224016	pulse	2.0	t		30.0	female	black	2.7345801830481498	smiling	062	sub-17	1.0	1.0	062_smiling	1.0	attractiveness	216.19292796292712	
21.0	128.80031737292256	pulse	2.0	t		30.0	female	black	2.7345801830481498	smiling	062	sub-17	1.0	1.0	062_smiling	1.0	attractiveness	216.89292482360952	
21.0	129.5003006500201	pulse	2.0	t		30.0	female	black	2.7345801830481498	smiling	062	sub-17	1.0	1.0	062_smiling	1.0	attractiveness	217.59290810070706	
21.0	129.78365061569866	response	2.0	n		30.0	female	black	2.7345801830481498	smiling	062	sub-17	1.0	1.0	062_smiling	1.0	attractiveness	217.87625806638562	
21.0	130.2002953977003	pulse	2.0	t		30.0	female	black	2.7345801830481498	smiling	062	sub-17	1.0	1.0	062_smiling	1.0	attractiveness	218.29290284838726	
21.0	130.50017447360597	fix	3.0		444	30.0	female	black	2.7345801830481498	smiling	062	sub-17	1.0	1.0	062_smiling	1.0	attractiveness	218.59278192429292	3.766605932948096
21.0	130.90029376767006	pulse	3.0	t		30.0	female	black	2.7345801830481498	smiling	062	sub-17	1.0	1.0	062_smiling	1.0	attractiveness	218.99290121835702	
21.0	131.6002876097782	pulse	3.0	t		30.0	female	black	2.7345801830481498	smiling	062	sub-17	1.0	1.0	062_smiling	1.0	attractiveness	219.69289506046516	
21.0	132.30026726458618	pulse	3.0	t		30.0	female	black	2.7345801830481498	smiling	062	sub-17	1.0	1.0	062_smiling	1.0	attractiveness	220.39287471527314	
21.0	133.00024873053871	pulse	3.0	t		30.0	female	black	2.7345801830481498	smiling	062	sub-17	1.0	1.0	062_smiling	1.0	attractiveness	221.09285618122567	
21.0	133.70024770422333	pulse	3.0	t		30.0	female	black	2.7345801830481498	smiling	062	sub-17	1.0	1.0	062_smiling	1.0	attractiveness	221.79285515491028	
22.0	134.26678040655406	face	0.0		145	40.0	male	black	2.408674890569041	neutral	061	sub-17	1.0	1.0	061_neutral	0.0		222.35938785724102	1.2333352048494817
22.0	134.40024547047824	pulse	0.0	t		40.0	male	black	2.408674890569041	neutral	061	sub-17	1.0	1.0	061_neutral	0.0		222.4928529211652	
22.0	135.10023840701388	pulse	0.0	t		40.0	male	black	2.408674890569041	neutral	061	sub-17	1.0	1.0	061_neutral	0.0		223.19284585770083	
22.0	135.50011561140354	fix	1.0		444	40.0	male	black	2.408674890569041	neutral	061	sub-17	1.0	1.0	061_neutral	0.0		223.5927230620905	3.7666161961010403
22.0	135.8002198729664	pulse	1.0	t		40.0	male	black	2.408674890569041	neutral	061	sub-17	1.0	1.0	061_neutral	0.0		223.89282732365336	
22.0	136.50024118410238	pulse	1.0	t		40.0	male	black	2.408674890569041	neutral	061	sub-17	1.0	1.0	061_neutral	0.0		224.59284863478933	
22.0	137.20022325376976	pulse	1.0	t		40.0	male	black	2.408674890569041	neutral	061	sub-17	1.0	1.0	061_neutral	0.0		225.29283070445672	
22.0	137.90019807885847	pulse	1.0	t		40.0	male	black	2.408674890569041	neutral	061	sub-17	1.0	1.0	061_neutral	0.0		225.99280552954542	
22.0	138.60020701383928	pulse	1.0	t		40.0	male	black	2.408674890569041	neutral	061	sub-17	1.0	1.0	061_neutral	0.0		226.69281446452624	
23.0	139.26673180750458	face	0.0		145	19.0	female	white	4.298846000795861	neutral	100	sub-17	1.0	1.0	100_neutral	0.0		227.35933925819154	1.2333261491257872
23.0	139.30020236523433	pulse	0.0	t		19.0	female	white	4.298846000795861	neutral	100	sub-17	1.0	1.0	100_neutral	0.0		227.39280981592128	
23.0	140.00018051075494	pulse	0.0	t		19.0	female	white	4.298846000795861	neutral	100	sub-17	1.0	1.0	100_neutral	0.0		228.0927879614419	
23.0	140.50005795663037	fix	1.0		443	19.0	female	white	4.298846000795861	neutral	100	sub-17	1.0	1.0	100_neutral	0.0		228.59266540731733	3.766618912818103
23.0	140.70017042871632	pulse	1.0	t		19.0	female	white	4.298846000795861	neutral	100	sub-17	1.0	1.0	100_neutral	0.0		228.79277787940327	
23.0	141.4001651763965	pulse	1.0	t		19.0	female	white	4.298846000795861	neutral	100	sub-17	1.0	1.0	100_neutral	0.0		229.49277262708347	
23.0	142.1001931283963	pulse	1.0	t		19.0	female	white	4.298846000795861	neutral	100	sub-17	1.0	1.0	100_neutral	0.0		230.19280057908327	
23.0	142.80014320117425	pulse	1.0	t		19.0	female	white	4.298846000795861	neutral	100	sub-17	1.0	1.0	100_neutral	0.0		230.8927506518612	
23.0	143.50013885442695	pulse	1.0	t		19.0	female	white	4.298846000795861	neutral	100	sub-17	1.0	1.0	100_neutral	0.0		231.5927463051139	
23.0	144.20013994111378	pulse	1.0	t		19.0	female	white	4.298846000795861	neutral	100	sub-17	1.0	1.0	100_neutral	0.0		232.29274739180073	
24.0	144.26667686944847	face	0.0		146	19.0	male	white	3.2522881018702745	smiling	018	sub-17	1.0	1.0	018_smiling	0.0		232.35928432013543	1.2333198101196103
24.0	144.90011054019806	pulse	0.0	t		19.0	male	white	3.2522881018702745	smiling	018	sub-17	1.0	1.0	018_smiling	0.0		232.992717990885	
24.0	145.49999667956808	fix	1.0		443	19.0	male	white	3.2522881018702745	smiling	018	sub-17	1.0	1.0	018_smiling	0.0		233.59260413025504	3.7583217571004752
24.0	145.60012249375313	pulse	1.0	t		19.0	male	white	3.2522881018702745	smiling	018	sub-17	1.0	1.0	018_smiling	0.0		233.6927299444401	
24.0	146.30010577085068	pulse	1.0	t		19.0	male	white	3.2522881018702745	smiling	018	sub-17	1.0	1.0	018_smiling	0.0		234.39271322153763	
24.0	147.00008089779658	pulse	1.0	t		19.0	male	white	3.2522881018702745	smiling	018	sub-17	1.0	1.0	018_smiling	0.0		235.09268834848353	
24.0	147.70008953091974	pulse	1.0	t		19.0	male	white	3.2522881018702745	smiling	018	sub-17	1.0	1.0	018_smiling	0.0		235.7926969816067	
24.0	148.40011748291954	pulse	1.0	t		19.0	male	white	3.2522881018702745	smiling	018	sub-17	1.0	1.0	018_smiling	0.0		236.4927249336065	
24.0	149.10007781885088	pulse	1.0	t		19.0	male	white	3.2522881018702745	smiling	018	sub-17	1.0	1.0	018_smiling	0.0		237.19268526953783	
25.0	149.25831843666856	face	0.0		147	25.0	female	west_asian	2.6756864305610826	neutral	064	sub-17	1.0	1.0	064_neutral	0.0		237.35092588735552	1.2416290401351944
25.0	149.80007015167166	pulse	0.0	t		25.0	female	west_asian	2.6756864305610826	neutral	064	sub-17	1.0	1.0	064_neutral	0.0		237.89267760235862	
25.0	150.49994747680375	fix	1.0		444	25.0	female	west_asian	2.6756864305610826	neutral	064	sub-17	1.0	1.0	064_neutral	0.0		238.5925549274907	3.766604121803539
25.0	150.50744984185712	pulse	1.0	t		25.0	female	west_asian	2.6756864305610826	neutral	064	sub-17	1.0	1.0	064_neutral	0.0		238.60005729254408	
25.0	151.20004998759396	pulse	1.0	t		25.0	female	west_asian	2.6756864305610826	neutral	064	sub-17	1.0	1.0	064_neutral	0.0		239.2926574382809	
25.0	151.90003990555488	pulse	1.0	t		25.0	female	west_asian	2.6756864305610826	neutral	064	sub-17	1.0	1.0	064_neutral	0.0		239.99264735624183	
25.0	152.60002982351625	pulse	1.0	t		25.0	female	west_asian	2.6756864305610826	neutral	064	sub-17	1.0	1.0	064_neutral	0.0		240.6926372742032	
25.0	153.3000227600519	pulse	1.0	t		25.0	female	west_asian	2.6756864305610826	neutral	064	sub-17	1.0	1.0	064_neutral	0.0		241.39263021073884	
25.0	154.00001992259195	pulse	1.0	t		25.0	female	west_asian	2.6756864305610826	neutral	064	sub-17	1.0	1.0	064_neutral	0.0		242.0926273732789	
26.0	154.2665515986073	face	0.0		145	20.0	male	black	2.609629924393156	neutral	043	sub-17	1.0	1.0	043_neutral	0.0		242.35915904929425	1.2333346011346293
26.0	154.70001255726993	pulse	0.0	t		20.0	male	black	2.609629924393156	neutral	043	sub-17	1.0	1.0	043_neutral	0.0		242.79262000795688	
26.0	155.40000398451866	pulse	0.0	t		20.0	male	black	2.609629924393156	neutral	043	sub-17	1.0	1.0	043_neutral	0.0		243.49261143520562	
26.0	155.49988619974192	fix	1.0		444	20.0	male	black	2.609629924393156	neutral	043	sub-17	1.0	1.0	043_neutral	0.0		243.59249365042888	3.766624346252229
26.0	156.10001473064358	pulse	1.0	t		20.0	male	black	2.609629924393156	neutral	043	sub-17	1.0	1.0	043_neutral	0.0		244.19262218133053	
26.0	156.79999227244934	pulse	1.0	t		20.0	male	black	2.609629924393156	neutral	043	sub-17	1.0	1.0	043_neutral	0.0		244.8925997231363	
26.0	157.49999517028118	pulse	1.0	t		20.0	male	black	2.609629924393156	neutral	043	sub-17	1.0	1.0	043_neutral	0.0		245.59260262096814	
26.0	158.1999859938146	pulse	1.0	t		20.0	male	black	2.609629924393156	neutral	043	sub-17	1.0	1.0	043_neutral	0.0		246.29259344450156	
26.0	158.89994904646255	pulse	1.0	t		20.0	male	black	2.609629924393156	neutral	043	sub-17	1.0	1.0	043_neutral	0.0		246.9925564971495	
27.0	159.26651054599415	face	0.0		145	28.0	male	east_asian	1.5563072025467568	smiling	005	sub-17	1.0	1.0	005_smiling	0.0		247.3591179966811	1.233314980400337
27.0	159.59996160373248	pulse	0.0	t		28.0	male	east_asian	1.5563072025467568	smiling	005	sub-17	1.0	1.0	005_smiling	0.0		247.69256905441944	
27.0	160.29996570899402	pulse	0.0	t		28.0	male	east_asian	1.5563072025467568	smiling	005	sub-17	1.0	1.0	005_smiling	0.0		248.39257315968098	
27.0	160.4998255263945	fix	1.0		444	28.0	male	east_asian	1.5563072025467568	smiling	005	sub-17	1.0	1.0	005_smiling	0.0		248.59243297708144	3.76660955523721
27.0	160.99993842108051	pulse	1.0	t		28.0	male	east_asian	1.5563072025467568	smiling	005	sub-17	1.0	1.0	005_smiling	0.0		249.09254587176747	
27.0	161.69992562232483	pulse	1.0	t		28.0	male	east_asian	1.5563072025467568	smiling	005	sub-17	1.0	1.0	005_smiling	0.0		249.79253307301178	
27.0	162.3999276145837	pulse	1.0	t		28.0	male	east_asian	1.5563072025467568	smiling	005	sub-17	1.0	1.0	005_smiling	0.0		250.49253506527066	
27.0	163.09992266412155	pulse	1.0	t		28.0	male	east_asian	1.5563072025467568	smiling	005	sub-17	1.0	1.0	005_smiling	0.0		251.1925301148085	
27.0	163.79990322450203	pulse	1.0	t		28.0	male	east_asian	1.5563072025467568	smiling	005	sub-17	1.0	1.0	005_smiling	0.0		251.892510675189	
28.0	164.2664350816317	face	0.0		145	40.0	female	west_asian	1.5777954635893354	smiling	038	sub-17	1.0	1.0	038_smiling	0.0		252.35904253231865	1.2333330918472711
28.0	164.49989857589708	pulse	0.0	t		40.0	female	west_asian	1.5777954635893354	smiling	038	sub-17	1.0	1.0	038_smiling	0.0		252.59250602658403	
28.0	165.19990751087744	pulse	0.0	t		40.0	female	west_asian	1.5777954635893354	smiling	038	sub-17	1.0	1.0	038_smiling	0.0		253.2925149615644	
28.0	165.49976817347897	fix	1.0		444	40.0	female	west_asian	1.5777954635893354	smiling	038	sub-17	1.0	1.0	038_smiling	0.0		253.59237562416592	3.7666092533795563
28.0	165.89989139168983	pulse	1.0	t		40.0	female	west_asian	1.5777954635893354	smiling	038	sub-17	1.0	1.0	038_smiling	0.0		253.9924988423768	
28.0	166.59987346135722	pulse	1.0	t		40.0	female	west_asian	1.5777954635893354	smiling	038	sub-17	1.0	1.0	038_smiling	0.0		254.69248091204418	
28.0	167.29986971832477	pulse	1.0	t		40.0	female	west_asian	1.5777954635893354	smiling	038	sub-17	1.0	1.0	038_smiling	0.0		255.39247716901173	
28.0	167.99985510842453	pulse	1.0	t		40.0	female	west_asian	1.5777954635893354	smiling	038	sub-17	1.0	1.0	038_smiling	0.0		256.0924625591115	
28.0	168.6998453282431	pulse	1.0	t		40.0	female	west_asian	1.5777954635893354	smiling	038	sub-17	1.0	1.0	038_smiling	0.0		256.79245277893006	
29.0	169.26637742685853	face	0.0		145	24.0	female	east_asian	4.409868682849185	smiling	030	sub-17	1.0	1.0	030_smiling	1.0	trustworthiness	257.3589848775455	1.2333355067071352
29.0	169.3998400759233	pulse	0.0	t		24.0	female	east_asian	4.409868682849185	smiling	030	sub-17	1.0	1.0	030_smiling	1.0	trustworthiness	257.49244752661025	
29.0	170.09983271060173	pulse	0.0	t		24.0	female	east_asian	4.409868682849185	smiling	030	sub-17	1.0	1.0	030_smiling	1.0	trustworthiness	258.1924401612887	
29.0	170.49971293356566	fix	1.0		177	24.0	female	east_asian	4.409868682849185	smiling	030	sub-17	1.0	1.0	030_smiling	1.0	trustworthiness	258.5923203842526	1.4999984907126418
29.0	170.79984345672665	pulse	1.0	t		24.0	female	east_asian	4.409868682849185	smiling	030	sub-17	1.0	1.0	030_smiling	1.0	trustworthiness	258.8924509074136	
29.0	171.4998161688136	pulse	1.0	t		24.0	female	east_asian	4.409868682849185	smiling	030	sub-17	1.0	1.0	030_smiling	1.0	trustworthiness	259.59242361950055	
29.0	171.9997114242783	rating	2.0		294	24.0	female	east_asian	4.409868682849185	smiling	030	sub-17	1.0	1.0	030_smiling	1.0	trustworthiness	260.09231887496526	2.499953815810386
29.0	172.19981242578115	pulse	2.0	t		24.0	female	east_asian	4.409868682849185	smiling	030	sub-17	1.0	1.0	030_smiling	1.0	trustworthiness	260.2924198764681	
29.0	172.89980234374207	pulse	2.0	t		24.0	female	east_asian	4.409868682849185	smiling	030	sub-17	1.0	1.0	030_smiling	1.0	trustworthiness	260.992409794429	
29.0	173.52479457091295	response	2.0	g		24.0	female	east_asian	4.409868682849185	smiling	030	sub-17	1.0	1.0	030_smiling	1.0	trustworthiness	261.6174020215999	
29.0	173.59979135613094	pulse	2.0	t		24.0	female	east_asian	4.409868682849185	smiling	030	sub-17	1.0	1.0	030_smiling	1.0	trustworthiness	261.6923988068179	
29.0	174.2997803685198	pulse	2.0	t		24.0	female	east_asian	4.409868682849185	smiling	030	sub-17	1.0	1.0	030_smiling	1.0	trustworthiness	262.39238781920676	
29.0	174.4996652400887	fix	3.0		444	24.0	female	east_asian	4.409868682849185	smiling	030	sub-17	1.0	1.0	030_smiling	1.0	trustworthiness	262.59227269077564	3.7666083478070504
29.0	174.99977783291706	pulse	3.0	t		24.0	female	east_asian	4.409868682849185	smiling	030	sub-17	1.0	1.0	030_smiling	1.0	trustworthiness	263.092385283604	
29.0	175.69977348617022	pulse	3.0	t		24.0	female	east_asian	4.409868682849185	smiling	030	sub-17	1.0	1.0	030_smiling	1.0	trustworthiness	263.79238093685717	
29.0	176.39976249855863	pulse	3.0	t		24.0	female	east_asian	4.409868682849185	smiling	030	sub-17	1.0	1.0	030_smiling	1.0	trustworthiness	264.4923699492456	
29.0	177.09975422766456	pulse	3.0	t		24.0	female	east_asian	4.409868682849185	smiling	030	sub-17	1.0	1.0	030_smiling	1.0	trustworthiness	265.1923616783515	
29.0	177.79974414562594	pulse	3.0	t		24.0	female	east_asian	4.409868682849185	smiling	030	sub-17	1.0	1.0	030_smiling	1.0	trustworthiness	265.8923515963129	
30.0	178.26627358789574	face	0.0		145	31.0	male	west_asian	1.9538400318344609	neutral	070	sub-17	1.0	1.0	070_neutral	0.0		266.3588810385827	1.2333255454113896
30.0	178.49973889330613	pulse	0.0	t		31.0	male	west_asian	1.9538400318344609	neutral	070	sub-17	1.0	1.0	070_neutral	0.0		266.5923463439931	
30.0	179.1997091905332	pulse	0.0	t		31.0	male	west_asian	1.9538400318344609	neutral	070	sub-17	1.0	1.0	070_neutral	0.0		267.29231664122017	
30.0	179.49959913330713	fix	1.0		444	31.0	male	west_asian	1.9538400318344609	neutral	070	sub-17	1.0	1.0	070_neutral	0.0		267.5922065839941	3.7666167998158926
30.0	179.89971933294373	pulse	1.0	t		31.0	male	west_asian	1.9538400318344609	neutral	070	sub-17	1.0	1.0	070_neutral	0.0		267.9923267836307	
30.0	180.599710760192	pulse	1.0	t		31.0	male	west_asian	1.9538400318344609	neutral	070	sub-17	1.0	1.0	070_neutral	0.0		268.69231821087897	
30.0	181.29971395988105	pulse	1.0	t		31.0	male	west_asian	1.9538400318344609	neutral	070	sub-17	1.0	1.0	070_neutral	0.0		269.392321410568	
30.0	181.99969240725886	pulse	1.0	t		31.0	male	west_asian	1.9538400318344609	neutral	070	sub-17	1.0	1.0	070_neutral	0.0		270.0922998579458	
30.0	182.69971039796292	pulse	1.0	t		31.0	male	west_asian	1.9538400318344609	neutral	070	sub-17	1.0	1.0	070_neutral	0.0		270.7923178486499	
31.0	183.26621593312302	face	0.0		145	21.0	male	black	2.969757262236371	neutral	137	sub-17	1.0	1.0	137_neutral	1.0	dominance	271.35882338381	1.2333291677005036
31.0	183.39969488249017	pulse	0.0	t		21.0	male	black	2.969757262236371	neutral	137	sub-17	1.0	1.0	137_neutral	1.0	dominance	271.4923023331771	
31.0	184.09967091500857	pulse	0.0	t		21.0	male	black	2.969757262236371	neutral	137	sub-17	1.0	1.0	137_neutral	1.0	dominance	272.19227836569553	
31.0	184.49954510082352	fix	1.0		177	21.0	male	black	2.969757262236371	neutral	137	sub-17	1.0	1.0	137_neutral	1.0	dominance	272.5921525515105	1.4999891331317485
31.0	184.79966445525906	pulse	1.0	t		21.0	male	black	2.969757262236371	neutral	137	sub-17	1.0	1.0	137_neutral	1.0	dominance	272.892271905946	
31.0	185.49965376950558	pulse	1.0	t		21.0	male	black	2.969757262236371	neutral	137	sub-17	1.0	1.0	137_neutral	1.0	dominance	273.59226122019254	
31.0	185.99953423395527	rating	2.0		294	21.0	male	black	2.969757262236371	neutral	137	sub-17	1.0	1.0	137_neutral	1.0	dominance	274.09214168464223	2.4999897368470556
31.0	186.19963674474548	pulse	2.0	t		21.0	male	black	2.969757262236371	neutral	137	sub-17	1.0	1.0	137_neutral	1.0	dominance	274.29224419543243	
31.0	186.89964417043848	pulse	2.0	t		21.0	male	black	2.969757262236371	neutral	137	sub-17	1.0	1.0	137_neutral	1.0	dominance	274.99225162112543	
31.0	187.59964254040824	pulse	2.0	t		21.0	male	black	2.969757262236371	neutral	137	sub-17	1.0	1.0	137_neutral	1.0	dominance	275.6922499910952	
31.0	187.79129485375324	response	2.0	b		21.0	male	black	2.969757262236371	neutral	137	sub-17	1.0	1.0	137_neutral	1.0	dominance	275.8839023044402	
31.0	188.29962189335902	pulse	2.0	t		21.0	male	black	2.969757262236371	neutral	137	sub-17	1.0	1.0	137_neutral	1.0	dominance	276.392229344046	
31.0	188.49952397080233	fix	3.0		444	21.0	male	black	2.969757262236371	neutral	137	sub-17	1.0	1.0	137_neutral	1.0	dominance	276.5921314214893	3.766587821500707
31.0	188.99961392432215	pulse	3.0	t		21.0	male	black	2.969757262236371	neutral	137	sub-17	1.0	1.0	137_neutral	1.0	dominance	277.0922213750091	
31.0	189.69960686085778	pulse	3.0	t		21.0	male	black	2.969757262236371	neutral	137	sub-17	1.0	1.0	137_neutral	1.0	dominance	277.79221431154474	
31.0	190.39959889182092	pulse	3.0	t		21.0	male	black	2.969757262236371	neutral	137	sub-17	1.0	1.0	137_neutral	1.0	dominance	278.49220634250787	
31.0	191.099591828357	pulse	3.0	t		21.0	male	black	2.969757262236371	neutral	137	sub-17	1.0	1.0	137_neutral	1.0	dominance	279.19219927904396	
31.0	191.79957661474145	pulse	3.0	t		21.0	male	black	2.969757262236371	neutral	137	sub-17	1.0	1.0	137_neutral	1.0	dominance	279.8921840654284	
32.0	192.26611179230304	face	0.0		145	19.0	male	white	3.2522881018702745	neutral	018	sub-17	1.0	1.0	018_neutral	0.0		280.35871924299	1.233333997419777
32.0	192.49957498471122	pulse	0.0	t		19.0	male	white	3.2522881018702745	neutral	018	sub-17	1.0	1.0	018_neutral	0.0		280.5921824353982	
32.0	193.19956792124685	pulse	0.0	t		19.0	male	white	3.2522881018702745	neutral	018	sub-17	1.0	1.0	018_neutral	0.0		281.2921753719338	
32.0	193.4994457897228	fix	1.0		444	19.0	male	white	3.2522881018702745	neutral	018	sub-17	1.0	1.0	018_neutral	0.0		281.59205324040977	3.7666080459498517
32.0	193.89956900793368	pulse	1.0	t		19.0	male	white	3.2522881018702745	neutral	018	sub-17	1.0	1.0	018_neutral	0.0		281.99217645862063	
32.0	194.5995480590268	pulse	1.0	t		19.0	male	white	3.2522881018702745	neutral	018	sub-17	1.0	1.0	018_neutral	0.0		282.69215550971376	
32.0	195.2995403918476	pulse	1.0	t		19.0	male	white	3.2522881018702745	neutral	018	sub-17	1.0	1.0	018_neutral	0.0		283.39214784253454	
32.0	195.99953453581293	pulse	1.0	t		19.0	male	white	3.2522881018702745	neutral	018	sub-17	1.0	1.0	018_neutral	0.0		284.0921419864999	
32.0	196.69954075407622	pulse	1.0	t		19.0	male	white	3.2522881018702745	neutral	018	sub-17	1.0	1.0	018_neutral	0.0		284.7921482047632	
33.0	197.26605383567266	face	0.0		145	24.0	female	east_asian	2.9076800636689217	smiling	034	sub-17	1.0	1.0	034_smiling	0.0		285.3586612863596	1.233337619708891
33.0	197.3995204088842	pulse	0.0	t		24.0	female	east_asian	2.9076800636689217	smiling	034	sub-17	1.0	1.0	034_smiling	0.0		285.49212785957116	
33.0	198.09950851570056	pulse	0.0	t		24.0	female	east_asian	2.9076800636689217	smiling	034	sub-17	1.0	1.0	034_smiling	0.0		286.1921159663875	
33.0	198.49939145538156	fix	1.0		444	24.0	female	east_asian	2.9076800636689217	smiling	034	sub-17	1.0	1.0	034_smiling	0.0		286.5919989060685	3.7666062348052947
33.0	198.7995023578087	pulse	1.0	t		24.0	female	east_asian	2.9076800636689217	smiling	034	sub-17	1.0	1.0	034_smiling	0.0		286.89210980849566	
33.0	199.49949529434434	pulse	1.0	t		24.0	female	east_asian	2.9076800636689217	smiling	034	sub-17	1.0	1.0	034_smiling	0.0		287.5921027450313	
33.0	200.199482193731	pulse	1.0	t		24.0	female	east_asian	2.9076800636689217	smiling	034	sub-17	1.0	1.0	034_smiling	0.0		288.29208964441796	
33.0	200.8994778469837	pulse	1.0	t		24.0	female	east_asian	2.9076800636689217	smiling	034	sub-17	1.0	1.0	034_smiling	0.0		288.99208529767066	
33.0	201.59947048166214	pulse	1.0	t		24.0	female	east_asian	2.9076800636689217	smiling	034	sub-17	1.0	1.0	034_smiling	0.0		289.6920779323491	
34.0	202.26599769018685	face	0.0		145	19.0	male	white	2.243931555909272	neutral	130	sub-17	1.0	1.0	130_neutral	0.0		290.3586051408738	1.2333355067071352
34.0	202.29946251262527	pulse	0.0	t		19.0	male	white	2.243931555909272	neutral	130	sub-17	1.0	1.0	130_neutral	0.0		290.3920699633122	
34.0	202.99946269374004	pulse	0.0	t		19.0	male	white	2.243931555909272	neutral	130	sub-17	1.0	1.0	130_neutral	0.0		291.092070144427	
34.0	203.49933319689399	fix	1.0		443	19.0	male	white	2.243931555909272	neutral	130	sub-17	1.0	1.0	130_neutral	0.0		291.59194064758094	3.7666056310904423
34.0	203.69944566897993	pulse	1.0	t		19.0	male	white	2.243931555909272	neutral	130	sub-17	1.0	1.0	130_neutral	0.0		291.7920531196669	
34.0	204.3994325683666	pulse	1.0	t		19.0	male	white	2.243931555909272	neutral	130	sub-17	1.0	1.0	130_neutral	0.0		292.49204001905355	
34.0	205.09942550490223	pulse	1.0	t		19.0	male	white	2.243931555909272	neutral	130	sub-17	1.0	1.0	130_neutral	0.0		293.1920329555892	
34.0	205.79942236558463	pulse	1.0	t		19.0	male	white	2.243931555909272	neutral	130	sub-17	1.0	1.0	130_neutral	0.0		293.8920298162716	
34.0	206.49941409469056	pulse	1.0	t		19.0	male	white	2.243931555909272	neutral	130	sub-17	1.0	1.0	130_neutral	0.0		294.5920215453775	
34.0	207.19941608694944	pulse	1.0	t		19.0	male	white	2.243931555909272	neutral	130	sub-17	1.0	1.0	130_neutral	0.0		295.2920235376364	
35.0	207.26593882798443	face	0.0		146	19.0	female	white	4.298846000795861	smiling	100	sub-17	1.0	1.0	100_smiling	0.0		295.3585462786714	1.2333346011346293
35.0	207.89939755290243	pulse	0.0	t		19.0	female	white	4.298846000795861	smiling	100	sub-17	1.0	1.0	100_smiling	0.0		295.9920050035894	
35.0	208.49927342911906	fix	1.0		443	19.0	female	white	4.298846000795861	smiling	100	sub-17	1.0	1.0	100_smiling	0.0		296.591880879806	3.7666204221054613
35.0	208.59939109315292	pulse	1.0	t		19.0	female	white	4.298846000795861	smiling	100	sub-17	1.0	1.0	100_smiling	0.0		296.6919985438399	
35.0	209.29937738882472	pulse	1.0	t		19.0	female	white	4.298846000795861	smiling	100	sub-17	1.0	1.0	100_smiling	0.0		297.3919848395117	
35.0	209.99937877736875	pulse	1.0	t		19.0	female	white	4.298846000795861	smiling	100	sub-17	1.0	1.0	100_smiling	0.0		298.0919862280557	
35.0	210.69937231761924	pulse	1.0	t		19.0	female	white	4.298846000795861	smiling	100	sub-17	1.0	1.0	100_smiling	0.0		298.7919797683062	
35.0	211.39935468914427	pulse	1.0	t		19.0	female	white	4.298846000795861	smiling	100	sub-17	1.0	1.0	100_smiling	0.0		299.49196213983123	
35.0	212.09935004053978	pulse	1.0	t		19.0	female	white	4.298846000795861	smiling	100	sub-17	1.0	1.0	100_smiling	0.0		300.19195749122673	
36.0	212.26589385122452	face	0.0		146	36.0	female	white	2.7548746518105847	smiling	011	sub-17	1.0	1.0	011_smiling	0.0		300.3585013019115	1.2333077358211995
36.0	212.79935686251793	pulse	0.0	t		36.0	female	white	2.7548746518105847	smiling	011	sub-17	1.0	1.0	011_smiling	0.0		300.8919643132049	
36.0	213.49920158704572	fix	1.0		444	36.0	female	white	2.7548746518105847	smiling	011	sub-17	1.0	1.0	011_smiling	0.0		301.5918090377327	3.7666409484122596
36.0	213.50675677715253	pulse	1.0	t		36.0	female	white	2.7548746518105847	smiling	011	sub-17	1.0	1.0	011_smiling	0.0		301.5993642278395	
36.0	214.1993228129977	pulse	1.0	t		36.0	female	white	2.7548746518105847	smiling	011	sub-17	1.0	1.0	011_smiling	0.0		302.29193026368466	
36.0	214.899308203097	pulse	1.0	t		36.0	female	white	2.7548746518105847	smiling	011	sub-17	1.0	1.0	011_smiling	0.0		302.99191565378396	
36.0	215.5993107990712	pulse	1.0	t		36.0	female	white	2.7548746518105847	smiling	011	sub-17	1.0	1.0	011_smiling	0.0		303.69191824975815	
36.0	216.2993167154773	pulse	1.0	t		36.0	female	white	2.7548746518105847	smiling	011	sub-17	1.0	1.0	011_smiling	0.0		304.39192416616424	
36.0	216.99932051888118	pulse	1.0	t		36.0	female	white	2.7548746518105847	smiling	011	sub-17	1.0	1.0	011_smiling	0.0		305.09192796956813	
37.0	217.26584253545798	face	0.0		145	40.0	female	west_asian	1.5777954635893354	neutral	038	sub-17	1.0	1.0	038_neutral	0.0		305.35844998614493	1.233314074827831
37.0	217.69930409783592	pulse	0.0	t		40.0	female	west_asian	1.5777954635893354	neutral	038	sub-17	1.0	1.0	038_neutral	0.0		305.7919115485229	
37.0	218.3992737913477	pulse	0.0	t		40.0	female	west_asian	1.5777954635893354	neutral	038	sub-17	1.0	1.0	038_neutral	0.0		306.49188124203465	
37.0	218.4991566102858	fix	1.0		444	40.0	female	west_asian	1.5777954635893354	neutral	038	sub-17	1.0	1.0	038_neutral	0.0		306.59176406097276	3.766609253380011
37.0	219.0992715576026	pulse	1.0	t		40.0	female	west_asian	1.5777954635893354	neutral	038	sub-17	1.0	1.0	038_neutral	0.0		307.19187900828956	
37.0	219.79925966441942	pulse	1.0	t		40.0	female	west_asian	1.5777954635893354	neutral	038	sub-17	1.0	1.0	038_neutral	0.0		307.8918671151064	
37.0	220.4992489786655	pulse	1.0	t		40.0	female	west_asian	1.5777954635893354	neutral	038	sub-17	1.0	1.0	038_neutral	0.0		308.59185642935245	
37.0	221.19925338578423	pulse	1.0	t		40.0	female	west_asian	1.5777954635893354	neutral	038	sub-17	1.0	1.0	038_neutral	0.0		309.2918608364712	
37.0	221.89923243687736	pulse	1.0	t		40.0	female	west_asian	1.5777954635893354	neutral	038	sub-17	1.0	1.0	038_neutral	0.0		309.9918398875643	
38.0	222.26576586366582	face	0.0		146	28.0	male	white	3.9076800636689217	neutral	033	sub-17	1.0	1.0	033_neutral	0.0		310.3583733143528	1.2416809596165876
38.0	222.59922718455755	pulse	0.0	t		28.0	male	white	3.9076800636689217	neutral	033	sub-17	1.0	1.0	033_neutral	0.0		310.6918346352445	
38.0	223.29922947867408	pulse	0.0	t		28.0	male	white	3.9076800636689217	neutral	033	sub-17	1.0	1.0	033_neutral	0.0		311.39183692936103	
38.0	223.5074468232824	fix	1.0		444	28.0	male	white	3.9076800636689217	neutral	033	sub-17	1.0	1.0	033_neutral	0.0		311.60005427396936	3.76660049951397
38.0	223.99921003905456	pulse	1.0	t		28.0	male	white	3.9076800636689217	neutral	033	sub-17	1.0	1.0	033_neutral	0.0		312.0918174897415	
38.0	224.69919663658357	pulse	1.0	t		28.0	male	white	3.9076800636689217	neutral	033	sub-17	1.0	1.0	033_neutral	0.0		312.7918040872705	
38.0	225.3991974214132	pulse	1.0	t		28.0	male	white	3.9076800636689217	neutral	033	sub-17	1.0	1.0	033_neutral	0.0		313.49180487210015	
38.0	226.0991840189422	pulse	1.0	t		28.0	male	white	3.9076800636689217	neutral	033	sub-17	1.0	1.0	033_neutral	0.0		314.19179146962915	
38.0	226.79916518303753	pulse	1.0	t		28.0	male	white	3.9076800636689217	neutral	033	sub-17	1.0	1.0	033_neutral	0.0		314.8917726337245	
39.0	227.27404732279638	face	0.0		145	37.0	male	white	3.898925586947871	smiling	101	sub-17	1.0	1.0	101_smiling	0.0		315.36665477348333	1.2333355067066805
39.0	227.49917864587997	pulse	0.0	t		37.0	male	white	3.898925586947871	smiling	101	sub-17	1.0	1.0	101_smiling	0.0		315.5917860965669	
39.0	228.1991601118325	pulse	0.0	t		37.0	male	white	3.898925586947871	smiling	101	sub-17	1.0	1.0	101_smiling	0.0		316.29176756251945	
39.0	228.50738282950306	fix	1.0		444	37.0	male	white	3.898925586947871	smiling	101	sub-17	1.0	1.0	101_smiling	0.0		316.59999028019	3.7499741911883575
39.0	228.89916270780623	pulse	1.0	t		37.0	male	white	3.898925586947871	smiling	101	sub-17	1.0	1.0	101_smiling	0.0		316.9917701584932	
39.0	229.59914689047628	pulse	1.0	t		37.0	male	white	3.898925586947871	smiling	101	sub-17	1.0	1.0	101_smiling	0.0		317.69175434116323	
39.0	230.29913831772456	pulse	1.0	t		37.0	male	white	3.898925586947871	smiling	101	sub-17	1.0	1.0	101_smiling	0.0		318.3917457684115	
39.0	230.99922211335252	pulse	1.0	t		37.0	male	white	3.898925586947871	smiling	101	sub-17	1.0	1.0	101_smiling	0.0		319.0918295640395	
39.0	231.6992663656547	pulse	1.0	t		37.0	male	white	3.898925586947871	smiling	101	sub-17	1.0	1.0	101_smiling	0.0		319.79187381634165	
40.0	232.25735702069142	fix	0.0		720													320.34996447137837	5.999906726047811
40.0	232.39911471247206	pulse	0.0	t														320.491722163159	
40.0	233.09910493229063	pulse	0.0	t														321.1917123829776	
40.0	233.79912171556498	pulse	0.0	t														321.89172916625193	
40.0	234.49909050350425	pulse	0.0	t														322.5916979541912	
40.0	235.19908917533166	pulse	0.0	t														323.2916966260186	
40.0	235.89907335800126	pulse	0.0	t														323.9916808086882	
40.0	236.59907021868366	pulse	0.0	t														324.6916776693706	
40.0	237.29907492766006	pulse	0.0	t														325.391682378347	
40.0	237.99904401745744	pulse	0.0	t														326.0916514681444	
