trial_nr	onset	event_type	phase	response	nr_frames	face_age	face_sex	face_eth	attractiveness	expression	face_id	sub_id	ses	run	trial_type	catch	rating_type	onset_abs	duration
-1.0	0.05764999603161414	fix	0.0		714													22.16940683775647	5.96624287513805
-1.0	0.7074863464349619	pulse	0.0	t														22.819243188159817	
-1.0	1.4074538368695357	pulse	0.0	t														23.51921067859439	
-1.0	2.1074430607168324	pulse	0.0	t														24.219199902441687	
-1.0	2.8074506975972326	pulse	0.0	t														24.919207539322088	
-1.0	3.507411547265292	pulse	0.0	t														25.619168388990147	
-1.0	4.2073793395520624	pulse	0.0	t														26.319136181276917	
-1.0	4.907357394840801	pulse	0.0	t														27.019114236565656	
-1.0	5.607353863160824	pulse	0.0	t														27.71911070488568	
0.0	6.023892871169664	face	0.0		144	28.0	female	white	5.676880222841227	neutral	124	sub-01	1.0	3.0	124_neutral	0.0		28.13564971289452	1.2333100202195055
0.0	6.307339766626683	pulse	0.0	t		28.0	female	white	5.676880222841227	neutral	124	sub-01	1.0	3.0	124_neutral	0.0		28.419096608351538	
0.0	7.007306351501029	pulse	0.0	t		28.0	female	white	5.676880222841227	neutral	124	sub-01	1.0	3.0	124_neutral	0.0		29.119063193225884	
0.0	7.25720289138917	fix	1.0		445	28.0	female	white	5.676880222841227	neutral	124	sub-01	1.0	3.0	124_neutral	0.0		29.368959733114025	3.758219683169955
0.0	7.707303725379461	pulse	1.0	t		28.0	female	white	5.676880222841227	neutral	124	sub-01	1.0	3.0	124_neutral	0.0		29.819060567104316	
0.0	8.407272121372444	pulse	1.0	t		28.0	female	white	5.676880222841227	neutral	124	sub-01	1.0	3.0	124_neutral	0.0		30.5190289630973	
0.0	9.107241724776031	pulse	1.0	t		28.0	female	white	5.676880222841227	neutral	124	sub-01	1.0	3.0	124_neutral	0.0		31.218998566500886	
0.0	9.807244532008554	pulse	1.0	t		28.0	female	white	5.676880222841227	neutral	124	sub-01	1.0	3.0	124_neutral	0.0		31.91900137373341	
0.0	10.507219870620247	pulse	1.0	t		28.0	female	white	5.676880222841227	neutral	124	sub-01	1.0	3.0	124_neutral	0.0		32.6189767123451	
1.0	11.015422574559125	face	0.0		146	27.0	female	white	4.181058495821727	neutral	039	sub-01	1.0	3.0	039_neutral	0.0		33.12717941628398	1.2416475015179458
1.0	11.20719611479035	pulse	0.0	t		27.0	female	white	4.181058495821727	neutral	039	sub-01	1.0	3.0	039_neutral	0.0		33.318952956515204	
1.0	11.907187753462495	pulse	0.0	t		27.0	female	white	4.181058495821727	neutral	039	sub-01	1.0	3.0	039_neutral	0.0		34.01894459518735	
1.0	12.25707007607707	fix	1.0		444	27.0	female	white	4.181058495821727	neutral	039	sub-01	1.0	3.0	039_neutral	0.0		34.368826917801925	3.75822089058056
1.0	12.607173656928353	pulse	1.0	t		27.0	female	white	4.181058495821727	neutral	039	sub-01	1.0	3.0	039_neutral	0.0		34.71893049865321	
1.0	13.307159560394211	pulse	1.0	t		27.0	female	white	4.181058495821727	neutral	039	sub-01	1.0	3.0	039_neutral	0.0		35.418916402119066	
1.0	14.007140936064388	pulse	1.0	t		27.0	female	white	4.181058495821727	neutral	039	sub-01	1.0	3.0	039_neutral	0.0		36.11889777778924	
1.0	14.707104200557296	pulse	1.0	t		27.0	female	white	4.181058495821727	neutral	039	sub-01	1.0	3.0	039_neutral	0.0		36.81886104228215	
1.0	15.407088292904518	pulse	1.0	t		27.0	female	white	4.181058495821727	neutral	039	sub-01	1.0	3.0	039_neutral	0.0		37.51884513462937	
2.0	16.01529096665763	face	0.0		146	30.0	female	black	2.7345801830481498	smiling	062	sub-01	1.0	3.0	062_smiling	0.0		38.127047808382486	1.2416336162805237
2.0	16.107073592664165	pulse	0.0	t		30.0	female	black	2.7345801830481498	smiling	062	sub-01	1.0	3.0	062_smiling	0.0		38.21883043438902	
2.0	16.807043196067752	pulse	0.0	t		30.0	female	black	2.7345801830481498	smiling	062	sub-01	1.0	3.0	062_smiling	0.0		38.91880003779261	
2.0	17.256924582938154	fix	1.0		445	30.0	female	black	2.7345801830481498	smiling	062	sub-01	1.0	3.0	062_smiling	0.0		39.36868142466301	3.758226625786847
2.0	17.50706652930421	pulse	1.0	t		30.0	female	black	2.7345801830481498	smiling	062	sub-01	1.0	3.0	062_smiling	0.0		39.618823371029066	
2.0	18.207047904974388	pulse	1.0	t		30.0	female	black	2.7345801830481498	smiling	062	sub-01	1.0	3.0	062_smiling	0.0		40.31880474669924	
2.0	18.90699758608207	pulse	1.0	t		30.0	female	black	2.7345801830481498	smiling	062	sub-01	1.0	3.0	062_smiling	0.0		41.018754427806925	
2.0	19.60698650807717	pulse	1.0	t		30.0	female	black	2.7345801830481498	smiling	062	sub-01	1.0	3.0	062_smiling	0.0		41.718743349802025	
2.0	20.306985391222042	pulse	1.0	t		30.0	female	black	2.7345801830481498	smiling	062	sub-01	1.0	3.0	062_smiling	0.0		42.4187422329469	
3.0	21.015151208725	face	0.0		147	31.0	female	east_asian	3.395941106247513	smiling	087	sub-01	1.0	3.0	087_smiling	0.0		43.126908050449856	1.2416562552552932
3.0	21.008163312124452	pulse	0.0	t		31.0	female	east_asian	3.395941106247513	smiling	087	sub-01	1.0	3.0	087_smiling	0.0		43.11992015384931	
3.0	21.70692037208937	pulse	0.0	t		31.0	female	east_asian	3.395941106247513	smiling	087	sub-01	1.0	3.0	087_smiling	0.0		43.818677213814226	
3.0	22.256807463980294	fix	1.0		443	31.0	female	east_asian	3.395941106247513	smiling	087	sub-01	1.0	3.0	087_smiling	0.0		44.36856430570515	3.758203383107684
3.0	22.406893597728413	pulse	1.0	t		31.0	female	east_asian	3.395941106247513	smiling	087	sub-01	1.0	3.0	087_smiling	0.0		44.51865043945327	
3.0	23.106881614165104	pulse	1.0	t		31.0	female	east_asian	3.395941106247513	smiling	087	sub-01	1.0	3.0	087_smiling	0.0		45.21863845588996	
3.0	23.806907965930804	pulse	1.0	t		31.0	female	east_asian	3.395941106247513	smiling	087	sub-01	1.0	3.0	087_smiling	0.0		45.91866480765566	
3.0	24.50685885445091	pulse	1.0	t		31.0	female	east_asian	3.395941106247513	smiling	087	sub-01	1.0	3.0	087_smiling	0.0		46.618615696175766	
3.0	25.206831174531544	pulse	1.0	t		31.0	female	east_asian	3.395941106247513	smiling	087	sub-01	1.0	3.0	087_smiling	0.0		47.3185880162564	
3.0	25.9068110409371	pulse	1.0	t		31.0	female	east_asian	3.395941106247513	smiling	087	sub-01	1.0	3.0	087_smiling	0.0		48.018567882661955	
4.0	26.01501084708798	face	0.0		147	23.0	male	white	2.6275368085953046	smiling	141	sub-01	1.0	3.0	141_smiling	0.0		48.12676768881283	1.2416511237533996
4.0	26.606791209196672	pulse	0.0	t		23.0	male	white	2.6275368085953046	smiling	141	sub-01	1.0	3.0	141_smiling	0.0		48.71854805092153	
4.0	27.256661970841378	fix	1.0		444	23.0	male	white	2.6275368085953046	smiling	141	sub-01	1.0	3.0	141_smiling	0.0		49.36841881256623	3.7582296443179075
4.0	27.30677952748556	pulse	1.0	t		23.0	male	white	2.6275368085953046	smiling	141	sub-01	1.0	3.0	141_smiling	0.0		49.418536369210415	
4.0	28.006749432743163	pulse	1.0	t		23.0	male	white	2.6275368085953046	smiling	141	sub-01	1.0	3.0	141_smiling	0.0		50.11850627446802	
4.0	28.706735638061218	pulse	1.0	t		23.0	male	white	2.6275368085953046	smiling	141	sub-01	1.0	3.0	141_smiling	0.0		50.81849247978607	
4.0	29.40671339149776	pulse	1.0	t		23.0	male	white	2.6275368085953046	smiling	141	sub-01	1.0	3.0	141_smiling	0.0		51.518470233222615	
4.0	30.10671016166998	pulse	1.0	t		23.0	male	white	2.6275368085953046	smiling	141	sub-01	1.0	3.0	141_smiling	0.0		52.218467003394835	
4.0	30.806693046606597	pulse	1.0	t		23.0	male	white	2.6275368085953046	smiling	141	sub-01	1.0	3.0	141_smiling	0.0		52.91844988833145	
5.0	31.014891615159286	face	0.0		146	20.0	male	black	2.609629924393156	smiling	043	sub-01	1.0	3.0	043_smiling	0.0		53.12664845688414	1.2416541422826413
5.0	31.506671403747532	pulse	0.0	t		20.0	male	black	2.609629924393156	smiling	043	sub-01	1.0	3.0	043_smiling	0.0		53.61842824547239	
5.0	32.20667300356763	pulse	0.0	t		20.0	male	black	2.609629924393156	smiling	043	sub-01	1.0	3.0	043_smiling	0.0		54.318429845292485	
5.0	32.25654575744193	fix	1.0		445	20.0	male	black	2.609629924393156	smiling	043	sub-01	1.0	3.0	043_smiling	0.0		54.36830259916678	3.7665511274062737
5.0	32.90662389208774	pulse	1.0	t		20.0	male	black	2.609629924393156	smiling	043	sub-01	1.0	3.0	043_smiling	0.0		55.01838073381259	
5.0	33.60660406034549	pulse	1.0	t		20.0	male	black	2.609629924393156	smiling	043	sub-01	1.0	3.0	043_smiling	0.0		55.718360902070344	
5.0	34.30659690643006	pulse	1.0	t		20.0	male	black	2.609629924393156	smiling	043	sub-01	1.0	3.0	043_smiling	0.0		56.418353748154914	
5.0	35.00657164133554	pulse	1.0	t		20.0	male	black	2.609629924393156	smiling	043	sub-01	1.0	3.0	043_smiling	0.0		57.118328483060395	
5.0	35.706558752212004	pulse	1.0	t		20.0	male	black	2.609629924393156	smiling	043	sub-01	1.0	3.0	043_smiling	0.0		57.81831559393686	
6.0	36.0230968848482	face	0.0		145	26.0	female	white	4.854755272582572	neutral	027	sub-01	1.0	3.0	027_neutral	1.0	dominance	58.134853726573056	1.233300662777765
6.0	36.40653258155908	pulse	0.0	t		26.0	female	white	4.854755272582572	neutral	027	sub-01	1.0	3.0	027_neutral	1.0	dominance	58.51828942328393	
6.0	37.10650248681668	pulse	0.0	t		26.0	female	white	4.854755272582572	neutral	027	sub-01	1.0	3.0	027_neutral	1.0	dominance	59.218259328541535	
6.0	37.256397547625966	fix	1.0		177	26.0	female	white	4.854755272582572	neutral	027	sub-01	1.0	3.0	027_neutral	1.0	dominance	59.36815438935082	1.5083246525446157
6.0	37.80649623845966	pulse	1.0	t		26.0	female	white	4.854755272582572	neutral	027	sub-01	1.0	3.0	027_neutral	1.0	dominance	59.91825308018451	
6.0	38.506472180777564	pulse	1.0	t		26.0	female	white	4.854755272582572	neutral	027	sub-01	1.0	3.0	027_neutral	1.0	dominance	60.61822902250242	
6.0	38.76472220017058	rating	2.0		294	26.0	female	white	4.854755272582572	neutral	027	sub-01	1.0	3.0	027_neutral	1.0	dominance	60.876479041895436	2.4915802637660818
6.0	39.201264099930995	pulse	2.0	t		26.0	female	white	4.854755272582572	neutral	027	sub-01	1.0	3.0	027_neutral	1.0	dominance	61.31302094165585	
6.0	39.901260266397	pulse	2.0	t		26.0	female	white	4.854755272582572	neutral	027	sub-01	1.0	3.0	027_neutral	1.0	dominance	62.01301710812186	
6.0	40.28458488121032	response	2.0	y		26.0	female	white	4.854755272582572	neutral	027	sub-01	1.0	3.0	027_neutral	1.0	dominance	62.396341722935176	
6.0	40.606421741142185	pulse	2.0	t		26.0	female	white	4.854755272582572	neutral	027	sub-01	1.0	3.0	027_neutral	1.0	dominance	62.71817858286704	
6.0	41.25630246393666	fix	3.0		443	26.0	female	white	4.854755272582572	neutral	027	sub-01	1.0	3.0	027_neutral	1.0	dominance	63.36805930566152	3.766556560758545
6.0	41.30645171514516	pulse	3.0	t		26.0	female	white	4.854755272582572	neutral	027	sub-01	1.0	3.0	027_neutral	1.0	dominance	63.41820855687001	
6.0	42.006386907309206	pulse	3.0	t		26.0	female	white	4.854755272582572	neutral	027	sub-01	1.0	3.0	027_neutral	1.0	dominance	64.11814374903406	
6.0	42.70637220706885	pulse	3.0	t		26.0	female	white	4.854755272582572	neutral	027	sub-01	1.0	3.0	027_neutral	1.0	dominance	64.81812904879371	
6.0	43.406360223503725	pulse	3.0	t		26.0	female	white	4.854755272582572	neutral	027	sub-01	1.0	3.0	027_neutral	1.0	dominance	65.51811706522858	
6.0	44.10632741208428	pulse	3.0	t		26.0	female	white	4.854755272582572	neutral	027	sub-01	1.0	3.0	027_neutral	1.0	dominance	66.21808425380914	
6.0	44.806309089608476	pulse	3.0	t		26.0	female	white	4.854755272582572	neutral	027	sub-01	1.0	3.0	027_neutral	1.0	dominance	66.91806593133333	
7.0	45.02285902469521	face	0.0		145	24.0	male	white	3.1153999204138483	neutral	012	sub-01	1.0	3.0	012_neutral	0.0		67.13461586642006	1.2333130387505662
7.0	45.506289559720244	pulse	0.0	t		24.0	male	white	3.1153999204138483	neutral	012	sub-01	1.0	3.0	012_neutral	0.0		67.6180464014451	
7.0	46.20628602804027	pulse	0.0	t		24.0	male	white	3.1153999204138483	neutral	012	sub-01	1.0	3.0	012_neutral	0.0		68.31804286976512	
7.0	46.256172063445774	fix	1.0		445	24.0	male	white	3.1153999204138483	neutral	012	sub-01	1.0	3.0	012_neutral	0.0		68.36792890517063	3.758351894777661
7.0	46.9062643851812	pulse	1.0	t		24.0	male	white	3.1153999204138483	neutral	012	sub-01	1.0	3.0	012_neutral	0.0		69.01802122690606	
7.0	47.60625602385335	pulse	1.0	t		24.0	male	white	3.1153999204138483	neutral	012	sub-01	1.0	3.0	012_neutral	0.0		69.7180128655782	
7.0	48.30621657166921	pulse	1.0	t		24.0	male	white	3.1153999204138483	neutral	012	sub-01	1.0	3.0	012_neutral	0.0		70.41797341339407	
7.0	49.006190401014464	pulse	1.0	t		24.0	male	white	3.1153999204138483	neutral	012	sub-01	1.0	3.0	012_neutral	0.0		71.11794724273932	
7.0	49.70620226383835	pulse	1.0	t		24.0	male	white	3.1153999204138483	neutral	012	sub-01	1.0	3.0	012_neutral	0.0		71.8179591055632	
8.0	50.014523958223435	face	0.0		146	19.0	male	white	3.2522881018702745	neutral	018	sub-01	1.0	3.0	018_neutral	0.0		72.12628079994829	1.2415044232020591
8.0	50.40616552832944	pulse	0.0	t		19.0	male	white	3.2522881018702745	neutral	018	sub-01	1.0	3.0	018_neutral	0.0		72.5179223700543	
8.0	51.106137546557875	pulse	0.0	t		19.0	male	white	3.2522881018702745	neutral	018	sub-01	1.0	3.0	018_neutral	0.0		73.21789438828273	
8.0	51.256028381425494	fix	1.0		445	19.0	male	white	3.2522881018702745	neutral	018	sub-01	1.0	3.0	018_neutral	0.0		73.36778522315035	3.766567729320741
8.0	51.80612586484676	pulse	1.0	t		19.0	male	white	3.2522881018702745	neutral	018	sub-01	1.0	3.0	018_neutral	0.0		73.91788270657162	
8.0	52.506102109016865	pulse	1.0	t		19.0	male	white	3.2522881018702745	neutral	018	sub-01	1.0	3.0	018_neutral	0.0		74.61785895074172	
8.0	53.20610310513257	pulse	1.0	t		19.0	male	white	3.2522881018702745	neutral	018	sub-01	1.0	3.0	018_neutral	0.0		75.31785994685742	
8.0	53.90606636962366	pulse	1.0	t		19.0	male	white	3.2522881018702745	neutral	018	sub-01	1.0	3.0	018_neutral	0.0		76.01782321134851	
8.0	54.606051669383305	pulse	1.0	t		19.0	male	white	3.2522881018702745	neutral	018	sub-01	1.0	3.0	018_neutral	0.0		76.71780851110816	
9.0	55.022596110746235	face	0.0		145	32.0	male	white	2.389176283326701	neutral	092	sub-01	1.0	3.0	092_neutral	0.0		77.13435295247109	1.2333163591338234
9.0	55.306056287734464	pulse	0.0	t		32.0	male	white	2.389176283326701	neutral	092	sub-01	1.0	3.0	092_neutral	0.0		77.41781312945932	
9.0	56.00601442072548	pulse	0.0	t		32.0	male	white	2.389176283326701	neutral	092	sub-01	1.0	3.0	092_neutral	0.0		78.11777126245033	
9.0	56.25591246988006	fix	1.0		444	32.0	male	white	2.389176283326701	neutral	092	sub-01	1.0	3.0	092_neutral	0.0		78.36766931160491	3.7665499199938495
9.0	56.70600696495603	pulse	1.0	t		32.0	male	white	2.389176283326701	neutral	092	sub-01	1.0	3.0	092_neutral	0.0		78.81776380668089	
9.0	57.405986227655376	pulse	1.0	t		32.0	male	white	2.389176283326701	neutral	092	sub-01	1.0	3.0	092_neutral	0.0		79.51774306938023	
9.0	58.10596216997328	pulse	1.0	t		32.0	male	white	2.389176283326701	neutral	092	sub-01	1.0	3.0	092_neutral	0.0		80.21771901169814	
9.0	58.805949280851564	pulse	1.0	t		32.0	male	white	2.389176283326701	neutral	092	sub-01	1.0	3.0	092_neutral	0.0		80.91770612257642	
9.0	59.50593910840507	pulse	1.0	t		32.0	male	white	2.389176283326701	neutral	092	sub-01	1.0	3.0	092_neutral	0.0		81.61769595012993	
10.0	60.02246238987391	face	0.0		145	22.0	female	white	4.614007162753682	smiling	009	sub-01	1.0	3.0	009_smiling	0.0		82.13421923159876	1.233301266483977
10.0	60.20590810810427	pulse	0.0	t		22.0	female	white	4.614007162753682	smiling	009	sub-01	1.0	3.0	009_smiling	0.0		82.31766494982912	
10.0	60.90588465412657	pulse	0.0	t		22.0	female	white	4.614007162753682	smiling	009	sub-01	1.0	3.0	009_smiling	0.0		83.01764149585142	
10.0	61.255763656357885	fix	1.0		444	22.0	female	white	4.614007162753682	smiling	009	sub-01	1.0	3.0	009_smiling	0.0		83.36752049808274	3.758232662847149
10.0	61.60586693535697	pulse	1.0	t		22.0	female	white	4.614007162753682	smiling	009	sub-01	1.0	3.0	009_smiling	0.0		83.71762377708183	
10.0	62.305854046233435	pulse	1.0	t		22.0	female	white	4.614007162753682	smiling	009	sub-01	1.0	3.0	009_smiling	0.0		84.41761088795829	
10.0	63.0058333089346	pulse	1.0	t		22.0	female	white	4.614007162753682	smiling	009	sub-01	1.0	3.0	009_smiling	0.0		85.11759015065945	
10.0	63.705821627223486	pulse	1.0	t		22.0	female	white	4.614007162753682	smiling	009	sub-01	1.0	3.0	009_smiling	0.0		85.81757846894834	
10.0	64.40580662513094	pulse	1.0	t		22.0	female	white	4.614007162753682	smiling	009	sub-01	1.0	3.0	009_smiling	0.0		86.51756346685579	
11.0	65.01399631920503	face	0.0		146	24.0	female	east_asian	4.409868682849185	neutral	030	sub-01	1.0	3.0	030_neutral	0.0		87.12575316092989	1.2416468978117337
11.0	65.10578437856566	pulse	0.0	t		24.0	female	east_asian	4.409868682849185	neutral	030	sub-01	1.0	3.0	030_neutral	0.0		87.21754122029051	
11.0	65.80576847091288	pulse	0.0	t		24.0	female	east_asian	4.409868682849185	neutral	030	sub-01	1.0	3.0	030_neutral	0.0		87.91752531263774	
11.0	66.25564321701677	fix	1.0		444	24.0	female	east_asian	4.409868682849185	neutral	030	sub-01	1.0	3.0	030_neutral	0.0		88.36740005874162	3.766550825552258
11.0	66.50573716875806	pulse	1.0	t		24.0	female	east_asian	4.409868682849185	neutral	030	sub-01	1.0	3.0	030_neutral	0.0		88.61749401048291	
11.0	67.19757938054317	pulse	1.0	t		24.0	female	east_asian	4.409868682849185	neutral	030	sub-01	1.0	3.0	030_neutral	0.0		89.30933622226803	
11.0	67.89755834139032	pulse	1.0	t		24.0	female	east_asian	4.409868682849185	neutral	030	sub-01	1.0	3.0	030_neutral	0.0		90.00931518311518	
11.0	68.59755843194762	pulse	1.0	t		24.0	female	east_asian	4.409868682849185	neutral	030	sub-01	1.0	3.0	030_neutral	0.0		90.70931527367247	
11.0	69.29754101503022	pulse	1.0	t		24.0	female	east_asian	4.409868682849185	neutral	030	sub-01	1.0	3.0	030_neutral	0.0		91.40929785675507	
12.0	70.02219404256903	face	0.0		145	22.0	female	white	4.614007162753682	neutral	009	sub-01	1.0	3.0	009_neutral	1.0	trustworthiness	92.13395088429388	1.2333248110171553
12.0	70.00848901149584	pulse	0.0	t		22.0	female	white	4.614007162753682	neutral	009	sub-01	1.0	3.0	009_neutral	1.0	trustworthiness	92.1202458532207	
12.0	70.70563900616798	pulse	0.0	t		22.0	female	white	4.614007162753682	neutral	009	sub-01	1.0	3.0	009_neutral	1.0	trustworthiness	92.81739584789284	
12.0	71.25551885358618	fix	1.0		177	22.0	female	white	4.614007162753682	neutral	009	sub-01	1.0	3.0	009_neutral	1.0	trustworthiness	93.36727569531104	1.4999343469771702
12.0	71.39754490893392	pulse	1.0	t		22.0	female	white	4.614007162753682	neutral	009	sub-01	1.0	3.0	009_neutral	1.0	trustworthiness	93.50930175065878	
12.0	72.09745806582941	pulse	1.0	t		22.0	female	white	4.614007162753682	neutral	009	sub-01	1.0	3.0	009_neutral	1.0	trustworthiness	94.20921490755427	
12.0	72.75545320056335	rating	2.0		294	22.0	female	white	4.614007162753682	neutral	009	sub-01	1.0	3.0	009_neutral	1.0	trustworthiness	94.8672100422882	2.499952760006636
12.0	72.80040967487184	pulse	2.0	t		22.0	female	white	4.614007162753682	neutral	009	sub-01	1.0	3.0	009_neutral	1.0	trustworthiness	94.9121665165967	
12.0	73.50038712645437	pulse	2.0	t		22.0	female	white	4.614007162753682	neutral	009	sub-01	1.0	3.0	009_neutral	1.0	trustworthiness	95.61214396817923	
12.0	74.20036125765364	pulse	2.0	t		22.0	female	white	4.614007162753682	neutral	009	sub-01	1.0	3.0	009_neutral	1.0	trustworthiness	96.3121180993785	
12.0	74.41699903195877	response	2.0	e		22.0	female	white	4.614007162753682	neutral	009	sub-01	1.0	3.0	009_neutral	1.0	trustworthiness	96.52875587368362	
12.0	74.89739111483686	pulse	2.0	t		22.0	female	white	4.614007162753682	neutral	009	sub-01	1.0	3.0	009_neutral	1.0	trustworthiness	97.00914795656172	
12.0	75.25540596056999	fix	3.0		444	22.0	female	white	4.614007162753682	neutral	009	sub-01	1.0	3.0	009_neutral	1.0	trustworthiness	97.36716280229484	3.7665556552019552
12.0	75.59739543133401	pulse	3.0	t		22.0	female	white	4.614007162753682	neutral	009	sub-01	1.0	3.0	009_neutral	1.0	trustworthiness	97.70915227305886	
12.0	76.29735416803123	pulse	3.0	t		22.0	female	white	4.614007162753682	neutral	009	sub-01	1.0	3.0	009_neutral	1.0	trustworthiness	98.40911100975609	
12.0	76.99732980849512	pulse	3.0	t		22.0	female	white	4.614007162753682	neutral	009	sub-01	1.0	3.0	009_neutral	1.0	trustworthiness	99.10908665021998	
12.0	77.69730907119629	pulse	3.0	t		22.0	female	white	4.614007162753682	neutral	009	sub-01	1.0	3.0	009_neutral	1.0	trustworthiness	99.80906591292114	
12.0	78.39728984316025	pulse	3.0	t		22.0	female	white	4.614007162753682	neutral	009	sub-01	1.0	3.0	009_neutral	1.0	trustworthiness	100.5090466848851	
13.0	79.02196161577194	face	0.0		145	31.0	female	east_asian	3.395941106247513	neutral	087	sub-01	1.0	3.0	087_neutral	0.0		101.1337184574968	1.233312435044354
13.0	79.09723439276786	pulse	0.0	t		31.0	female	east_asian	3.395941106247513	neutral	087	sub-01	1.0	3.0	087_neutral	0.0		101.20899123449271	
13.0	79.79720278875902	pulse	0.0	t		31.0	female	east_asian	3.395941106247513	neutral	087	sub-01	1.0	3.0	087_neutral	0.0		101.90895963048388	
13.0	80.2552740508163	fix	1.0		444	31.0	female	east_asian	3.395941106247513	neutral	087	sub-01	1.0	3.0	087_neutral	0.0		102.36703089254115	3.7665387514334725
13.0	80.49725328876411	pulse	1.0	t		31.0	female	east_asian	3.395941106247513	neutral	087	sub-01	1.0	3.0	087_neutral	0.0		102.60901013048897	
13.0	81.19722470328634	pulse	1.0	t		31.0	female	east_asian	3.395941106247513	neutral	087	sub-01	1.0	3.0	087_neutral	0.0		103.30898154501119	
13.0	81.89721302157523	pulse	1.0	t		31.0	female	east_asian	3.395941106247513	neutral	087	sub-01	1.0	3.0	087_neutral	0.0		104.00896986330008	
13.0	82.59716632492018	pulse	1.0	t		31.0	female	east_asian	3.395941106247513	neutral	087	sub-01	1.0	3.0	087_neutral	0.0		104.70892316664504	
13.0	83.29716973585892	pulse	1.0	t		31.0	female	east_asian	3.395941106247513	neutral	087	sub-01	1.0	3.0	087_neutral	0.0		105.40892657758377	
14.0	84.02181280224977	face	0.0		146	36.0	female	white	2.7548746518105847	neutral	011	sub-01	1.0	3.0	011_neutral	0.0		106.13356964397462	1.233318773956853
14.0	84.0081032433809	pulse	0.0	t		36.0	female	white	2.7548746518105847	neutral	011	sub-01	1.0	3.0	011_neutral	0.0		106.11986008510576	
14.0	84.69706607954322	pulse	0.0	t		36.0	female	white	2.7548746518105847	neutral	011	sub-01	1.0	3.0	011_neutral	0.0		106.80882292126807	
14.0	85.25513157620662	fix	1.0		443	36.0	female	white	2.7548746518105847	neutral	011	sub-01	1.0	3.0	011_neutral	0.0		107.36688841793148	3.766563503379075
14.0	85.39711024063399	pulse	1.0	t		36.0	female	white	2.7548746518105847	neutral	011	sub-01	1.0	3.0	011_neutral	0.0		107.50886708235885	
14.0	86.09709403112902	pulse	1.0	t		36.0	female	white	2.7548746518105847	neutral	011	sub-01	1.0	3.0	011_neutral	0.0		108.20885087285387	
14.0	86.79719644984652	pulse	1.0	t		36.0	female	white	2.7548746518105847	neutral	011	sub-01	1.0	3.0	011_neutral	0.0		108.90895329157138	
14.0	87.49719110704973	pulse	1.0	t		36.0	female	white	2.7548746518105847	neutral	011	sub-01	1.0	3.0	011_neutral	0.0		109.60894794877458	
14.0	88.19704359149546	pulse	1.0	t		36.0	female	white	2.7548746518105847	neutral	011	sub-01	1.0	3.0	011_neutral	0.0		110.30880043322031	
14.0	88.89700263004488	pulse	1.0	t		36.0	female	white	2.7548746518105847	neutral	011	sub-01	1.0	3.0	011_neutral	0.0		111.00875947176974	
15.0	89.0216950795857	face	0.0		146	19.0	female	white	4.298846000795861	neutral	100	sub-01	1.0	3.0	100_neutral	0.0		111.13345192131055	1.2333079072504916
15.0	89.5969480852109	pulse	0.0	t		19.0	female	white	4.298846000795861	neutral	100	sub-01	1.0	3.0	100_neutral	0.0		111.70870492693575	
15.0	90.25500298683619	fix	1.0		443	19.0	female	white	4.298846000795861	neutral	100	sub-01	1.0	3.0	100_neutral	0.0		112.36675982856104	3.7665622959666507
15.0	90.29699013333266	pulse	1.0	t		19.0	female	white	4.298846000795861	neutral	100	sub-01	1.0	3.0	100_neutral	0.0		112.40874697505751	
15.0	90.99695792561943	pulse	1.0	t		19.0	female	white	4.298846000795861	neutral	100	sub-01	1.0	3.0	100_neutral	0.0		113.10871476734428	
15.0	91.69693598090635	pulse	1.0	t		19.0	female	white	4.298846000795861	neutral	100	sub-01	1.0	3.0	100_neutral	0.0		113.8086928226312	
15.0	92.39693637331584	pulse	1.0	t		19.0	female	white	4.298846000795861	neutral	100	sub-01	1.0	3.0	100_neutral	0.0		114.5086932150407	
15.0	93.09690326004238	pulse	1.0	t		19.0	female	white	4.298846000795861	neutral	100	sub-01	1.0	3.0	100_neutral	0.0		115.20866010176724	
15.0	93.79689580427475	pulse	1.0	t		19.0	female	white	4.298846000795861	neutral	100	sub-01	1.0	3.0	100_neutral	0.0		115.90865264599961	
16.0	94.02156528280284	face	0.0		145	22.0	male	black	2.767608436132113	smiling	044	sub-01	1.0	3.0	044_smiling	0.0		116.1333221245277	1.2333115294859454
16.0	94.4968189223182	pulse	0.0	t		22.0	male	black	2.767608436132113	smiling	044	sub-01	1.0	3.0	044_smiling	0.0		116.60857576404305	
16.0	95.19678550719436	pulse	0.0	t		22.0	male	black	2.767608436132113	smiling	044	sub-01	1.0	3.0	044_smiling	0.0		117.30854234891922	
16.0	95.25487681228879	fix	1.0		445	22.0	male	black	2.767608436132113	smiling	044	sub-01	1.0	3.0	044_smiling	0.0		117.36663365401364	3.766557768170969
16.0	95.89684506278718	pulse	1.0	t		22.0	male	black	2.767608436132113	smiling	044	sub-01	1.0	3.0	044_smiling	0.0		118.00860190451203	
16.0	96.59681496804478	pulse	1.0	t		22.0	male	black	2.767608436132113	smiling	044	sub-01	1.0	3.0	044_smiling	0.0		118.70857180976964	
16.0	97.29679423074413	pulse	1.0	t		22.0	male	black	2.767608436132113	smiling	044	sub-01	1.0	3.0	044_smiling	0.0		119.40855107246898	
16.0	97.9967816434746	pulse	1.0	t		22.0	male	black	2.767608436132113	smiling	044	sub-01	1.0	3.0	044_smiling	0.0		120.10853848519946	
16.0	98.69676633952986	pulse	1.0	t		22.0	male	black	2.767608436132113	smiling	044	sub-01	1.0	3.0	044_smiling	0.0		120.80852318125471	
17.0	99.02143458045975	face	0.0		145	22.0	female	west_asian	3.8205332272184642	smiling	066	sub-01	1.0	3.0	066_smiling	0.0		121.13319142218461	1.2333130387505662
17.0	99.39669036313353	pulse	0.0	t		22.0	female	west_asian	3.8205332272184642	smiling	066	sub-01	1.0	3.0	066_smiling	0.0		121.50844720485838	
17.0	100.09665815541848	pulse	0.0	t		22.0	female	west_asian	3.8205332272184642	smiling	066	sub-01	1.0	3.0	066_smiling	0.0		122.20841499714334	
17.0	100.25474761921032	fix	1.0		444	22.0	female	west_asian	3.8205332272184642	smiling	066	sub-01	1.0	3.0	066_smiling	0.0		122.36650446093518	3.7665535422293033
17.0	100.79671469248387	pulse	1.0	t		22.0	female	west_asian	3.8205332272184642	smiling	066	sub-01	1.0	3.0	066_smiling	0.0		122.90847153420873	
17.0	101.49667524029792	pulse	1.0	t		22.0	female	west_asian	3.8205332272184642	smiling	066	sub-01	1.0	3.0	066_smiling	0.0		123.60843208202277	
17.0	102.19666536970544	pulse	1.0	t		22.0	female	west_asian	3.8205332272184642	smiling	066	sub-01	1.0	3.0	066_smiling	0.0		124.3084222114303	
17.0	102.89646563358474	pulse	1.0	t		22.0	female	west_asian	3.8205332272184642	smiling	066	sub-01	1.0	3.0	066_smiling	0.0		125.0082224753096	
17.0	103.59646481858181	pulse	1.0	t		22.0	female	west_asian	3.8205332272184642	smiling	066	sub-01	1.0	3.0	066_smiling	0.0		125.70822166030666	
18.0	104.02130116143962	face	0.0		145	31.0	male	west_asian	1.9538400318344609	smiling	070	sub-01	1.0	3.0	070_smiling	0.0		126.13305800316448	1.2333130387523852
18.0	104.29655969097621	pulse	0.0	t		31.0	male	west_asian	1.9538400318344609	smiling	070	sub-01	1.0	3.0	070_smiling	0.0		126.40831653270106	
18.0	104.9964103643033	pulse	0.0	t		31.0	male	west_asian	1.9538400318344609	smiling	070	sub-01	1.0	3.0	070_smiling	0.0		127.10816720602816	
18.0	105.25461420019201	fix	1.0		444	31.0	male	west_asian	1.9538400318344609	smiling	070	sub-01	1.0	3.0	070_smiling	0.0		127.36637104191686	3.7665553533461207
18.0	105.6964167937731	pulse	1.0	t		31.0	male	west_asian	1.9538400318344609	smiling	070	sub-01	1.0	3.0	070_smiling	0.0		127.80817363549795	
18.0	106.39640239538494	pulse	1.0	t		31.0	male	west_asian	1.9538400318344609	smiling	070	sub-01	1.0	3.0	070_smiling	0.0		128.5081592371098	
18.0	107.09633668199058	pulse	1.0	t		31.0	male	west_asian	1.9538400318344609	smiling	070	sub-01	1.0	3.0	070_smiling	0.0		129.20809352371543	
18.0	107.79632801881053	pulse	1.0	t		31.0	male	west_asian	1.9538400318344609	smiling	070	sub-01	1.0	3.0	070_smiling	0.0		129.90808486053538	
18.0	108.4963093944807	pulse	1.0	t		31.0	male	west_asian	1.9538400318344609	smiling	070	sub-01	1.0	3.0	070_smiling	0.0		130.60806623620556	
19.0	109.02116955353813	face	0.0		145	26.0	male	white	2.7966573816155993	neutral	117	sub-01	1.0	3.0	117_neutral	0.0		131.13292639526298	1.233314548017006
19.0	109.19630646650694	pulse	0.0	t		26.0	male	white	2.7966573816155993	neutral	117	sub-01	1.0	3.0	117_neutral	0.0		131.3080633082318	
19.0	109.896267316175	pulse	0.0	t		26.0	male	white	2.7966573816155993	neutral	117	sub-01	1.0	3.0	117_neutral	0.0		132.00802415789985	
19.0	110.25448410155514	fix	1.0		444	26.0	male	white	2.7966573816155993	neutral	117	sub-01	1.0	3.0	117_neutral	0.0		132.36624094328	3.766552938523091
19.0	110.59631298653039	pulse	1.0	t		26.0	male	white	2.7966573816155993	neutral	117	sub-01	1.0	3.0	117_neutral	0.0		132.70806982825525	
19.0	111.29623218048619	pulse	1.0	t		26.0	male	white	2.7966573816155993	neutral	117	sub-01	1.0	3.0	117_neutral	0.0		133.40798902221104	
19.0	111.99620208574379	pulse	1.0	t		26.0	male	white	2.7966573816155993	neutral	117	sub-01	1.0	3.0	117_neutral	0.0		134.10795892746864	
19.0	112.69618195214935	pulse	1.0	t		26.0	male	white	2.7966573816155993	neutral	117	sub-01	1.0	3.0	117_neutral	0.0		134.8079387938742	
19.0	113.39616815746922	pulse	1.0	t		26.0	male	white	2.7966573816155993	neutral	117	sub-01	1.0	3.0	117_neutral	0.0		135.50792499919407	
20.0	114.02103704007823	face	0.0		145	23.0	male	white	2.6275368085953046	neutral	141	sub-01	1.0	3.0	141_neutral	0.0		136.13279388180308	1.2333136424567783
20.0	114.09616553134765	pulse	0.0	t		23.0	male	white	2.6275368085953046	neutral	141	sub-01	1.0	3.0	141_neutral	0.0		136.2079223730725	
20.0	114.79614781257806	pulse	0.0	t		23.0	male	white	2.6275368085953046	neutral	141	sub-01	1.0	3.0	141_neutral	0.0		136.9079046543029	
20.0	115.254350682535	fix	1.0		1185	23.0	male	white	2.6275368085953046	neutral	141	sub-01	1.0	3.0	141_neutral	0.0		137.36610752425986	10.0163894096695
20.0	115.49613462160232	pulse	1.0	t		23.0	male	white	2.6275368085953046	neutral	141	sub-01	1.0	3.0	141_neutral	0.0		137.60789146332718	
20.0	116.19611177133083	pulse	1.0	t		23.0	male	white	2.6275368085953046	neutral	141	sub-01	1.0	3.0	141_neutral	0.0		138.3078686130557	
20.0	116.89608348770707	pulse	1.0	t		23.0	male	white	2.6275368085953046	neutral	141	sub-01	1.0	3.0	141_neutral	0.0		139.00784032943193	
20.0	117.59606335411263	pulse	1.0	t		23.0	male	white	2.6275368085953046	neutral	141	sub-01	1.0	3.0	141_neutral	0.0		139.70782019583748	
20.0	118.2960498612847	pulse	1.0	t		23.0	male	white	2.6275368085953046	neutral	141	sub-01	1.0	3.0	141_neutral	0.0		140.40780670300956	
20.0	118.996039085132	pulse	1.0	t		23.0	male	white	2.6275368085953046	neutral	141	sub-01	1.0	3.0	141_neutral	0.0		141.10779592685685	
20.0	119.69600989594801	pulse	1.0	t		23.0	male	white	2.6275368085953046	neutral	141	sub-01	1.0	3.0	141_neutral	0.0		141.80776673767286	
20.0	120.39599398829705	pulse	1.0	t		23.0	male	white	2.6275368085953046	neutral	141	sub-01	1.0	3.0	141_neutral	0.0		142.5077508300219	
20.0	121.0959741565548	pulse	1.0	t		23.0	male	white	2.6275368085953046	neutral	141	sub-01	1.0	3.0	141_neutral	0.0		143.20773099827966	
20.0	121.79594798590188	pulse	1.0	t		23.0	male	white	2.6275368085953046	neutral	141	sub-01	1.0	3.0	141_neutral	0.0		143.90770482762673	
20.0	122.4959257393366	pulse	1.0	t		23.0	male	white	2.6275368085953046	neutral	141	sub-01	1.0	3.0	141_neutral	0.0		144.60768258106145	
20.0	123.19590500203594	pulse	1.0	t		23.0	male	white	2.6275368085953046	neutral	141	sub-01	1.0	3.0	141_neutral	0.0		145.3076618437608	
20.0	123.89588184991226	pulse	1.0	t		23.0	male	white	2.6275368085953046	neutral	141	sub-01	1.0	3.0	141_neutral	0.0		146.0076386916371	
20.0	124.59586926264274	pulse	1.0	t		23.0	male	white	2.6275368085953046	neutral	141	sub-01	1.0	3.0	141_neutral	0.0		146.7076261043676	
21.0	125.2707400922045	face	0.0		145	26.0	male	white	2.7966573816155993	smiling	117	sub-01	1.0	3.0	117_smiling	1.0	attractiveness	147.38249693392936	1.2333127368983696
21.0	125.29585697722723	pulse	0.0	t		26.0	male	white	2.7966573816155993	smiling	117	sub-01	1.0	3.0	117_smiling	1.0	attractiveness	147.4076138189521	
21.0	125.99587427340339	pulse	0.0	t		26.0	male	white	2.7966573816155993	smiling	117	sub-01	1.0	3.0	117_smiling	1.0	attractiveness	148.10763111512824	
21.0	126.50405282910287	fix	1.0		177	26.0	male	white	2.7966573816155993	smiling	117	sub-01	1.0	3.0	117_smiling	1.0	attractiveness	148.61580967082773	1.4999633248626196
21.0	126.69581610633213	pulse	1.0	t		26.0	male	white	2.7966573816155993	smiling	117	sub-01	1.0	3.0	117_smiling	1.0	attractiveness	148.807572948057	
21.0	127.39579053938542	pulse	1.0	t		26.0	male	white	2.7966573816155993	smiling	117	sub-01	1.0	3.0	117_smiling	1.0	attractiveness	149.50754738111027	
21.0	128.0040161539655	rating	2.0		294	26.0	male	white	2.7966573816155993	smiling	117	sub-01	1.0	3.0	117_smiling	1.0	attractiveness	150.11577299569035	2.4999322340045183
21.0	128.09581236335544	pulse	2.0	t		26.0	male	white	2.7966573816155993	smiling	117	sub-01	1.0	3.0	117_smiling	1.0	attractiveness	150.2075692050803	
21.0	128.79579615385046	pulse	2.0	t		26.0	male	white	2.7966573816155993	smiling	117	sub-01	1.0	3.0	117_smiling	1.0	attractiveness	150.90755299557532	
21.0	129.01241159103483	response	2.0	y		26.0	male	white	2.7966573816155993	smiling	117	sub-01	1.0	3.0	117_smiling	1.0	attractiveness	151.1241684327597	
21.0	129.49576787022488	pulse	2.0	t		26.0	male	white	2.7966573816155993	smiling	117	sub-01	1.0	3.0	117_smiling	1.0	attractiveness	151.60752471194974	
21.0	130.19573324768862	pulse	2.0	t		26.0	male	white	2.7966573816155993	smiling	117	sub-01	1.0	3.0	117_smiling	1.0	attractiveness	152.30749008941348	
21.0	130.50394838797	fix	3.0		444	26.0	male	white	2.7966573816155993	smiling	117	sub-01	1.0	3.0	117_smiling	1.0	attractiveness	152.61570522969487	3.7665562589063484
21.0	130.89574088456902	pulse	3.0	t		26.0	male	white	2.7966573816155993	smiling	117	sub-01	1.0	3.0	117_smiling	1.0	attractiveness	153.00749772629388	
21.0	131.59571229909125	pulse	3.0	t		26.0	male	white	2.7966573816155993	smiling	117	sub-01	1.0	3.0	117_smiling	1.0	attractiveness	153.7074691408161	
21.0	132.29567707284696	pulse	3.0	t		26.0	male	white	2.7966573816155993	smiling	117	sub-01	1.0	3.0	117_smiling	1.0	attractiveness	154.4074339145718	
21.0	132.99564214845668	pulse	3.0	t		26.0	male	white	2.7966573816155993	smiling	117	sub-01	1.0	3.0	117_smiling	1.0	attractiveness	155.10739899018154	
21.0	133.69564223901398	pulse	3.0	t		26.0	male	white	2.7966573816155993	smiling	117	sub-01	1.0	3.0	117_smiling	1.0	attractiveness	155.80739908073883	
22.0	134.27050464687636	face	0.0		145	19.0	male	white	2.243931555909272	smiling	130	sub-01	1.0	3.0	130_smiling	0.0		156.38226148860122	1.233300662777765
22.0	134.3956323684215	pulse	0.0	t		19.0	male	white	2.243931555909272	smiling	130	sub-01	1.0	3.0	130_smiling	0.0		156.50738921014636	
22.0	135.09557510690865	pulse	0.0	t		19.0	male	white	2.243931555909272	smiling	130	sub-01	1.0	3.0	130_smiling	0.0		157.2073319486335	
22.0	135.50380530965413	fix	1.0		444	19.0	male	white	2.243931555909272	smiling	130	sub-01	1.0	3.0	130_smiling	0.0		157.61556215137898	3.766565012643696
22.0	135.795567349287	pulse	1.0	t		19.0	male	white	2.243931555909272	smiling	130	sub-01	1.0	3.0	130_smiling	0.0		157.90732419101187	
22.0	136.495548423105	pulse	1.0	t		19.0	male	white	2.243931555909272	smiling	130	sub-01	1.0	3.0	130_smiling	0.0		158.60730526482985	
22.0	137.19551983762722	pulse	1.0	t		19.0	male	white	2.243931555909272	smiling	130	sub-01	1.0	3.0	130_smiling	0.0		159.30727667935207	
22.0	137.8955060429471	pulse	1.0	t		19.0	male	white	2.243931555909272	smiling	130	sub-01	1.0	3.0	130_smiling	0.0		160.00726288467195	
22.0	138.5954964742068	pulse	1.0	t		19.0	male	white	2.243931555909272	smiling	130	sub-01	1.0	3.0	130_smiling	0.0		160.70725331593167	
23.0	139.27037032229782	face	0.0		145	22.0	female	west_asian	3.8205332272184642	neutral	066	sub-01	1.0	3.0	066_neutral	0.0		161.38212716402268	1.2333121331921575
23.0	139.2954847924957	pulse	0.0	t		22.0	female	west_asian	3.8205332272184642	neutral	066	sub-01	1.0	3.0	066_neutral	0.0		161.40724163422055	
23.0	139.99545892369497	pulse	0.0	t		22.0	female	west_asian	3.8205332272184642	neutral	066	sub-01	1.0	3.0	066_neutral	0.0		162.10721576541982	
23.0	140.50368245548998	fix	1.0		443	22.0	female	west_asian	3.8205332272184642	neutral	066	sub-01	1.0	3.0	066_neutral	0.0		162.61543929721483	3.766555051493924
23.0	140.69543486601287	pulse	1.0	t		22.0	female	west_asian	3.8205332272184642	neutral	066	sub-01	1.0	3.0	066_neutral	0.0		162.80719170773773	
23.0	141.3954259009788	pulse	1.0	t		22.0	female	west_asian	3.8205332272184642	neutral	066	sub-01	1.0	3.0	066_neutral	0.0		163.50718274270366	
23.0	142.09541089888626	pulse	1.0	t		22.0	female	west_asian	3.8205332272184642	neutral	066	sub-01	1.0	3.0	066_neutral	0.0		164.2071677406111	
23.0	142.7953835208191	pulse	1.0	t		22.0	female	west_asian	3.8205332272184642	neutral	066	sub-01	1.0	3.0	066_neutral	0.0		164.90714036254394	
23.0	143.49538149840555	pulse	1.0	t		22.0	female	west_asian	3.8205332272184642	neutral	066	sub-01	1.0	3.0	066_neutral	0.0		165.6071383401304	
23.0	144.1953667981652	pulse	1.0	t		22.0	female	west_asian	3.8205332272184642	neutral	066	sub-01	1.0	3.0	066_neutral	0.0		166.30712363989005	
24.0	144.2702375069839	face	0.0		146	28.0	male	white	3.9076800636689217	neutral	033	sub-01	1.0	3.0	033_neutral	0.0		166.38199434870876	1.2333030776026135
24.0	144.89535209792484	pulse	0.0	t		28.0	male	white	3.9076800636689217	neutral	033	sub-01	1.0	3.0	033_neutral	0.0		167.0071089396497	
24.0	145.50354058458652	fix	1.0		443	28.0	male	white	3.9076800636689217	neutral	033	sub-01	1.0	3.0	033_neutral	0.0		167.61529742631137	3.7665653144958924
24.0	145.5953268328285	pulse	1.0	t		28.0	male	white	3.9076800636689217	neutral	033	sub-01	1.0	3.0	033_neutral	0.0		167.70708367455336	
24.0	146.29529885105694	pulse	1.0	t		28.0	male	white	3.9076800636689217	neutral	033	sub-01	1.0	3.0	033_neutral	0.0		168.4070556927818	
24.0	146.99526966187477	pulse	1.0	t		28.0	male	white	3.9076800636689217	neutral	033	sub-01	1.0	3.0	033_neutral	0.0		169.10702650359963	
24.0	147.69527609134275	pulse	1.0	t		28.0	male	white	3.9076800636689217	neutral	033	sub-01	1.0	3.0	033_neutral	0.0		169.8070329330676	
24.0	148.39524207251088	pulse	1.0	t		28.0	male	white	3.9076800636689217	neutral	033	sub-01	1.0	3.0	033_neutral	0.0		170.50699891423574	
24.0	149.09523371118303	pulse	1.0	t		28.0	male	white	3.9076800636689217	neutral	033	sub-01	1.0	3.0	033_neutral	0.0		171.20699055290788	
25.0	149.2701058990824	face	0.0		146	31.0	female	west_asian	2.364902506963788	smiling	006	sub-01	1.0	3.0	006_smiling	0.0		171.38186274080726	1.2416499163427943
25.0	149.7952208220613	pulse	0.0	t		31.0	female	west_asian	2.364902506963788	smiling	006	sub-01	1.0	3.0	006_smiling	0.0		171.90697766378617	
25.0	150.49520099031906	pulse	0.0	t		31.0	female	west_asian	2.364902506963788	smiling	006	sub-01	1.0	3.0	006_smiling	0.0		172.60695783204392	
25.0	150.5117558154252	fix	1.0		443	31.0	female	west_asian	2.364902506963788	smiling	006	sub-01	1.0	3.0	006_smiling	0.0		172.62351265715006	3.7500210542457353
25.0	151.19518236599106	pulse	1.0	t		31.0	female	west_asian	2.364902506963788	smiling	006	sub-01	1.0	3.0	006_smiling	0.0		173.3069392077159	
25.0	151.89513959342185	pulse	1.0	t		31.0	female	west_asian	2.364902506963788	smiling	006	sub-01	1.0	3.0	006_smiling	0.0		174.0068964351467	
25.0	152.59510980053346	pulse	1.0	t		31.0	female	west_asian	2.364902506963788	smiling	006	sub-01	1.0	3.0	006_smiling	0.0		174.70686664225832	
25.0	153.29512830412023	pulse	1.0	t		31.0	female	west_asian	2.364902506963788	smiling	006	sub-01	1.0	3.0	006_smiling	0.0		175.40688514584508	
25.0	153.9950888519361	pulse	1.0	t		31.0	female	west_asian	2.364902506963788	smiling	006	sub-01	1.0	3.0	006_smiling	0.0		176.10684569366094	
26.0	154.26177686967094	face	0.0		146	22.0	male	black	2.767608436132113	neutral	044	sub-01	1.0	3.0	044_neutral	0.0		176.3735337113958	1.2415110639685736
26.0	154.69508803693316	pulse	0.0	t		22.0	male	black	2.767608436132113	neutral	044	sub-01	1.0	3.0	044_neutral	0.0		176.806844878658	
26.0	155.39507394039902	pulse	0.0	t		22.0	male	black	2.767608436132113	neutral	044	sub-01	1.0	3.0	044_neutral	0.0		177.50683078212387	
26.0	155.5032879336395	fix	1.0		444	22.0	male	black	2.767608436132113	neutral	044	sub-01	1.0	3.0	044_neutral	0.0		177.61504477536437	3.766554447787712
26.0	156.09505109012753	pulse	1.0	t		22.0	male	black	2.767608436132113	neutral	044	sub-01	1.0	3.0	044_neutral	0.0		178.20680793185238	
26.0	156.7950261268852	pulse	1.0	t		22.0	male	black	2.767608436132113	neutral	044	sub-01	1.0	3.0	044_neutral	0.0		178.90678296861006	
26.0	157.4950011636447	pulse	1.0	t		22.0	male	black	2.767608436132113	neutral	044	sub-01	1.0	3.0	044_neutral	0.0		179.60675800536956	
26.0	158.19497408743155	pulse	1.0	t		22.0	male	black	2.767608436132113	neutral	044	sub-01	1.0	3.0	044_neutral	0.0		180.3067309291564	
26.0	158.89496300942665	pulse	1.0	t		22.0	male	black	2.767608436132113	neutral	044	sub-01	1.0	3.0	044_neutral	0.0		181.0067198511515	
27.0	159.26984238142722	face	0.0		145	32.0	male	white	2.389176283326701	smiling	092	sub-01	1.0	3.0	092_smiling	1.0	trustworthiness	181.38159922315208	1.2333021720442048
27.0	159.59496038330508	pulse	0.0	t		32.0	male	white	2.389176283326701	smiling	092	sub-01	1.0	3.0	092_smiling	1.0	trustworthiness	181.70671722502993	
27.0	160.29493028856268	pulse	0.0	t		32.0	male	white	2.389176283326701	smiling	092	sub-01	1.0	3.0	092_smiling	1.0	trustworthiness	182.40668713028754	
27.0	160.50314455347143	fix	1.0		177	32.0	male	white	2.389176283326701	smiling	092	sub-01	1.0	3.0	092_smiling	1.0	trustworthiness	182.61490139519628	1.4999729841565568
27.0	160.99492373835346	pulse	1.0	t		32.0	male	white	2.389176283326701	smiling	092	sub-01	1.0	3.0	092_smiling	1.0	trustworthiness	183.10668058007832	
27.0	161.69489786955273	pulse	1.0	t		32.0	male	white	2.389176283326701	smiling	092	sub-01	1.0	3.0	092_smiling	1.0	trustworthiness	183.8066547112776	
27.0	162.003117537628	rating	2.0		295	32.0	male	white	2.389176283326701	smiling	092	sub-01	1.0	3.0	092_smiling	1.0	trustworthiness	184.11487437935284	2.508253415240688
27.0	162.39489252675412	pulse	2.0	t		32.0	male	white	2.389176283326701	smiling	092	sub-01	1.0	3.0	092_smiling	1.0	trustworthiness	184.50664936847897	
27.0	162.6532011056279	response	2.0	y		32.0	male	white	2.389176283326701	smiling	092	sub-01	1.0	3.0	092_smiling	1.0	trustworthiness	184.76495794735274	
27.0	163.09485518754082	pulse	2.0	t		32.0	male	white	2.389176283326701	smiling	092	sub-01	1.0	3.0	092_smiling	1.0	trustworthiness	185.20661202926567	
27.0	163.79484682621296	pulse	2.0	t		32.0	male	white	2.389176283326701	smiling	092	sub-01	1.0	3.0	092_smiling	1.0	trustworthiness	185.90660366793782	
27.0	164.49481642961655	pulse	2.0	t		32.0	male	white	2.389176283326701	smiling	092	sub-01	1.0	3.0	092_smiling	1.0	trustworthiness	186.6065732713414	
27.0	164.51137095286867	fix	3.0		443	32.0	male	white	2.389176283326701	smiling	092	sub-01	1.0	3.0	092_smiling	1.0	trustworthiness	186.62312779459353	3.7500258838936134
27.0	165.19479840899476	pulse	3.0	t		32.0	male	white	2.389176283326701	smiling	092	sub-01	1.0	3.0	092_smiling	1.0	trustworthiness	187.3065552507196	
27.0	165.8947831050482	pulse	3.0	t		32.0	male	white	2.389176283326701	smiling	092	sub-01	1.0	3.0	092_smiling	1.0	trustworthiness	188.00653994677305	
27.0	166.59476538627678	pulse	3.0	t		32.0	male	white	2.389176283326701	smiling	092	sub-01	1.0	3.0	092_smiling	1.0	trustworthiness	188.70652222800163	
27.0	167.2947491767718	pulse	3.0	t		32.0	male	white	2.389176283326701	smiling	092	sub-01	1.0	3.0	092_smiling	1.0	trustworthiness	189.40650601849666	
27.0	167.99475439882917	pulse	3.0	t		32.0	male	white	2.389176283326701	smiling	092	sub-01	1.0	3.0	092_smiling	1.0	trustworthiness	190.10651124055403	
28.0	168.2613968367623	face	0.0		146	36.0	female	white	2.7548746518105847	smiling	011	sub-01	1.0	3.0	011_smiling	0.0		190.37315367848714	1.241521930676754
28.0	168.6947077021723	pulse	0.0	t		36.0	female	white	2.7548746518105847	smiling	011	sub-01	1.0	3.0	011_smiling	0.0		190.80646454389716	
28.0	169.39470115196127	pulse	0.0	t		36.0	female	white	2.7548746518105847	smiling	011	sub-01	1.0	3.0	011_smiling	0.0		191.50645799368613	
28.0	169.50291876743904	fix	1.0		444	36.0	female	white	2.7548746518105847	smiling	011	sub-01	1.0	3.0	011_smiling	0.0		191.6146756091639	3.766552334816879
28.0	170.0946716609251	pulse	1.0	t		36.0	female	white	2.7548746518105847	smiling	011	sub-01	1.0	3.0	011_smiling	0.0		192.20642850264994	
28.0	170.79466933665753	pulse	1.0	t		36.0	female	white	2.7548746518105847	smiling	011	sub-01	1.0	3.0	011_smiling	0.0		192.9064261783824	
28.0	171.49463320485484	pulse	1.0	t		36.0	female	white	2.7548746518105847	smiling	011	sub-01	1.0	3.0	011_smiling	0.0		193.6063900465797	
28.0	172.19462091943933	pulse	1.0	t		36.0	female	white	2.7548746518105847	smiling	011	sub-01	1.0	3.0	011_smiling	0.0		194.30637776116419	
28.0	172.89460320066792	pulse	1.0	t		36.0	female	white	2.7548746518105847	smiling	011	sub-01	1.0	3.0	011_smiling	0.0		195.00636004239277	
29.0	173.26947110225592	face	0.0		145	54.0	female	white	2.286908077994429	neutral	136	sub-01	1.0	3.0	136_neutral	0.0		195.38122794398078	1.2333199813692772
29.0	173.59459212266484	pulse	0.0	t		54.0	female	white	2.286908077994429	neutral	136	sub-01	1.0	3.0	136_neutral	0.0		195.7063489643897	
29.0	174.29455900939138	pulse	0.0	t		54.0	female	white	2.286908077994429	neutral	136	sub-01	1.0	3.0	136_neutral	0.0		196.40631585111623	
29.0	174.5027910836252	fix	1.0		444	54.0	female	white	2.286908077994429	neutral	136	sub-01	1.0	3.0	136_neutral	0.0		196.61454792535005	3.766551731112486
29.0	174.99453827209072	pulse	1.0	t		54.0	female	white	2.286908077994429	neutral	136	sub-01	1.0	3.0	136_neutral	0.0		197.10629511381558	
29.0	175.69453594782317	pulse	1.0	t		54.0	female	white	2.286908077994429	neutral	136	sub-01	1.0	3.0	136_neutral	0.0		197.80629278954802	
29.0	176.39450374010994	pulse	1.0	t		54.0	female	white	2.286908077994429	neutral	136	sub-01	1.0	3.0	136_neutral	0.0		198.5062605818348	
29.0	177.09447485277997	pulse	1.0	t		54.0	female	white	2.286908077994429	neutral	136	sub-01	1.0	3.0	136_neutral	0.0		199.20623169450482	
29.0	177.80291113055682	pulse	1.0	t		54.0	female	white	2.286908077994429	neutral	136	sub-01	1.0	3.0	136_neutral	0.0		199.91466797228168	
30.0	178.26934281473768	face	0.0		145	40.0	male	black	2.408674890569041	smiling	061	sub-01	1.0	3.0	061_smiling	0.0		200.38109965646254	1.2333109257797332
30.0	178.49446265791812	pulse	0.0	t		40.0	male	black	2.408674890569041	smiling	061	sub-01	1.0	3.0	061_smiling	0.0		200.60621949964298	
30.0	179.1944364872652	pulse	0.0	t		40.0	male	black	2.408674890569041	smiling	061	sub-01	1.0	3.0	061_smiling	0.0		201.30619332899005	
30.0	179.50265374051742	fix	1.0		444	40.0	male	black	2.408674890569041	smiling	061	sub-01	1.0	3.0	061_smiling	0.0		201.61441058224227	3.7665541459355154
30.0	179.9027568534966	pulse	1.0	t		40.0	male	black	2.408674890569041	smiling	061	sub-01	1.0	3.0	061_smiling	0.0		202.01451369522147	
30.0	180.60272796616664	pulse	1.0	t		40.0	male	black	2.408674890569041	smiling	061	sub-01	1.0	3.0	061_smiling	0.0		202.7144848078915	
30.0	181.29437004942338	pulse	1.0	t		40.0	male	black	2.408674890569041	smiling	061	sub-01	1.0	3.0	061_smiling	0.0		203.40612689114823	
30.0	182.00267954894844	pulse	1.0	t		40.0	male	black	2.408674890569041	smiling	061	sub-01	1.0	3.0	061_smiling	0.0		204.1144363906733	
30.0	182.70266786723732	pulse	1.0	t		40.0	male	black	2.408674890569041	smiling	061	sub-01	1.0	3.0	061_smiling	0.0		204.81442470896218	
31.0	183.26920788645293	face	0.0		145	28.0	male	east_asian	1.5563072025467568	neutral	005	sub-01	1.0	3.0	005_neutral	0.0		205.3809647281778	1.2333142461629905
31.0	183.4026673540866	pulse	0.0	t		28.0	male	east_asian	1.5563072025467568	neutral	005	sub-01	1.0	3.0	005_neutral	0.0		205.51442419581144	
31.0	184.10263635378578	pulse	0.0	t		28.0	male	east_asian	1.5563072025467568	neutral	005	sub-01	1.0	3.0	005_neutral	0.0		206.21439319551064	
31.0	184.50252213261592	fix	1.0		444	28.0	male	east_asian	1.5563072025467568	neutral	005	sub-01	1.0	3.0	005_neutral	0.0		206.61427897434078	3.766552938523091
31.0	184.80262859616414	pulse	1.0	t		28.0	male	east_asian	1.5563072025467568	neutral	005	sub-01	1.0	3.0	005_neutral	0.0		206.914385437889	
31.0	185.50259457733227	pulse	1.0	t		28.0	male	east_asian	1.5563072025467568	neutral	005	sub-01	1.0	3.0	005_neutral	0.0		207.61435141905713	
31.0	186.20257384003162	pulse	1.0	t		28.0	male	east_asian	1.5563072025467568	neutral	005	sub-01	1.0	3.0	005_neutral	0.0		208.31433068175647	
31.0	186.90254887679112	pulse	1.0	t		28.0	male	east_asian	1.5563072025467568	neutral	005	sub-01	1.0	3.0	005_neutral	0.0		209.01430571851597	
31.0	187.60253296913834	pulse	1.0	t		28.0	male	east_asian	1.5563072025467568	neutral	005	sub-01	1.0	3.0	005_neutral	0.0		209.7142898108632	
32.0	188.269075071139	face	0.0		145	27.0	male	black	3.5523278949462798	neutral	042	sub-01	1.0	3.0	042_neutral	0.0		210.38083191286387	1.2333163591338234
32.0	188.30253577637086	pulse	0.0	t		27.0	male	black	3.5523278949462798	neutral	042	sub-01	1.0	3.0	042_neutral	0.0		210.41429261809571	
32.0	189.00250537977627	pulse	0.0	t		27.0	male	black	3.5523278949462798	neutral	042	sub-01	1.0	3.0	042_neutral	0.0		211.11426222150112	
32.0	189.50239143027284	fix	1.0		443	27.0	male	black	3.5523278949462798	neutral	042	sub-01	1.0	3.0	042_neutral	0.0		211.6141482719977	3.7665535422311223
32.0	189.70249822585902	pulse	1.0	t		27.0	male	black	3.5523278949462798	neutral	042	sub-01	1.0	3.0	042_neutral	0.0		211.81425506758387	
32.0	190.4024783941186	pulse	1.0	t		27.0	male	black	3.5523278949462798	neutral	042	sub-01	1.0	3.0	042_neutral	0.0		212.51423523584344	
32.0	191.10246973093854	pulse	1.0	t		27.0	male	black	3.5523278949462798	neutral	042	sub-01	1.0	3.0	042_neutral	0.0		213.2142265726634	
32.0	191.80243963619614	pulse	1.0	t		27.0	male	black	3.5523278949462798	neutral	042	sub-01	1.0	3.0	042_neutral	0.0		213.914196477921	
32.0	192.50238569506655	pulse	1.0	t		27.0	male	black	3.5523278949462798	neutral	042	sub-01	1.0	3.0	042_neutral	0.0		214.6141425367914	
32.0	193.20238850229907	pulse	1.0	t		27.0	male	black	3.5523278949462798	neutral	042	sub-01	1.0	3.0	042_neutral	0.0		215.31414534402393	
33.0	193.26894497250396	face	0.0		146	31.0	female	white	2.1822522881018704	smiling	102	sub-01	1.0	3.0	102_smiling	0.0		215.38070181422881	1.2333151517213992
33.0	193.90238859285637	pulse	0.0	t		31.0	female	white	2.1822522881018704	smiling	102	sub-01	1.0	3.0	102_smiling	0.0		216.01414543458122	
33.0	194.50226012422536	fix	1.0		443	31.0	female	white	2.1822522881018704	smiling	102	sub-01	1.0	3.0	102_smiling	0.0		216.6140169659502	3.766552938523091
33.0	194.60236906296814	pulse	1.0	t		31.0	female	white	2.1822522881018704	smiling	102	sub-01	1.0	3.0	102_smiling	0.0		216.714125904693	
33.0	195.30234077934256	pulse	1.0	t		31.0	female	white	2.1822522881018704	smiling	102	sub-01	1.0	3.0	102_smiling	0.0		217.4140976210674	
33.0	196.00232879577925	pulse	1.0	t		31.0	female	white	2.1822522881018704	smiling	102	sub-01	1.0	3.0	102_smiling	0.0		218.1140856375041	
33.0	196.70230745477238	pulse	1.0	t		31.0	female	white	2.1822522881018704	smiling	102	sub-01	1.0	3.0	102_smiling	0.0		218.81406429649724	
33.0	197.402277661884	pulse	1.0	t		31.0	female	white	2.1822522881018704	smiling	102	sub-01	1.0	3.0	102_smiling	0.0		219.51403450360885	
33.0	198.10225903755418	pulse	1.0	t		31.0	female	white	2.1822522881018704	smiling	102	sub-01	1.0	3.0	102_smiling	0.0		220.21401587927903	
34.0	198.26881306274845	face	0.0		146	25.0	female	west_asian	2.6756864305610826	smiling	064	sub-01	1.0	3.0	064_smiling	1.0	attractiveness	220.3805699044733	1.2333133406045818
34.0	198.80225912810965	pulse	0.0	t		25.0	female	west_asian	2.6756864305610826	smiling	064	sub-01	1.0	3.0	064_smiling	1.0	attractiveness	220.9140159698345	
34.0	199.50212640335303	fix	1.0		176	25.0	female	west_asian	2.6756864305610826	smiling	064	sub-01	1.0	3.0	064_smiling	1.0	attractiveness	221.6138832450779	1.4999636267148162
34.0	199.51012248892403	pulse	1.0	t		25.0	female	west_asian	2.6756864305610826	smiling	064	sub-01	1.0	3.0	064_smiling	1.0	attractiveness	221.62187933064888	
34.0	200.202207088656	pulse	1.0	t		25.0	female	west_asian	2.6756864305610826	smiling	064	sub-01	1.0	3.0	064_smiling	1.0	attractiveness	222.31396393038085	
34.0	200.90221019774071	pulse	1.0	t		25.0	female	west_asian	2.6756864305610826	smiling	064	sub-01	1.0	3.0	064_smiling	1.0	attractiveness	223.01396703946557	
34.0	201.00209003006785	rating	2.0		295	25.0	female	west_asian	2.6756864305610826	smiling	064	sub-01	1.0	3.0	064_smiling	1.0	attractiveness	223.1138468717927	2.4999328377107304
34.0	201.59703411331247	pulse	2.0	t		25.0	female	west_asian	2.6756864305610826	smiling	064	sub-01	1.0	3.0	064_smiling	1.0	attractiveness	223.70879095503733	
34.0	202.25216556877785	response	2.0	b		25.0	female	west_asian	2.6756864305610826	smiling	064	sub-01	1.0	3.0	064_smiling	1.0	attractiveness	224.3639224105027	
34.0	202.29695964618077	pulse	2.0	t		25.0	female	west_asian	2.6756864305610826	smiling	064	sub-01	1.0	3.0	064_smiling	1.0	attractiveness	224.40871648790562	
34.0	203.002136515428	pulse	2.0	t		25.0	female	west_asian	2.6756864305610826	smiling	064	sub-01	1.0	3.0	064_smiling	1.0	attractiveness	225.11389335715285	
34.0	203.50202286777858	fix	3.0		443	25.0	female	west_asian	2.6756864305610826	smiling	064	sub-01	1.0	3.0	064_smiling	1.0	attractiveness	225.61377970950343	3.7665535422293033
34.0	203.70212936151256	pulse	3.0	t		25.0	female	west_asian	2.6756864305610826	smiling	064	sub-01	1.0	3.0	064_smiling	1.0	attractiveness	225.81388620323742	
34.0	204.40209685194532	pulse	3.0	t		25.0	female	west_asian	2.6756864305610826	smiling	064	sub-01	1.0	3.0	064_smiling	1.0	attractiveness	226.51385369367017	
34.0	205.1020842646758	pulse	3.0	t		25.0	female	west_asian	2.6756864305610826	smiling	064	sub-01	1.0	3.0	064_smiling	1.0	attractiveness	227.21384110640065	
34.0	205.8020719792603	pulse	3.0	t		25.0	female	west_asian	2.6756864305610826	smiling	064	sub-01	1.0	3.0	064_smiling	1.0	attractiveness	227.91382882098515	
34.0	206.5020491289888	pulse	3.0	t		25.0	female	west_asian	2.6756864305610826	smiling	064	sub-01	1.0	3.0	064_smiling	1.0	attractiveness	228.61380597071366	
34.0	207.20204046580875	pulse	3.0	t		25.0	female	west_asian	2.6756864305610826	smiling	064	sub-01	1.0	3.0	064_smiling	1.0	attractiveness	229.3137973075336	
35.0	207.26857641000788	face	0.0		146	26.0	female	white	4.854755272582572	smiling	027	sub-01	1.0	3.0	027_smiling	0.0		229.38033325173274	1.233301266485796
35.0	207.90201580441862	pulse	0.0	t		26.0	female	white	4.854755272582572	smiling	027	sub-01	1.0	3.0	027_smiling	0.0		230.01377264614348	
35.0	208.50187767649368	fix	1.0		443	26.0	female	white	4.854755272582572	smiling	027	sub-01	1.0	3.0	027_smiling	0.0		230.61363451821853	3.766567729318922
35.0	208.6020086505032	pulse	1.0	t		26.0	female	white	4.854755272582572	smiling	027	sub-01	1.0	3.0	027_smiling	0.0		230.71376549222805	
35.0	209.30195802975868	pulse	1.0	t		26.0	female	white	4.854755272582572	smiling	027	sub-01	1.0	3.0	027_smiling	0.0		231.41371487148353	
35.0	210.00193849987045	pulse	1.0	t		26.0	female	white	4.854755272582572	smiling	027	sub-01	1.0	3.0	027_smiling	0.0		232.1136953415953	
35.0	210.701931044101	pulse	1.0	t		26.0	female	white	4.854755272582572	smiling	027	sub-01	1.0	3.0	027_smiling	0.0		232.81368788582586	
35.0	211.4019190605377	pulse	1.0	t		26.0	female	white	4.854755272582572	smiling	027	sub-01	1.0	3.0	027_smiling	0.0		233.51367590226255	
35.0	212.10188866394128	pulse	1.0	t		26.0	female	white	4.854755272582572	smiling	027	sub-01	1.0	3.0	027_smiling	0.0		234.21364550566614	
36.0	212.2684454058126	face	0.0		146	37.0	male	white	3.898925586947871	neutral	101	sub-01	1.0	3.0	101_neutral	0.0		234.38020224753745	1.2333139443107939
36.0	212.80188664152774	pulse	0.0	t		37.0	male	white	3.898925586947871	neutral	101	sub-01	1.0	3.0	101_neutral	0.0		234.9136434832526	
36.0	213.5017593501234	fix	1.0		444	37.0	male	white	3.898925586947871	neutral	101	sub-01	1.0	3.0	101_neutral	0.0		235.61351619184825	3.766552938523091
36.0	213.50939109913998	pulse	1.0	t		37.0	male	white	3.898925586947871	neutral	101	sub-01	1.0	3.0	101_neutral	0.0		235.62114794086483	
36.0	214.20183218724924	pulse	1.0	t		37.0	male	white	3.898925586947871	neutral	101	sub-01	1.0	3.0	101_neutral	0.0		236.3135890289741	
36.0	214.90182835371525	pulse	1.0	t		37.0	male	white	3.898925586947871	neutral	101	sub-01	1.0	3.0	101_neutral	0.0		237.0135851954401	
36.0	215.60182512388928	pulse	1.0	t		37.0	male	white	3.898925586947871	neutral	101	sub-01	1.0	3.0	101_neutral	0.0		237.71358196561414	
36.0	216.30177480499515	pulse	1.0	t		37.0	male	white	3.898925586947871	neutral	101	sub-01	1.0	3.0	101_neutral	0.0		238.41353164672	
36.0	217.00175195472548	pulse	1.0	t		37.0	male	white	3.898925586947871	neutral	101	sub-01	1.0	3.0	101_neutral	0.0		239.11350879645033	
37.0	217.26831228864648	face	0.0		145	24.0	female	black	3.0955033824114606	smiling	099	sub-01	1.0	3.0	099_smiling	0.0		239.38006913037134	1.233300662779584
37.0	217.70174691378088	pulse	0.0	t		24.0	female	black	3.0955033824114606	smiling	099	sub-01	1.0	3.0	099_smiling	0.0		239.81350375550574	
37.0	218.40172828945106	pulse	0.0	t		24.0	female	black	3.0955033824114606	smiling	099	sub-01	1.0	3.0	099_smiling	0.0		240.5134851311759	
37.0	218.50161295142607	fix	1.0		444	24.0	female	black	3.0955033824114606	smiling	099	sub-01	1.0	3.0	099_smiling	0.0		240.61336979315092	3.7665653144958924
37.0	219.10171690959396	pulse	1.0	t		24.0	female	black	3.0955033824114606	smiling	099	sub-01	1.0	3.0	099_smiling	0.0		241.21347375131882	
37.0	219.80169737970573	pulse	1.0	t		24.0	female	black	3.0955033824114606	smiling	099	sub-01	1.0	3.0	099_smiling	0.0		241.91345422143058	
37.0	220.50166819052174	pulse	1.0	t		24.0	female	black	3.0955033824114606	smiling	099	sub-01	1.0	3.0	099_smiling	0.0		242.6134250322466	
37.0	221.2016540939876	pulse	1.0	t		24.0	female	black	3.0955033824114606	smiling	099	sub-01	1.0	3.0	099_smiling	0.0		243.31341093571245	
37.0	221.90162671592225	pulse	1.0	t		24.0	female	black	3.0955033824114606	smiling	099	sub-01	1.0	3.0	099_smiling	0.0		244.0133835576471	
38.0	222.26817826592196	face	0.0		145	28.0	male	white	3.9076800636689217	smiling	033	sub-01	1.0	3.0	033_smiling	0.0		244.37993510764682	1.233302775748598
38.0	222.5935730669862	pulse	0.0	t		28.0	male	white	3.9076800636689217	smiling	033	sub-01	1.0	3.0	033_smiling	0.0		244.70532990871106	
38.0	223.30159731544154	pulse	0.0	t		28.0	male	white	3.9076800636689217	smiling	033	sub-01	1.0	3.0	033_smiling	0.0		245.4133541571664	
38.0	223.50148104167056	fix	1.0		444	28.0	male	white	3.9076800636689217	smiling	033	sub-01	1.0	3.0	033_smiling	0.0		245.6132378833954	3.7665665219083166
38.0	224.0015904633783	pulse	1.0	t		28.0	male	white	3.9076800636689217	smiling	033	sub-01	1.0	3.0	033_smiling	0.0		246.11334730510316	
38.0	224.70157032978386	pulse	1.0	t		28.0	male	white	3.9076800636689217	smiling	033	sub-01	1.0	3.0	033_smiling	0.0		246.81332717150872	
38.0	225.40154627210177	pulse	1.0	t		28.0	male	white	3.9076800636689217	smiling	033	sub-01	1.0	3.0	033_smiling	0.0		247.51330311382662	
38.0	226.10151617735937	pulse	1.0	t		28.0	male	white	3.9076800636689217	smiling	033	sub-01	1.0	3.0	033_smiling	0.0		248.21327301908423	
38.0	226.80150932529614	pulse	1.0	t		28.0	male	white	3.9076800636689217	smiling	033	sub-01	1.0	3.0	033_smiling	0.0		248.913266167021	
39.0	227.26804756357888	face	0.0		145	27.0	male	black	3.5523278949462798	smiling	042	sub-01	1.0	3.0	042_smiling	0.0		249.37980440530373	1.2333042850150377
39.0	227.50150398249752	pulse	0.0	t		27.0	male	black	3.5523278949462798	smiling	042	sub-01	1.0	3.0	042_smiling	0.0		249.61326082422238	
39.0	228.20147298219672	pulse	0.0	t		27.0	male	black	3.5523278949462798	smiling	042	sub-01	1.0	3.0	042_smiling	0.0		250.31322982392157	
39.0	228.5013518485939	fix	1.0		444	27.0	male	black	3.5523278949462798	smiling	042	sub-01	1.0	3.0	042_smiling	0.0		250.61310869031877	3.749900614904618
39.0	228.90145284860228	pulse	1.0	t		27.0	male	black	3.5523278949462798	smiling	042	sub-01	1.0	3.0	042_smiling	0.0		251.01320969032713	
39.0	229.601443581716	pulse	1.0	t		27.0	male	black	3.5523278949462798	smiling	042	sub-01	1.0	3.0	042_smiling	0.0		251.71320042344087	
39.0	230.30142042959233	pulse	1.0	t		27.0	male	black	3.5523278949462798	smiling	042	sub-01	1.0	3.0	042_smiling	0.0		252.41317727131718	
39.0	231.00140391823334	pulse	1.0	t		27.0	male	black	3.5523278949462798	smiling	042	sub-01	1.0	3.0	042_smiling	0.0		253.1131607599582	
39.0	231.70137261607852	pulse	1.0	t		27.0	male	black	3.5523278949462798	smiling	042	sub-01	1.0	3.0	042_smiling	0.0		253.81312945780337	
40.0	232.25125246349853	fix	0.0		720													254.3630093052234	5.999850280919418
40.0	232.40136153807362	pulse	0.0	t														254.51311837979847	
40.0	233.10133446186228	pulse	0.0	t														255.21309130358713	
40.0	233.80133304315314	pulse	0.0	t														255.913089884878	
40.0	234.5013020428505	pulse	0.0	t														256.61305888457537	
40.0	235.19314002869396	pulse	0.0	t														257.3048968704188	
40.0	235.89325271041344	pulse	0.0	t														258.0050095521383	
40.0	236.59323468979164	pulse	0.0	t														258.7049915315165	
40.0	237.29308747608957	pulse	0.0	t														259.4048443178144	
40.0	237.99308002032194	pulse	0.0	t														260.1048368620468	
