trial_nr	onset	event_type	phase	response	nr_frames	face_age	face_sex	face_eth	attractiveness	expression	face_id	sub_id	ses	run	trial_type	catch	rating_type	onset_abs	duration
-1.0	0.05397493593955005	fix	0.0		714													26.399995955171107	5.96574723253616
-1.0	0.7033074937116908	pulse	0.0	t														27.049328512943248	
-1.0	1.40329490644217	pulse	0.0	t														27.749315925673727	
-1.0	2.1032663209643943	pulse	0.0	t														28.44928734019595	
-1.0	2.8032501114594197	pulse	0.0	t														29.149271130690977	
-1.0	3.503236014925278	pulse	0.0	t														29.849257034156835	
-1.0	4.203213164653789	pulse	0.0	t														30.549234183885346	
-1.0	4.903202992207298	pulse	0.0	t														31.249224011438855	
-1.0	5.603181651202249	pulse	0.0	t														31.949202670433806	
0.0	6.01972216847571	face	0.0		144	40.0	male	white	1.868682849184242	neutral	172	sub-01	2.0	5.0	172_neutral	0.0		32.36574318770727	1.2332946257192816
0.0	6.3031757046992425	pulse	0.0	t		40.0	male	white	1.868682849184242	neutral	172	sub-01	2.0	5.0	172_neutral	0.0		32.6491967239308	
0.0	7.003140780307149	pulse	0.0	t		40.0	male	white	1.868682849184242	neutral	172	sub-01	2.0	5.0	172_neutral	0.0		33.349161799538706	
0.0	7.253016794194991	fix	1.0		445	40.0	male	white	1.868682849184242	neutral	172	sub-01	2.0	5.0	172_neutral	0.0		33.59903781342655	3.7582242109638173
0.0	7.703109478154147	pulse	1.0	t		40.0	male	white	1.868682849184242	neutral	172	sub-01	2.0	5.0	172_neutral	0.0		34.049130497385704	
0.0	8.403102626090913	pulse	1.0	t		40.0	male	white	1.868682849184242	neutral	172	sub-01	2.0	5.0	172_neutral	0.0		34.74912364532247	
0.0	9.103083096202681	pulse	1.0	t		40.0	male	white	1.868682849184242	neutral	172	sub-01	2.0	5.0	172_neutral	0.0		35.44910411543424	
0.0	9.803071112639373	pulse	1.0	t		40.0	male	white	1.868682849184242	neutral	172	sub-01	2.0	5.0	172_neutral	0.0		36.14909213187093	
0.0	10.503048262367884	pulse	1.0	t		40.0	male	white	1.868682849184242	neutral	172	sub-01	2.0	5.0	172_neutral	0.0		36.84906928159944	
1.0	11.011241005158809	face	0.0		146	23.0	male	white	2.6275368085953046	smiling	141	sub-01	2.0	5.0	141_smiling	0.0		37.357262024390366	1.2416435774284764
1.0	11.203068878927297	pulse	0.0	t		23.0	male	white	2.6275368085953046	smiling	141	sub-01	2.0	5.0	141_smiling	0.0		37.549089898158854	
1.0	11.903011315562253	pulse	0.0	t		23.0	male	white	2.6275368085953046	smiling	141	sub-01	2.0	5.0	141_smiling	0.0		38.24903233479381	
1.0	12.252884582587285	fix	1.0		444	23.0	male	white	2.6275368085953046	smiling	141	sub-01	2.0	5.0	141_smiling	0.0		38.59890560181884	3.7582211924345756
1.0	12.603006878323868	pulse	1.0	t		23.0	male	white	2.6275368085953046	smiling	141	sub-01	2.0	5.0	141_smiling	0.0		38.949027897555425	
1.0	13.302968935404351	pulse	1.0	t		23.0	male	white	2.6275368085953046	smiling	141	sub-01	2.0	5.0	141_smiling	0.0		39.64898995463591	
1.0	14.002952424045361	pulse	1.0	t		23.0	male	white	2.6275368085953046	smiling	141	sub-01	2.0	5.0	141_smiling	0.0		40.34897344327692	
1.0	14.70293440342175	pulse	1.0	t		23.0	male	white	2.6275368085953046	smiling	141	sub-01	2.0	5.0	141_smiling	0.0		41.04895542265331	
1.0	15.402919099475184	pulse	1.0	t		23.0	male	white	2.6275368085953046	smiling	141	sub-01	2.0	5.0	141_smiling	0.0		41.74894011870674	
2.0	16.01110577502186	face	0.0		146	40.0	female	west_asian	1.5777954635893354	neutral	038	sub-01	2.0	5.0	038_neutral	0.0		42.35712679425342	1.2416622923137766
2.0	16.102906210353467	pulse	0.0	t		40.0	female	west_asian	1.5777954635893354	neutral	038	sub-01	2.0	5.0	038_neutral	0.0		42.448927229585024	
2.0	16.80289181196531	pulse	0.0	t		40.0	female	west_asian	1.5777954635893354	neutral	038	sub-01	2.0	5.0	038_neutral	0.0		43.14891283119687	
2.0	17.252768067335637	fix	1.0		444	40.0	female	west_asian	1.5777954635893354	neutral	038	sub-01	2.0	5.0	038_neutral	0.0		43.598789086567194	3.758217570197303
2.0	17.50286745243102	pulse	1.0	t		40.0	female	west_asian	1.5777954635893354	neutral	038	sub-01	2.0	5.0	038_neutral	0.0		43.848888471662576	
2.0	18.202843394747106	pulse	1.0	t		40.0	female	west_asian	1.5777954635893354	neutral	038	sub-01	2.0	5.0	038_neutral	0.0		44.54886441397866	
2.0	18.90282114818183	pulse	1.0	t		40.0	female	west_asian	1.5777954635893354	neutral	038	sub-01	2.0	5.0	038_neutral	0.0		45.248842167413386	
2.0	19.60281157944337	pulse	1.0	t		40.0	female	west_asian	1.5777954635893354	neutral	038	sub-01	2.0	5.0	038_neutral	0.0		45.948832598674926	
2.0	20.30279506808438	pulse	1.0	t		40.0	female	west_asian	1.5777954635893354	neutral	038	sub-01	2.0	5.0	038_neutral	0.0		46.648816087315936	
3.0	21.01098563753294	face	0.0		146	19.0	female	white	4.298846000795861	neutral	100	sub-01	2.0	5.0	100_neutral	1.0	dominance	47.3570066567645	1.2416402570452192
3.0	21.00391503321407	pulse	0.0	t		19.0	female	white	4.298846000795861	neutral	100	sub-01	2.0	5.0	100_neutral	1.0	dominance	47.34993605244563	
3.0	21.70275570645572	pulse	0.0	t		19.0	female	white	4.298846000795861	neutral	100	sub-01	2.0	5.0	100_neutral	1.0	dominance	48.048776725687276	
3.0	22.25262589457816	fix	1.0		177	19.0	female	white	4.298846000795861	neutral	100	sub-01	2.0	5.0	100_neutral	1.0	dominance	48.598646913809716	1.5083207284569653
3.0	22.402725309859306	pulse	1.0	t		19.0	female	white	4.298846000795861	neutral	100	sub-01	2.0	5.0	100_neutral	1.0	dominance	48.748746329090864	
3.0	23.10272268373774	pulse	1.0	t		19.0	female	white	4.298846000795861	neutral	100	sub-01	2.0	5.0	100_neutral	1.0	dominance	49.448743702969296	
3.0	23.760946623035125	rating	2.0		293	19.0	female	white	4.298846000795861	neutral	100	sub-01	2.0	5.0	100_neutral	1.0	dominance	50.10696764226668	2.4915684914976737
3.0	23.802704059409734	pulse	2.0	t		19.0	female	white	4.298846000795861	neutral	100	sub-01	2.0	5.0	100_neutral	1.0	dominance	50.14872507864129	
3.0	24.5026848313737	pulse	2.0	t		19.0	female	white	4.298846000795861	neutral	100	sub-01	2.0	5.0	100_neutral	1.0	dominance	50.848705850605256	
3.0	25.20266499963327	pulse	2.0	t		19.0	female	white	4.298846000795861	neutral	100	sub-01	2.0	5.0	100_neutral	1.0	dominance	51.54868601886483	
3.0	25.37764193051953	response	2.0	y		19.0	female	white	4.298846000795861	neutral	100	sub-01	2.0	5.0	100_neutral	1.0	dominance	51.72366294975109	
3.0	25.90262675485974	pulse	2.0	t		19.0	female	white	4.298846000795861	neutral	100	sub-01	2.0	5.0	100_neutral	1.0	dominance	52.248647774091296	
3.0	26.252515114532798	fix	3.0		444	19.0	female	white	4.298846000795861	neutral	100	sub-01	2.0	5.0	100_neutral	1.0	dominance	52.598536133764355	3.766559881143621
3.0	26.60263046765249	pulse	3.0	t		19.0	female	white	4.298846000795861	neutral	100	sub-01	2.0	5.0	100_neutral	1.0	dominance	52.948651486884046	
3.0	27.302604598851758	pulse	3.0	t		19.0	female	white	4.298846000795861	neutral	100	sub-01	2.0	5.0	100_neutral	1.0	dominance	53.648625618083315	
3.0	28.002597143082312	pulse	3.0	t		19.0	female	white	4.298846000795861	neutral	100	sub-01	2.0	5.0	100_neutral	1.0	dominance	54.34861816231387	
3.0	28.70257067057537	pulse	3.0	t		19.0	female	white	4.298846000795861	neutral	100	sub-01	2.0	5.0	100_neutral	1.0	dominance	55.048591689806926	
3.0	29.402554461070395	pulse	3.0	t		19.0	female	white	4.298846000795861	neutral	100	sub-01	2.0	5.0	100_neutral	1.0	dominance	55.74857548030195	
4.0	30.01907499567642	face	0.0		145	20.0	female	white	3.9502586549940313	smiling	091	sub-01	2.0	5.0	091_smiling	0.0		56.36509601490798	1.2333260184295796
4.0	30.102534931182163	pulse	0.0	t		20.0	female	white	3.9502586549940313	smiling	091	sub-01	2.0	5.0	091_smiling	0.0		56.44855595041372	
4.0	30.80252083464802	pulse	0.0	t		20.0	female	white	3.9502586549940313	smiling	091	sub-01	2.0	5.0	091_smiling	0.0		57.14854185387958	
4.0	31.252401014106	fix	1.0		444	20.0	female	white	3.9502586549940313	smiling	091	sub-01	2.0	5.0	091_smiling	0.0		57.598422033337556	3.7665345254899876
4.0	31.502496173257896	pulse	1.0	t		20.0	female	white	3.9502586549940313	smiling	091	sub-01	2.0	5.0	091_smiling	0.0		57.84851719248945	
4.0	32.20248086931315	pulse	1.0	t		20.0	female	white	3.9502586549940313	smiling	091	sub-01	2.0	5.0	091_smiling	0.0		58.548501888544706	
4.0	32.902457717187644	pulse	1.0	t		20.0	female	white	3.9502586549940313	smiling	091	sub-01	2.0	5.0	091_smiling	0.0		59.2484787364192	
4.0	33.60243607432858	pulse	1.0	t		20.0	female	white	3.9502586549940313	smiling	091	sub-01	2.0	5.0	091_smiling	0.0		59.94845709356014	
4.0	34.302412922204894	pulse	1.0	t		20.0	female	white	3.9502586549940313	smiling	091	sub-01	2.0	5.0	091_smiling	0.0		60.64843394143645	
5.0	35.01893553959599	face	0.0		146	19.0	female	white	4.298846000795861	smiling	100	sub-01	2.0	5.0	100_smiling	0.0		61.364956558827544	1.233316660987839
5.0	35.005329214449375	pulse	0.0	t		19.0	female	white	4.298846000795861	smiling	100	sub-01	2.0	5.0	100_smiling	0.0		61.35135023368093	
5.0	35.70239499213858	pulse	0.0	t		19.0	female	white	4.298846000795861	smiling	100	sub-01	2.0	5.0	100_smiling	0.0		62.048416011370136	
5.0	36.252252200583825	fix	1.0		443	19.0	female	white	4.298846000795861	smiling	100	sub-01	2.0	5.0	100_smiling	0.0		62.59827321981538	3.7665541459355154
5.0	36.4023664066608	pulse	1.0	t		19.0	female	white	4.298846000795861	smiling	100	sub-01	2.0	5.0	100_smiling	0.0		62.74838742589236	
5.0	37.102364686097644	pulse	1.0	t		19.0	female	white	4.298846000795861	smiling	100	sub-01	2.0	5.0	100_smiling	0.0		63.4483857053292	
5.0	37.802324630207295	pulse	1.0	t		19.0	female	white	4.298846000795861	smiling	100	sub-01	2.0	5.0	100_smiling	0.0		64.14834564943885	
5.0	38.502312646643986	pulse	1.0	t		19.0	female	white	4.298846000795861	smiling	100	sub-01	2.0	5.0	100_smiling	0.0		64.84833366587554	
5.0	39.20228074078295	pulse	1.0	t		19.0	female	white	4.298846000795861	smiling	100	sub-01	2.0	5.0	100_smiling	0.0		65.54830176001451	
5.0	39.90226936092586	pulse	1.0	t		19.0	female	white	4.298846000795861	smiling	100	sub-01	2.0	5.0	100_smiling	0.0		66.24829038015741	
6.0	40.01880634651934	face	0.0		146	27.0	female	white	3.504576203740549	neutral	144	sub-01	2.0	5.0	144_neutral	0.0		66.3648273657509	1.2333293388128368
6.0	40.6022549625377	pulse	0.0	t		27.0	female	white	3.504576203740549	neutral	144	sub-01	2.0	5.0	144_neutral	0.0		66.94827598176926	
6.0	41.25213568533218	fix	1.0		443	27.0	female	white	3.504576203740549	neutral	144	sub-01	2.0	5.0	144_neutral	0.0		67.59815670456373	3.7665553533461207
6.0	41.3022487141825	pulse	1.0	t		27.0	female	white	3.504576203740549	neutral	144	sub-01	2.0	5.0	144_neutral	0.0		67.64826973341405	
6.0	42.002205036054875	pulse	1.0	t		27.0	female	white	3.504576203740549	neutral	144	sub-01	2.0	5.0	144_neutral	0.0		68.34822605528643	
6.0	42.70220422105194	pulse	1.0	t		27.0	female	white	3.504576203740549	neutral	144	sub-01	2.0	5.0	144_neutral	0.0		69.0482252402835	
6.0	43.402185898576136	pulse	1.0	t		27.0	female	white	3.504576203740549	neutral	144	sub-01	2.0	5.0	144_neutral	0.0		69.74820691780769	
6.0	44.1021542945673	pulse	1.0	t		27.0	female	white	3.504576203740549	neutral	144	sub-01	2.0	5.0	144_neutral	0.0		70.44817531379886	
6.0	44.802276937436545	pulse	1.0	t		27.0	female	white	3.504576203740549	neutral	144	sub-01	2.0	5.0	144_neutral	0.0		71.1482979566681	
7.0	45.0186910386783	face	0.0		145	40.0	male	white	1.868682849184242	smiling	172	sub-01	2.0	5.0	172_smiling	0.0		71.36471205790986	1.2333163591338234
7.0	45.5021242903822	pulse	0.0	t		40.0	male	white	1.868682849184242	smiling	172	sub-01	2.0	5.0	172_smiling	0.0		71.84814530961376	
7.0	46.20211562720033	pulse	0.0	t		40.0	male	white	1.868682849184242	smiling	172	sub-01	2.0	5.0	172_smiling	0.0		72.54813664643189	
7.0	46.25200739781212	fix	1.0		445	40.0	male	white	1.868682849184242	smiling	172	sub-01	2.0	5.0	172_smiling	0.0		72.59802841704368	3.766551731112486
7.0	46.902100021401566	pulse	1.0	t		40.0	male	white	1.868682849184242	smiling	172	sub-01	2.0	5.0	172_smiling	0.0		73.24812104063312	
7.0	47.60206992665917	pulse	1.0	t		40.0	male	white	1.868682849184242	smiling	172	sub-01	2.0	5.0	172_smiling	0.0		73.94809094589073	
7.0	48.30205794309586	pulse	1.0	t		40.0	male	white	1.868682849184242	smiling	172	sub-01	2.0	5.0	172_smiling	0.0		74.64807896232742	
7.0	49.002025433528615	pulse	1.0	t		40.0	male	white	1.868682849184242	smiling	172	sub-01	2.0	5.0	172_smiling	0.0		75.34804645276017	
7.0	49.70200680919879	pulse	1.0	t		40.0	male	white	1.868682849184242	smiling	172	sub-01	2.0	5.0	172_smiling	0.0		76.04802782843035	
8.0	50.01855912892461	face	0.0		145	25.0	female	black	3.858336649423	neutral	126	sub-01	2.0	5.0	126_neutral	1.0	dominance	76.36458014815616	1.233314548015187
8.0	50.40200599419586	pulse	0.0	t		25.0	female	black	3.858336649423	neutral	126	sub-01	2.0	5.0	126_neutral	1.0	dominance	76.74802701342742	
8.0	51.101988275426265	pulse	0.0	t		25.0	female	black	3.858336649423	neutral	126	sub-01	2.0	5.0	126_neutral	1.0	dominance	77.44800929465782	
8.0	51.251873676939795	fix	1.0		177	25.0	female	black	3.858336649423	neutral	126	sub-01	2.0	5.0	126_neutral	1.0	dominance	77.59789469617135	1.499963023010423
8.0	51.80197085850887	pulse	1.0	t		25.0	female	black	3.858336649423	neutral	126	sub-01	2.0	5.0	126_neutral	1.0	dominance	78.14799187774042	
8.0	52.50193623597079	pulse	1.0	t		25.0	female	black	3.858336649423	neutral	126	sub-01	2.0	5.0	126_neutral	1.0	dominance	78.84795725520235	
8.0	52.75183669995022	rating	2.0		295	25.0	female	black	3.858336649423	neutral	126	sub-01	2.0	5.0	126_neutral	1.0	dominance	79.09785771918177	2.499930422885882
8.0	53.20192395055528	pulse	2.0	t		25.0	female	black	3.858336649423	neutral	126	sub-01	2.0	5.0	126_neutral	1.0	dominance	79.54794496978684	
8.0	53.901905024373264	pulse	2.0	t		25.0	female	black	3.858336649423	neutral	126	sub-01	2.0	5.0	126_neutral	1.0	dominance	80.24792604360482	
8.0	54.55188354753227	response	2.0	y		25.0	female	black	3.858336649423	neutral	126	sub-01	2.0	5.0	126_neutral	1.0	dominance	80.89790456676383	
8.0	54.60187462777685	pulse	2.0	t		25.0	female	black	3.858336649423	neutral	126	sub-01	2.0	5.0	126_neutral	1.0	dominance	80.94789564700841	
8.0	55.2517671228361	fix	3.0		443	25.0	female	black	3.858336649423	neutral	126	sub-01	2.0	5.0	126_neutral	1.0	dominance	81.59778814206766	3.7665532403771067
8.0	55.3018720016571	pulse	3.0	t		25.0	female	black	3.858336649423	neutral	126	sub-01	2.0	5.0	126_neutral	1.0	dominance	81.64789302088866	
8.0	56.00185669771054	pulse	3.0	t		25.0	female	black	3.858336649423	neutral	126	sub-01	2.0	5.0	126_neutral	1.0	dominance	82.3478777169421	
8.0	56.70182841408496	pulse	3.0	t		25.0	female	black	3.858336649423	neutral	126	sub-01	2.0	5.0	126_neutral	1.0	dominance	83.04784943331651	
8.0	57.40181160087377	pulse	3.0	t		25.0	female	black	3.858336649423	neutral	126	sub-01	2.0	5.0	126_neutral	1.0	dominance	83.74783262010533	
8.0	58.1017887506041	pulse	3.0	t		25.0	female	black	3.858336649423	neutral	126	sub-01	2.0	5.0	126_neutral	1.0	dominance	84.44780976983566	
8.0	58.801793670807456	pulse	3.0	t		25.0	female	black	3.858336649423	neutral	126	sub-01	2.0	5.0	126_neutral	1.0	dominance	85.14781469003901	
9.0	59.018320363213206	face	0.0		145	30.0	female	black	2.7345801830481498	smiling	062	sub-01	2.0	5.0	062_smiling	0.0		85.36434138244476	1.2332988516609475
9.0	59.50177353721301	pulse	0.0	t		30.0	female	black	2.7345801830481498	smiling	062	sub-01	2.0	5.0	062_smiling	0.0		85.84779455644457	
9.0	60.201736499851904	pulse	0.0	t		30.0	female	black	2.7345801830481498	smiling	062	sub-01	2.0	5.0	062_smiling	0.0		86.54775751908346	
9.0	60.251619214874154	fix	1.0		445	30.0	female	black	2.7345801830481498	smiling	062	sub-01	2.0	5.0	062_smiling	0.0		86.59764023410571	3.7665707478499826
9.0	60.901729949642686	pulse	1.0	t		30.0	female	black	2.7345801830481498	smiling	062	sub-01	2.0	5.0	062_smiling	0.0		87.24775096887424	
9.0	61.6017445291418	pulse	1.0	t		30.0	female	black	2.7345801830481498	smiling	062	sub-01	2.0	5.0	062_smiling	0.0		87.94776554837335	
9.0	62.30168877689539	pulse	1.0	t		30.0	female	black	2.7345801830481498	smiling	062	sub-01	2.0	5.0	062_smiling	0.0		88.64770979612695	
9.0	63.00166290809466	pulse	1.0	t		30.0	female	black	2.7345801830481498	smiling	062	sub-01	2.0	5.0	062_smiling	0.0		89.34768392732622	
9.0	63.70163915226476	pulse	1.0	t		30.0	female	black	2.7345801830481498	smiling	062	sub-01	2.0	5.0	062_smiling	0.0		90.04766017149632	
10.0	64.01818996272414	face	0.0		145	27.0	male	black	3.5523278949462798	smiling	042	sub-01	2.0	5.0	042_smiling	0.0		90.3642109819557	1.233314548015187
10.0	64.40163139464312	pulse	0.0	t		27.0	male	black	3.5523278949462798	smiling	042	sub-01	2.0	5.0	042_smiling	0.0		90.74765241387468	
10.0	65.10161518513632	pulse	0.0	t		27.0	male	black	3.5523278949462798	smiling	042	sub-01	2.0	5.0	042_smiling	0.0		91.44763620436788	
10.0	65.25150451073932	fix	1.0		444	27.0	male	black	3.5523278949462798	smiling	042	sub-01	2.0	5.0	042_smiling	0.0		91.59752552997088	3.758202175697079
10.0	65.8015893163356	pulse	1.0	t		27.0	male	black	3.5523278949462798	smiling	042	sub-01	2.0	5.0	042_smiling	0.0		92.14761033556715	
10.0	66.50157008830138	pulse	1.0	t		27.0	male	black	3.5523278949462798	smiling	042	sub-01	2.0	5.0	042_smiling	0.0		92.84759110753293	
10.0	67.20156323623814	pulse	1.0	t		27.0	male	black	3.5523278949462798	smiling	042	sub-01	2.0	5.0	042_smiling	0.0		93.5475842554697	
10.0	67.90154068782067	pulse	1.0	t		27.0	male	black	3.5523278949462798	smiling	042	sub-01	2.0	5.0	042_smiling	0.0		94.24756170705223	
10.0	68.60152387460948	pulse	1.0	t		27.0	male	black	3.5523278949462798	smiling	042	sub-01	2.0	5.0	042_smiling	0.0		94.94754489384104	
11.0	69.0097066864364	face	0.0		146	21.0	male	east_asian/white	3.501790688420215	smiling	036	sub-01	2.0	5.0	036_smiling	0.0		95.35572770566796	1.241648708928551
11.0	69.30149710024853	pulse	0.0	t		21.0	male	east_asian/white	3.501790688420215	smiling	036	sub-01	2.0	5.0	036_smiling	0.0		95.64751811948008	
11.0	70.00146942033098	pulse	0.0	t		21.0	male	east_asian/white	3.501790688420215	smiling	036	sub-01	2.0	5.0	036_smiling	0.0		96.34749043956253	
11.0	70.25135539536495	fix	1.0		444	21.0	male	east_asian/white	3.501790688420215	smiling	036	sub-01	2.0	5.0	036_smiling	0.0		96.59737641459651	3.7665695404375583
11.0	70.7014725294157	pulse	1.0	t		21.0	male	east_asian/white	3.501790688420215	smiling	036	sub-01	2.0	5.0	036_smiling	0.0		97.04749354864725	
11.0	71.40143820873163	pulse	1.0	t		21.0	male	east_asian/white	3.501790688420215	smiling	036	sub-01	2.0	5.0	036_smiling	0.0		97.74745922796319	
11.0	72.10142048996204	pulse	1.0	t		21.0	male	east_asian/white	3.501790688420215	smiling	036	sub-01	2.0	5.0	036_smiling	0.0		98.4474415091936	
11.0	72.80140488416146	pulse	1.0	t		21.0	male	east_asian/white	3.501790688420215	smiling	036	sub-01	2.0	5.0	036_smiling	0.0		99.14742590339301	
11.0	73.50138625983345	pulse	1.0	t		21.0	male	east_asian/white	3.501790688420215	smiling	036	sub-01	2.0	5.0	036_smiling	0.0		99.84740727906501	
12.0	74.01792493580251	face	0.0		145	28.0	male	east_asian	1.5563072025467568	smiling	005	sub-01	2.0	5.0	005_smiling	0.0		100.36394595503407	1.2333042850150377
12.0	74.20138001147643	pulse	0.0	t		28.0	male	east_asian	1.5563072025467568	smiling	005	sub-01	2.0	5.0	005_smiling	0.0		100.54740103070799	
12.0	74.90134538893835	pulse	0.0	t		28.0	male	east_asian	1.5563072025467568	smiling	005	sub-01	2.0	5.0	005_smiling	0.0		101.24736640816991	
12.0	75.25122922081755	fix	1.0		444	28.0	male	east_asian	1.5563072025467568	smiling	005	sub-01	2.0	5.0	005_smiling	0.0		101.5972502400491	3.766565012643696
12.0	75.60132616090414	pulse	1.0	t		28.0	male	east_asian	1.5563072025467568	smiling	005	sub-01	2.0	5.0	005_smiling	0.0		101.9473471801357	
12.0	76.30129214207227	pulse	1.0	t		28.0	male	east_asian	1.5563072025467568	smiling	005	sub-01	2.0	5.0	005_smiling	0.0		102.64731316130383	
12.0	77.00130068451108	pulse	1.0	t		28.0	male	east_asian	1.5563072025467568	smiling	005	sub-01	2.0	5.0	005_smiling	0.0		103.34732170374264	
12.0	77.70128568241853	pulse	1.0	t		28.0	male	east_asian	1.5563072025467568	smiling	005	sub-01	2.0	5.0	005_smiling	0.0		104.04730670165009	
12.0	78.40125679508856	pulse	1.0	t		28.0	male	east_asian	1.5563072025467568	smiling	005	sub-01	2.0	5.0	005_smiling	0.0		104.74727781432011	
13.0	79.01779423346125	face	0.0		145	37.0	male	white	3.898925586947871	neutral	101	sub-01	2.0	5.0	101_neutral	0.0		105.3638152526928	1.2332982479547354
13.0	79.10125205599616	pulse	0.0	t		37.0	male	white	3.898925586947871	neutral	101	sub-01	2.0	5.0	101_neutral	0.0		105.44727307522771	
13.0	79.80123343166633	pulse	0.0	t		37.0	male	white	3.898925586947871	neutral	101	sub-01	2.0	5.0	101_neutral	0.0		106.14725445089789	
13.0	80.25109248141598	fix	1.0		444	37.0	male	white	3.898925586947871	neutral	101	sub-01	2.0	5.0	101_neutral	0.0		106.59711350064754	3.766548712581425
13.0	80.50120333692394	pulse	1.0	t		37.0	male	white	3.898925586947871	neutral	101	sub-01	2.0	5.0	101_neutral	0.0		106.8472243561555	
13.0	81.20117897738783	pulse	1.0	t		37.0	male	white	3.898925586947871	neutral	101	sub-01	2.0	5.0	101_neutral	0.0		107.54719999661938	
13.0	81.90116125861823	pulse	1.0	t		37.0	male	white	3.898925586947871	neutral	101	sub-01	2.0	5.0	101_neutral	0.0		108.24718227784979	
13.0	82.60114867134871	pulse	1.0	t		37.0	male	white	3.898925586947871	neutral	101	sub-01	2.0	5.0	101_neutral	0.0		108.94716969058027	
13.0	83.30112008587093	pulse	1.0	t		37.0	male	white	3.898925586947871	neutral	101	sub-01	2.0	5.0	101_neutral	0.0		109.64714110510249	
14.0	84.0176411939974	face	0.0		146	22.0	female	west_asian	3.8205332272184642	smiling	066	sub-01	2.0	5.0	066_smiling	0.0		110.36366221322896	1.233334772165108
14.0	84.00407712826745	pulse	0.0	t		22.0	female	west_asian	3.8205332272184642	smiling	066	sub-01	2.0	5.0	066_smiling	0.0		110.35009814749901	
14.0	84.70110396692144	pulse	0.0	t		22.0	female	west_asian	3.8205332272184642	smiling	066	sub-01	2.0	5.0	066_smiling	0.0		111.047124986153	
14.0	85.25097596616251	fix	1.0		443	22.0	female	west_asian	3.8205332272184642	smiling	066	sub-01	2.0	5.0	066_smiling	0.0		111.59699698539407	3.7665375440228672
14.0	85.4010844370332	pulse	1.0	t		22.0	female	west_asian	3.8205332272184642	smiling	066	sub-01	2.0	5.0	066_smiling	0.0		111.74710545626476	
14.0	86.10104890893672	pulse	1.0	t		22.0	female	west_asian	3.8205332272184642	smiling	066	sub-01	2.0	5.0	066_smiling	0.0		112.44706992816828	
14.0	86.80104598096295	pulse	1.0	t		22.0	female	west_asian	3.8205332272184642	smiling	066	sub-01	2.0	5.0	066_smiling	0.0		113.14706700019451	
14.0	87.5010059250726	pulse	1.0	t		22.0	female	west_asian	3.8205332272184642	smiling	066	sub-01	2.0	5.0	066_smiling	0.0		113.84702694430416	
14.0	88.20098730074278	pulse	1.0	t		22.0	female	west_asian	3.8205332272184642	smiling	066	sub-01	2.0	5.0	066_smiling	0.0		114.54700831997434	
14.0	88.90097893941493	pulse	1.0	t		22.0	female	west_asian	3.8205332272184642	smiling	066	sub-01	2.0	5.0	066_smiling	0.0		115.24699995864648	
15.0	89.01751351018538	face	0.0		146	24.0	male	white	3.1153999204138483	neutral	012	sub-01	2.0	5.0	012_neutral	0.0		115.36353452941694	1.2333302443712455
15.0	89.60096303176215	pulse	0.0	t		24.0	male	white	3.1153999204138483	neutral	012	sub-01	2.0	5.0	012_neutral	0.0		115.9469840509937	
15.0	90.25084375455663	fix	1.0		443	24.0	male	white	3.1153999204138483	neutral	012	sub-01	2.0	5.0	012_neutral	0.0		116.59686477378818	3.7665538440815
15.0	90.30095497228831	pulse	1.0	t		24.0	male	white	3.1153999204138483	neutral	012	sub-01	2.0	5.0	012_neutral	0.0		116.64697599151987	
15.0	91.00092729236894	pulse	1.0	t		24.0	male	white	3.1153999204138483	neutral	012	sub-01	2.0	5.0	012_neutral	0.0		117.3469483116005	
15.0	91.70090504580548	pulse	1.0	t		24.0	male	white	3.1153999204138483	neutral	012	sub-01	2.0	5.0	012_neutral	0.0		118.04692606503704	
15.0	92.40087766773831	pulse	1.0	t		24.0	male	white	3.1153999204138483	neutral	012	sub-01	2.0	5.0	012_neutral	0.0		118.74689868696987	
15.0	93.10086960826447	pulse	1.0	t		24.0	male	white	3.1153999204138483	neutral	012	sub-01	2.0	5.0	012_neutral	0.0		119.44689062749603	
15.0	93.800847059847	pulse	1.0	t		24.0	male	white	3.1153999204138483	neutral	012	sub-01	2.0	5.0	012_neutral	0.0		120.14686807907856	
16.0	94.01739759863813	face	0.0		145	24.0	female	black	3.0955033824114606	smiling	099	sub-01	2.0	5.0	099_smiling	0.0		120.36341861786968	1.2332997572193563
16.0	94.50083567998809	pulse	0.0	t		24.0	female	black	3.0955033824114606	smiling	099	sub-01	2.0	5.0	099_smiling	0.0		120.84685669921964	
16.0	95.20080498153948	pulse	0.0	t		24.0	female	black	3.0955033824114606	smiling	099	sub-01	2.0	5.0	099_smiling	0.0		121.54682600077103	
16.0	95.25069735585748	fix	1.0		444	24.0	female	black	3.0955033824114606	smiling	099	sub-01	2.0	5.0	099_smiling	0.0		121.59671837508904	3.7665695404393773
16.0	95.90079782762405	pulse	1.0	t		24.0	female	black	3.0955033824114606	smiling	099	sub-01	2.0	5.0	099_smiling	0.0		122.2468188468556	
16.0	96.6007840329421	pulse	1.0	t		24.0	female	black	3.0955033824114606	smiling	099	sub-01	2.0	5.0	099_smiling	0.0		122.94680505217366	
16.0	97.30076389934948	pulse	1.0	t		24.0	female	black	3.0955033824114606	smiling	099	sub-01	2.0	5.0	099_smiling	0.0		123.64678491858103	
16.0	98.00073712498852	pulse	1.0	t		24.0	female	black	3.0955033824114606	smiling	099	sub-01	2.0	5.0	099_smiling	0.0		124.34675814422008	
16.0	98.70071759510029	pulse	1.0	t		24.0	female	black	3.0955033824114606	smiling	099	sub-01	2.0	5.0	099_smiling	0.0		125.04673861433184	
17.0	99.01726689629686	face	0.0		145	40.0	male	black	2.408674890569041	neutral	061	sub-01	2.0	5.0	061_neutral	0.0		125.36328791552842	1.2333157554276113
17.0	99.40071376156811	pulse	0.0	t		40.0	male	black	2.408674890569041	neutral	061	sub-01	2.0	5.0	061_neutral	0.0		125.74673478079967	
17.0	100.10068638350276	pulse	0.0	t		40.0	male	black	2.408674890569041	neutral	061	sub-01	2.0	5.0	061_neutral	0.0		126.44670740273432	
17.0	100.25058265172447	fix	1.0		444	40.0	male	black	2.408674890569041	neutral	061	sub-01	2.0	5.0	061_neutral	0.0		126.59660367095603	3.758203383107684
17.0	100.80066836287915	pulse	1.0	t		40.0	male	black	2.408674890569041	neutral	061	sub-01	2.0	5.0	061_neutral	0.0		127.14668938211071	
17.0	101.50064853113872	pulse	1.0	t		40.0	male	black	2.408674890569041	neutral	061	sub-01	2.0	5.0	061_neutral	0.0		127.84666955037028	
17.0	102.20062749198587	pulse	1.0	t		40.0	male	black	2.408674890569041	neutral	061	sub-01	2.0	5.0	061_neutral	0.0		128.54664851121743	
17.0	102.90061098062688	pulse	1.0	t		40.0	male	black	2.408674890569041	neutral	061	sub-01	2.0	5.0	061_neutral	0.0		129.24663199985844	
17.0	103.60059265815107	pulse	1.0	t		40.0	male	black	2.408674890569041	neutral	061	sub-01	2.0	5.0	061_neutral	0.0		129.94661367738263	
18.0	104.00878603483216	face	0.0		146	22.0	male	black	2.767608436132113	smiling	044	sub-01	2.0	5.0	044_smiling	0.0		130.3548070540637	1.241664103432413
18.0	104.30058731535246	pulse	0.0	t		22.0	male	black	2.767608436132113	smiling	044	sub-01	2.0	5.0	044_smiling	0.0		130.64660833458402	
18.0	105.0005529946684	pulse	0.0	t		22.0	male	black	2.767608436132113	smiling	044	sub-01	2.0	5.0	044_smiling	0.0		131.34657401389995	
18.0	105.25045013826457	fix	1.0		444	22.0	male	black	2.767608436132113	smiling	044	sub-01	2.0	5.0	044_smiling	0.0		131.59647115749613	3.758219683168136
18.0	105.70054976484062	pulse	1.0	t		22.0	male	black	2.767608436132113	smiling	044	sub-01	2.0	5.0	044_smiling	0.0		132.04657078407217	
18.0	106.40052027380443	pulse	1.0	t		22.0	male	black	2.767608436132113	smiling	044	sub-01	2.0	5.0	044_smiling	0.0		132.746541293036	
18.0	107.10049742353294	pulse	1.0	t		22.0	male	black	2.767608436132113	smiling	044	sub-01	2.0	5.0	044_smiling	0.0		133.4465184427645	
18.0	107.80048755294047	pulse	1.0	t		22.0	male	black	2.767608436132113	smiling	044	sub-01	2.0	5.0	044_smiling	0.0		134.14650857217202	
18.0	108.50046530637701	pulse	1.0	t		22.0	male	black	2.767608436132113	smiling	044	sub-01	2.0	5.0	044_smiling	0.0		134.84648632560857	
19.0	109.0086698214327	face	0.0		146	31.0	female	east_asian	3.395941106247513	smiling	087	sub-01	2.0	5.0	087_smiling	0.0		135.35469084066426	1.2416339181327203
19.0	109.20044939872423	pulse	0.0	t		31.0	female	east_asian	3.395941106247513	smiling	087	sub-01	2.0	5.0	087_smiling	0.0		135.5464704179558	
19.0	109.9004359058963	pulse	0.0	t		31.0	female	east_asian	3.395941106247513	smiling	087	sub-01	2.0	5.0	087_smiling	0.0		136.24645692512786	
19.0	110.25030373956542	fix	1.0		444	31.0	female	east_asian	3.395941106247513	smiling	087	sub-01	2.0	5.0	087_smiling	0.0		136.59632475879698	3.7665511274062737
19.0	110.60039735926875	pulse	1.0	t		31.0	female	east_asian	3.395941106247513	smiling	087	sub-01	2.0	5.0	087_smiling	0.0		136.9464183785003	
19.0	111.30039684611984	pulse	1.0	t		31.0	female	east_asian	3.395941106247513	smiling	087	sub-01	2.0	5.0	087_smiling	0.0		137.6464178653514	
19.0	112.00036916620047	pulse	1.0	t		31.0	female	east_asian	3.395941106247513	smiling	087	sub-01	2.0	5.0	087_smiling	0.0		138.34639018543203	
19.0	112.70035506966633	pulse	1.0	t		31.0	female	east_asian	3.395941106247513	smiling	087	sub-01	2.0	5.0	087_smiling	0.0		139.0463760888979	
19.0	113.4003355397781	pulse	1.0	t		31.0	female	east_asian	3.395941106247513	smiling	087	sub-01	2.0	5.0	087_smiling	0.0		139.74635655900966	
20.0	114.0168548669717	face	0.0		145	21.0	male	black	2.969757262236371	neutral	137	sub-01	2.0	5.0	137_neutral	0.0		140.36287588620326	1.2333296406650334
20.0	114.10032144324396	pulse	0.0	t		21.0	male	black	2.969757262236371	neutral	137	sub-01	2.0	5.0	137_neutral	0.0		140.4463424624755	
20.0	114.80029889482648	pulse	0.0	t		21.0	male	black	2.969757262236371	neutral	137	sub-01	2.0	5.0	137_neutral	0.0		141.14631991405804	
20.0	115.25018450763673	fix	1.0		1185	21.0	male	black	2.969757262236371	neutral	137	sub-01	2.0	5.0	137_neutral	0.0		141.5962055268683	10.016373713313442
20.0	115.50028208161348	pulse	1.0	t		21.0	male	black	2.969757262236371	neutral	137	sub-01	2.0	5.0	137_neutral	0.0		141.84630310084503	
20.0	116.20025621281275	pulse	1.0	t		21.0	male	black	2.969757262236371	neutral	137	sub-01	2.0	5.0	137_neutral	0.0		142.5462772320443	
20.0	116.90024422924944	pulse	1.0	t		21.0	male	black	2.969757262236371	neutral	137	sub-01	2.0	5.0	137_neutral	0.0		143.246265248481	
20.0	117.60022107712575	pulse	1.0	t		21.0	male	black	2.969757262236371	neutral	137	sub-01	2.0	5.0	137_neutral	0.0		143.9462420963573	
20.0	118.30020939541646	pulse	1.0	t		21.0	male	black	2.969757262236371	neutral	137	sub-01	2.0	5.0	137_neutral	0.0		144.64623041464802	
20.0	119.0001877525574	pulse	1.0	t		21.0	male	black	2.969757262236371	neutral	137	sub-01	2.0	5.0	137_neutral	0.0		145.34620877178895	
20.0	119.70016822266916	pulse	1.0	t		21.0	male	black	2.969757262236371	neutral	137	sub-01	2.0	5.0	137_neutral	0.0		146.04618924190072	
20.0	120.40014235386843	pulse	1.0	t		21.0	male	black	2.969757262236371	neutral	137	sub-01	2.0	5.0	137_neutral	0.0		146.7461633731	
20.0	121.10014334998232	pulse	1.0	t		21.0	male	black	2.969757262236371	neutral	137	sub-01	2.0	5.0	137_neutral	0.0		147.44616436921388	
20.0	121.80011325523992	pulse	1.0	t		21.0	male	black	2.969757262236371	neutral	137	sub-01	2.0	5.0	137_neutral	0.0		148.14613427447148	
20.0	122.50009161238086	pulse	1.0	t		21.0	male	black	2.969757262236371	neutral	137	sub-01	2.0	5.0	137_neutral	0.0		148.8461126316124	
20.0	123.2000772139927	pulse	1.0	t		21.0	male	black	2.969757262236371	neutral	137	sub-01	2.0	5.0	137_neutral	0.0		149.54609823322426	
20.0	123.90005557113363	pulse	1.0	t		21.0	male	black	2.969757262236371	neutral	137	sub-01	2.0	5.0	137_neutral	0.0		150.2460765903652	
20.0	124.60003453198078	pulse	1.0	t		21.0	male	black	2.969757262236371	neutral	137	sub-01	2.0	5.0	137_neutral	0.0		150.94605555121234	
21.0	125.26655822095017	face	0.0		145	24.0	female	east_asian	4.409868682849185	smiling	030	sub-01	2.0	5.0	030_smiling	0.0		151.61257924018173	1.2333139443107939
21.0	125.30002134100687	pulse	0.0	t		24.0	female	east_asian	4.409868682849185	smiling	030	sub-01	2.0	5.0	030_smiling	0.0		151.64604236023843	
21.0	126.00003048715189	pulse	0.0	t		24.0	female	east_asian	4.409868682849185	smiling	030	sub-01	2.0	5.0	030_smiling	0.0		152.34605150638345	
21.0	126.49987216526097	fix	1.0		443	24.0	female	east_asian	4.409868682849185	smiling	030	sub-01	2.0	5.0	030_smiling	0.0		152.84589318449252	3.766570445995967
21.0	126.69998711087828	pulse	1.0	t		24.0	female	east_asian	4.409868682849185	smiling	030	sub-01	2.0	5.0	030_smiling	0.0		153.04600813010984	
21.0	127.39997361804853	pulse	1.0	t		24.0	female	east_asian	4.409868682849185	smiling	030	sub-01	2.0	5.0	030_smiling	0.0		153.7459946372801	
21.0	128.09994020292288	pulse	1.0	t		24.0	female	east_asian	4.409868682849185	smiling	030	sub-01	2.0	5.0	030_smiling	0.0		154.44596122215444	
21.0	128.7999285212136	pulse	1.0	t		24.0	female	east_asian	4.409868682849185	smiling	030	sub-01	2.0	5.0	030_smiling	0.0		155.14594954044514	
21.0	129.4999059727943	pulse	1.0	t		24.0	female	east_asian	4.409868682849185	smiling	030	sub-01	2.0	5.0	030_smiling	0.0		155.84592699202585	
21.0	130.19988583920167	pulse	1.0	t		24.0	female	east_asian	4.409868682849185	smiling	030	sub-01	2.0	5.0	030_smiling	0.0		156.54590685843323	
22.0	130.26644261125693	face	0.0		146	24.0	female	east_asian	2.9076800636689217	smiling	034	sub-01	2.0	5.0	034_smiling	0.0		156.6124636304885	1.2333139443107939
22.0	130.89987295007813	pulse	0.0	t		24.0	female	east_asian	2.9076800636689217	smiling	034	sub-01	2.0	5.0	034_smiling	0.0		157.2458939693097	
22.0	131.49975655556773	fix	1.0		443	24.0	female	east_asian	2.9076800636689217	smiling	034	sub-01	2.0	5.0	034_smiling	0.0		157.84577757479929	3.766557164464757
22.0	131.59987424804604	pulse	1.0	t		24.0	female	east_asian	2.9076800636689217	smiling	034	sub-01	2.0	5.0	034_smiling	0.0		157.9458952672776	
22.0	132.29984022921417	pulse	1.0	t		24.0	female	east_asian	2.9076800636689217	smiling	034	sub-01	2.0	5.0	034_smiling	0.0		158.64586124844573	
22.0	132.99981707709048	pulse	1.0	t		24.0	female	east_asian	2.9076800636689217	smiling	034	sub-01	2.0	5.0	034_smiling	0.0		159.34583809632204	
22.0	133.69979845276248	pulse	1.0	t		24.0	female	east_asian	2.9076800636689217	smiling	034	sub-01	2.0	5.0	034_smiling	0.0		160.04581947199404	
22.0	134.39978073399107	pulse	1.0	t		24.0	female	east_asian	2.9076800636689217	smiling	034	sub-01	2.0	5.0	034_smiling	0.0		160.74580175322262	
22.0	135.09975426148412	pulse	1.0	t		24.0	female	east_asian	2.9076800636689217	smiling	034	sub-01	2.0	5.0	034_smiling	0.0		161.44577528071568	
23.0	135.26631372003249	face	0.0		146	54.0	female	white	2.286908077994429	neutral	136	sub-01	2.0	5.0	136_neutral	0.0		161.61233473926404	1.2333036813088256
23.0	135.79974650386248	pulse	0.0	t		54.0	female	white	2.286908077994429	neutral	136	sub-01	2.0	5.0	136_neutral	0.0		162.14576752309404	
23.0	136.4996174013413	fix	1.0		444	54.0	female	white	2.286908077994429	neutral	136	sub-01	2.0	5.0	136_neutral	0.0		162.84563842057287	3.766561390408242
23.0	136.5070278921212	pulse	1.0	t		54.0	female	white	2.286908077994429	neutral	136	sub-01	2.0	5.0	136_neutral	0.0		162.85304891135274	
23.0	137.19972012191283	pulse	1.0	t		54.0	female	white	2.286908077994429	neutral	136	sub-01	2.0	5.0	136_neutral	0.0		163.5457411411444	
23.0	137.8996951586705	pulse	1.0	t		54.0	female	white	2.286908077994429	neutral	136	sub-01	2.0	5.0	136_neutral	0.0		164.24571617790207	
23.0	138.59966928986978	pulse	1.0	t		54.0	female	white	2.286908077994429	neutral	136	sub-01	2.0	5.0	136_neutral	0.0		164.94569030910134	
23.0	139.2996461377461	pulse	1.0	t		54.0	female	white	2.286908077994429	neutral	136	sub-01	2.0	5.0	136_neutral	0.0		165.64566715697765	
23.0	139.99963656900582	pulse	1.0	t		54.0	female	white	2.286908077994429	neutral	136	sub-01	2.0	5.0	136_neutral	0.0		166.34565758823737	
24.0	140.26617879174955	face	0.0		145	27.0	female	white	4.181058495821727	smiling	039	sub-01	2.0	5.0	039_smiling	0.0		166.6121998109811	1.2333142461629905
24.0	140.69961703911758	pulse	0.0	t		27.0	female	white	4.181058495821727	smiling	039	sub-01	2.0	5.0	039_smiling	0.0		167.04563805834914	
24.0	141.3996062629667	pulse	0.0	t		27.0	female	white	4.181058495821727	smiling	039	sub-01	2.0	5.0	039_smiling	0.0		167.74562728219826	
24.0	141.49949303791254	fix	1.0		444	27.0	female	white	4.181058495821727	smiling	039	sub-01	2.0	5.0	039_smiling	0.0		167.8455140571441	3.7665535422293033
24.0	142.09957948860574	pulse	1.0	t		27.0	female	white	4.181058495821727	smiling	039	sub-01	2.0	5.0	039_smiling	0.0		168.4456005078373	
24.0	142.79956146798395	pulse	1.0	t		27.0	female	white	4.181058495821727	smiling	039	sub-01	2.0	5.0	039_smiling	0.0		169.1455824872155	
24.0	143.49955461592072	pulse	1.0	t		27.0	female	white	4.181058495821727	smiling	039	sub-01	2.0	5.0	039_smiling	0.0		169.84557563515227	
24.0	144.19952180450127	pulse	1.0	t		27.0	female	white	4.181058495821727	smiling	039	sub-01	2.0	5.0	039_smiling	0.0		170.54554282373283	
24.0	144.8994877856694	pulse	1.0	t		27.0	female	white	4.181058495821727	smiling	039	sub-01	2.0	5.0	039_smiling	0.0		171.24550880490096	
25.0	145.26604658014185	face	0.0		145	28.0	male	white	3.9076800636689217	neutral	033	sub-01	2.0	5.0	033_neutral	0.0		171.6120675993734	1.2332976442485233
25.0	145.59949089475595	pulse	0.0	t		28.0	male	white	3.9076800636689217	neutral	033	sub-01	2.0	5.0	033_neutral	0.0		171.9455119139875	
25.0	146.29947891119264	pulse	0.0	t		28.0	male	white	3.9076800636689217	neutral	033	sub-01	2.0	5.0	033_neutral	0.0		172.6454999304242	
25.0	146.49934422439037	fix	1.0		444	28.0	male	white	3.9076800636689217	neutral	033	sub-01	2.0	5.0	033_neutral	0.0		172.84536524362193	3.7582184757575305
25.0	146.99944911830244	pulse	1.0	t		28.0	male	white	3.9076800636689217	neutral	033	sub-01	2.0	5.0	033_neutral	0.0		173.345470137534	
25.0	147.69945705703685	pulse	1.0	t		28.0	male	white	3.9076800636689217	neutral	033	sub-01	2.0	5.0	033_neutral	0.0		174.0454780762684	
25.0	148.40006960729806	pulse	1.0	t		28.0	male	white	3.9076800636689217	neutral	033	sub-01	2.0	5.0	033_neutral	0.0		174.74609062652962	
25.0	149.09938509528365	pulse	1.0	t		28.0	male	white	3.9076800636689217	neutral	033	sub-01	2.0	5.0	033_neutral	0.0		175.4454061145152	
25.0	149.79938005433905	pulse	1.0	t		28.0	male	white	3.9076800636689217	neutral	033	sub-01	2.0	5.0	033_neutral	0.0		176.1454010735706	
26.0	150.2575627001479	face	0.0		146	30.0	female	black	2.7345801830481498	neutral	062	sub-01	2.0	5.0	062_neutral	0.0		176.60358371937946	1.241645992251506
26.0	150.49936022259863	pulse	0.0	t		30.0	female	black	2.7345801830481498	neutral	062	sub-01	2.0	5.0	062_neutral	0.0		176.84538124183018	
26.0	151.1993361649147	pulse	0.0	t		30.0	female	black	2.7345801830481498	neutral	062	sub-01	2.0	5.0	062_neutral	0.0		177.54535718414627	
26.0	151.4992086923994	fix	1.0		444	30.0	female	black	2.7345801830481498	neutral	062	sub-01	2.0	5.0	062_neutral	0.0		177.84522971163096	3.758222399847
26.0	151.89931935170353	pulse	1.0	t		30.0	female	black	2.7345801830481498	neutral	062	sub-01	2.0	5.0	062_neutral	0.0		178.24534037093508	
26.0	152.5993001236693	pulse	1.0	t		30.0	female	black	2.7345801830481498	neutral	062	sub-01	2.0	5.0	062_neutral	0.0		178.94532114290087	
26.0	153.2992757641332	pulse	1.0	t		30.0	female	black	2.7345801830481498	neutral	062	sub-01	2.0	5.0	062_neutral	0.0		179.64529678336476	
26.0	153.99925864906982	pulse	1.0	t		30.0	female	black	2.7345801830481498	neutral	062	sub-01	2.0	5.0	062_neutral	0.0		180.34527966830137	
26.0	154.69924998588795	pulse	1.0	t		30.0	female	black	2.7345801830481498	neutral	062	sub-01	2.0	5.0	062_neutral	0.0		181.0452710051195	
27.0	155.2574310922464	face	0.0		147	19.0	male	white	3.2522881018702745	neutral	018	sub-01	2.0	5.0	018_neutral	0.0		181.60345211147796	1.25000037731661
27.0	155.3992292485891	pulse	0.0	t		19.0	male	white	3.2522881018702745	neutral	018	sub-01	2.0	5.0	018_neutral	0.0		181.74525026782067	
27.0	156.09921545390716	pulse	0.0	t		19.0	male	white	3.2522881018702745	neutral	018	sub-01	2.0	5.0	018_neutral	0.0		182.44523647313872	
27.0	156.50743146956302	fix	1.0		444	19.0	male	white	3.2522881018702745	neutral	018	sub-01	2.0	5.0	018_neutral	0.0		182.85345248879457	3.766555051493924
27.0	156.79920135737302	pulse	1.0	t		19.0	male	white	3.2522881018702745	neutral	018	sub-01	2.0	5.0	018_neutral	0.0		183.14522237660458	
27.0	157.49917307374744	pulse	1.0	t		19.0	male	white	3.2522881018702745	neutral	018	sub-01	2.0	5.0	018_neutral	0.0		183.845194092979	
27.0	158.19915143088838	pulse	1.0	t		19.0	male	white	3.2522881018702745	neutral	018	sub-01	2.0	5.0	018_neutral	0.0		184.54517245011994	
27.0	158.89913220285416	pulse	1.0	t		19.0	male	white	3.2522881018702745	neutral	018	sub-01	2.0	5.0	018_neutral	0.0		185.24515322208572	
27.0	159.5991105599951	pulse	1.0	t		19.0	male	white	3.2522881018702745	neutral	018	sub-01	2.0	5.0	018_neutral	0.0		185.94513157922665	
28.0	160.27398652105694	face	0.0		145	20.0	male	black	2.609629924393156	smiling	043	sub-01	2.0	5.0	043_smiling	1.0	trustworthiness	186.6200075402885	1.2332913053360244
28.0	160.29911698946307	pulse	0.0	t		20.0	male	black	2.609629924393156	smiling	043	sub-01	2.0	5.0	043_smiling	1.0	trustworthiness	186.64513800869463	
28.0	160.99907150021863	pulse	0.0	t		20.0	male	black	2.609629924393156	smiling	043	sub-01	2.0	5.0	043_smiling	1.0	trustworthiness	187.3450925194502	
28.0	161.50727782639296	fix	1.0		177	20.0	male	black	2.609629924393156	smiling	043	sub-01	2.0	5.0	043_smiling	1.0	trustworthiness	187.85329884562452	1.4999702674813307
28.0	161.69906102591995	pulse	1.0	t		20.0	male	black	2.609629924393156	smiling	043	sub-01	2.0	5.0	043_smiling	1.0	trustworthiness	188.0450820451515	
28.0	162.39904119417952	pulse	1.0	t		20.0	male	black	2.609629924393156	smiling	043	sub-01	2.0	5.0	043_smiling	1.0	trustworthiness	188.74506221341107	
28.0	163.0072480938743	rating	2.0		294	20.0	male	black	2.609629924393156	smiling	043	sub-01	2.0	5.0	043_smiling	1.0	trustworthiness	189.35326911310585	2.4999237821211864
28.0	163.09903222914545	pulse	2.0	t		20.0	male	black	2.609629924393156	smiling	043	sub-01	2.0	5.0	043_smiling	1.0	trustworthiness	189.445053248377	
28.0	163.79900847331555	pulse	2.0	t		20.0	male	black	2.609629924393156	smiling	043	sub-01	2.0	5.0	043_smiling	1.0	trustworthiness	190.1450294925471	
28.0	164.24381571150843	response	2.0	g		20.0	male	black	2.609629924393156	smiling	043	sub-01	2.0	5.0	043_smiling	1.0	trustworthiness	190.58983673074	
28.0	164.49897868042535	pulse	2.0	t		20.0	male	black	2.609629924393156	smiling	043	sub-01	2.0	5.0	043_smiling	1.0	trustworthiness	190.8449996996569	
28.0	165.19896548944962	pulse	2.0	t		20.0	male	black	2.609629924393156	smiling	043	sub-01	2.0	5.0	043_smiling	1.0	trustworthiness	191.54498650868118	
28.0	165.50717187599548	fix	3.0		444	20.0	male	black	2.609629924393156	smiling	043	sub-01	2.0	5.0	043_smiling	1.0	trustworthiness	191.85319289522704	3.7665776904686936
28.0	165.89896105221123	pulse	3.0	t		20.0	male	black	2.609629924393156	smiling	043	sub-01	2.0	5.0	043_smiling	1.0	trustworthiness	192.2449820714428	
28.0	166.59893699452914	pulse	3.0	t		20.0	male	black	2.609629924393156	smiling	043	sub-01	2.0	5.0	043_smiling	1.0	trustworthiness	192.9449580137607	
28.0	167.2989171627869	pulse	3.0	t		20.0	male	black	2.609629924393156	smiling	043	sub-01	2.0	5.0	043_smiling	1.0	trustworthiness	193.64493818201845	
28.0	167.99889491622162	pulse	3.0	t		20.0	male	black	2.609629924393156	smiling	043	sub-01	2.0	5.0	043_smiling	1.0	trustworthiness	194.34491593545317	
28.0	168.69887538633338	pulse	3.0	t		20.0	male	black	2.609629924393156	smiling	043	sub-01	2.0	5.0	043_smiling	1.0	trustworthiness	195.04489640556494	
29.0	169.27374956646418	face	0.0		145	28.0	male	east_asian	1.5563072025467568	neutral	005	sub-01	2.0	5.0	005_neutral	0.0		195.61977058569573	1.2333115294859454
29.0	169.39887215650742	pulse	0.0	t		28.0	male	east_asian	1.5563072025467568	neutral	005	sub-01	2.0	5.0	005_neutral	0.0		195.74489317573898	
29.0	170.09884236361722	pulse	0.0	t		28.0	male	east_asian	1.5563072025467568	neutral	005	sub-01	2.0	5.0	005_neutral	0.0		196.44486338284878	
29.0	170.50706109595012	fix	1.0		444	28.0	male	east_asian	1.5563072025467568	neutral	005	sub-01	2.0	5.0	005_neutral	0.0		196.85308211518168	3.766556560758545
29.0	170.79883460599558	pulse	1.0	t		28.0	male	east_asian	1.5563072025467568	neutral	005	sub-01	2.0	5.0	005_neutral	0.0		197.14485562522714	
29.0	171.49880451125318	pulse	1.0	t		28.0	male	east_asian	1.5563072025467568	neutral	005	sub-01	2.0	5.0	005_neutral	0.0		197.84482553048474	
29.0	172.1987804535711	pulse	1.0	t		28.0	male	east_asian	1.5563072025467568	neutral	005	sub-01	2.0	5.0	005_neutral	0.0		198.54480147280265	
29.0	172.89876726259536	pulse	1.0	t		28.0	male	east_asian	1.5563072025467568	neutral	005	sub-01	2.0	5.0	005_neutral	0.0		199.2447882818269	
29.0	173.5987471290009	pulse	1.0	t		28.0	male	east_asian	1.5563072025467568	neutral	005	sub-01	2.0	5.0	005_neutral	0.0		199.94476814823247	
30.0	174.27361765670867	face	0.0		145	36.0	female	white	2.7548746518105847	neutral	011	sub-01	2.0	5.0	011_neutral	0.0		200.61963867594022	1.2333003609255684
30.0	174.29874571029177	pulse	0.0	t		36.0	female	white	2.7548746518105847	neutral	011	sub-01	2.0	5.0	011_neutral	0.0		200.64476672952333	
30.0	174.99870323957657	pulse	0.0	t		36.0	female	white	2.7548746518105847	neutral	011	sub-01	2.0	5.0	011_neutral	0.0		201.34472425880813	
30.0	175.50691801763423	fix	1.0		443	36.0	female	white	2.7548746518105847	neutral	011	sub-01	2.0	5.0	011_neutral	0.0		201.8529390368658	3.766552334818698
30.0	175.6986933689841	pulse	1.0	t		36.0	female	white	2.7548746518105847	neutral	011	sub-01	2.0	5.0	011_neutral	0.0		202.04471438821565	
30.0	176.39867866874374	pulse	1.0	t		36.0	female	white	2.7548746518105847	neutral	011	sub-01	2.0	5.0	011_neutral	0.0		202.7446996879753	
30.0	177.0986594407077	pulse	1.0	t		36.0	female	white	2.7548746518105847	neutral	011	sub-01	2.0	5.0	011_neutral	0.0		203.44468045993926	
30.0	177.7986341756132	pulse	1.0	t		36.0	female	white	2.7548746518105847	neutral	011	sub-01	2.0	5.0	011_neutral	0.0		204.14465519484474	
30.0	178.49862128649147	pulse	1.0	t		36.0	female	white	2.7548746518105847	neutral	011	sub-01	2.0	5.0	011_neutral	0.0		204.84464230572303	
30.0	179.1985854565428	pulse	1.0	t		36.0	female	white	2.7548746518105847	neutral	011	sub-01	2.0	5.0	011_neutral	0.0		205.54460647577434	
31.0	179.27347035245293	face	0.0		146	21.0	male	black	2.969757262236371	smiling	137	sub-01	2.0	5.0	137_smiling	0.0		205.6194913716845	1.233327829546397
31.0	179.89858977303993	pulse	0.0	t		21.0	male	black	2.969757262236371	smiling	137	sub-01	2.0	5.0	137_smiling	0.0		206.2446107922715	
31.0	180.50679818199933	fix	1.0		443	21.0	male	black	2.969757262236371	smiling	137	sub-01	2.0	5.0	137_smiling	0.0		206.8528192012309	3.7665541459355154
31.0	180.59857205427033	pulse	1.0	t		21.0	male	black	2.969757262236371	smiling	137	sub-01	2.0	5.0	137_smiling	0.0		206.9445930735019	
31.0	181.29854497805718	pulse	1.0	t		21.0	male	black	2.969757262236371	smiling	137	sub-01	2.0	5.0	137_smiling	0.0		207.64456599728874	
31.0	181.99853269263986	pulse	1.0	t		21.0	male	black	2.969757262236371	smiling	137	sub-01	2.0	5.0	137_smiling	0.0		208.3445537118714	
31.0	182.6985110497808	pulse	1.0	t		21.0	male	black	2.969757262236371	smiling	137	sub-01	2.0	5.0	137_smiling	0.0		209.04453206901235	
31.0	183.3985002736299	pulse	1.0	t		21.0	male	black	2.969757262236371	smiling	137	sub-01	2.0	5.0	137_smiling	0.0		209.74452129286146	
31.0	184.09846112329797	pulse	1.0	t		21.0	male	black	2.969757262236371	smiling	137	sub-01	2.0	5.0	137_smiling	0.0		210.44448214252952	
32.0	184.27335232793484	face	0.0		146	37.0	male	white	3.898925586947871	smiling	101	sub-01	2.0	5.0	101_smiling	0.0		210.6193733471664	1.2416484070763545
32.0	184.79845487494094	pulse	0.0	t		37.0	male	white	3.898925586947871	smiling	101	sub-01	2.0	5.0	101_smiling	0.0		211.1444758941725	
32.0	185.4984407784068	pulse	0.0	t		37.0	male	white	3.898925586947871	smiling	101	sub-01	2.0	5.0	101_smiling	0.0		211.84446179763836	
32.0	185.5150007350112	fix	1.0		443	37.0	male	white	3.898925586947871	smiling	101	sub-01	2.0	5.0	101_smiling	0.0		211.86102175424276	3.7582211924345756
32.0	186.19842819113728	pulse	1.0	t		37.0	male	white	3.898925586947871	smiling	101	sub-01	2.0	5.0	101_smiling	0.0		212.54444921036884	
32.0	186.89839387045322	pulse	1.0	t		37.0	male	white	3.898925586947871	smiling	101	sub-01	2.0	5.0	101_smiling	0.0		213.24441488968478	
32.0	187.59838943321301	pulse	1.0	t		37.0	male	white	3.898925586947871	smiling	101	sub-01	2.0	5.0	101_smiling	0.0		213.94441045244457	
32.0	188.2983638662663	pulse	1.0	t		37.0	male	white	3.898925586947871	smiling	101	sub-01	2.0	5.0	101_smiling	0.0		214.64438488549786	
32.0	188.9983401104364	pulse	1.0	t		37.0	male	white	3.898925586947871	smiling	101	sub-01	2.0	5.0	101_smiling	0.0		215.34436112966796	
33.0	189.27322192744577	face	0.0		145	26.0	male	white	2.7966573816155993	neutral	117	sub-01	2.0	5.0	117_neutral	0.0		215.61924294667733	1.2332967386901146
33.0	189.69833657875643	pulse	0.0	t		26.0	male	white	2.7966573816155993	neutral	117	sub-01	2.0	5.0	117_neutral	0.0		216.04435759798798	
33.0	190.39829803212888	pulse	0.0	t		26.0	male	white	2.7966573816155993	neutral	117	sub-01	2.0	5.0	117_neutral	0.0		216.74431905136043	
33.0	190.5065186661359	fix	1.0		444	26.0	male	white	2.7966573816155993	neutral	117	sub-01	2.0	5.0	117_neutral	0.0		216.85253968536745	3.7665707478499826
33.0	191.09829087821345	pulse	1.0	t		26.0	male	white	2.7966573816155993	neutral	117	sub-01	2.0	5.0	117_neutral	0.0		217.444311897445	
33.0	191.79826470756052	pulse	1.0	t		26.0	male	white	2.7966573816155993	neutral	117	sub-01	2.0	5.0	117_neutral	0.0		218.14428572679208	
33.0	192.49824427211388	pulse	1.0	t		26.0	male	white	2.7966573816155993	neutral	117	sub-01	2.0	5.0	117_neutral	0.0		218.84426529134544	
33.0	193.1982404385799	pulse	1.0	t		26.0	male	white	2.7966573816155993	neutral	117	sub-01	2.0	5.0	117_neutral	0.0		219.54426145781144	
33.0	193.89822090869166	pulse	1.0	t		26.0	male	white	2.7966573816155993	neutral	117	sub-01	2.0	5.0	117_neutral	0.0		220.2442419279232	
34.0	194.27308941398587	face	0.0		145	28.0	female	white	5.676880222841227	smiling	124	sub-01	2.0	5.0	124_smiling	0.0		220.61911043321743	1.2333039831610222
34.0	194.59819534174494	pulse	0.0	t		28.0	female	white	5.676880222841227	smiling	124	sub-01	2.0	5.0	124_smiling	0.0		220.9442163609765	
34.0	195.29816222847148	pulse	0.0	t		28.0	female	white	5.676880222841227	smiling	124	sub-01	2.0	5.0	124_smiling	0.0		221.64418324770304	
34.0	195.5063933971469	fix	1.0		444	28.0	female	white	5.676880222841227	smiling	124	sub-01	2.0	5.0	124_smiling	0.0		221.85241441637845	3.766556560760364
34.0	195.9981568856747	pulse	1.0	t		28.0	female	white	5.676880222841227	smiling	124	sub-01	2.0	5.0	124_smiling	0.0		222.34417790490625	
34.0	196.69814460025736	pulse	1.0	t		28.0	female	white	5.676880222841227	smiling	124	sub-01	2.0	5.0	124_smiling	0.0		223.04416561948892	
34.0	197.39812325925232	pulse	1.0	t		28.0	female	white	5.676880222841227	smiling	124	sub-01	2.0	5.0	124_smiling	0.0		223.74414427848387	
34.0	198.09822296129278	pulse	1.0	t		28.0	female	white	5.676880222841227	smiling	124	sub-01	2.0	5.0	124_smiling	0.0		224.44424398052433	
34.0	198.79808299206343	pulse	1.0	t		28.0	female	white	5.676880222841227	smiling	124	sub-01	2.0	5.0	124_smiling	0.0		225.14410401129498	
35.0	199.27294995790726	face	0.0		145	31.0	female	white	2.1822522881018704	neutral	102	sub-01	2.0	5.0	102_neutral	0.0		225.61897097713882	1.233320886927686
35.0	199.4980698010877	pulse	0.0	t		31.0	female	white	2.1822522881018704	neutral	102	sub-01	2.0	5.0	102_neutral	0.0		225.84409082031925	
35.0	200.19804846008265	pulse	0.0	t		31.0	female	white	2.1822522881018704	neutral	102	sub-01	2.0	5.0	102_neutral	0.0		226.5440694793142	
35.0	200.50627084483494	fix	1.0		444	31.0	female	white	2.1822522881018704	neutral	102	sub-01	2.0	5.0	102_neutral	0.0		226.8522918640665	3.7665638052312715
35.0	200.89803828763615	pulse	1.0	t		31.0	female	white	2.1822522881018704	neutral	102	sub-01	2.0	5.0	102_neutral	0.0		227.2440593068677	
35.0	201.5980178521895	pulse	1.0	t		31.0	female	white	2.1822522881018704	neutral	102	sub-01	2.0	5.0	102_neutral	0.0		227.94403887142107	
35.0	202.29799620933045	pulse	1.0	t		31.0	female	white	2.1822522881018704	neutral	102	sub-01	2.0	5.0	102_neutral	0.0		228.644017228562	
35.0	202.99796551088184	pulse	1.0	t		31.0	female	white	2.1822522881018704	neutral	102	sub-01	2.0	5.0	102_neutral	0.0		229.3439865301134	
35.0	203.69795020693527	pulse	1.0	t		31.0	female	white	2.1822522881018704	neutral	102	sub-01	2.0	5.0	102_neutral	0.0		230.04397122616683	
36.0	204.27283465006622	face	0.0		145	24.0	female	east_asian	2.9076800636689217	neutral	034	sub-01	2.0	5.0	034_neutral	1.0	attractiveness	230.61885566929777	1.2332970405423112
36.0	204.39800825326347	pulse	0.0	t		24.0	female	east_asian	2.9076800636689217	neutral	034	sub-01	2.0	5.0	034_neutral	1.0	attractiveness	230.74402927249503	
36.0	205.09793106945654	pulse	0.0	t		24.0	female	east_asian	2.9076800636689217	neutral	034	sub-01	2.0	5.0	034_neutral	1.0	attractiveness	231.4439520886881	
36.0	205.50613169060853	fix	1.0		177	24.0	female	east_asian	2.9076800636689217	neutral	034	sub-01	2.0	5.0	034_neutral	1.0	attractiveness	231.85215270984008	1.4999536655668635
36.0	205.79789976730171	pulse	1.0	t		24.0	female	east_asian	2.9076800636689217	neutral	034	sub-01	2.0	5.0	034_neutral	1.0	attractiveness	232.14392078653327	
36.0	206.4978808411197	pulse	1.0	t		24.0	female	east_asian	2.9076800636689217	neutral	034	sub-01	2.0	5.0	034_neutral	1.0	attractiveness	232.84390186035125	
36.0	207.0060853561754	rating	2.0		295	24.0	female	east_asian	2.9076800636689217	neutral	034	sub-01	2.0	5.0	034_neutral	1.0	attractiveness	233.35210637540695	2.499933743270958
36.0	207.19786614087934	pulse	2.0	t		24.0	female	east_asian	2.9076800636689217	neutral	034	sub-01	2.0	5.0	034_neutral	1.0	attractiveness	233.5438871601109	
36.0	207.89784962952035	pulse	2.0	t		24.0	female	east_asian	2.9076800636689217	neutral	034	sub-01	2.0	5.0	034_neutral	1.0	attractiveness	234.2438706487519	
36.0	208.5978288922197	pulse	2.0	t		24.0	female	east_asian	2.9076800636689217	neutral	034	sub-01	2.0	5.0	034_neutral	1.0	attractiveness	234.94384991145125	
36.0	209.29781992718745	pulse	2.0	t		24.0	female	east_asian	2.9076800636689217	neutral	034	sub-01	2.0	5.0	034_neutral	1.0	attractiveness	235.643840946419	
36.0	209.50601909944635	fix	3.0		443	24.0	female	east_asian	2.9076800636689217	neutral	034	sub-01	2.0	5.0	034_neutral	1.0	attractiveness	235.8520401186779	3.758235681376391
36.0	209.61446008612984	response	3.0	y		24.0	female	east_asian	2.9076800636689217	neutral	034	sub-01	2.0	5.0	034_neutral	1.0	attractiveness	235.9604811053614	
36.0	209.99777594720763	pulse	3.0	t		24.0	female	east_asian	2.9076800636689217	neutral	034	sub-01	2.0	5.0	034_neutral	1.0	attractiveness	236.34379696643919	
36.0	210.697768189586	pulse	3.0	t		24.0	female	east_asian	2.9076800636689217	neutral	034	sub-01	2.0	5.0	034_neutral	1.0	attractiveness	237.04378920881754	
36.0	211.39776103566874	pulse	3.0	t		24.0	female	east_asian	2.9076800636689217	neutral	034	sub-01	2.0	5.0	034_neutral	1.0	attractiveness	237.7437820549003	
36.0	212.09773878910528	pulse	3.0	t		24.0	female	east_asian	2.9076800636689217	neutral	034	sub-01	2.0	5.0	034_neutral	1.0	attractiveness	238.44375980833684	
36.0	212.7977168443922	pulse	3.0	t		24.0	female	east_asian	2.9076800636689217	neutral	034	sub-01	2.0	5.0	034_neutral	1.0	attractiveness	239.14373786362376	
37.0	213.26425478082274	face	0.0		146	24.0	male	white	3.1153999204138483	smiling	012	sub-01	2.0	5.0	012_smiling	0.0		239.6102758000543	1.2416345218389324
37.0	213.4976807125895	pulse	0.0	t		24.0	male	white	3.1153999204138483	smiling	012	sub-01	2.0	5.0	012_smiling	0.0		239.84370173182106	
37.0	214.1976808031468	pulse	0.0	t		24.0	male	white	3.1153999204138483	smiling	012	sub-01	2.0	5.0	012_smiling	0.0		240.54370182237835	
37.0	214.50588930266167	fix	1.0		444	24.0	male	white	3.1153999204138483	smiling	012	sub-01	2.0	5.0	012_smiling	0.0		240.85191032189323	3.7582353795241943
37.0	214.89765946213993	pulse	1.0	t		24.0	male	white	3.1153999204138483	smiling	012	sub-01	2.0	5.0	012_smiling	0.0		241.24368048137148	
37.0	215.59763480075162	pulse	1.0	t		24.0	male	white	3.1153999204138483	smiling	012	sub-01	2.0	5.0	012_smiling	0.0		241.94365581998318	
37.0	216.2976345894549	pulse	1.0	t		24.0	male	white	3.1153999204138483	smiling	012	sub-01	2.0	5.0	012_smiling	0.0		242.64365560868646	
37.0	216.99761294659584	pulse	1.0	t		24.0	male	white	3.1153999204138483	smiling	012	sub-01	2.0	5.0	012_smiling	0.0		243.3436339658274	
37.0	217.69759522782442	pulse	1.0	t		24.0	male	white	3.1153999204138483	smiling	012	sub-01	2.0	5.0	012_smiling	0.0		244.04361624705598	
38.0	218.26412468218587	face	0.0		146	26.0	female	white	4.854755272582572	neutral	027	sub-01	2.0	5.0	027_neutral	0.0		244.61014570141742	1.2416245606909797
38.0	218.39757117014233	pulse	0.0	t		26.0	female	white	4.854755272582572	neutral	027	sub-01	2.0	5.0	027_neutral	0.0		244.74359218937389	
38.0	219.09754409392917	pulse	0.0	t		26.0	female	white	4.854755272582572	neutral	027	sub-01	2.0	5.0	027_neutral	0.0		245.44356511316073	
38.0	219.50574924287685	fix	1.0		444	26.0	female	white	4.854755272582572	neutral	027	sub-01	2.0	5.0	027_neutral	0.0		245.8517702621084	3.766576181204073
38.0	219.79753935483677	pulse	1.0	t		26.0	female	white	4.854755272582572	neutral	027	sub-01	2.0	5.0	027_neutral	0.0		246.14356037406833	
38.0	220.49752193791937	pulse	1.0	t		26.0	female	white	4.854755272582572	neutral	027	sub-01	2.0	5.0	027_neutral	0.0		246.84354295715093	
38.0	221.19750089876652	pulse	1.0	t		26.0	female	white	4.854755272582572	neutral	027	sub-01	2.0	5.0	027_neutral	0.0		247.54352191799808	
38.0	221.89748317999693	pulse	1.0	t		26.0	female	white	4.854755272582572	neutral	027	sub-01	2.0	5.0	027_neutral	0.0		248.24350419922848	
38.0	222.59745851860862	pulse	1.0	t		26.0	female	white	4.854755272582572	neutral	027	sub-01	2.0	5.0	027_neutral	0.0		248.94347953784018	
39.0	223.27232542408092	face	0.0		145	21.0	male	east_asian/white	3.501790688420215	neutral	036	sub-01	2.0	5.0	036_neutral	1.0	trustworthiness	249.61834644331248	1.2333009646317805
39.0	223.2974522702516	pulse	0.0	t		21.0	male	east_asian/white	3.501790688420215	neutral	036	sub-01	2.0	5.0	036_neutral	1.0	trustworthiness	249.64347328948315	
39.0	223.9974279107155	pulse	0.0	t		21.0	male	east_asian/white	3.501790688420215	neutral	036	sub-01	2.0	5.0	036_neutral	1.0	trustworthiness	250.34344892994704	
39.0	224.5056263887127	fix	1.0		177	21.0	male	east_asian/white	3.501790688420215	neutral	036	sub-01	2.0	5.0	036_neutral	1.0	trustworthiness	250.85164740794426	1.4999738897167845
39.0	224.69741321047513	pulse	1.0	t		21.0	male	east_asian/white	3.501790688420215	neutral	036	sub-01	2.0	5.0	036_neutral	1.0	trustworthiness	251.0434342297067	
39.0	225.39738975649743	pulse	1.0	t		21.0	male	east_asian/white	3.501790688420215	neutral	036	sub-01	2.0	5.0	036_neutral	1.0	trustworthiness	251.743410775729	
39.0	226.00560027842948	rating	2.0		294	21.0	male	east_asian/white	3.501790688420215	neutral	036	sub-01	2.0	5.0	036_neutral	1.0	trustworthiness	252.35162129766104	2.499932535856715
39.0	226.0973696229048	pulse	2.0	t		21.0	male	east_asian/white	3.501790688420215	neutral	036	sub-01	2.0	5.0	036_neutral	1.0	trustworthiness	252.44339064213636	
39.0	226.79736065787074	pulse	2.0	t		21.0	male	east_asian/white	3.501790688420215	neutral	036	sub-01	2.0	5.0	036_neutral	1.0	trustworthiness	253.1433816771023	
39.0	227.36400692933785	response	2.0	g		21.0	male	east_asian/white	3.501790688420215	neutral	036	sub-01	2.0	5.0	036_neutral	1.0	trustworthiness	253.7100279485694	
39.0	227.4973215075388	pulse	2.0	t		21.0	male	east_asian/white	3.501790688420215	neutral	036	sub-01	2.0	5.0	036_neutral	1.0	trustworthiness	253.84334252677036	
39.0	228.19730771285685	pulse	2.0	t		21.0	male	east_asian/white	3.501790688420215	neutral	036	sub-01	2.0	5.0	036_neutral	1.0	trustworthiness	254.5433287320884	
39.0	228.5055328142862	fix	3.0		444	21.0	male	east_asian/white	3.501790688420215	neutral	036	sub-01	2.0	5.0	036_neutral	1.0	trustworthiness	254.85155383351776	3.749888238933636
39.0	228.89730357747067	pulse	3.0	t		21.0	male	east_asian/white	3.501790688420215	neutral	036	sub-01	2.0	5.0	036_neutral	1.0	trustworthiness	255.24332459670222	
39.0	229.5972692567866	pulse	3.0	t		21.0	male	east_asian/white	3.501790688420215	neutral	036	sub-01	2.0	5.0	036_neutral	1.0	trustworthiness	255.94329027601816	
39.0	230.29726180101716	pulse	3.0	t		21.0	male	east_asian/white	3.501790688420215	neutral	036	sub-01	2.0	5.0	036_neutral	1.0	trustworthiness	256.6432828202487	
39.0	230.99723200812878	pulse	3.0	t		21.0	male	east_asian/white	3.501790688420215	neutral	036	sub-01	2.0	5.0	036_neutral	1.0	trustworthiness	257.34325302736033	
39.0	231.69722636347797	pulse	3.0	t		21.0	male	east_asian/white	3.501790688420215	neutral	036	sub-01	2.0	5.0	036_neutral	1.0	trustworthiness	258.0432473827095	
40.0	232.25542105321983	fix	0.0		720													258.6014420724514	5.999838206798813
40.0	232.39720773914814	pulse	0.0	t														258.7432287583797	
40.0	233.09718398331825	pulse	0.0	t														259.4432050025498	
40.0	233.79717441457797	pulse	0.0	t														260.1431954338095	
40.0	234.49712862348133	pulse	0.0	t														260.8431496427129	
40.0	235.1971157343578	pulse	0.0	t														261.54313675358935	
40.0	235.89710314708827	pulse	0.0	t														262.24312416631983	
40.0	236.59708512646648	pulse	0.0	t														262.94310614569804	
40.0	237.2970686151075	pulse	0.0	t														263.64308963433905	
40.0	237.99704606669002	pulse	0.0	t														264.3430670859216	
