trial_nr	onset	event_type	phase	response	nr_frames	face_age	face_sex	face_eth	attractiveness	expression	face_id	sub_id	ses	run	trial_type	catch	rating_type	onset_abs	duration
-1.0	0.058620841624360764	fix	0.0		713													21.526007355640104	5.957953799046663
-1.0	0.7001043216205289	pulse	0.0	t														22.167490835636272	
-1.0	1.4000999748859613	pulse	0.0	t														22.867486488901704	
-1.0	2.1000844594600494	pulse	0.0	t														23.567470973475793	
-1.0	2.800079810869647	pulse	0.0	t														24.26746632488539	
-1.0	3.5000609750204603	pulse	0.0	t														24.967447489036203	
-1.0	4.200054515291413	pulse	0.0	t														25.667441029307156	
-1.0	4.9000459425660665	pulse	0.0	t														26.36743245658181	
-1.0	5.600035256844421	pulse	0.0	t														27.067421770860165	
0.0	6.016574640671024	face	0.0		144	22.0	male	black	2.767608436132113	smiling	044	sub-08	1.0	3.0	044_smiling	0.0		27.483961154686767	1.2333073334229994
0.0	6.300057775342793	pulse	0.0	t		22.0	male	black	2.767608436132113	smiling	044	sub-08	1.0	3.0	044_smiling	0.0		27.767444289358536	
0.0	7.000006640844731	pulse	0.0	t		22.0	male	black	2.767608436132113	smiling	044	sub-08	1.0	3.0	044_smiling	0.0		28.467393154860474	
0.0	7.2498819740940235	fix	1.0		444	22.0	male	black	2.767608436132113	smiling	044	sub-08	1.0	3.0	044_smiling	0.0		28.717268488109767	3.75827660442701
0.0	7.699998068119385	pulse	1.0	t		22.0	male	black	2.767608436132113	smiling	044	sub-08	1.0	3.0	044_smiling	0.0		29.167384582135128	
0.0	8.399990702819196	pulse	1.0	t		22.0	male	black	2.767608436132113	smiling	044	sub-08	1.0	3.0	044_smiling	0.0		29.86737721683494	
0.0	9.099975791106772	pulse	1.0	t		22.0	male	black	2.767608436132113	smiling	044	sub-08	1.0	3.0	044_smiling	0.0		30.567362305122515	
0.0	9.799968123950748	pulse	1.0	t		22.0	male	black	2.767608436132113	smiling	044	sub-08	1.0	3.0	044_smiling	0.0		31.26735463796649	
0.0	10.499937213840894	pulse	1.0	t		22.0	male	black	2.767608436132113	smiling	044	sub-08	1.0	3.0	044_smiling	0.0		31.967323727856638	
1.0	11.008158578521034	face	0.0		146	25.0	female	black	3.858336649423	smiling	126	sub-08	1.0	3.0	126_smiling	0.0		32.47554509253678	1.241648837007233
1.0	11.199943130228348	pulse	0.0	t		25.0	female	black	3.858336649423	smiling	126	sub-08	1.0	3.0	126_smiling	0.0		32.66732964424409	
1.0	11.899928520371759	pulse	0.0	t		25.0	female	black	3.858336649423	smiling	126	sub-08	1.0	3.0	126_smiling	0.0		33.3673150343875	
1.0	12.249807415528267	fix	1.0		444	25.0	female	black	3.858336649423	smiling	126	sub-08	1.0	3.0	126_smiling	0.0		33.71719392954401	3.758260606031399
1.0	12.599921155073389	pulse	1.0	t		25.0	female	black	3.858336649423	smiling	126	sub-08	1.0	3.0	126_smiling	0.0		34.06730766908913	
1.0	13.299916506481168	pulse	1.0	t		25.0	female	black	3.858336649423	smiling	126	sub-08	1.0	3.0	126_smiling	0.0		34.76730302049691	
1.0	13.99990340590739	pulse	1.0	t		25.0	female	black	3.858336649423	smiling	126	sub-08	1.0	3.0	126_smiling	0.0		35.46728991992313	
1.0	14.699895135039696	pulse	1.0	t		25.0	female	black	3.858336649423	smiling	126	sub-08	1.0	3.0	126_smiling	0.0		36.16728164905544	
1.0	15.399891090160963	pulse	1.0	t		25.0	female	black	3.858336649423	smiling	126	sub-08	1.0	3.0	126_smiling	0.0		36.86727760417671	
2.0	16.008068021559666	face	0.0		146	24.0	female	east_asian	2.9076800636689217	smiling	034	sub-08	1.0	3.0	034_smiling	0.0		37.47545453557541	1.2416609112697188
2.0	16.09986108562225	pulse	0.0	t		24.0	female	east_asian	2.9076800636689217	smiling	034	sub-08	1.0	3.0	034_smiling	0.0		37.567247599637994	
2.0	16.799855229604873	pulse	0.0	t		24.0	female	east_asian	2.9076800636689217	smiling	034	sub-08	1.0	3.0	034_smiling	0.0		38.267241743620616	
2.0	17.249728932829385	fix	1.0		445	24.0	female	east_asian	2.9076800636689217	smiling	034	sub-08	1.0	3.0	034_smiling	0.0		38.71711544684513	3.7582696617264446
2.0	17.49984243088693	pulse	1.0	t		24.0	female	east_asian	2.9076800636689217	smiling	034	sub-08	1.0	3.0	034_smiling	0.0		38.96722894490267	
2.0	18.19985317698047	pulse	1.0	t		24.0	female	east_asian	2.9076800636689217	smiling	034	sub-08	1.0	3.0	034_smiling	0.0		39.66723969099621	
2.0	18.899818040879836	pulse	1.0	t		24.0	female	east_asian	2.9076800636689217	smiling	034	sub-08	1.0	3.0	034_smiling	0.0		40.36720455489558	
2.0	19.599805544017727	pulse	1.0	t		24.0	female	east_asian	2.9076800636689217	smiling	034	sub-08	1.0	3.0	034_smiling	0.0		41.06719205803347	
2.0	20.299809045554866	pulse	1.0	t		24.0	female	east_asian	2.9076800636689217	smiling	034	sub-08	1.0	3.0	034_smiling	0.0		41.76719555957061	
3.0	21.00799859455583	face	0.0		147	36.0	female	white	2.7548746518105847	smiling	011	sub-08	1.0	3.0	011_smiling	0.0		42.47538510857157	1.241672683674551
3.0	21.00176586075031	pulse	0.0	t		36.0	female	white	2.7548746518105847	smiling	011	sub-08	1.0	3.0	011_smiling	0.0		42.469152374766054	
3.0	21.69978797596741	pulse	0.0	t		36.0	female	white	2.7548746518105847	smiling	011	sub-08	1.0	3.0	011_smiling	0.0		43.167174489983154	
3.0	22.24967127823038	fix	1.0		443	36.0	female	white	2.7548746518105847	smiling	011	sub-08	1.0	3.0	011_smiling	0.0		43.71705779224612	3.7665915446359577
3.0	22.399776384676443	pulse	1.0	t		36.0	female	white	2.7548746518105847	smiling	011	sub-08	1.0	3.0	011_smiling	0.0		43.867162898692186	
3.0	23.099751209841997	pulse	1.0	t		36.0	female	white	2.7548746518105847	smiling	011	sub-08	1.0	3.0	011_smiling	0.0		44.56713772385774	
3.0	23.799746561251595	pulse	1.0	t		36.0	female	white	2.7548746518105847	smiling	011	sub-08	1.0	3.0	011_smiling	0.0		45.26713307526734	
3.0	24.499742818230516	pulse	1.0	t		36.0	female	white	2.7548746518105847	smiling	011	sub-08	1.0	3.0	011_smiling	0.0		45.96712933224626	
3.0	25.199727906516273	pulse	1.0	t		36.0	female	white	2.7548746518105847	smiling	011	sub-08	1.0	3.0	011_smiling	0.0		46.667114420532016	
3.0	25.899732313622735	pulse	1.0	t		36.0	female	white	2.7548746518105847	smiling	011	sub-08	1.0	3.0	011_smiling	0.0		47.36711882763848	
4.0	26.016262822866338	face	0.0		146	27.0	male	black	3.5523278949462798	smiling	042	sub-08	1.0	3.0	042_smiling	0.0		47.48364933688208	1.2333206151106424
4.0	26.59971498705636	pulse	0.0	t		27.0	male	black	3.5523278949462798	smiling	042	sub-08	1.0	3.0	042_smiling	0.0		48.0671015010721	
4.0	27.24958343797698	fix	1.0		444	27.0	male	black	3.5523278949462798	smiling	042	sub-08	1.0	3.0	042_smiling	0.0		48.71696995199272	3.7665864130758564
4.0	27.29970339576539	pulse	1.0	t		27.0	male	black	3.5523278949462798	smiling	042	sub-08	1.0	3.0	042_smiling	0.0		48.767089909781134	
4.0	27.99969150261859	pulse	1.0	t		27.0	male	black	3.5523278949462798	smiling	042	sub-08	1.0	3.0	042_smiling	0.0		49.46707801663433	
4.0	28.699682929893243	pulse	1.0	t		27.0	male	black	3.5523278949462798	smiling	042	sub-08	1.0	3.0	042_smiling	0.0		50.167069443908986	
4.0	29.399658056912813	pulse	1.0	t		27.0	male	black	3.5523278949462798	smiling	042	sub-08	1.0	3.0	042_smiling	0.0		50.867044570928556	
4.0	30.099721024187602	pulse	1.0	t		27.0	male	black	3.5523278949462798	smiling	042	sub-08	1.0	3.0	042_smiling	0.0		51.567107538203345	
4.0	30.799652985724606	pulse	1.0	t		27.0	male	black	3.5523278949462798	smiling	042	sub-08	1.0	3.0	042_smiling	0.0		52.26703949974035	
5.0	31.016169851052837	face	0.0		145	24.0	male	white	3.1153999204138483	neutral	012	sub-08	1.0	3.0	012_neutral	0.0		52.48355636506858	1.2333384246467176
5.0	31.499641092575985	pulse	0.0	t		24.0	male	white	3.1153999204138483	neutral	012	sub-08	1.0	3.0	012_neutral	0.0		52.96702760659173	
5.0	32.19962708643288	pulse	0.0	t		24.0	male	white	3.1153999204138483	neutral	012	sub-08	1.0	3.0	012_neutral	0.0		53.66701360044863	
5.0	32.249508275699554	fix	1.0		445	24.0	male	white	3.1153999204138483	neutral	012	sub-08	1.0	3.0	012_neutral	0.0		53.7168947897153	3.758343314722879
5.0	32.89961640071124	pulse	1.0	t		24.0	male	white	3.1153999204138483	neutral	012	sub-08	1.0	3.0	012_neutral	0.0		54.36700291472698	
5.0	33.59960330013746	pulse	1.0	t		24.0	male	white	3.1153999204138483	neutral	012	sub-08	1.0	3.0	012_neutral	0.0		55.0669898141532	
5.0	34.29958627542874	pulse	1.0	t		24.0	male	white	3.1153999204138483	neutral	012	sub-08	1.0	3.0	012_neutral	0.0		55.76697278944448	
5.0	34.99957136371631	pulse	1.0	t		24.0	male	white	3.1153999204138483	neutral	012	sub-08	1.0	3.0	012_neutral	0.0		56.46695787773206	
5.0	35.69956882812039	pulse	1.0	t		24.0	male	white	3.1153999204138483	neutral	012	sub-08	1.0	3.0	012_neutral	0.0		57.166955342136134	
6.0	36.00785159042243	face	0.0		146	19.0	female	white	4.298846000795861	neutral	100	sub-08	1.0	3.0	100_neutral	0.0		57.475238104438176	1.2415694487372093
6.0	36.3995542182638	pulse	0.0	t		19.0	female	white	4.298846000795861	neutral	100	sub-08	1.0	3.0	100_neutral	0.0		57.866940732279545	
6.0	37.09953357127779	pulse	0.0	t		19.0	female	white	4.298846000795861	neutral	100	sub-08	1.0	3.0	100_neutral	0.0		58.56692008529353	
6.0	37.24942103915964	fix	1.0		445	19.0	female	white	4.298846000795861	neutral	100	sub-08	1.0	3.0	100_neutral	0.0		58.716807553175386	3.7582370612217346
6.0	37.79960317939549	pulse	1.0	t		19.0	female	white	4.298846000795861	neutral	100	sub-08	1.0	3.0	100_neutral	0.0		59.26698969341123	
6.0	38.49953182050922	pulse	1.0	t		19.0	female	white	4.298846000795861	neutral	100	sub-08	1.0	3.0	100_neutral	0.0		59.96691833452496	
6.0	39.199520531074086	pulse	1.0	t		19.0	female	white	4.298846000795861	neutral	100	sub-08	1.0	3.0	100_neutral	0.0		60.66690704508983	
6.0	39.899497167378286	pulse	1.0	t		19.0	female	white	4.298846000795861	neutral	100	sub-08	1.0	3.0	100_neutral	0.0		61.36688368139403	
6.0	40.59949493364002	pulse	1.0	t		19.0	female	white	4.298846000795861	neutral	100	sub-08	1.0	3.0	100_neutral	0.0		62.06688144765576	
7.0	41.00765810038138	face	0.0		146	20.0	male	black	3.1070433744528456	smiling	082	sub-08	1.0	3.0	082_smiling	0.0		62.47504461439712	1.241705284179261
7.0	41.29948907762264	pulse	0.0	t		20.0	male	black	3.1070433744528456	smiling	082	sub-08	1.0	3.0	082_smiling	0.0		62.76687559163838	
7.0	41.99946088422257	pulse	0.0	t		20.0	male	black	3.1070433744528456	smiling	082	sub-08	1.0	3.0	082_smiling	0.0		63.466847398238315	
7.0	42.24936338456064	fix	1.0		445	20.0	male	black	3.1070433744528456	smiling	082	sub-08	1.0	3.0	082_smiling	0.0		63.71674989857638	3.7665788666618027
7.0	42.69945774491498	pulse	1.0	t		20.0	male	black	3.1070433744528456	smiling	082	sub-08	1.0	3.0	082_smiling	0.0		64.16684425893072	
7.0	43.399488413539075	pulse	1.0	t		20.0	male	black	3.1070433744528456	smiling	082	sub-08	1.0	3.0	082_smiling	0.0		64.86687492755482	
7.0	44.09942188435889	pulse	1.0	t		20.0	male	black	3.1070433744528456	smiling	082	sub-08	1.0	3.0	082_smiling	0.0		65.56680839837463	
7.0	44.799421461759266	pulse	1.0	t		20.0	male	black	3.1070433744528456	smiling	082	sub-08	1.0	3.0	082_smiling	0.0		66.26680797577501	
7.0	45.49942103915964	pulse	1.0	t		20.0	male	black	3.1070433744528456	smiling	082	sub-08	1.0	3.0	082_smiling	0.0		66.96680755317539	
8.0	46.01594225122244	face	0.0		145	22.0	female	white	4.614007162753682	smiling	009	sub-08	1.0	3.0	009_smiling	0.0		67.48332876523818	1.2333444617779605
8.0	46.19941427757294	pulse	0.0	t		22.0	female	white	4.614007162753682	smiling	009	sub-08	1.0	3.0	009_smiling	0.0		67.66680079158868	
8.0	46.89940117699916	pulse	0.0	t		22.0	female	white	4.614007162753682	smiling	009	sub-08	1.0	3.0	009_smiling	0.0		68.3667876910149	
8.0	47.2492867130004	fix	1.0		444	22.0	female	white	4.614007162753682	smiling	009	sub-08	1.0	3.0	009_smiling	0.0		68.71667322701614	3.766593355774603
8.0	47.599383850434606	pulse	1.0	t		22.0	female	white	4.614007162753682	smiling	009	sub-08	1.0	3.0	009_smiling	0.0		69.06677036445035	
8.0	48.29938252226566	pulse	1.0	t		22.0	female	white	4.614007162753682	smiling	009	sub-08	1.0	3.0	009_smiling	0.0		69.7667690362814	
8.0	48.99936338456064	pulse	1.0	t		22.0	female	white	4.614007162753682	smiling	009	sub-08	1.0	3.0	009_smiling	0.0		70.46674989857638	
8.0	49.69936326381867	pulse	1.0	t		22.0	female	white	4.614007162753682	smiling	009	sub-08	1.0	3.0	009_smiling	0.0		71.16674977783441	
8.0	50.399348352104425	pulse	1.0	t		22.0	female	white	4.614007162753682	smiling	009	sub-08	1.0	3.0	009_smiling	0.0		71.86673486612017	
9.0	51.015880068775004	face	0.0		145	30.0	female	black	2.7345801830481498	neutral	062	sub-08	1.0	3.0	062_neutral	0.0		72.48326658279075	1.2333266522418853
9.0	51.099321366131335	pulse	0.0	t		30.0	female	black	2.7345801830481498	neutral	062	sub-08	1.0	3.0	062_neutral	0.0		72.56670788014708	
9.0	51.799310982265524	pulse	0.0	t		30.0	female	black	2.7345801830481498	neutral	062	sub-08	1.0	3.0	062_neutral	0.0		73.26669749628127	
9.0	52.24920672101689	fix	1.0		444	30.0	female	black	2.7345801830481498	neutral	062	sub-08	1.0	3.0	062_neutral	0.0		73.71659323503263	3.766580677800448
9.0	52.49931720051063	pulse	1.0	t		30.0	female	black	2.7345801830481498	neutral	062	sub-08	1.0	3.0	062_neutral	0.0		73.96670371452637	
9.0	53.19931557048585	pulse	1.0	t		30.0	female	black	2.7345801830481498	neutral	062	sub-08	1.0	3.0	062_neutral	0.0		74.6667020845016	
9.0	53.899284660376	pulse	1.0	t		30.0	female	black	2.7345801830481498	neutral	062	sub-08	1.0	3.0	062_neutral	0.0		75.36667117439174	
9.0	54.59928242663773	pulse	1.0	t		30.0	female	black	2.7345801830481498	neutral	062	sub-08	1.0	3.0	062_neutral	0.0		76.06666894065347	
9.0	55.299275363193374	pulse	1.0	t		30.0	female	black	2.7345801830481498	neutral	062	sub-08	1.0	3.0	062_neutral	0.0		76.76666187720912	
10.0	56.01578739881734	face	0.0		146	40.0	female	west_asian	1.5777954635893354	neutral	038	sub-08	1.0	3.0	038_neutral	0.0		77.48317391283308	1.2333465747742594
10.0	56.00190682775428	pulse	0.0	t		40.0	female	west_asian	1.5777954635893354	neutral	038	sub-08	1.0	3.0	038_neutral	0.0		77.46929334177003	
10.0	56.69925097318628	pulse	0.0	t		40.0	female	west_asian	1.5777954635893354	neutral	038	sub-08	1.0	3.0	038_neutral	0.0		78.16663748720202	
10.0	57.2491339735916	fix	1.0		444	40.0	female	west_asian	1.5777954635893354	neutral	038	sub-08	1.0	3.0	038_neutral	0.0		78.71652048760734	3.7749261055196257
10.0	57.399240891178124	pulse	1.0	t		40.0	female	west_asian	1.5777954635893354	neutral	038	sub-08	1.0	3.0	038_neutral	0.0		78.86662740519387	
10.0	58.09922145161727	pulse	1.0	t		40.0	female	west_asian	1.5777954635893354	neutral	038	sub-08	1.0	3.0	038_neutral	0.0		79.56660796563301	
10.0	58.80755226947804	pulse	1.0	t		40.0	female	west_asian	1.5777954635893354	neutral	038	sub-08	1.0	3.0	038_neutral	0.0		80.27493878349378	
10.0	59.49919343932925	pulse	1.0	t		40.0	female	west_asian	1.5777954635893354	neutral	038	sub-08	1.0	3.0	038_neutral	0.0		80.96657995334499	
10.0	60.20752727575746	pulse	1.0	t		40.0	female	west_asian	1.5777954635893354	neutral	038	sub-08	1.0	3.0	038_neutral	0.0		81.6749137897732	
10.0	60.89917961430001	pulse	1.0	t		40.0	female	west_asian	1.5777954635893354	neutral	038	sub-08	1.0	3.0	038_neutral	0.0		82.36656612831575	
11.0	61.02406007911122	face	0.0		146	24.0	female	east_asian	4.409868682849185	smiling	030	sub-08	1.0	3.0	030_smiling	0.0		82.49144659312697	1.2333302745209949
11.0	61.60750892287979	pulse	0.0	t		24.0	female	east_asian	4.409868682849185	smiling	030	sub-08	1.0	3.0	030_smiling	0.0		83.07489543689553	
11.0	62.25739035363222	fix	1.0		443	24.0	female	east_asian	4.409868682849185	smiling	030	sub-08	1.0	3.0	030_smiling	0.0		83.72477686764796	3.7582418909260014
11.0	62.30754502492164	pulse	1.0	t		24.0	female	east_asian	4.409868682849185	smiling	030	sub-08	1.0	3.0	030_smiling	0.0		83.77493153893738	
11.0	63.00748574029785	pulse	1.0	t		24.0	female	east_asian	4.409868682849185	smiling	030	sub-08	1.0	3.0	030_smiling	0.0		84.4748722543136	
11.0	63.69914260668884	pulse	1.0	t		24.0	female	east_asian	4.409868682849185	smiling	030	sub-08	1.0	3.0	030_smiling	0.0		85.16652912070458	
11.0	64.40746044471962	pulse	1.0	t		24.0	female	east_asian	4.409868682849185	smiling	030	sub-08	1.0	3.0	030_smiling	0.0		85.87484695873536	
11.0	65.10745368313292	pulse	1.0	t		24.0	female	east_asian	4.409868682849185	smiling	030	sub-08	1.0	3.0	030_smiling	0.0		86.57484019714866	
11.0	65.79909455112829	pulse	1.0	t		24.0	female	east_asian	4.409868682849185	smiling	030	sub-08	1.0	3.0	030_smiling	0.0		87.26648106514403	
12.0	66.01563224455822	face	0.0		146	26.0	male	white	2.7966573816155993	neutral	117	sub-08	1.0	3.0	117_neutral	0.0		87.48301875857396	1.241678117090487
12.0	66.50743110426447	pulse	0.0	t		26.0	male	white	2.7966573816155993	neutral	117	sub-08	1.0	3.0	117_neutral	0.0		87.97481761828021	
12.0	67.2074195129735	pulse	0.0	t		26.0	male	white	2.7966573816155993	neutral	117	sub-08	1.0	3.0	117_neutral	0.0		88.67480602698924	
12.0	67.2573103616487	fix	1.0		445	26.0	male	white	2.7966573816155993	neutral	117	sub-08	1.0	3.0	117_neutral	0.0		88.72469687566445	3.7665815833697707
12.0	67.90741576995242	pulse	1.0	t		26.0	male	white	2.7966573816155993	neutral	117	sub-08	1.0	3.0	117_neutral	0.0		89.37480228396817	
12.0	68.60740327309213	pulse	1.0	t		26.0	male	white	2.7966573816155993	neutral	117	sub-08	1.0	3.0	117_neutral	0.0		90.07478978710787	
12.0	69.30737990939451	pulse	1.0	t		26.0	male	white	2.7966573816155993	neutral	117	sub-08	1.0	3.0	117_neutral	0.0		90.77476642341026	
12.0	70.00737435523479	pulse	1.0	t		26.0	male	white	2.7966573816155993	neutral	117	sub-08	1.0	3.0	117_neutral	0.0		91.47476086925053	
12.0	70.69930259065404	pulse	1.0	t		26.0	male	white	2.7966573816155993	neutral	117	sub-08	1.0	3.0	117_neutral	0.0		92.16668910466979	
13.0	71.02389194501848	face	0.0		145	28.0	male	white	3.9076800636689217	neutral	033	sub-08	1.0	3.0	033_neutral	1.0	trustworthiness	92.49127845903422	1.2333269540995389
13.0	71.40736717104846	pulse	0.0	t		28.0	male	white	3.9076800636689217	neutral	033	sub-08	1.0	3.0	033_neutral	1.0	trustworthiness	92.8747536850642	
13.0	72.10734592034896	pulse	0.0	t		28.0	male	white	3.9076800636689217	neutral	033	sub-08	1.0	3.0	033_neutral	1.0	trustworthiness	93.5747324343647	
13.0	72.25721889911802	fix	1.0		177	28.0	male	white	3.9076800636689217	neutral	033	sub-08	1.0	3.0	033_neutral	1.0	trustworthiness	93.72460541313376	1.5083556908411992
13.0	72.8073337253445	pulse	1.0	t		28.0	male	white	3.9076800636689217	neutral	033	sub-08	1.0	3.0	033_neutral	1.0	trustworthiness	94.27472023936025	
13.0	73.50729587253409	pulse	1.0	t		28.0	male	white	3.9076800636689217	neutral	033	sub-08	1.0	3.0	033_neutral	1.0	trustworthiness	94.97468238654983	
13.0	73.76557458995921	rating	2.0		294	28.0	male	white	3.9076800636689217	neutral	033	sub-08	1.0	3.0	033_neutral	1.0	trustworthiness	95.23296110397496	2.491597521395306
13.0	74.202718701099	pulse	2.0	t		28.0	male	white	3.9076800636689217	neutral	033	sub-08	1.0	3.0	033_neutral	1.0	trustworthiness	95.67010521511475	
13.0	74.90219304812308	pulse	2.0	t		28.0	male	white	3.9076800636689217	neutral	033	sub-08	1.0	3.0	033_neutral	1.0	trustworthiness	96.36957956213882	
13.0	75.60203264155825	pulse	2.0	t		28.0	male	white	3.9076800636689217	neutral	033	sub-08	1.0	3.0	033_neutral	1.0	trustworthiness	97.069419155574	
13.0	75.65200740635191	response	2.0	g		28.0	male	white	3.9076800636689217	neutral	033	sub-08	1.0	3.0	033_neutral	1.0	trustworthiness	97.11939392036766	
13.0	76.25717211135452	fix	3.0		443	28.0	male	white	3.9076800636689217	neutral	033	sub-08	1.0	3.0	033_neutral	1.0	trustworthiness	97.72455862537026	3.758329127465913
13.0	76.29924789424877	pulse	3.0	t		28.0	male	white	3.9076800636689217	neutral	033	sub-08	1.0	3.0	033_neutral	1.0	trustworthiness	97.76663440826451	
13.0	77.00727323329374	pulse	3.0	t		28.0	male	white	3.9076800636689217	neutral	033	sub-08	1.0	3.0	033_neutral	1.0	trustworthiness	98.47465974730949	
13.0	77.70725651044268	pulse	3.0	t		28.0	male	white	3.9076800636689217	neutral	033	sub-08	1.0	3.0	033_neutral	1.0	trustworthiness	99.17464302445842	
13.0	78.40725246556394	pulse	3.0	t		28.0	male	white	3.9076800636689217	neutral	033	sub-08	1.0	3.0	033_neutral	1.0	trustworthiness	99.87463897957969	
13.0	79.10723574271287	pulse	3.0	t		28.0	male	white	3.9076800636689217	neutral	033	sub-08	1.0	3.0	033_neutral	1.0	trustworthiness	100.57462225672862	
13.0	79.8072226421391	pulse	3.0	t		28.0	male	white	3.9076800636689217	neutral	033	sub-08	1.0	3.0	033_neutral	1.0	trustworthiness	101.27460915615484	
14.0	80.01550123882043	face	0.0		146	28.0	male	east_asian	1.5563072025467568	neutral	005	sub-08	1.0	3.0	005_neutral	0.0		101.48288775283618	1.2415926916910394
14.0	80.5072246343916	pulse	0.0	t		28.0	male	east_asian	1.5563072025467568	neutral	005	sub-08	1.0	3.0	005_neutral	0.0		101.97461114840735	
14.0	81.20719795027435	pulse	0.0	t		28.0	male	east_asian	1.5563072025467568	neutral	005	sub-08	1.0	3.0	005_neutral	0.0		102.67458446429009	
14.0	81.25709393051147	fix	1.0		445	28.0	male	east_asian	1.5563072025467568	neutral	005	sub-08	1.0	3.0	005_neutral	0.0		102.72448044452722	3.758242192781836
14.0	81.90718756640854	pulse	1.0	t		28.0	male	east_asian	1.5563072025467568	neutral	005	sub-08	1.0	3.0	005_neutral	0.0		103.37457408042428	
14.0	82.60718865309173	pulse	1.0	t		28.0	male	east_asian	1.5563072025467568	neutral	005	sub-08	1.0	3.0	005_neutral	0.0		104.07457516710747	
14.0	83.30717766551425	pulse	1.0	t		28.0	male	east_asian	1.5563072025467568	neutral	005	sub-08	1.0	3.0	005_neutral	0.0		104.77456417952999	
14.0	83.99908114869686	pulse	1.0	t		28.0	male	east_asian	1.5563072025467568	neutral	005	sub-08	1.0	3.0	005_neutral	0.0		105.4664676627126	
14.0	84.69907951867208	pulse	1.0	t		28.0	male	east_asian	1.5563072025467568	neutral	005	sub-08	1.0	3.0	005_neutral	0.0		106.16646603268782	
15.0	85.01533612329331	face	0.0		146	40.0	male	black	2.408674890569041	neutral	061	sub-08	1.0	3.0	061_neutral	1.0	dominance	106.48272263730905	1.2416738910997083
15.0	85.39903985472301	pulse	0.0	t		40.0	male	black	2.408674890569041	neutral	061	sub-08	1.0	3.0	061_neutral	1.0	dominance	106.86642636873876	
15.0	86.10716842870352	pulse	0.0	t		40.0	male	black	2.408674890569041	neutral	061	sub-08	1.0	3.0	061_neutral	1.0	dominance	107.57455494271926	
15.0	86.25701001439302	fix	1.0		177	40.0	male	black	2.408674890569041	neutral	061	sub-08	1.0	3.0	061_neutral	1.0	dominance	107.72439652840876	1.4999698143456044
15.0	86.80712242576737	pulse	1.0	t		40.0	male	black	2.408674890569041	neutral	061	sub-08	1.0	3.0	061_neutral	1.0	dominance	108.27450893978312	
15.0	87.4990367757855	pulse	1.0	t		40.0	male	black	2.408674890569041	neutral	061	sub-08	1.0	3.0	061_neutral	1.0	dominance	108.96642328980124	
15.0	87.75697982873862	rating	2.0		296	40.0	male	black	2.408674890569041	neutral	061	sub-08	1.0	3.0	061_neutral	1.0	dominance	109.22436634275437	2.4999818886080902
15.0	88.20194383536546	pulse	2.0	t		40.0	male	black	2.408674890569041	neutral	061	sub-08	1.0	3.0	061_neutral	1.0	dominance	109.6693303493812	
15.0	88.90198023926314	pulse	2.0	t		40.0	male	black	2.408674890569041	neutral	061	sub-08	1.0	3.0	061_neutral	1.0	dominance	110.36936675327888	
15.0	89.60211685953254	pulse	2.0	t		40.0	male	black	2.408674890569041	neutral	061	sub-08	1.0	3.0	061_neutral	1.0	dominance	111.06950337354829	
15.0	90.25696171734671	fix	3.0		442	40.0	male	black	2.408674890569041	neutral	061	sub-08	1.0	3.0	061_neutral	1.0	dominance	111.72434823136246	3.7665791685176373
15.0	90.30707050644378	pulse	3.0	t		40.0	male	black	2.408674890569041	neutral	061	sub-08	1.0	3.0	061_neutral	1.0	dominance	111.77445702045952	
15.0	90.58202106234239	response	3.0	y		40.0	male	black	2.408674890569041	neutral	061	sub-08	1.0	3.0	061_neutral	1.0	dominance	112.04940757635813	
15.0	90.99891905173718	pulse	3.0	t		40.0	male	black	2.408674890569041	neutral	061	sub-08	1.0	3.0	061_neutral	1.0	dominance	112.46630556575292	
15.0	91.69890414002293	pulse	3.0	t		40.0	male	black	2.408674890569041	neutral	061	sub-08	1.0	3.0	061_neutral	1.0	dominance	113.16629065403868	
15.0	92.39889405801478	pulse	3.0	t		40.0	male	black	2.408674890569041	neutral	061	sub-08	1.0	3.0	061_neutral	1.0	dominance	113.86628057203052	
15.0	93.09887673145022	pulse	3.0	t		40.0	male	black	2.408674890569041	neutral	061	sub-08	1.0	3.0	061_neutral	1.0	dominance	114.56626324546596	
15.0	93.79890498522218	pulse	3.0	t		40.0	male	black	2.408674890569041	neutral	061	sub-08	1.0	3.0	061_neutral	1.0	dominance	115.26629149923792	
16.0	94.02354088586435	face	0.0		145	22.0	female	west_asian	3.8205332272184642	smiling	066	sub-08	1.0	3.0	066_smiling	0.0		115.49092739988009	1.2333426506393153
16.0	94.5070048828311	pulse	0.0	t		22.0	female	west_asian	3.8205332272184642	smiling	066	sub-08	1.0	3.0	066_smiling	0.0		115.97439139684684	
16.0	95.206990876688	pulse	0.0	t		22.0	female	west_asian	3.8205332272184642	smiling	066	sub-08	1.0	3.0	066_smiling	0.0		116.67437739070374	
16.0	95.25688353650366	fix	1.0		445	22.0	female	west_asian	3.8205332272184642	smiling	066	sub-08	1.0	3.0	066_smiling	0.0		116.72427005051941	3.758305280798595
16.0	95.89884787396477	pulse	1.0	t		22.0	female	west_asian	3.8205332272184642	smiling	066	sub-08	1.0	3.0	066_smiling	0.0		117.36623438798051	
16.0	96.59883718824312	pulse	1.0	t		22.0	female	west_asian	3.8205332272184642	smiling	066	sub-08	1.0	3.0	066_smiling	0.0		118.06622370225887	
16.0	97.29888838311126	pulse	1.0	t		22.0	female	west_asian	3.8205332272184642	smiling	066	sub-08	1.0	3.0	066_smiling	0.0		118.766274897127	
16.0	97.99880676110479	pulse	1.0	t		22.0	female	west_asian	3.8205332272184642	smiling	066	sub-08	1.0	3.0	066_smiling	0.0		119.46619327512053	
16.0	98.69887093580473	pulse	1.0	t		22.0	female	west_asian	3.8205332272184642	smiling	066	sub-08	1.0	3.0	066_smiling	0.0		120.16625744982048	
17.0	99.01518881730226	face	0.0		146	23.0	male	white	2.6275368085953046	smiling	141	sub-08	1.0	3.0	141_smiling	1.0	attractiveness	120.482575331318	1.2416083882308158
17.0	99.3987349796189	pulse	0.0	t		23.0	male	white	2.6275368085953046	smiling	141	sub-08	1.0	3.0	141_smiling	1.0	attractiveness	120.86612149363464	
17.0	100.09870769178815	pulse	0.0	t		23.0	male	white	2.6275368085953046	smiling	141	sub-08	1.0	3.0	141_smiling	1.0	attractiveness	121.56609420580389	
17.0	100.25679720553308	fix	1.0		177	23.0	male	white	2.6275368085953046	smiling	141	sub-08	1.0	3.0	141_smiling	1.0	attractiveness	121.72418371954882	1.4999649846413377
17.0	100.79877277205742	pulse	1.0	t		23.0	male	white	2.6275368085953046	smiling	141	sub-08	1.0	3.0	141_smiling	1.0	attractiveness	122.26615928607316	
17.0	101.49875755848734	pulse	1.0	t		23.0	male	white	2.6275368085953046	smiling	141	sub-08	1.0	3.0	141_smiling	1.0	attractiveness	122.96614407250308	
17.0	101.75676219017441	rating	2.0		295	23.0	male	white	2.6275368085953046	smiling	141	sub-08	1.0	3.0	141_smiling	1.0	attractiveness	123.22414870419016	2.4999824923215783
17.0	102.20174974161091	pulse	2.0	t		23.0	male	white	2.6275368085953046	smiling	141	sub-08	1.0	3.0	141_smiling	1.0	attractiveness	123.66913625562665	
17.0	102.90166117690205	pulse	2.0	t		23.0	male	white	2.6275368085953046	smiling	141	sub-08	1.0	3.0	141_smiling	1.0	attractiveness	124.3690476909178	
17.0	103.30993784170278	response	2.0	d		23.0	male	white	2.6275368085953046	smiling	141	sub-08	1.0	3.0	141_smiling	1.0	attractiveness	124.77732435571852	
17.0	103.60158196974771	pulse	2.0	t		23.0	male	white	2.6275368085953046	smiling	141	sub-08	1.0	3.0	141_smiling	1.0	attractiveness	125.06896848376346	
17.0	104.25674468249599	fix	3.0		443	23.0	male	white	2.6275368085953046	smiling	141	sub-08	1.0	3.0	141_smiling	1.0	attractiveness	125.72413119651173	3.7583294293217477
17.0	104.29871330631977	pulse	3.0	t		23.0	male	white	2.6275368085953046	smiling	141	sub-08	1.0	3.0	141_smiling	1.0	attractiveness	125.76609982033551	
17.0	104.99870624287723	pulse	3.0	t		23.0	male	white	2.6275368085953046	smiling	141	sub-08	1.0	3.0	141_smiling	1.0	attractiveness	126.46609275689298	
17.0	105.69869012373783	pulse	3.0	t		23.0	male	white	2.6275368085953046	smiling	141	sub-08	1.0	3.0	141_smiling	1.0	attractiveness	127.16607663775358	
17.0	106.39857590122301	pulse	3.0	t		23.0	male	white	2.6275368085953046	smiling	141	sub-08	1.0	3.0	141_smiling	1.0	attractiveness	127.86596241523876	
17.0	107.09867690242027	pulse	3.0	t		23.0	male	white	2.6275368085953046	smiling	141	sub-08	1.0	3.0	141_smiling	1.0	attractiveness	128.566063416436	
17.0	107.79865172758582	pulse	3.0	t		23.0	male	white	2.6275368085953046	smiling	141	sub-08	1.0	3.0	141_smiling	1.0	attractiveness	129.26603824160156	
18.0	108.01507411181774	face	0.0		146	19.0	male	white	2.243931555909272	neutral	130	sub-08	1.0	3.0	130_neutral	0.0		129.48246062583348	1.2415791081475618
18.0	108.49859968751844	pulse	0.0	t		19.0	male	white	2.243931555909272	neutral	130	sub-08	1.0	3.0	130_neutral	0.0		129.96598620153418	
18.0	109.19858356837904	pulse	0.0	t		19.0	male	white	2.243931555909272	neutral	130	sub-08	1.0	3.0	130_neutral	0.0		130.66597008239478	
18.0	109.2566532199653	fix	1.0		445	19.0	male	white	2.243931555909272	neutral	130	sub-08	1.0	3.0	130_neutral	0.0		130.72403973398104	3.758400365608395
18.0	109.89850315379772	pulse	1.0	t		19.0	male	white	2.243931555909272	neutral	130	sub-08	1.0	3.0	130_neutral	0.0		131.36588966781346	
18.0	110.59865215018544	pulse	1.0	t		19.0	male	white	2.243931555909272	neutral	130	sub-08	1.0	3.0	130_neutral	0.0		132.0660386642012	
18.0	111.29860946767076	pulse	1.0	t		19.0	male	white	2.243931555909272	neutral	130	sub-08	1.0	3.0	130_neutral	0.0		132.7659959816865	
18.0	111.9984653613592	pulse	1.0	t		19.0	male	white	2.243931555909272	neutral	130	sub-08	1.0	3.0	130_neutral	0.0		133.46585187537494	
18.0	112.69858477580601	pulse	1.0	t		19.0	male	white	2.243931555909272	neutral	130	sub-08	1.0	3.0	130_neutral	0.0		134.16597128982175	
19.0	113.0150535855737	face	0.0		146	26.0	female	white	4.854755272582572	neutral	027	sub-08	1.0	3.0	027_neutral	0.0		134.48244009958944	1.2415166238424717
19.0	113.39851552991604	pulse	0.0	t		26.0	female	white	4.854755272582572	neutral	027	sub-08	1.0	3.0	027_neutral	0.0		134.86590204393178	
19.0	114.0984227392164	pulse	0.0	t		26.0	female	white	4.854755272582572	neutral	027	sub-08	1.0	3.0	027_neutral	0.0		135.56580925323215	
19.0	114.25657020941617	fix	1.0		444	26.0	female	white	4.854755272582572	neutral	027	sub-08	1.0	3.0	027_neutral	0.0		135.7239567234319	3.7666150894456223
19.0	114.79847393408454	pulse	1.0	t		26.0	female	white	4.854755272582572	neutral	027	sub-08	1.0	3.0	027_neutral	0.0		136.26586044810028	
19.0	115.49840831047368	pulse	1.0	t		26.0	female	white	4.854755272582572	neutral	027	sub-08	1.0	3.0	027_neutral	0.0		136.96579482448942	
19.0	116.19839973774833	pulse	1.0	t		26.0	female	white	4.854755272582572	neutral	027	sub-08	1.0	3.0	027_neutral	0.0		137.66578625176408	
19.0	116.89852368004176	pulse	1.0	t		26.0	female	white	4.854755272582572	neutral	027	sub-08	1.0	3.0	027_neutral	0.0		138.3659101940575	
19.0	117.5985042404809	pulse	1.0	t		26.0	female	white	4.854755272582572	neutral	027	sub-08	1.0	3.0	027_neutral	0.0		139.06589075449665	
20.0	118.02318529886179	face	0.0		145	22.0	female	white	4.614007162753682	neutral	009	sub-08	1.0	3.0	009_neutral	0.0		139.49057181287753	1.2333311800903175
20.0	118.29844827627858	pulse	0.0	t		22.0	female	white	4.614007162753682	neutral	009	sub-08	1.0	3.0	009_neutral	0.0		139.76583479029432	
20.0	118.99841796988221	pulse	0.0	t		22.0	female	white	4.614007162753682	neutral	009	sub-08	1.0	3.0	009_neutral	0.0		140.46580448389795	
20.0	119.25651647895211	fix	1.0		1185	22.0	female	white	4.614007162753682	neutral	009	sub-08	1.0	3.0	009_neutral	0.0		140.72390299296785	10.00822076096847
20.0	119.69851534880218	pulse	1.0	t		22.0	female	white	4.614007162753682	neutral	009	sub-08	1.0	3.0	009_neutral	0.0		141.16590186281792	
20.0	120.39845455489558	pulse	1.0	t		22.0	female	white	4.614007162753682	neutral	009	sub-08	1.0	3.0	009_neutral	0.0		141.86584106891132	
20.0	121.09830471330861	pulse	1.0	t		22.0	female	white	4.614007162753682	neutral	009	sub-08	1.0	3.0	009_neutral	0.0		142.56569122732435	
20.0	121.79829221644832	pulse	1.0	t		22.0	female	white	4.614007162753682	neutral	009	sub-08	1.0	3.0	009_neutral	0.0		143.26567873046406	
20.0	122.49843849612625	pulse	1.0	t		22.0	female	white	4.614007162753682	neutral	009	sub-08	1.0	3.0	009_neutral	0.0		143.965825010142	
20.0	123.19842358441383	pulse	1.0	t		22.0	female	white	4.614007162753682	neutral	009	sub-08	1.0	3.0	009_neutral	0.0		144.66581009842957	
20.0	123.89827585582498	pulse	1.0	t		22.0	female	white	4.614007162753682	neutral	009	sub-08	1.0	3.0	009_neutral	0.0		145.36566236984072	
20.0	124.59840583524965	pulse	1.0	t		22.0	female	white	4.614007162753682	neutral	009	sub-08	1.0	3.0	009_neutral	0.0		146.0657923492654	
20.0	125.29839786623779	pulse	1.0	t		22.0	female	white	4.614007162753682	neutral	009	sub-08	1.0	3.0	009_neutral	0.0		146.76578438025354	
20.0	125.99818795519968	pulse	1.0	t		22.0	female	white	4.614007162753682	neutral	009	sub-08	1.0	3.0	009_neutral	0.0		147.46557446921543	
20.0	126.69837498551169	pulse	1.0	t		22.0	female	white	4.614007162753682	neutral	009	sub-08	1.0	3.0	009_neutral	0.0		148.16576149952743	
20.0	127.39818469515012	pulse	1.0	t		22.0	female	white	4.614007162753682	neutral	009	sub-08	1.0	3.0	009_neutral	0.0		148.86557120916586	
20.0	128.09822260833062	pulse	1.0	t		22.0	female	white	4.614007162753682	neutral	009	sub-08	1.0	3.0	009_neutral	0.0		149.56560912234636	
20.0	128.79820467805257	pulse	1.0	t		22.0	female	white	4.614007162753682	neutral	009	sub-08	1.0	3.0	009_neutral	0.0		150.2655911920683	
21.0	129.26473723992058	face	0.0		146	25.0	female	west_asian	2.6756864305610826	neutral	064	sub-08	1.0	3.0	064_neutral	0.0		150.73212375393632	1.241609595657792
21.0	129.49815535469315	pulse	0.0	t		25.0	female	west_asian	2.6756864305610826	neutral	064	sub-08	1.0	3.0	064_neutral	0.0		150.9655418687089	
21.0	130.19816217665175	pulse	0.0	t		25.0	female	west_asian	2.6756864305610826	neutral	064	sub-08	1.0	3.0	064_neutral	0.0		151.6655486906675	
21.0	130.50634683557837	fix	1.0		444	25.0	female	west_asian	2.6756864305610826	neutral	064	sub-08	1.0	3.0	064_neutral	0.0		151.9737333495941	3.766592752061115
21.0	130.8981203997064	pulse	1.0	t		25.0	female	west_asian	2.6756864305610826	neutral	064	sub-08	1.0	3.0	064_neutral	0.0		152.36550691372213	
21.0	131.59809945086272	pulse	1.0	t		25.0	female	west_asian	2.6756864305610826	neutral	064	sub-08	1.0	3.0	064_neutral	0.0		153.06548596487846	
21.0	132.29807940758838	pulse	1.0	t		25.0	female	west_asian	2.6756864305610826	neutral	064	sub-08	1.0	3.0	064_neutral	0.0		153.76546592160412	
21.0	132.99807083486303	pulse	1.0	t		25.0	female	west_asian	2.6756864305610826	neutral	064	sub-08	1.0	3.0	064_neutral	0.0		154.46545734887877	
21.0	133.6980761475388	pulse	1.0	t		25.0	female	west_asian	2.6756864305610826	neutral	064	sub-08	1.0	3.0	064_neutral	0.0		155.16546266155456	
22.0	134.27293958763948	face	0.0		145	20.0	male	black	2.609629924393156	smiling	043	sub-08	1.0	3.0	043_smiling	0.0		155.74032610165523	1.233328161524696
22.0	134.39806697109998	pulse	0.0	t		20.0	male	black	2.609629924393156	smiling	043	sub-08	1.0	3.0	043_smiling	0.0		155.86545348511572	
22.0	135.09803002385888	pulse	0.0	t		20.0	male	black	2.609629924393156	smiling	043	sub-08	1.0	3.0	043_smiling	0.0		156.56541653787463	
22.0	135.50626774916418	fix	1.0		444	20.0	male	black	2.609629924393156	smiling	043	sub-08	1.0	3.0	043_smiling	0.0		156.97365426317992	3.766587318645179
22.0	135.79805133493028	pulse	1.0	t		20.0	male	black	2.609629924393156	smiling	043	sub-08	1.0	3.0	043_smiling	0.0		157.26543784894602	
22.0	136.4980309898001	pulse	1.0	t		20.0	male	black	2.609629924393156	smiling	043	sub-08	1.0	3.0	043_smiling	0.0		157.96541750381584	
22.0	137.19800943724294	pulse	1.0	t		20.0	male	black	2.609629924393156	smiling	043	sub-08	1.0	3.0	043_smiling	0.0		158.6653959512587	
22.0	137.89800780721816	pulse	1.0	t		20.0	male	black	2.609629924393156	smiling	043	sub-08	1.0	3.0	043_smiling	0.0		159.3653943212339	
22.0	138.59799017879595	pulse	1.0	t		20.0	male	black	2.609629924393156	smiling	043	sub-08	1.0	3.0	043_smiling	0.0		160.0653766928117	
23.0	139.27285506780936	face	0.0		145	21.0	male	black	2.969757262236371	smiling	137	sub-08	1.0	3.0	137_smiling	0.0		160.7402415818251	1.2333351042252616
23.0	139.298000321176	pulse	0.0	t		21.0	male	black	2.969757262236371	smiling	137	sub-08	1.0	3.0	137_smiling	0.0		160.76538683519175	
23.0	139.9979769574802	pulse	0.0	t		21.0	male	black	2.969757262236371	smiling	137	sub-08	1.0	3.0	137_smiling	0.0		161.46536347149595	
23.0	140.50619017203462	fix	1.0		443	21.0	male	black	2.969757262236371	smiling	137	sub-08	1.0	3.0	137_smiling	0.0		161.97357668605036	3.7665918464917922
23.0	140.69796717732788	pulse	1.0	t		21.0	male	black	2.969757262236371	smiling	137	sub-08	1.0	3.0	137_smiling	0.0		162.16535369134363	
23.0	141.3979519637578	pulse	1.0	t		21.0	male	black	2.969757262236371	smiling	137	sub-08	1.0	3.0	137_smiling	0.0		162.86533847777355	
23.0	142.09793222234111	pulse	1.0	t		21.0	male	black	2.969757262236371	smiling	137	sub-08	1.0	3.0	137_smiling	0.0		163.56531873635686	
23.0	142.79793723315925	pulse	1.0	t		21.0	male	black	2.969757262236371	smiling	137	sub-08	1.0	3.0	137_smiling	0.0		164.265323747175	
23.0	143.49793198085536	pulse	1.0	t		21.0	male	black	2.969757262236371	smiling	137	sub-08	1.0	3.0	137_smiling	0.0		164.9653184948711	
23.0	144.19790922087304	pulse	1.0	t		21.0	male	black	2.969757262236371	smiling	137	sub-08	1.0	3.0	137_smiling	0.0		165.6652957348888	
24.0	144.2727820185264	face	0.0		146	36.0	female	white	2.7548746518105847	neutral	011	sub-08	1.0	3.0	011_neutral	0.0		165.74016853254216	1.233318200260328
24.0	144.89790457228264	pulse	0.0	t		36.0	female	white	2.7548746518105847	neutral	011	sub-08	1.0	3.0	011_neutral	0.0		166.36529108629838	
24.0	145.50610021878674	fix	1.0		443	36.0	female	white	2.7548746518105847	neutral	011	sub-08	1.0	3.0	011_neutral	0.0		166.97348673280248	3.75827660442701
24.0	145.59787849187705	pulse	1.0	t		36.0	female	white	2.7548746518105847	neutral	011	sub-08	1.0	3.0	011_neutral	0.0		167.0652650058928	
24.0	146.2978777674216	pulse	1.0	t		36.0	female	white	2.7548746518105847	neutral	011	sub-08	1.0	3.0	011_neutral	0.0		167.76526428143734	
24.0	146.99787613739682	pulse	1.0	t		36.0	female	white	2.7548746518105847	neutral	011	sub-08	1.0	3.0	011_neutral	0.0		168.46526265141256	
24.0	147.69786062196908	pulse	1.0	t		36.0	female	white	2.7548746518105847	neutral	011	sub-08	1.0	3.0	011_neutral	0.0		169.16524713598483	
24.0	148.3978502381051	pulse	1.0	t		36.0	female	white	2.7548746518105847	neutral	011	sub-08	1.0	3.0	011_neutral	0.0		169.86523675212084	
24.0	149.09783502453502	pulse	1.0	t		36.0	female	white	2.7548746518105847	neutral	011	sub-08	1.0	3.0	011_neutral	0.0		170.56522153855076	
25.0	149.26437682321375	face	0.0		147	47.0	male	east_asian	2.171110226820533	neutral	024	sub-08	1.0	3.0	024_neutral	1.0	attractiveness	170.7317633372295	1.2499824923215783
25.0	149.7978179998263	pulse	0.0	t		47.0	male	east_asian	2.171110226820533	neutral	024	sub-08	1.0	3.0	024_neutral	1.0	attractiveness	171.26520451384204	
25.0	150.4978033899697	pulse	0.0	t		47.0	male	east_asian	2.171110226820533	neutral	024	sub-08	1.0	3.0	024_neutral	1.0	attractiveness	171.96518990398545	
25.0	150.51435931553533	fix	1.0		176	47.0	male	east_asian	2.171110226820533	neutral	024	sub-08	1.0	3.0	024_neutral	1.0	attractiveness	171.98174582955107	1.4916424980183365
25.0	151.1977951191002	pulse	1.0	t		47.0	male	east_asian	2.171110226820533	neutral	024	sub-08	1.0	3.0	024_neutral	1.0	attractiveness	172.66518163311594	
25.0	151.89777779253563	pulse	1.0	t		47.0	male	east_asian	2.171110226820533	neutral	024	sub-08	1.0	3.0	024_neutral	1.0	attractiveness	173.36516430655138	
25.0	152.00600181355367	rating	2.0		295	47.0	male	east_asian	2.171110226820533	neutral	024	sub-08	1.0	3.0	024_neutral	1.0	attractiveness	173.4733883275694	2.499976757047989
25.0	152.597755636265	pulse	2.0	t		47.0	male	east_asian	2.171110226820533	neutral	024	sub-08	1.0	3.0	024_neutral	1.0	attractiveness	174.06514215028074	
25.0	153.29794447771565	pulse	2.0	t		47.0	male	east_asian	2.171110226820533	neutral	024	sub-08	1.0	3.0	024_neutral	1.0	attractiveness	174.7653309917314	
25.0	153.4841688319848	response	2.0	w		47.0	male	east_asian	2.171110226820533	neutral	024	sub-08	1.0	3.0	024_neutral	1.0	attractiveness	174.95155534600053	
25.0	153.9977369815315	pulse	2.0	t		47.0	male	east_asian	2.171110226820533	neutral	024	sub-08	1.0	3.0	024_neutral	1.0	attractiveness	175.46512349554723	
25.0	154.50597857060166	fix	3.0		443	47.0	male	east_asian	2.171110226820533	neutral	024	sub-08	1.0	3.0	024_neutral	1.0	attractiveness	175.9733650846174	3.766579470373472
25.0	154.69774501091524	pulse	3.0	t		47.0	male	east_asian	2.171110226820533	neutral	024	sub-08	1.0	3.0	024_neutral	1.0	attractiveness	176.16513152493098	
25.0	155.39774881430822	pulse	3.0	t		47.0	male	east_asian	2.171110226820533	neutral	024	sub-08	1.0	3.0	024_neutral	1.0	attractiveness	176.86513532832396	
25.0	156.09775020284724	pulse	3.0	t		47.0	male	east_asian	2.171110226820533	neutral	024	sub-08	1.0	3.0	024_neutral	1.0	attractiveness	177.56513671686298	
25.0	156.7977041999111	pulse	3.0	t		47.0	male	east_asian	2.171110226820533	neutral	024	sub-08	1.0	3.0	024_neutral	1.0	attractiveness	178.26509071392684	
25.0	157.4977276239788	pulse	3.0	t		47.0	male	east_asian	2.171110226820533	neutral	024	sub-08	1.0	3.0	024_neutral	1.0	attractiveness	178.96511413799453	
25.0	158.1977332385104	pulse	3.0	t		47.0	male	east_asian	2.171110226820533	neutral	024	sub-08	1.0	3.0	024_neutral	1.0	attractiveness	179.66511975252615	
26.0	158.27255804097513	face	0.0		146	28.0	female	white	5.676880222841227	smiling	124	sub-08	1.0	3.0	124_smiling	0.0		179.73994455499087	1.2333299726651603
26.0	158.89769478198832	pulse	0.0	t		28.0	female	white	5.676880222841227	smiling	124	sub-08	1.0	3.0	124_smiling	0.0		180.36508129600406	
26.0	159.5058880136403	fix	1.0		443	28.0	female	white	5.676880222841227	smiling	124	sub-08	1.0	3.0	124_smiling	0.0		180.97327452765603	3.7582696617264446
26.0	159.59766598487295	pulse	1.0	t		28.0	female	white	5.676880222841227	smiling	124	sub-08	1.0	3.0	124_smiling	0.0		181.0650524988887	
26.0	160.29766616598863	pulse	1.0	t		28.0	female	white	5.676880222841227	smiling	124	sub-08	1.0	3.0	124_smiling	0.0		181.76505268000437	
26.0	160.99764733013944	pulse	1.0	t		28.0	female	white	5.676880222841227	smiling	124	sub-08	1.0	3.0	124_smiling	0.0		182.4650338441552	
26.0	161.6976194385952	pulse	1.0	t		28.0	female	white	5.676880222841227	smiling	124	sub-08	1.0	3.0	124_smiling	0.0		183.16500595261095	
26.0	162.39760120646133	pulse	1.0	t		28.0	female	white	5.676880222841227	smiling	124	sub-08	1.0	3.0	124_smiling	0.0		183.86498772047707	
26.0	163.09761255626654	pulse	1.0	t		28.0	female	white	5.676880222841227	smiling	124	sub-08	1.0	3.0	124_smiling	0.0		184.56499907028228	
27.0	163.26415767536673	face	0.0		147	26.0	male	white	2.7966573816155993	smiling	117	sub-08	1.0	3.0	117_smiling	0.0		184.73154418938248	1.2500024148521334
27.0	163.79759553155782	pulse	0.0	t		26.0	male	white	2.7966573816155993	smiling	117	sub-08	1.0	3.0	117_smiling	0.0		185.26498204557356	
27.0	164.49758635511898	pulse	0.0	t		26.0	male	white	2.7966573816155993	smiling	117	sub-08	1.0	3.0	117_smiling	0.0		185.96497286913473	
27.0	164.51416009021887	fix	1.0		443	26.0	male	white	2.7966573816155993	smiling	117	sub-08	1.0	3.0	117_smiling	0.0		185.9815466042346	3.7499191024489846
27.0	165.19757929167645	pulse	1.0	t		26.0	male	white	2.7966573816155993	smiling	117	sub-08	1.0	3.0	117_smiling	0.0		186.6649658056922	
27.0	165.89754928713592	pulse	1.0	t		26.0	male	white	2.7966573816155993	smiling	117	sub-08	1.0	3.0	117_smiling	0.0		187.36493580115166	
27.0	166.59753679027563	pulse	1.0	t		26.0	male	white	2.7966573816155993	smiling	117	sub-08	1.0	3.0	117_smiling	0.0		188.06492330429137	
27.0	167.29753727324533	pulse	1.0	t		26.0	male	white	2.7966573816155993	smiling	117	sub-08	1.0	3.0	117_smiling	0.0		188.76492378726107	
27.0	167.99753413393773	pulse	1.0	t		26.0	male	white	2.7966573816155993	smiling	117	sub-08	1.0	3.0	117_smiling	0.0		189.46492064795348	
28.0	168.26407919266785	face	0.0		146	21.0	male	east_asian/white	3.501790688420215	smiling	036	sub-08	1.0	3.0	036_smiling	0.0		189.7314657066836	1.2416675521108118
28.0	168.69751469437688	pulse	0.0	t		21.0	male	east_asian/white	3.501790688420215	smiling	036	sub-08	1.0	3.0	036_smiling	0.0		190.16490120839262	
28.0	169.3975260441821	pulse	0.0	t		21.0	male	east_asian/white	3.501790688420215	smiling	036	sub-08	1.0	3.0	036_smiling	0.0		190.86491255819783	
28.0	169.50574674477866	fix	1.0		444	21.0	male	east_asian/white	3.501790688420215	smiling	036	sub-08	1.0	3.0	036_smiling	0.0		190.9731332587944	3.7665969780555315
28.0	170.09750751019055	pulse	1.0	t		21.0	male	east_asian/white	3.501790688420215	smiling	036	sub-08	1.0	3.0	036_smiling	0.0		191.5648940242063	
28.0	170.79751584143196	pulse	1.0	t		21.0	male	east_asian/white	3.501790688420215	smiling	036	sub-08	1.0	3.0	036_smiling	0.0		192.2649023554477	
28.0	171.49749821300975	pulse	1.0	t		21.0	male	east_asian/white	3.501790688420215	smiling	036	sub-08	1.0	3.0	036_smiling	0.0		192.9648847270255	
28.0	172.19748299943967	pulse	1.0	t		21.0	male	east_asian/white	3.501790688420215	smiling	036	sub-08	1.0	3.0	036_smiling	0.0		193.66486951345541	
28.0	172.89746023945736	pulse	1.0	t		21.0	male	east_asian/white	3.501790688420215	smiling	036	sub-08	1.0	3.0	036_smiling	0.0		194.3648467534731	
29.0	173.2723437228342	face	0.0		145	31.0	female	west_asian	2.364902506963788	smiling	006	sub-08	1.0	3.0	006_smiling	0.0		194.73973023684994	1.2333302745191759
29.0	173.59744713888358	pulse	0.0	t		31.0	female	west_asian	2.364902506963788	smiling	006	sub-08	1.0	3.0	006_smiling	0.0		195.06483365289932	
29.0	174.29745365898452	pulse	0.0	t		31.0	female	west_asian	2.364902506963788	smiling	006	sub-08	1.0	3.0	006_smiling	0.0		195.76484017300027	
29.0	174.50567399735337	fix	1.0		444	31.0	female	west_asian	2.364902506963788	smiling	006	sub-08	1.0	3.0	006_smiling	0.0		195.9730605113691	3.766582790796747
29.0	174.9974381435586	pulse	1.0	t		31.0	female	west_asian	2.364902506963788	smiling	006	sub-08	1.0	3.0	006_smiling	0.0		196.46482465757435	
29.0	175.69742866526394	pulse	1.0	t		31.0	female	west_asian	2.364902506963788	smiling	006	sub-08	1.0	3.0	006_smiling	0.0		197.16481517927969	
29.0	176.39745390047028	pulse	1.0	t		31.0	female	west_asian	2.364902506963788	smiling	006	sub-08	1.0	3.0	006_smiling	0.0		197.86484041448603	
29.0	177.0974012566894	pulse	1.0	t		31.0	female	west_asian	2.364902506963788	smiling	006	sub-08	1.0	3.0	006_smiling	0.0		198.56478777070515	
29.0	177.79740506008238	pulse	1.0	t		31.0	female	west_asian	2.364902506963788	smiling	006	sub-08	1.0	3.0	006_smiling	0.0		199.26479157409813	
30.0	178.27225678815012	face	0.0		145	27.0	female	white	3.504576203740549	smiling	144	sub-08	1.0	3.0	144_smiling	1.0	trustworthiness	199.73964330216586	1.2333393302160403
30.0	178.49739014836814	pulse	0.0	t		27.0	female	white	3.504576203740549	smiling	144	sub-08	1.0	3.0	144_smiling	1.0	trustworthiness	199.96477666238388	
30.0	179.1973722180901	pulse	0.0	t		27.0	female	white	3.504576203740549	smiling	144	sub-08	1.0	3.0	144_smiling	1.0	trustworthiness	200.66475873210584	
30.0	179.50559611836616	fix	1.0		177	27.0	female	white	3.504576203740549	smiling	144	sub-08	1.0	3.0	144_smiling	1.0	trustworthiness	200.9729826323819	1.4999577400849375
30.0	179.89736485279172	pulse	1.0	t		27.0	female	white	3.504576203740549	smiling	144	sub-08	1.0	3.0	144_smiling	1.0	trustworthiness	201.36475136680747	
30.0	180.59734963922165	pulse	1.0	t		27.0	female	white	3.504576203740549	smiling	144	sub-08	1.0	3.0	144_smiling	1.0	trustworthiness	202.0647361532374	
30.0	181.0055538584511	rating	2.0		293	27.0	female	white	3.504576203740549	smiling	144	sub-08	1.0	3.0	144_smiling	1.0	trustworthiness	202.47294037246684	2.4999649846413377
30.0	181.29733834978651	pulse	2.0	t		27.0	female	white	3.504576203740549	smiling	144	sub-08	1.0	3.0	144_smiling	1.0	trustworthiness	202.76472486380226	
30.0	181.99734336060465	pulse	2.0	t		27.0	female	white	3.504576203740549	smiling	144	sub-08	1.0	3.0	144_smiling	1.0	trustworthiness	203.4647298746204	
30.0	182.69732663775358	pulse	2.0	t		27.0	female	white	3.504576203740549	smiling	144	sub-08	1.0	3.0	144_smiling	1.0	trustworthiness	204.16471315176932	
30.0	182.84203575671927	response	2.0	g		27.0	female	white	3.504576203740549	smiling	144	sub-08	1.0	3.0	144_smiling	1.0	trustworthiness	204.309422270735	
30.0	182.85819383536546	response	2.0	y		27.0	female	white	3.504576203740549	smiling	144	sub-08	1.0	3.0	144_smiling	1.0	trustworthiness	204.3255803493812	
30.0	183.39731112232766	pulse	2.0	t		27.0	female	white	3.504576203740549	smiling	144	sub-08	1.0	3.0	144_smiling	1.0	trustworthiness	204.8646976363434	
30.0	183.50551884309243	fix	3.0		444	27.0	female	white	3.504576203740549	smiling	144	sub-08	1.0	3.0	144_smiling	1.0	trustworthiness	204.97290535710817	3.7582530596191646
30.0	184.0972780992215	pulse	3.0	t		27.0	female	white	3.504576203740549	smiling	144	sub-08	1.0	3.0	144_smiling	1.0	trustworthiness	205.56466461323726	
30.0	184.79727375248694	pulse	3.0	t		27.0	female	white	3.504576203740549	smiling	144	sub-08	1.0	3.0	144_smiling	1.0	trustworthiness	206.2646602665027	
30.0	185.4972802725897	pulse	3.0	t		27.0	female	white	3.504576203740549	smiling	144	sub-08	1.0	3.0	144_smiling	1.0	trustworthiness	206.96466678660545	
30.0	186.19726807758525	pulse	3.0	t		27.0	female	white	3.504576203740549	smiling	144	sub-08	1.0	3.0	144_smiling	1.0	trustworthiness	207.664654591601	
30.0	186.89724773245507	pulse	3.0	t		27.0	female	white	3.504576203740549	smiling	144	sub-08	1.0	3.0	144_smiling	1.0	trustworthiness	208.3646342464708	
31.0	187.2637719027116	face	0.0		146	24.0	male	white	3.1153999204138483	smiling	012	sub-08	1.0	3.0	012_smiling	0.0		208.73115841672734	1.2416732873862202
31.0	187.5972599878296	pulse	0.0	t		24.0	male	white	3.1153999204138483	smiling	012	sub-08	1.0	3.0	012_smiling	0.0		209.06464650184535	
31.0	188.2972423594074	pulse	0.0	t		24.0	male	white	3.1153999204138483	smiling	012	sub-08	1.0	3.0	012_smiling	0.0		209.76462887342313	
31.0	188.50544519009782	fix	1.0		444	24.0	male	white	3.1153999204138483	smiling	012	sub-08	1.0	3.0	012_smiling	0.0		209.97283170411356	3.7583436165787134
31.0	188.99722352356002	pulse	1.0	t		24.0	male	white	3.1153999204138483	smiling	012	sub-08	1.0	3.0	012_smiling	0.0		210.46461003757577	
31.0	189.69720921555927	pulse	1.0	t		24.0	male	white	3.1153999204138483	smiling	012	sub-08	1.0	3.0	012_smiling	0.0		211.164595729575	
31.0	190.39722479135708	pulse	1.0	t		24.0	male	white	3.1153999204138483	smiling	012	sub-08	1.0	3.0	012_smiling	0.0		211.86461130537282	
31.0	191.09718754226014	pulse	1.0	t		24.0	male	white	3.1153999204138483	smiling	012	sub-08	1.0	3.0	012_smiling	0.0		212.5645740562759	
31.0	191.79717564911334	pulse	1.0	t		24.0	male	white	3.1153999204138483	smiling	012	sub-08	1.0	3.0	012_smiling	0.0		213.26456216312909	
32.0	192.26378880667653	face	0.0		146	25.0	female	west_asian	2.6756864305610826	smiling	064	sub-08	1.0	3.0	064_smiling	0.0		213.73117532069227	1.2415791081475618
32.0	192.4971722079481	pulse	0.0	t		25.0	female	west_asian	2.6756864305610826	smiling	064	sub-08	1.0	3.0	064_smiling	0.0		213.96455872196384	
32.0	193.1971877837459	pulse	0.0	t		25.0	female	west_asian	2.6756864305610826	smiling	064	sub-08	1.0	3.0	064_smiling	0.0		214.66457429776165	
32.0	193.5053679148241	fix	1.0		444	25.0	female	west_asian	2.6756864305610826	smiling	064	sub-08	1.0	3.0	064_smiling	0.0		214.97275442883983	3.7666162968725985
32.0	193.89714721422752	pulse	1.0	t		25.0	female	west_asian	2.6756864305610826	smiling	064	sub-08	1.0	3.0	064_smiling	0.0		215.36453372824326	
32.0	194.5971374340752	pulse	1.0	t		25.0	female	west_asian	2.6756864305610826	smiling	064	sub-08	1.0	3.0	064_smiling	0.0		216.06452394809094	
32.0	195.29711769265668	pulse	1.0	t		25.0	female	west_asian	2.6756864305610826	smiling	064	sub-08	1.0	3.0	064_smiling	0.0		216.76450420667243	
32.0	195.99713085360236	pulse	1.0	t		25.0	female	west_asian	2.6756864305610826	smiling	064	sub-08	1.0	3.0	064_smiling	0.0		217.4645173676181	
32.0	196.69710839547588	pulse	1.0	t		25.0	female	west_asian	2.6756864305610826	smiling	064	sub-08	1.0	3.0	064_smiling	0.0		218.16449490949162	
33.0	197.2719842116967	face	0.0		145	24.0	female	east_asian	2.9076800636689217	neutral	034	sub-08	1.0	3.0	034_neutral	0.0		218.73937072571243	1.2333218225376186
33.0	197.39710344502964	pulse	0.0	t		24.0	female	east_asian	2.9076800636689217	neutral	034	sub-08	1.0	3.0	034_neutral	0.0		218.8644899590454	
33.0	198.09708943888472	pulse	0.0	t		24.0	female	east_asian	2.9076800636689217	neutral	034	sub-08	1.0	3.0	034_neutral	0.0		219.56447595290047	
33.0	198.5053060342343	fix	1.0		444	24.0	female	east_asian	2.9076800636689217	neutral	034	sub-08	1.0	3.0	034_neutral	0.0		219.97269254825005	3.7583164494899393
33.0	198.79707633831094	pulse	1.0	t		24.0	female	east_asian	2.9076800636689217	neutral	034	sub-08	1.0	3.0	034_neutral	0.0		220.2644628523267	
33.0	199.49706353959482	pulse	1.0	t		24.0	female	east_asian	2.9076800636689217	neutral	034	sub-08	1.0	3.0	034_neutral	0.0		220.96445005361056	
33.0	200.1970459111726	pulse	1.0	t		24.0	female	east_asian	2.9076800636689217	neutral	034	sub-08	1.0	3.0	034_neutral	0.0		221.66443242518835	
33.0	200.89703160317185	pulse	1.0	t		24.0	female	east_asian	2.9076800636689217	neutral	034	sub-08	1.0	3.0	034_neutral	0.0		222.3644181171876	
33.0	201.59702423787348	pulse	1.0	t		24.0	female	east_asian	2.9076800636689217	neutral	034	sub-08	1.0	3.0	034_neutral	0.0		223.06441075188923	
34.0	202.26362248372425	face	0.0		146	27.0	female	white	3.504576203740549	neutral	144	sub-08	1.0	3.0	144_neutral	0.0		223.73100899774	1.2416056715228478
34.0	202.29705822691903	pulse	0.0	t		27.0	female	white	3.504576203740549	neutral	144	sub-08	1.0	3.0	144_neutral	0.0		223.76444474093478	
34.0	202.99700829984795	pulse	0.0	t		27.0	female	white	3.504576203740549	neutral	144	sub-08	1.0	3.0	144_neutral	0.0		224.4643948138637	
34.0	203.5052281552471	fix	1.0		443	27.0	female	white	3.504576203740549	neutral	144	sub-08	1.0	3.0	144_neutral	0.0		224.97261466926284	3.758335164595337
34.0	203.69698795471777	pulse	1.0	t		27.0	female	white	3.504576203740549	neutral	144	sub-08	1.0	3.0	144_neutral	0.0		225.1643744687335	
34.0	204.3969887395433	pulse	1.0	t		27.0	female	white	3.504576203740549	neutral	144	sub-08	1.0	3.0	144_neutral	0.0		225.86437525355905	
34.0	205.09697443154437	pulse	1.0	t		27.0	female	white	3.504576203740549	neutral	144	sub-08	1.0	3.0	144_neutral	0.0		226.5643609455601	
34.0	205.79696585881902	pulse	1.0	t		27.0	female	white	3.504576203740549	neutral	144	sub-08	1.0	3.0	144_neutral	0.0		227.26435237283476	
34.0	206.4969560786667	pulse	1.0	t		27.0	female	white	3.504576203740549	neutral	144	sub-08	1.0	3.0	144_neutral	0.0		227.96434259268244	
34.0	207.19701119766978	pulse	1.0	t		27.0	female	white	3.504576203740549	neutral	144	sub-08	1.0	3.0	144_neutral	0.0		228.66439771168552	
35.0	207.26356331984243	face	0.0		147	32.0	male	white	2.389176283326701	neutral	092	sub-08	1.0	3.0	092_neutral	0.0		228.73094983385818	1.2415830322825059
35.0	207.89693712207554	pulse	0.0	t		32.0	male	white	2.389176283326701	neutral	092	sub-08	1.0	3.0	092_neutral	0.0		229.36432363609129	
35.0	208.50514635212494	fix	1.0		443	32.0	male	white	2.389176283326701	neutral	092	sub-08	1.0	3.0	092_neutral	0.0		229.97253286614068	3.7665957706267363
35.0	208.59692522892874	pulse	1.0	t		32.0	male	white	2.389176283326701	neutral	092	sub-08	1.0	3.0	092_neutral	0.0		230.06431174294448	
35.0	209.29691756177272	pulse	1.0	t		32.0	male	white	2.389176283326701	neutral	092	sub-08	1.0	3.0	092_neutral	0.0		230.76430407578846	
35.0	209.9968984240677	pulse	1.0	t		32.0	male	white	2.389176283326701	neutral	092	sub-08	1.0	3.0	092_neutral	0.0		231.46428493808344	
35.0	210.69688985134235	pulse	1.0	t		32.0	male	white	2.389176283326701	neutral	092	sub-08	1.0	3.0	092_neutral	0.0		232.1642763653581	
35.0	211.396881278617	pulse	1.0	t		32.0	male	white	2.389176283326701	neutral	092	sub-08	1.0	3.0	092_neutral	0.0		232.86426779263275	
35.0	212.09687572445546	pulse	1.0	t		32.0	male	white	2.389176283326701	neutral	092	sub-08	1.0	3.0	092_neutral	0.0		233.5642622384712	
36.0	212.27174212275168	face	0.0		146	37.0	male	white	3.898925586947871	smiling	101	sub-08	1.0	3.0	101_smiling	0.0		233.73912863676742	1.2416651372604974
36.0	212.79685960531788	pulse	0.0	t		37.0	male	white	3.898925586947871	smiling	101	sub-08	1.0	3.0	101_smiling	0.0		234.26424611933362	
36.0	213.4968537493005	pulse	0.0	t		37.0	male	white	3.898925586947871	smiling	101	sub-08	1.0	3.0	101_smiling	0.0		234.96424026331624	
36.0	213.51340726001217	fix	1.0		443	37.0	male	white	3.898925586947871	smiling	101	sub-08	1.0	3.0	101_smiling	0.0		234.98079377402792	3.758252154048023
36.0	214.19683883758807	pulse	1.0	t		37.0	male	white	3.898925586947871	smiling	101	sub-08	1.0	3.0	101_smiling	0.0		235.66422535160382	
36.0	214.89681698317327	pulse	1.0	t		37.0	male	white	3.898925586947871	smiling	101	sub-08	1.0	3.0	101_smiling	0.0		236.364203497189	
36.0	215.596814749435	pulse	1.0	t		37.0	male	white	3.898925586947871	smiling	101	sub-08	1.0	3.0	101_smiling	0.0		237.06420126345074	
36.0	216.29680768599246	pulse	1.0	t		37.0	male	white	3.898925586947871	smiling	101	sub-08	1.0	3.0	101_smiling	0.0		237.7641942000082	
36.0	216.9968797089623	pulse	1.0	t		37.0	male	white	3.898925586947871	smiling	101	sub-08	1.0	3.0	101_smiling	0.0		238.46426622297804	
37.0	217.2716594140602	face	0.0		145	40.0	male	white	1.868682849184242	neutral	172	sub-08	1.0	3.0	172_neutral	0.0		238.73904592807594	1.233337519077395
37.0	217.69677242914804	pulse	0.0	t		40.0	male	white	1.868682849184242	neutral	172	sub-08	1.0	3.0	172_neutral	0.0		239.16415894316378	
37.0	218.3967695916981	pulse	0.0	t		40.0	male	white	1.868682849184242	neutral	172	sub-08	1.0	3.0	172_neutral	0.0		239.86415610571385	
37.0	218.5049969331376	fix	1.0		444	40.0	male	white	1.868682849184242	neutral	172	sub-08	1.0	3.0	172_neutral	0.0		239.97238344715333	3.758337277593455
37.0	219.0967706783813	pulse	1.0	t		40.0	male	white	1.868682849184242	neutral	172	sub-08	1.0	3.0	172_neutral	0.0		240.56415719239703	
37.0	219.79674972953762	pulse	1.0	t		40.0	male	white	1.868682849184242	neutral	172	sub-08	1.0	3.0	172_neutral	0.0		241.26413624355337	
37.0	220.4967103674444	pulse	1.0	t		40.0	male	white	1.868682849184242	neutral	172	sub-08	1.0	3.0	172_neutral	0.0		241.96409688146014	
37.0	221.1967368100777	pulse	1.0	t		40.0	male	white	1.868682849184242	neutral	172	sub-08	1.0	3.0	172_neutral	0.0		242.66412332409345	
37.0	221.896718577942	pulse	1.0	t		40.0	male	white	1.868682849184242	neutral	172	sub-08	1.0	3.0	172_neutral	0.0		243.36410509195775	
38.0	222.26333421073105	face	0.0		146	22.0	male	black	2.767608436132113	neutral	044	sub-08	1.0	3.0	044_neutral	0.0		243.7307207247468	1.241586956415631
38.0	222.59670396808542	pulse	0.0	t		22.0	male	black	2.767608436132113	neutral	044	sub-08	1.0	3.0	044_neutral	0.0		244.06409048210116	
38.0	223.29670263991648	pulse	0.0	t		22.0	male	black	2.767608436132113	neutral	044	sub-08	1.0	3.0	044_neutral	0.0		244.76408915393222	
38.0	223.50492116714668	fix	1.0		444	22.0	male	black	2.767608436132113	neutral	044	sub-08	1.0	3.0	044_neutral	0.0		244.97230768116242	3.7665936576322565
38.0	223.99667987993416	pulse	1.0	t		22.0	male	black	2.767608436132113	neutral	044	sub-08	1.0	3.0	044_neutral	0.0		245.4640663939499	
38.0	224.6966676849297	pulse	1.0	t		22.0	male	black	2.767608436132113	neutral	044	sub-08	1.0	3.0	044_neutral	0.0		246.16405419894545	
38.0	225.39667329946133	pulse	1.0	t		22.0	male	black	2.767608436132113	neutral	044	sub-08	1.0	3.0	044_neutral	0.0		246.86405981347707	
38.0	226.09665174690417	pulse	1.0	t		22.0	male	black	2.767608436132113	neutral	044	sub-08	1.0	3.0	044_neutral	0.0		247.56403826091992	
38.0	226.79664981502356	pulse	1.0	t		22.0	male	black	2.767608436132113	neutral	044	sub-08	1.0	3.0	044_neutral	0.0		248.2640363290393	
39.0	227.27151482477893	face	0.0		145	25.0	female	black	3.858336649423	neutral	126	sub-08	1.0	3.0	126_neutral	0.0		248.73890133879468	1.2333151816928876
39.0	227.49667172980662	pulse	0.0	t		25.0	female	black	3.858336649423	neutral	126	sub-08	1.0	3.0	126_neutral	0.0		248.96405824382236	
39.0	228.19661757674476	pulse	0.0	t		25.0	female	black	3.858336649423	neutral	126	sub-08	1.0	3.0	126_neutral	0.0		249.6640040907605	
39.0	228.50483000647182	fix	1.0		444	25.0	female	black	3.858336649423	neutral	126	sub-08	1.0	3.0	126_neutral	0.0		249.97221652048756	3.7499565326597804
39.0	228.89661745600097	pulse	1.0	t		25.0	female	black	3.858336649423	neutral	126	sub-08	1.0	3.0	126_neutral	0.0		250.3640039700167	
39.0	229.59659228116652	pulse	1.0	t		25.0	female	black	3.858336649423	neutral	126	sub-08	1.0	3.0	126_neutral	0.0		251.06397879518227	
39.0	230.29662747763905	pulse	1.0	t		25.0	female	black	3.858336649423	neutral	126	sub-08	1.0	3.0	126_neutral	0.0		251.7640139916548	
39.0	230.99657755056796	pulse	1.0	t		25.0	female	black	3.858336649423	neutral	126	sub-08	1.0	3.0	126_neutral	0.0		252.4639640645837	
39.0	231.6965602240016	pulse	1.0	t		25.0	female	black	3.858336649423	neutral	126	sub-08	1.0	3.0	126_neutral	0.0		253.16394673801733	
40.0	232.2547865391316	fix	0.0		720													253.72217305314734	5.9999049151902
40.0	232.39656704596018	pulse	0.0	t														253.86395355997593	
40.0	233.09656722707405	pulse	0.0	t														254.5639537410898	
40.0	233.79653722253352	pulse	0.0	t														255.26392373654926	
40.0	234.49652804609468	pulse	0.0	t														255.96391456011042	
40.0	235.1965155492344	pulse	0.0	t														256.66390206325013	
40.0	235.89650335422994	pulse	0.0	t														257.3638898682457	
40.0	236.59649659264323	pulse	0.0	t														258.063883106659	
40.0	237.29647383266092	pulse	0.0	t														258.76386034667667	
40.0	237.99648910660108	pulse	0.0	t														259.4638756206168	
