trial_nr	onset	event_type	phase	response	nr_frames	trial_type	stim_name	task_probe	onset_abs	duration
0.0	0.05980432078376907	baseline	0.0		700		baseline	0.0	24.31531894842874	5.841247365200616
0.0	0.7013264325714772	pulse	0.0	t			baseline	0.0	24.956841060216448	
0.0	1.4012794340615073	pulse	0.0	t			baseline	0.0	25.656794061706478	
0.0	2.1021189777684413	pulse	0.0	t			baseline	0.0	26.35763360541341	
0.0	2.8012446002271645	pulse	0.0	t			baseline	0.0	27.056759227872135	
0.0	3.5012492185778683	pulse	0.0	t			baseline	0.0	27.75676384622284	
0.0	4.201206144156913	pulse	0.0	t			baseline	0.0	28.456720771801884	
0.0	4.901172125325502	pulse	0.0	t			baseline	0.0	29.156686752970472	
0.0	5.601163462144996	pulse	0.0	t			baseline	0.0	29.856678089789966	
0.0	5.901051685984385	ISI	1.0		0		baseline	0.0	30.156566313629355	0.14166835955893475
1.0	6.042720045543319	number	0.0		43	character	number-109.jpg	0.0	30.29823467318829	0.3582862115667922
1.0	6.301127632195403	pulse	0.0	t		character	number-109.jpg	0.0	30.556642259840373	
1.0	6.401006257110112	ISI	1.0		236	character	number-109.jpg	0.0	30.656520884755082	2.016646588412641
1.0	7.001165454374586	pulse	1.0	t		character	number-109.jpg	0.0	31.256680082019557	
1.0	7.701140792985825	pulse	1.0	t		character	number-109.jpg	0.0	31.956655420630796	
2.0	8.417652845522753	number	0.0		45	character	number-109.jpg	1.0	32.67316747316772	0.3832889961604451
2.0	8.41018590823478	pulse	0.0	t		character	number-109.jpg	1.0	32.66570053587975	
2.0	8.800941841683198	ISI	1.0		230	character	number-109.jpg	1.0	33.05645646932817	2.024965052970856
2.0	9.059447530555644	response	1.0	b		character	number-109.jpg	1.0	33.314962158200615	
2.0	9.101076075705805	pulse	1.0	t		character	number-109.jpg	1.0	33.356590703350776	
2.0	9.801074958849767	pulse	1.0	t		character	number-109.jpg	1.0	34.05658958649474	
2.0	10.501056636373505	pulse	1.0	t		character	number-109.jpg	1.0	34.756571264018476	
3.0	10.825906894654054	house	0.0		45	place	house-118.jpg	0.0	35.081421522299024	0.37495302412935416
3.0	11.200859918783408	ISI	1.0		349	place	house-118.jpg	0.0	35.45637454642838	3.0166287790862043
3.0	11.284884017517925	pulse	1.0	t		place	house-118.jpg	0.0	35.540398645162895	
3.0	11.90101727474439	pulse	1.0	t		place	house-118.jpg	0.0	36.15653190238936	
3.0	12.60098899111972	pulse	1.0	t		place	house-118.jpg	0.0	36.85650361876469	
3.0	13.300973083467397	pulse	1.0	t		place	house-118.jpg	0.0	37.55648771111237	
3.0	14.000958986932801	pulse	1.0	t		place	house-118.jpg	0.0	38.25647361457777	
4.0	14.217488697869612	adult	0.0		46	face	adult-70.jpg	0.0	38.47300332551458	0.38327118683446315
4.0	14.600759884704075	ISI	1.0		236	face	adult-70.jpg	0.0	38.856274512349046	2.0166290809393104
4.0	14.700881501271851	pulse	1.0	t		face	adult-70.jpg	0.0	38.95639612891682	
4.0	15.400854726911803	pulse	1.0	t		face	adult-70.jpg	0.0	39.65636935455677	
4.0	16.100840328524555	pulse	1.0	t		face	adult-70.jpg	0.0	40.356354956169525	
5.0	16.617388965643386	adult	0.0		46	face	adult-70.jpg	1.0	40.872903593288356	0.38330469251559407
5.0	16.800814761576476	pulse	0.0	t		face	adult-70.jpg	1.0	41.056329389221446	
5.0	17.00069365815898	ISI	1.0		474	face	adult-70.jpg	1.0	41.25620828580395	4.016607347524314
5.0	17.117470013169623	response	1.0	b		face	adult-70.jpg	1.0	41.37298464081459	
5.0	17.50080096689544	pulse	1.0	t		face	adult-70.jpg	1.0	41.75631559454041	
5.0	18.200776909212436	pulse	1.0	t		face	adult-70.jpg	1.0	42.45629153685741	
5.0	18.900754360794508	pulse	1.0	t		face	adult-70.jpg	1.0	43.15626898843948	
5.0	19.600735132759382	pulse	1.0	t		face	adult-70.jpg	1.0	43.85624976040435	
5.0	20.30079046241144	pulse	1.0	t		face	adult-70.jpg	1.0	44.55630509005641	
6.0	21.017301005683294	adult	0.0		45	face	adult-17.jpg	1.0	45.272815633328264	0.3833092203108208
6.0	21.00915761585611	pulse	0.0	t		face	adult-17.jpg	1.0	45.26467224350108	
6.0	21.400610225994114	ISI	1.0		234	face	adult-17.jpg	1.0	45.656124853639085	2.016632099469007
6.0	21.70075351560581	pulse	1.0	t		face	adult-17.jpg	1.0	45.95626814325078	
6.0	22.40074636169038	pulse	1.0	t		face	adult-17.jpg	1.0	46.65626098933535	
6.0	23.100712644712075	pulse	1.0	t		face	adult-17.jpg	1.0	47.356227272357046	
7.0	23.41724232546312	number	0.0		46	character	number-21.jpg	0.0	47.67275695310809	0.3832702812755997
7.0	23.80051260673872	ISI	1.0		473	character	number-21.jpg	0.0	48.05602723438369	4.016577464078637
7.0	23.852399625581256	pulse	1.0	t		character	number-21.jpg	0.0	48.10791425322623	
7.0	24.50060506430782	pulse	1.0	t		character	number-21.jpg	0.0	48.75611969195279	
7.0	25.20057919550709	pulse	1.0	t		character	number-21.jpg	0.0	49.45609382315206	
7.0	25.900569324914613	pulse	1.0	t		character	number-21.jpg	0.0	50.156083952559584	
7.0	26.600547983908655	pulse	1.0	t		character	number-21.jpg	0.0	50.856062611553625	
7.0	27.30055592264216	pulse	1.0	t		character	number-21.jpg	0.0	51.55607055028713	
8.0	27.817090070817358	number	0.0		46	character	number-82.jpg	0.0	52.07260469846233	0.3833185777534709
8.0	28.00053971313673	pulse	0.0	t		character	number-82.jpg	0.0	52.2560543407817	
8.0	28.20040864857083	ISI	1.0		474	character	number-82.jpg	0.0	52.4559232762158	4.016572332578107
8.0	28.700505392452214	pulse	1.0	t		character	number-82.jpg	0.0	52.956020020097185	
8.0	29.400490088506103	pulse	1.0	t		character	number-82.jpg	0.0	53.656004716151074	
8.0	30.100528212537938	pulse	1.0	t		character	number-82.jpg	0.0	54.35604284018291	
8.0	30.80050747523819	pulse	1.0	t		character	number-82.jpg	0.0	55.05602210288316	
8.0	31.500487643496854	pulse	1.0	t		character	number-82.jpg	0.0	55.756002271141824	
9.0	32.216980981148936	limb	0.0		45	body	limb-66.jpg	0.0	56.472495608793906	0.3833255203717272
9.0	32.208822196819256	pulse	0.0	t		body	limb-66.jpg	0.0	56.464336824464226	
9.0	32.60030650152066	ISI	1.0		235	body	limb-66.jpg	0.0	56.85582112916563	2.0166339105867337
9.0	32.900458243016146	pulse	1.0	t		body	limb-66.jpg	0.0	57.15597287066112	
9.0	33.60043267606852	pulse	1.0	t		body	limb-66.jpg	0.0	57.85594730371349	
9.0	34.30041918324014	pulse	1.0	t		body	limb-66.jpg	0.0	58.55593381088511	
10.0	34.6169404121074	number	0.0		46	character	number-112.jpg	0.0	58.87245503975237	0.3832729979526448
10.0	35.00021341006004	ISI	1.0		354	character	number-112.jpg	0.0	59.25572803770501	3.0166025178764357
10.0	35.04671778647571	pulse	1.0	t		character	number-112.jpg	0.0	59.30223241412068	
10.0	35.7003188473077	pulse	1.0	t		character	number-112.jpg	0.0	59.95583347495267	
10.0	36.40028724330023	pulse	1.0	t		character	number-112.jpg	0.0	60.6558018709452	
10.0	37.100277070854645	pulse	1.0	t		character	number-112.jpg	0.0	61.355791698499615	
10.0	37.800256333554444	pulse	1.0	t		character	number-112.jpg	0.0	62.055770961199414	
11.0	38.01681592793648	limb	0.0		46	body	limb-37.jpg	0.0	62.27233055558145	0.3833049943691549
11.0	38.40012092230563	ISI	1.0		234	body	limb-37.jpg	0.0	62.6556355499506	2.016632401322113
11.0	38.50025219816871	pulse	1.0	t		body	limb-37.jpg	0.0	62.75576682581368	
11.0	39.20021123671859	pulse	1.0	t		body	limb-37.jpg	0.0	63.45572586436356	
11.0	39.90019381980119	pulse	1.0	t		body	limb-37.jpg	0.0	64.15570844744616	
12.0	40.416753323627745	adult	0.0		46	face	adult-104.jpg	0.0	64.67226795127272	0.38333487781437725
12.0	40.60017700659	pulse	0.0	t		face	adult-104.jpg	0.0	64.85569163423497	
12.0	40.80008820144212	ISI	1.0		233	face	adult-104.jpg	0.0	65.05560282908709	2.016635117998703
12.0	41.300241089978954	pulse	1.0	t		face	adult-104.jpg	0.0	65.55575571762392	
12.0	42.00020073223459	pulse	1.0	t		face	adult-104.jpg	0.0	66.25571535987956	
12.0	42.70019055978901	pulse	1.0	t		face	adult-104.jpg	0.0	66.95570518743398	
13.0	42.816723319440825	car	0.0		46	object	car-5.jpg	0.0	67.0722379470858	0.38328567577809736
13.0	43.20000899521892	ISI	1.0		474	object	car-5.jpg	0.0	67.4555236228639	4.016559051046443
13.0	43.40014537239722	pulse	1.0	t		object	car-5.jpg	0.0	67.65566000004219	
13.0	44.100085394209145	pulse	1.0	t		object	car-5.jpg	0.0	68.35560002185412	
13.0	44.800070090263034	pulse	1.0	t		object	car-5.jpg	0.0	69.055584717908	
13.0	45.50004905110973	pulse	1.0	t		object	car-5.jpg	0.0	69.7555636787547	
13.0	46.20003676569331	pulse	1.0	t		object	car-5.jpg	0.0	70.45555139333828	
13.0	46.900011802451445	pulse	1.0	t		object	car-5.jpg	0.0	71.15552643009642	
14.0	47.216568046265365	house	0.0		46	place	house-141.jpg	0.0	71.47208267391034	0.38330831475195737
14.0	47.59987636101732	ISI	1.0		233	place	house-141.jpg	0.0	71.8553909886623	2.016801438993298
14.0	47.652012710425424	pulse	1.0	t		place	house-141.jpg	0.0	71.9075273380704	
14.0	48.30000322982687	pulse	1.0	t		place	house-141.jpg	0.0	72.55551785747184	
14.0	49.00001901673795	pulse	1.0	t		place	house-141.jpg	0.0	73.25553364438292	
15.0	49.61667780001062	house	0.0		46	place	house-5.jpg	0.0	73.87219242765559	0.3831377678152421
15.0	49.699937003281775	pulse	0.0	t		place	house-5.jpg	0.0	73.95545163092675	
15.0	49.99981556782586	ISI	1.0		353	place	house-5.jpg	0.0	74.25533019547083	3.016601008611815
15.0	50.399919284511725	pulse	1.0	t		place	house-5.jpg	0.0	74.6554339121567	
15.0	51.09989975462349	pulse	1.0	t		place	house-5.jpg	0.0	75.35541438226846	
15.0	51.79989018588367	pulse	1.0	t		place	house-5.jpg	0.0	76.05540481352864	
15.0	52.499858280023545	pulse	1.0	t		place	house-5.jpg	0.0	76.75537290766852	
16.0	53.01641657643768	house	0.0		46	place	house-106.jpg	0.0	77.27193120408265	0.38330499436870014
16.0	53.199841466811904	pulse	0.0	t		place	house-106.jpg	0.0	77.45535609445687	
16.0	53.39972157080638	ISI	1.0		232	place	house-106.jpg	0.0	77.65523619845135	2.0166499087954435
16.0	53.89982495545382	pulse	1.0	t		place	house-106.jpg	0.0	78.1553395830988	
16.0	54.59980059591771	pulse	1.0	t		place	house-106.jpg	0.0	78.85531522356268	
16.0	55.29978891420751	pulse	1.0	t		place	house-106.jpg	0.0	79.55530354185248	
17.0	55.41637147960182	adult	0.0		46	face	adult-84.jpg	0.0	79.67188610724679	0.3833161629290771
17.0	55.7996876425309	ISI	1.0		834	face	adult-84.jpg	0.0	80.05520227017587	7.016485700771227
17.0	55.999840017917904	pulse	1.0	t		face	adult-84.jpg	0.0	80.25535464556287	
17.0	56.699814450969825	pulse	1.0	t		face	adult-84.jpg	0.0	80.9553290786148	
17.0	57.39980518408311	pulse	1.0	t		face	adult-84.jpg	0.0	81.65531981172808	
17.0	58.09977690045844	pulse	1.0	t		face	adult-84.jpg	0.0	82.35529152810341	
17.0	58.79976974654301	pulse	1.0	t		face	adult-84.jpg	0.0	83.05528437418798	
17.0	59.499740859212125	pulse	1.0	t		face	adult-84.jpg	0.0	83.7552554868571	
17.0	60.199723140442075	pulse	1.0	t		face	adult-84.jpg	0.0	84.45523776808704	
17.0	60.89970481796581	pulse	1.0	t		face	adult-84.jpg	0.0	85.15521944561078	
17.0	61.59968287325364	pulse	1.0	t		face	adult-84.jpg	0.0	85.85519750089861	
17.0	62.299670285984575	pulse	1.0	t		face	adult-84.jpg	0.0	86.55518491362955	
18.0	62.816173343302125	adult	0.0		46	face	adult-125.jpg	0.0	87.0716879709471	0.38328386466037045
18.0	62.999580424350825	pulse	0.0	t		face	adult-125.jpg	0.0	87.2550950519958	
18.0	63.199457207962496	ISI	1.0		234	face	adult-125.jpg	0.0	87.45497183560747	2.016635117998703
18.0	63.69957779822971	pulse	1.0	t		face	adult-125.jpg	0.0	87.95509242587468	
18.0	64.39953804419156	pulse	1.0	t		face	adult-125.jpg	0.0	88.65505267183653	
18.0	65.09952636248136	pulse	1.0	t		face	adult-125.jpg	0.0	89.35504099012633	
19.0	65.2160923259612	limb	0.0		46	body	limb-128.jpg	0.0	89.47160695360617	0.38330107028014027
19.0	65.59939339624134	ISI	1.0		351	body	limb-128.jpg	0.0	89.85490802388631	3.016618817937797
19.0	65.79950864371085	pulse	1.0	t		body	limb-128.jpg	0.0	90.05502327135582	
19.0	66.49949454717671	pulse	1.0	t		body	limb-128.jpg	0.0	90.75500917482168	
19.0	67.19949886367431	pulse	1.0	t		body	limb-128.jpg	0.0	91.45501349131928	
19.0	67.89945699666532	pulse	1.0	t		body	limb-128.jpg	0.0	92.15497162431029	
20.0	68.61601221417914	number	0.0		45	character	number-89.jpg	0.0	92.8715268418241	0.38332914260763573
20.0	68.60777917401538	pulse	0.0	t		character	number-89.jpg	0.0	92.86329380166035	
20.0	68.99934135678677	ISI	1.0		953	character	number-89.jpg	0.0	93.25485598443174	8.016476041475926
20.0	69.2994804204568	pulse	1.0	t		character	number-89.jpg	0.0	93.55499504810177	
20.0	69.99946149427478	pulse	1.0	t		character	number-89.jpg	0.0	94.25497612191975	
20.0	70.69944709588708	pulse	1.0	t		character	number-89.jpg	0.0	94.95496172353205	
20.0	71.39946499576945	pulse	1.0	t		character	number-89.jpg	0.0	95.65497962341442	
20.0	72.09942071393652	pulse	1.0	t		character	number-89.jpg	0.0	96.3549353415815	
20.0	72.79939454328269	pulse	1.0	t		character	number-89.jpg	0.0	97.05490917092766	
20.0	73.49936897633461	pulse	1.0	t		character	number-89.jpg	0.0	97.75488360397958	
20.0	74.19934974829948	pulse	1.0	t		character	number-89.jpg	0.0	98.45486437594445	
20.0	74.89932569061693	pulse	1.0	t		character	number-89.jpg	0.0	99.1548403182619	
20.0	75.59931461261203	pulse	1.0	t		character	number-89.jpg	0.0	99.854829240257	
20.0	76.29929085678214	pulse	1.0	t		character	number-89.jpg	0.0	100.5548054844271	
21.0	77.0158173982627	house	0.0		46	place	house-79.jpg	0.0	101.27133202590767	0.3916231570742639
21.0	77.00794295944479	pulse	0.0	t		place	house-79.jpg	0.0	101.26345758708976	
21.0	77.40744055533696	ISI	1.0		233	place	house-79.jpg	0.0	101.66295518298193	2.0166556440017303
21.0	77.69925904147749	pulse	1.0	t		place	house-79.jpg	0.0	101.95477366912246	
21.0	78.39923649305956	pulse	1.0	t		place	house-79.jpg	0.0	102.65475112070453	
21.0	79.09922088726034	pulse	1.0	t		place	house-79.jpg	0.0	103.35473551490531	
22.0	79.42409619933869	car	0.0		46	object	car-67.jpg	0.0	103.67961082698366	0.3832690738636302
22.0	79.79914642012909	pulse	0.0	t		object	car-67.jpg	0.0	104.05466104777406	
22.0	79.80736527320232	ISI	1.0		354	object	car-67.jpg	0.0	104.06287990084729	3.0165928585811344
22.0	80.4991356439773	pulse	1.0	t		object	car-67.jpg	0.0	104.75465027162227	
22.0	81.19908864546778	pulse	1.0	t		object	car-67.jpg	0.0	105.45460327311275	
22.0	81.89907786931599	pulse	1.0	t		object	car-67.jpg	0.0	106.15459249696096	
22.0	82.59906226351677	pulse	1.0	t		object	car-67.jpg	0.0	106.85457689116174	
23.0	82.82395813178346	house	0.0		46	place	house-32.jpg	0.0	107.07947275942843	0.3833164647821832
23.0	83.20727459656564	ISI	1.0		233	place	house-32.jpg	0.0	107.46278922421061	2.016636627263779
23.0	83.29904545030558	pulse	1.0	t		place	house-32.jpg	0.0	107.55456007795055	
23.0	83.9990319574772	pulse	1.0	t		place	house-32.jpg	0.0	108.25454658512217	
23.0	84.6989982404989	pulse	1.0	t		place	house-32.jpg	0.0	108.95451286814387	
24.0	85.22391122382942	limb	0.0		46	body	limb-84.jpg	0.0	109.47942585147439	0.3833185777534709
24.0	85.39897599393362	pulse	0.0	t		body	limb-84.jpg	0.0	109.65449062157859	
24.0	85.60722980158289	ISI	1.0		233	body	limb-84.jpg	0.0	109.86274442922786	2.016632401321658
24.0	86.09902951246795	pulse	1.0	t		body	limb-84.jpg	0.0	110.35454414011292	
24.0	86.79904167714312	pulse	1.0	t		body	limb-84.jpg	0.0	111.0545563047881	
24.0	87.49899256566277	pulse	1.0	t		body	limb-84.jpg	0.0	111.75450719330775	
25.0	87.62386220290455	limb	0.0		46	body	limb-68.jpg	0.0	111.87937683054952	0.3832832609541583
25.0	88.0071454638587	ISI	1.0		231	body	limb-68.jpg	0.0	112.26266009150368	2.0166182142315847
25.0	88.19891145776546	pulse	1.0	t		body	limb-68.jpg	0.0	112.45442608541043	
25.0	88.89889887049594	pulse	1.0	t		body	limb-68.jpg	0.0	113.15441349814091	
25.0	89.59887571837226	pulse	1.0	t		body	limb-68.jpg	0.0	113.85439034601723	
26.0	90.02376367809029	car	0.0		46	object	car-118.jpg	0.0	114.27927830573526	0.38330861660506343
26.0	90.2988489440122	pulse	0.0	t		object	car-118.jpg	0.0	114.55436357165718	
26.0	90.40707229469535	ISI	1.0		354	object	car-118.jpg	0.0	114.66258692234032	3.016596782669694
26.0	90.9988369604489	pulse	1.0	t		object	car-118.jpg	0.0	115.25435158809387	
26.0	91.69881078979506	pulse	1.0	t		object	car-118.jpg	0.0	115.95432541744003	
26.0	92.3988078618213	pulse	1.0	t		object	car-118.jpg	0.0	116.65432248946627	
26.0	93.09877354113678	pulse	1.0	t		object	car-118.jpg	0.0	117.35428816878175	
27.0	93.42366907736505	house	0.0		46	place	house-81.jpg	0.0	117.67918370501002	0.38334121672687616
27.0	93.79880049660824	pulse	0.0	t		place	house-81.jpg	0.0	118.05431512425321	
27.0	93.80701029409192	ISI	1.0		233	place	house-81.jpg	0.0	118.0625249217369	2.0166263642622653
27.0	94.49880451125318	pulse	1.0	t		place	house-81.jpg	0.0	118.75431913889815	
27.0	95.19879947030813	pulse	1.0	t		place	house-81.jpg	0.0	119.4543140979531	
28.0	95.82363665835419	number	0.0		46	character	number-58.jpg	0.0	120.07915128599916	0.3832711868349179
28.0	95.89871081608635	pulse	0.0	t		character	number-58.jpg	0.0	120.15422544373132	
28.0	96.20690784518911	ISI	1.0		713	character	number-58.jpg	0.0	120.46242247283408	6.024916454639879
28.0	96.5986867584038	pulse	1.0	t		character	number-58.jpg	0.0	120.85420138604877	
28.0	97.29866481369163	pulse	1.0	t		character	number-58.jpg	0.0	121.5541794413366	
28.0	97.99864649121537	pulse	1.0	t		character	number-58.jpg	0.0	122.25416111886034	
28.0	98.69862394279744	pulse	1.0	t		character	number-58.jpg	0.0	122.95413857044241	
28.0	99.39861769444042	pulse	1.0	t		character	number-58.jpg	0.0	123.65413232208539	
28.0	100.09858880710999	pulse	1.0	t		character	number-58.jpg	0.0	124.35410343475496	
28.0	100.79858074763524	pulse	1.0	t		character	number-58.jpg	0.0	125.05409537528021	
28.0	101.4985476343627	pulse	1.0	t		character	number-58.jpg	0.0	125.75406226200766	
28.0	102.19861111404543	pulse	1.0	t		character	number-58.jpg	0.0	126.4541257416904	
29.0	102.23182429982899	car	0.0		45	object	car-28.jpg	0.0	126.48733892747396	0.3749632871308677
29.0	102.60678758695985	ISI	1.0		354	object	car-28.jpg	0.0	126.86230221460482	3.016591953021816
29.0	102.89858132115614	pulse	1.0	t		object	car-28.jpg	0.0	127.15409594880111	
29.0	103.59856752647465	pulse	1.0	t		object	car-28.jpg	0.0	127.85408215411962	
29.0	104.29854377064476	pulse	1.0	t		object	car-28.jpg	0.0	128.55405839828973	
29.0	104.99851880740289	pulse	1.0	t		object	car-28.jpg	0.0	129.25403343504786	
30.0	105.62337953998167	limb	0.0		46	body	limb-53.jpg	0.0	129.87889416762664	0.38326907386408493
30.0	105.69844675509512	pulse	0.0	t		body	limb-53.jpg	0.0	129.9539613827401	
30.0	106.00664861384575	ISI	1.0		355	body	limb-53.jpg	0.0	130.26216324149073	3.016623043879463
30.0	106.39842601779537	pulse	1.0	t		body	limb-53.jpg	0.0	130.65394064544034	
30.0	107.09840165825926	pulse	1.0	t		body	limb-53.jpg	0.0	131.35391628590423	
30.0	107.79839027840171	pulse	1.0	t		body	limb-53.jpg	0.0	132.05390490604668	
30.0	108.49836531515984	pulse	1.0	t		body	limb-53.jpg	0.0	132.75387994280482	
31.0	109.02327165772522	limb	0.0		46	body	limb-63.jpg	0.0	133.2787862853702	0.38332189813581863
31.0	109.19835061491949	pulse	0.0	t		body	limb-63.jpg	0.0	133.45386524256446	
31.0	109.40659355586104	ISI	1.0		232	body	limb-63.jpg	0.0	133.662108183506	2.0165979900816637
31.0	109.89833802764997	pulse	1.0	t		body	limb-63.jpg	0.0	134.15385265529494	
31.0	110.59830914031954	pulse	1.0	t		body	limb-63.jpg	0.0	134.8538237679645	
31.0	111.29830047713858	pulse	1.0	t		body	limb-63.jpg	0.0	135.55381510478355	
32.0	111.4231915459427	adult	0.0		46	face	adult-9.jpg	0.0	135.67870617358767	0.3833397074622553
32.0	111.80653125340496	ISI	1.0		354	face	adult-9.jpg	0.0	136.06204588104993	3.024952978851161
32.0	111.99835731605572	pulse	1.0	t		face	adult-9.jpg	0.0	136.2538719437007	
32.0	112.6983166564587	pulse	1.0	t		face	adult-9.jpg	0.0	136.95383128410367	
32.0	113.39831191736675	pulse	1.0	t		face	adult-9.jpg	0.0	137.65382654501173	
32.0	114.0982908782139	pulse	1.0	t		face	adult-9.jpg	0.0	138.35380550585887	
32.0	114.798267122384	pulse	1.0	t		face	adult-9.jpg	0.0	139.05378175002897	
33.0	114.83148423225612	car	0.0		45	object	car-12.jpg	0.0	139.0869988599011	0.37495302412935416
33.0	115.20643725638547	ISI	1.0		593	object	car-12.jpg	0.0	139.46195188403044	5.0165623714297
33.0	115.49826449626289	pulse	1.0	t		object	car-12.jpg	0.0	139.75377912390786	
33.0	116.19822474222474	pulse	1.0	t		object	car-12.jpg	0.0	140.4537393698697	
33.0	116.89822996428165	pulse	1.0	t		object	car-12.jpg	0.0	141.15374459192662	
33.0	117.59820288806895	pulse	1.0	t		object	car-12.jpg	0.0	141.85371751571392	
33.0	118.29817339703231	pulse	1.0	t		object	car-12.jpg	0.0	142.55368802467729	
33.0	118.99814118931863	pulse	1.0	t		object	car-12.jpg	0.0	143.2536558169636	
33.0	119.69813463910896	pulse	1.0	t		object	car-12.jpg	0.0	143.95364926675393	
34.0	120.22299962781517	adult	0.0		46	face	adult-88.jpg	0.0	144.47851425546014	0.38325428306734466
34.0	120.39806590718399	pulse	0.0	t		face	adult-88.jpg	0.0	144.65358053482896	
34.0	120.60625391088251	ISI	1.0		234	face	adult-88.jpg	0.0	144.86176853852749	2.016655342148624
34.0	121.09803400132387	pulse	1.0	t		face	adult-88.jpg	0.0	145.35354862896884	
34.0	121.79802624370177	pulse	1.0	t		face	adult-88.jpg	0.0	146.05354087134674	
34.0	122.49798709336983	pulse	1.0	t		face	adult-88.jpg	0.0	146.7535017210148	
35.0	122.62290925303114	adult	0.0		46	face	adult-114.jpg	0.0	146.8784238806761	0.3832802424244619
35.0	123.0061894954556	ISI	1.0		235	face	adult-114.jpg	0.0	147.26170412310057	2.0166384383815057
35.0	123.19798808948462	pulse	1.0	t		face	adult-114.jpg	0.0	147.4535027171296	
35.0	123.89795135397662	pulse	1.0	t		face	adult-114.jpg	0.0	148.1534659816216	
35.0	124.59795717973884	pulse	1.0	t		face	adult-114.jpg	0.0	148.8534718073838	
36.0	125.0228279338371	adult	0.0		46	face	adult-120.jpg	0.0	149.27834256148208	0.3833146536644563
36.0	125.2979213497897	pulse	0.0	t		face	adult-120.jpg	0.0	149.55343597743467	
36.0	125.40614258750156	ISI	1.0		353	face	adult-120.jpg	0.0	149.66165721514653	3.016643871735596
36.0	125.99790212175458	pulse	1.0	t		face	adult-120.jpg	0.0	150.25341674939955	
36.0	126.69795413102383	pulse	1.0	t		face	adult-120.jpg	0.0	150.9534687586688	
36.0	127.3979379215184	pulse	1.0	t		face	adult-120.jpg	0.0	151.65345254916338	
36.0	128.0979111471588	pulse	1.0	t		face	adult-120.jpg	0.0	152.35342577480378	
37.0	128.42278645923716	house	0.0		46	place	house-71.jpg	0.0	152.67830108688213	0.3832563960381776
37.0	128.797823700349	pulse	0.0	t		place	house-71.jpg	0.0	153.05333832799397	
37.0	128.80604285527534	ISI	1.0		234	place	house-71.jpg	0.0	153.0615574829203	2.0166263642622653
37.0	129.49780567972584	pulse	1.0	t		place	house-71.jpg	0.0	153.7533203073708	
37.0	130.1977879609558	pulse	1.0	t		place	house-71.jpg	0.0	154.45330258860076	
38.0	130.8226692195376	limb	0.0		46	body	limb-74.jpg	0.0	155.07818384718257	0.38330408881029143
38.0	130.89777144959726	pulse	0.0	t		body	limb-74.jpg	0.0	155.15328607724223	
38.0	131.2059733083479	ISI	1.0		474	body	limb-74.jpg	0.0	155.46148793599286	4.01661157346598
38.0	131.59774950488554	pulse	1.0	t		body	limb-74.jpg	0.0	155.8532641325305	
38.0	132.29773691761602	pulse	1.0	t		body	limb-74.jpg	0.0	156.553251545261	
38.0	132.99770742657938	pulse	1.0	t		body	limb-74.jpg	0.0	157.25322205422435	
38.0	133.69769182078016	pulse	1.0	t		body	limb-74.jpg	0.0	157.95320644842514	
38.0	134.39767078162686	pulse	1.0	t		body	limb-74.jpg	0.0	158.65318540927183	
38.0	135.09772218719036	pulse	1.0	t		body	limb-74.jpg	0.0	159.35323681483533	
39.0	135.22258488181387	car	0.0		46	object	car-109.jpg	0.0	159.47809950945884	0.38327420536415957
39.0	135.60585908717803	ISI	1.0		233	object	car-109.jpg	0.0	159.861373714823	2.016636627263779
39.0	135.79764590894092	pulse	1.0	t		object	car-109.jpg	0.0	160.0531605365859	
39.0	136.4976103808449	pulse	1.0	t		object	car-109.jpg	0.0	160.75312500848986	
39.0	137.1976095658415	pulse	1.0	t		object	car-109.jpg	0.0	161.45312419348647	
40.0	137.6224957144418	house	0.0		46	place	house-134.jpg	0.0	161.87801034208678	0.38329805175044385
40.0	137.89758460259964	pulse	0.0	t		place	house-134.jpg	0.0	162.1530992302446	
40.0	138.00579376619226	ISI	1.0		354	place	house-134.jpg	0.0	162.26130839383723	3.0166064419654504
40.0	138.59757231718322	pulse	1.0	t		place	house-134.jpg	0.0	162.8530869448282	
40.0	139.2975564095309	pulse	1.0	t		place	house-134.jpg	0.0	163.55307103717587	
40.0	139.99752661664115	pulse	1.0	t		place	house-134.jpg	0.0	164.25304124428612	
40.0	140.69750497378254	pulse	1.0	t		place	house-134.jpg	0.0	164.9530196014275	
41.0	141.0224002081577	adult	0.0		46	face	adult-46.jpg	0.0	165.27791483580268	0.38334000931490664
41.0	141.3975283070181	pulse	0.0	t		face	adult-46.jpg	0.0	165.65304293466306	
41.0	141.4057402174726	ISI	1.0		353	face	adult-46.jpg	0.0	165.66125484511758	3.0166218364674933
41.0	142.09753684945736	pulse	1.0	t		face	adult-46.jpg	0.0	166.35305147710233	
41.0	142.79751792327534	pulse	1.0	t		face	adult-46.jpg	0.0	167.0530325509203	
41.0	143.49749929894642	pulse	1.0	t		face	adult-46.jpg	0.0	167.7530139265914	
41.0	144.19748520241183	pulse	1.0	t		face	adult-46.jpg	0.0	168.4529998300568	
42.0	144.4223620539401	limb	0.0		46	body	limb-125.jpg	0.0	168.67787668158508	0.3832527738027238
42.0	144.80561482774283	ISI	1.0		474	body	limb-125.jpg	0.0	169.0611294553878	4.016590141904089
42.0	144.89738839815936	pulse	1.0	t		body	limb-125.jpg	0.0	169.15290302580433	
42.0	145.5973987517168	pulse	1.0	t		body	limb-125.jpg	0.0	169.85291337936178	
42.0	146.2973514513542	pulse	1.0	t		body	limb-125.jpg	0.0	170.55286607899916	
42.0	146.99734550485027	pulse	1.0	t		body	limb-125.jpg	0.0	171.25286013249524	
42.0	147.69731510825477	pulse	1.0	t		body	limb-125.jpg	0.0	171.95282973589974	
42.0	148.39733149887206	pulse	1.0	t		body	limb-125.jpg	0.0	172.65284612651703	
43.0	148.82220496964692	car	0.0		46	object	car-53.jpg	0.0	173.0777195972919	0.38327239424643267
43.0	149.09729959301148	pulse	0.0	t		object	car-53.jpg	0.0	173.35281422065646	
43.0	149.20547736389335	ISI	1.0		234	object	car-53.jpg	0.0	173.46099199153832	2.0250359884221325
43.0	149.7972710075337	pulse	1.0	t		object	car-53.jpg	0.0	174.05278563517868	
43.0	150.4973121500957	pulse	1.0	t		object	car-53.jpg	0.0	174.75282677774067	
43.0	151.1972880924127	pulse	1.0	t		object	car-53.jpg	0.0	175.45280272005766	
44.0	151.23051335231548	car	0.0		45	object	car-4.jpg	0.0	175.48602797996045	0.37495181671738465
44.0	151.60546516903287	ISI	1.0		234	object	car-4.jpg	0.0	175.86097979667784	2.0166465884121862
44.0	151.89728154220302	pulse	1.0	t		object	car-4.jpg	0.0	176.152796169848	
44.0	152.59726080490282	pulse	1.0	t		object	car-4.jpg	0.0	176.8527754325478	
44.0	153.29724731207443	pulse	1.0	t		object	car-4.jpg	0.0	177.5527619397194	
45.0	153.62211175744505	house	0.0		46	place	house-15.jpg	0.0	177.87762638509002	0.38327360165885693
45.0	153.99774515820263	pulse	0.0	t		place	house-15.jpg	0.0	178.2532597858476	
45.0	154.0053853591039	ISI	1.0		353	place	house-15.jpg	0.0	178.26089998674888	3.0165886326390137
45.0	154.69713641128783	pulse	1.0	t		place	house-15.jpg	0.0	178.9526510389328	
45.0	155.39711537213452	pulse	1.0	t		place	house-15.jpg	0.0	179.6526299997795	
45.0	156.09709493668743	pulse	1.0	t		place	house-15.jpg	0.0	180.3526095643324	
45.0	156.79710046059745	pulse	1.0	t		place	house-15.jpg	0.0	181.05261508824242	
46.0	157.02197399174293	car	0.0		46	object	car-66.jpg	0.0	181.2774886193879	0.38331012586968427
46.0	157.4052841176126	ISI	1.0		234	object	car-66.jpg	0.0	181.66079874525758	2.0166263642622653
46.0	157.49707851588528	pulse	1.0	t		object	car-66.jpg	0.0	181.75259314353025	
46.0	158.1970366488763	pulse	1.0	t		object	car-66.jpg	0.0	182.45255127652126	
46.0	158.8970162134292	pulse	1.0	t		object	car-66.jpg	0.0	183.15253084107417	
47.0	159.42191048187487	house	0.0		46	place	house-137.jpg	0.0	183.67742510951985	0.3833173703415014
47.0	159.59700302245392	pulse	0.0	t		place	house-137.jpg	0.0	183.8525176500989	
47.0	159.80522785221638	ISI	1.0		234	place	house-137.jpg	0.0	184.06074247986135	2.0166523236189278
47.0	160.29705472987007	pulse	1.0	t		place	house-137.jpg	0.0	184.55256935751504	
47.0	160.9970264462454	pulse	1.0	t		place	house-137.jpg	0.0	185.25254107389037	
47.0	161.69703981833254	pulse	1.0	t		place	house-137.jpg	0.0	185.9525544459775	
48.0	161.8218801758353	car	0.0		46	object	car-133.jpg	0.0	186.07739480348027	0.3832714886875692
48.0	162.20515166452287	ISI	1.0		233	object	car-133.jpg	0.0	186.46066629216784	2.0166314957627947
48.0	162.3969285251369	pulse	1.0	t		object	car-133.jpg	0.0	186.65244315278187	
48.0	163.09693887869435	pulse	1.0	t		object	car-133.jpg	0.0	187.35245350633932	
48.0	163.79689731353847	pulse	1.0	t		object	car-133.jpg	0.0	188.05241194118344	
49.0	164.22178316028567	limb	0.0		46	body	limb-141.jpg	0.0	188.47729778793064	0.38330076842748895
49.0	164.4968753688263	pulse	0.0	t		body	limb-141.jpg	0.0	188.75238999647127	
49.0	164.60508392871316	ISI	1.0		715	body	limb-141.jpg	0.0	188.86059855635813	6.016790270432921
49.0	165.19687213899942	pulse	1.0	t		body	limb-141.jpg	0.0	189.4523867666444	
49.0	165.89683329052014	pulse	1.0	t		body	limb-141.jpg	0.0	190.1523479181651	
49.0	166.59681134580842	pulse	1.0	t		body	limb-141.jpg	0.0	190.8523259734534	
49.0	167.29680660671647	pulse	1.0	t		body	limb-141.jpg	0.0	191.55232123436144	
49.0	167.99684261777747	pulse	1.0	t		body	limb-141.jpg	0.0	192.25235724542244	
49.0	168.6968396898037	pulse	1.0	t		body	limb-141.jpg	0.0	192.95235431744868	
49.0	169.39680476541344	pulse	1.0	t		body	limb-141.jpg	0.0	193.6523193930584	
49.0	170.09680093188035	pulse	1.0	t		body	limb-141.jpg	0.0	194.35231555952532	
50.0	170.62187419914608	car	0.0		46	object	car-69.jpg	0.0	194.87738882679105	0.38303423224124344
50.0	170.79670835357	pulse	0.0	t		object	car-69.jpg	0.0	195.05222298121498	
50.0	171.00490843138732	ISI	1.0		353	object	car-69.jpg	0.0	195.2604230590323	3.016614591996131
50.0	171.4966987848302	pulse	1.0	t		object	car-69.jpg	0.0	195.75221341247516	
50.0	172.1966665771165	pulse	1.0	t		object	car-69.jpg	0.0	196.45218120476147	
50.0	172.89664101016888	pulse	1.0	t		object	car-69.jpg	0.0	197.15215563781385	
50.0	173.59663536551807	pulse	1.0	t		object	car-69.jpg	0.0	197.85214999316304	
51.0	174.02152302338345	limb	0.0		46	body	limb-86.jpg	0.0	198.27703765102842	0.38331616292953186
51.0	174.2966236838074	pulse	0.0	t		body	limb-86.jpg	0.0	198.55213831145238	
51.0	174.40483918631298	ISI	1.0		232	body	limb-86.jpg	0.0	198.66035381395795	2.0249671659412343
51.0	174.99661441692115	pulse	1.0	t		body	limb-86.jpg	0.0	199.25212904456612	
51.0	175.69657345547103	pulse	1.0	t		body	limb-86.jpg	0.0	199.952088083116	
51.0	176.3965822997634	pulse	1.0	t		body	limb-86.jpg	0.0	200.65209692740837	
52.0	176.42980635225422	number	0.0		45	character	number-138.jpg	0.0	200.6853209798992	0.3749820020157131
52.0	176.80478835426993	ISI	1.0		233	character	number-138.jpg	0.0	201.0603029819149	2.016645682853323
52.0	177.09660563299894	pulse	1.0	t		character	number-138.jpg	0.0	201.35212026064391	
52.0	177.79658217902215	pulse	1.0	t		character	number-138.jpg	0.0	202.05209680666712	
52.0	178.49659464555043	pulse	1.0	t		character	number-138.jpg	0.0	202.7521092731954	
53.0	178.82143403712325	number	0.0		46	character	number-11.jpg	0.0	203.07694866476822	0.38326122568651044
53.0	179.1964770134423	pulse	0.0	t		character	number-11.jpg	0.0	203.45199164108726	
53.0	179.20469526280976	ISI	1.0		232	character	number-11.jpg	0.0	203.46020989045473	2.016634816145597
53.0	179.89645386131815	pulse	1.0	t		character	number-11.jpg	0.0	204.15196848896312	
53.0	180.59643825551893	pulse	1.0	t		character	number-11.jpg	0.0	204.8519528831639	
54.0	181.22133007895536	car	0.0		46	object	car-99.jpg	0.0	205.47684470660033	0.3833001647212768
54.0	181.2964474016644	pulse	0.0	t		object	car-99.jpg	0.0	205.55196202930938	
54.0	181.60463024367664	ISI	1.0		353	object	car-99.jpg	0.0	205.8601448713216	3.016598895640527
54.0	181.99639557350702	pulse	1.0	t		object	car-99.jpg	0.0	206.251910201152	
54.0	182.69639234368015	pulse	1.0	t		object	car-99.jpg	0.0	206.95190697132512	
54.0	183.39637462490964	pulse	1.0	t		object	car-99.jpg	0.0	207.6518892525546	
54.0	184.09634724684383	pulse	1.0	t		object	car-99.jpg	0.0	208.3518618744888	
55.0	184.62122913931717	number	0.0		46	character	number-144.jpg	0.0	208.87674376696214	0.3833327648435443
55.0	184.79634190404613	pulse	0.0	t		character	number-144.jpg	0.0	209.0518565316911	
55.0	185.0045619041607	ISI	1.0		232	character	number-144.jpg	0.0	209.26007653180568	2.016632703175219
55.0	185.49638938552062	pulse	1.0	t		character	number-144.jpg	0.0	209.75190401316559	
55.0	186.19635325371837	pulse	1.0	t		character	number-144.jpg	0.0	210.45186788136334	
55.0	186.89633915718377	pulse	1.0	t		character	number-144.jpg	0.0	211.15185378482875	
56.0	187.02119460733593	house	0.0		46	place	house-99.jpg	0.0	211.2767092349809	0.3832808461302193
56.0	187.40447545346615	ISI	1.0		473	place	house-99.jpg	0.0	211.65999008111112	4.016594367845755
56.0	187.59627072711237	pulse	1.0	t		place	house-99.jpg	0.0	211.85178535475734	
56.0	188.29621829524876	pulse	1.0	t		place	house-99.jpg	0.0	212.55173292289373	
56.0	188.99621265059795	pulse	1.0	t		place	house-99.jpg	0.0	213.25172727824292	
56.0	189.69618557438525	pulse	1.0	t		place	house-99.jpg	0.0	213.95170020203022	
56.0	190.39617992973444	pulse	1.0	t		place	house-99.jpg	0.0	214.65169455737941	
56.0	191.09615526834568	pulse	1.0	t		place	house-99.jpg	0.0	215.35166989599065	
57.0	191.4210698213119	number	0.0		46	character	number-26.jpg	0.0	215.67658444895687	0.3832902035724146
57.0	191.79614358663503	pulse	0.0	t		character	number-26.jpg	0.0	216.05165821428	
57.0	191.80436002488432	ISI	1.0		594	character	number-26.jpg	0.0	216.0598746525293	5.016578369637955
57.0	192.49611983080513	pulse	1.0	t		character	number-26.jpg	0.0	216.7516344584501	
57.0	193.19615644557234	pulse	1.0	t		character	number-26.jpg	0.0	217.4516710732173	
57.0	193.89616438430585	pulse	1.0	t		character	number-26.jpg	0.0	218.15167901195082	
57.0	194.59612915806247	pulse	1.0	t		character	number-26.jpg	0.0	218.85164378570744	
57.0	195.29611325041014	pulse	1.0	t		character	number-26.jpg	0.0	219.55162787805511	
57.0	195.99609251310994	pulse	1.0	t		character	number-26.jpg	0.0	220.2516071407549	
57.0	196.69607600175186	pulse	1.0	t		character	number-26.jpg	0.0	220.95159062939683	
58.0	196.82093839452227	car	0.0		46	object	car-46.jpg	0.0	221.07645302216724	0.38327390351150825
58.0	197.20421229803378	ISI	1.0		354	object	car-46.jpg	0.0	221.45972692567875	3.024944225114723
58.0	197.39599036605978	pulse	1.0	t		object	car-46.jpg	0.0	221.65150499370475	
58.0	198.095970836172	pulse	1.0	t		object	car-46.jpg	0.0	222.35148546381697	
58.0	198.79596187113793	pulse	1.0	t		object	car-46.jpg	0.0	223.0514764987829	
58.0	199.49593932272	pulse	1.0	t		object	car-46.jpg	0.0	223.75145395036498	
58.0	200.19591828356715	pulse	1.0	t		object	car-46.jpg	0.0	224.45143291121212	
59.0	200.2291565231485	limb	0.0		45	body	limb-113.jpg	0.0	224.48467115079347	0.3749714371610935
59.0	200.6041279603096	ISI	1.0		593	body	limb-113.jpg	0.0	224.85964258795457	5.01658893449212
59.0	200.89589784812006	pulse	1.0	t		body	limb-113.jpg	0.0	225.15141247576503	
59.0	201.59589039235152	pulse	1.0	t		body	limb-113.jpg	0.0	225.8514050199965	
59.0	202.2958627124326	pulse	1.0	t		body	limb-113.jpg	0.0	226.55137734007758	
59.0	202.99590566611232	pulse	1.0	t		body	limb-113.jpg	0.0	227.2514202937573	
59.0	203.69590273813856	pulse	1.0	t		body	limb-113.jpg	0.0	227.95141736578353	
59.0	204.39587113413108	pulse	1.0	t		body	limb-113.jpg	0.0	228.65138576177606	
59.0	205.0958540190668	pulse	1.0	t		body	limb-113.jpg	0.0	229.35136864671176	
60.0	205.62071689480172	limb	0.0		46	body	limb-102.jpg	0.0	229.8762315224467	0.3832624330980252
60.0	205.79579222976054	pulse	0.0	t		body	limb-102.jpg	0.0	230.0513068574055	
60.0	206.00397932789974	ISI	1.0		233	body	limb-102.jpg	0.0	230.2594939555447	2.0166314957632494
60.0	206.49574764607496	pulse	1.0	t		body	limb-102.jpg	0.0	230.75126227371993	
60.0	207.19572690877476	pulse	1.0	t		body	limb-102.jpg	0.0	231.45124153641973	
60.0	207.8957085862985	pulse	1.0	t		body	limb-102.jpg	0.0	232.15122321394347	
61.0	208.020610823663	number	0.0		46	character	number-49.jpg	0.0	232.27612545130796	0.38330318325097323
61.0	208.40391400691396	ISI	1.0		231	character	number-49.jpg	0.0	232.65942863455894	2.016632401322113
61.0	208.59572769359238	pulse	1.0	t		character	number-49.jpg	0.0	232.85124232123735	
61.0	209.29567314875794	pulse	1.0	t		character	number-49.jpg	0.0	233.5511877764029	
61.0	209.99565150589888	pulse	1.0	t		character	number-49.jpg	0.0	234.25116613354385	
62.0	210.42054640823608	adult	0.0		46	face	adult-64.jpg	0.0	234.67606103588105	0.3832859776307487
62.0	210.69565370942564	pulse	0.0	t		face	adult-64.jpg	0.0	234.9511683370706	
62.0	210.80383238586683	ISI	1.0		473	face	adult-64.jpg	0.0	235.0593470135118	4.016626967968477
62.0	211.39562180356552	pulse	1.0	t		face	adult-64.jpg	0.0	235.6511364312105	
62.0	212.09568588695402	pulse	1.0	t		face	adult-64.jpg	0.0	236.351200514599	
62.0	212.79564945329867	pulse	1.0	t		face	adult-64.jpg	0.0	237.05116408094364	
62.0	213.4956311308224	pulse	1.0	t		face	adult-64.jpg	0.0	237.75114575846737	
62.0	214.19562337320076	pulse	1.0	t		face	adult-64.jpg	0.0	238.45113800084573	
63.0	214.8204593538353	number	0.0		46	character	number-54.jpg	0.0	239.07597398148027	0.3832877887484756
63.0	214.89553985047996	pulse	0.0	t		character	number-54.jpg	0.0	239.15105447812493	
63.0	215.20374714258378	ISI	1.0		233	character	number-54.jpg	0.0	239.45926177022875	2.016619119790903
63.0	215.59550945388446	pulse	1.0	t		character	number-54.jpg	0.0	239.85102408152943	
63.0	216.29548630176032	pulse	1.0	t		character	number-54.jpg	0.0	240.5510009294053	
63.0	216.995470394108	pulse	1.0	t		character	number-54.jpg	0.0	241.25098502175297	
64.0	217.22036626237468	house	0.0		46	place	house-101.jpg	0.0	241.47588089001965	0.3833025795447611
64.0	217.60366884191944	ISI	1.0		233	place	house-101.jpg	0.0	241.8591834695644	2.016630892057492
64.0	217.6954565994265	pulse	1.0	t		place	house-101.jpg	0.0	241.95097122707148	
64.0	218.3954265046841	pulse	1.0	t		place	house-101.jpg	0.0	242.65094113232908	
64.0	219.09542599153383	pulse	1.0	t		place	house-101.jpg	0.0	243.3509406191788	
65.0	219.62029973397694	adult	0.0		46	face	adult-78.jpg	0.0	243.8758143616219	0.3833086166046087
65.0	219.7953940856737	pulse	0.0	t		face	adult-78.jpg	0.0	244.05090871331868	
65.0	220.00360835058154	ISI	1.0		599	face	adult-78.jpg	0.0	244.25912297822651	4.999930271960238
65.0	220.49539900587706	pulse	1.0	t		face	adult-78.jpg	0.0	244.75091363352203	
65.0	221.19541871687716	pulse	1.0	t		face	adult-78.jpg	0.0	245.45093334452213	
65.0	221.89540552590142	pulse	1.0	t		face	adult-78.jpg	0.0	246.1509201535464	
65.0	222.59537875154183	pulse	1.0	t		face	adult-78.jpg	0.0	246.8508933791868	
65.0	223.2953646550077	pulse	1.0	t		face	adult-78.jpg	0.0	247.55087928265266	
65.0	223.99538376230157	pulse	1.0	t		face	adult-78.jpg	0.0	248.25089838994654	
65.0	224.69532499152547	pulse	1.0	t		face	adult-78.jpg	0.0	248.95083961917044	
66.0	225.00353862254178	baseline	0.0		708		baseline	0.0	249.25905325018675	5.899847896281244
66.0	225.39534047658344	pulse	0.0	t			baseline	0.0	249.6508551042284	
66.0	226.09529347807347	pulse	0.0	t			baseline	0.0	250.35080810571844	
66.0	226.79526911853782	pulse	0.0	t			baseline	0.0	251.0507837461828	
66.0	227.49525532385633	pulse	0.0	t			baseline	0.0	251.7507699515013	
66.0	228.1952357939681	pulse	0.0	t			baseline	0.0	252.45075042161307	
66.0	228.8952156603741	pulse	0.0	t			baseline	0.0	253.15073028801908	
66.0	229.59519431936815	pulse	0.0	t			baseline	0.0	253.85070894701312	
66.0	230.29517810986272	pulse	0.0	t			baseline	0.0	254.5506927375077	
66.0	230.90338651882303	ISI	1.0		12		baseline	0.0	255.158901146468	0.10000057352044678
66.0	230.99517367262388	pulse	1.0	t			baseline	0.0	255.25068830026885	
