trial_nr	onset	event_type	phase	response	nr_frames	face_age	face_sex	face_eth	attractiveness	expression	face_id	sub_id	ses	run	trial_type	catch	rating_type	onset_abs	duration
-1.0	0.05967526744097995	fix	0.0		713													106.47198781724637	5.957825819226855
-1.0	0.7011265122791883	pulse	0.0	t														107.11343906208458	
-1.0	1.401097534470864	pulse	0.0	t														107.81341008427626	
-1.0	2.1010691603678424	pulse	0.0	t														108.51338171017323	
-1.0	2.80105859554169	pulse	0.0	t														109.21337114534708	
-1.0	3.501031126995258	pulse	0.0	t														109.91334367680065	
-1.0	4.201019354760319	pulse	0.0	t														110.61333190456571	
-1.0	4.901001545482359	pulse	0.0	t														111.31331409528775	
-1.0	5.600991282509312	pulse	0.0	t														112.0133038323147	
0.0	6.017501086667835	face	0.0		144	47.0	male	east_asian	2.171110226820533	smiling	024	sub-07	2.0	1.0	024_smiling	0.0		112.42981363647323	1.2333250827068696
0.0	6.300959286179932	pulse	0.0	t		47.0	male	east_asian	2.171110226820533	smiling	024	sub-07	2.0	1.0	024_smiling	0.0		112.71327183598532	
0.0	7.000930006519411	pulse	0.0	t		47.0	male	east_asian	2.171110226820533	smiling	024	sub-07	2.0	1.0	024_smiling	0.0		113.4132425563248	
0.0	7.2508261693747045	fix	1.0		445	47.0	male	east_asian	2.171110226820533	smiling	024	sub-07	2.0	1.0	024_smiling	0.0		113.6631387191801	3.7582043418415196
0.0	7.700923365771814	pulse	1.0	t		47.0	male	east_asian	2.171110226820533	smiling	024	sub-07	2.0	1.0	024_smiling	0.0		114.1132359155772	
0.0	8.400894689816596	pulse	1.0	t		47.0	male	east_asian	2.171110226820533	smiling	024	sub-07	2.0	1.0	024_smiling	0.0		114.81320723962199	
0.0	9.100868730530237	pulse	1.0	t		47.0	male	east_asian	2.171110226820533	smiling	024	sub-07	2.0	1.0	024_smiling	0.0		115.51318128033563	
0.0	9.800854543478636	pulse	1.0	t		47.0	male	east_asian	2.171110226820533	smiling	024	sub-07	2.0	1.0	024_smiling	0.0		116.21316709328403	
0.0	10.500842167539304	pulse	1.0	t		47.0	male	east_asian	2.171110226820533	smiling	024	sub-07	2.0	1.0	024_smiling	0.0		116.9131547173447	
1.0	11.009030511216224	face	0.0		146	20.0	female	white	3.9502586549940313	smiling	091	sub-07	2.0	1.0	091_smiling	0.0		117.42134306102162	1.2416495617108012
1.0	11.200825263818842	pulse	0.0	t		20.0	female	white	3.9502586549940313	smiling	091	sub-07	2.0	1.0	091_smiling	0.0		117.61313781362423	
1.0	11.900785117480154	pulse	0.0	t		20.0	female	white	3.9502586549940313	smiling	091	sub-07	2.0	1.0	091_smiling	0.0		118.31309766728555	
1.0	12.250680072927025	fix	1.0		444	20.0	female	white	3.9502586549940313	smiling	091	sub-07	2.0	1.0	091_smiling	0.0		118.66299262273242	3.7665267078791658
1.0	12.60077032672416	pulse	1.0	t		20.0	female	white	3.9502586549940313	smiling	091	sub-07	2.0	1.0	091_smiling	0.0		119.01308287652955	
1.0	13.300751611890519	pulse	1.0	t		20.0	female	white	3.9502586549940313	smiling	091	sub-07	2.0	1.0	091_smiling	0.0		119.71306416169591	
1.0	14.000718710004548	pulse	1.0	t		20.0	female	white	3.9502586549940313	smiling	091	sub-07	2.0	1.0	091_smiling	0.0		120.41303125980994	
1.0	14.700723539638602	pulse	1.0	t		20.0	female	white	3.9502586549940313	smiling	091	sub-07	2.0	1.0	091_smiling	0.0		121.113036089444	
1.0	15.400691845161418	pulse	1.0	t		20.0	female	white	3.9502586549940313	smiling	091	sub-07	2.0	1.0	091_smiling	0.0		121.81300439496681	
2.0	16.01720678080619	face	0.0		145	21.0	male	black	2.969757262236371	neutral	137	sub-07	2.0	1.0	137_neutral	0.0		122.42951933061158	1.23332236603801
2.0	16.10066860254483	pulse	0.0	t		21.0	male	black	2.969757262236371	neutral	137	sub-07	2.0	1.0	137_neutral	0.0		122.51298115235022	
2.0	16.80065501919762	pulse	0.0	t		21.0	male	black	2.969757262236371	neutral	137	sub-07	2.0	1.0	137_neutral	0.0		123.21296756900301	
2.0	17.2505291468442	fix	1.0		444	21.0	male	black	2.969757262236371	neutral	137	sub-07	2.0	1.0	137_neutral	0.0		123.6628416966496	3.758207058511289
2.0	17.500624230277026	pulse	1.0	t		21.0	male	black	2.969757262236371	neutral	137	sub-07	2.0	1.0	137_neutral	0.0		123.91293678008242	
2.0	18.200597365434078	pulse	1.0	t		21.0	male	black	2.969757262236371	neutral	137	sub-07	2.0	1.0	137_neutral	0.0		124.61290991523947	
2.0	18.90057744319074	pulse	1.0	t		21.0	male	black	2.969757262236371	neutral	137	sub-07	2.0	1.0	137_neutral	0.0		125.31288999299613	
2.0	19.600554804278545	pulse	1.0	t		21.0	male	black	2.969757262236371	neutral	137	sub-07	2.0	1.0	137_neutral	0.0		126.01286735408394	
2.0	20.300542126487926	pulse	1.0	t		21.0	male	black	2.969757262236371	neutral	137	sub-07	2.0	1.0	137_neutral	0.0		126.71285467629332	
3.0	21.00873620535549	face	0.0		147	24.0	female	black	3.0955033824114606	neutral	099	sub-07	2.0	1.0	099_neutral	0.0		127.42104875516088	1.2416392987370273
3.0	21.002466132186782	pulse	0.0	t		24.0	female	black	3.0955033824114606	neutral	099	sub-07	2.0	1.0	099_neutral	0.0		127.41477868199217	
3.0	21.700501376445573	pulse	0.0	t		24.0	female	black	3.0955033824114606	neutral	099	sub-07	2.0	1.0	099_neutral	0.0		128.11281392625096	
3.0	22.250375504092517	fix	1.0		443	24.0	female	black	3.0955033824114606	neutral	099	sub-07	2.0	1.0	099_neutral	0.0		128.6626880538979	3.758195286276532
3.0	22.400483567167612	pulse	1.0	t		24.0	female	black	3.0955033824114606	neutral	099	sub-07	2.0	1.0	099_neutral	0.0		128.812796116973	
3.0	23.10046304122079	pulse	1.0	t		24.0	female	black	3.0955033824114606	neutral	099	sub-07	2.0	1.0	099_neutral	0.0		129.51277559102618	
3.0	23.80043285600368	pulse	1.0	t		24.0	female	black	3.0955033824114606	neutral	099	sub-07	2.0	1.0	099_neutral	0.0		130.21274540580907	
3.0	24.50042561155169	pulse	1.0	t		24.0	female	black	3.0955033824114606	neutral	099	sub-07	2.0	1.0	099_neutral	0.0		130.91273816135708	
3.0	25.200396030039883	pulse	1.0	t		24.0	female	black	3.0955033824114606	neutral	099	sub-07	2.0	1.0	099_neutral	0.0		131.61270857984528	
3.0	25.900385767065927	pulse	1.0	t		24.0	female	black	3.0955033824114606	neutral	099	sub-07	2.0	1.0	099_neutral	0.0		132.31269831687132	
4.0	26.00857079036905	face	0.0		147	27.0	female	white	4.181058495821727	smiling	039	sub-07	2.0	1.0	039_smiling	0.0		132.42088334017444	1.241665861727597
4.0	26.600358298519495	pulse	0.0	t		27.0	female	white	4.181058495821727	smiling	039	sub-07	2.0	1.0	039_smiling	0.0		133.0126708483249	
4.0	27.250236652096646	fix	1.0		443	27.0	female	white	4.181058495821727	smiling	039	sub-07	2.0	1.0	039_smiling	0.0		133.66254920190204	3.7665442153056574
4.0	27.30034622443236	pulse	1.0	t		27.0	female	white	4.181058495821727	smiling	039	sub-07	2.0	1.0	039_smiling	0.0		133.71265877423775	
4.0	28.00031694477275	pulse	1.0	t		27.0	female	white	4.181058495821727	smiling	039	sub-07	2.0	1.0	039_smiling	0.0		134.41262949457814	
4.0	28.700293400303963	pulse	1.0	t		27.0	female	white	4.181058495821727	smiling	039	sub-07	2.0	1.0	039_smiling	0.0		135.11260595010936	
4.0	29.400268346574194	pulse	1.0	t		27.0	female	white	4.181058495821727	smiling	039	sub-07	2.0	1.0	039_smiling	0.0		135.8125808963796	
4.0	30.10024027432246	pulse	1.0	t		27.0	female	white	4.181058495821727	smiling	039	sub-07	2.0	1.0	039_smiling	0.0		136.51255282412785	
4.0	30.80021250392383	pulse	1.0	t		27.0	female	white	4.181058495821727	smiling	039	sub-07	2.0	1.0	039_smiling	0.0		137.21252505372922	
5.0	31.016780867402304	face	0.0		145	30.0	female	black	2.7345801830481498	neutral	062	sub-07	2.0	1.0	062_neutral	0.0		137.4290934172077	1.2333084808378771
5.0	31.500220955784243	pulse	0.0	t		30.0	female	black	2.7345801830481498	neutral	062	sub-07	2.0	1.0	062_neutral	0.0		137.91253350558964	
5.0	32.20019197797683	pulse	0.0	t		30.0	female	black	2.7345801830481498	neutral	062	sub-07	2.0	1.0	062_neutral	0.0		138.61250452778222	
5.0	32.25008934824018	fix	1.0		445	30.0	female	black	2.7345801830481498	neutral	062	sub-07	2.0	1.0	062_neutral	0.0		138.66240189804557	3.7581904566422963
5.0	32.9001793001853	pulse	1.0	t		30.0	female	black	2.7345801830481498	neutral	062	sub-07	2.0	1.0	062_neutral	0.0		139.3124918499907	
5.0	33.60082586752287	pulse	1.0	t		30.0	female	black	2.7345801830481498	neutral	062	sub-07	2.0	1.0	062_neutral	0.0		140.01313841732826	
5.0	34.3001346260653	pulse	1.0	t		30.0	female	black	2.7345801830481498	neutral	062	sub-07	2.0	1.0	062_neutral	0.0		140.7124471758707	
5.0	35.00011440196977	pulse	1.0	t		30.0	female	black	2.7345801830481498	neutral	062	sub-07	2.0	1.0	062_neutral	0.0		141.41242695177516	
5.0	35.70009025379659	pulse	1.0	t		30.0	female	black	2.7345801830481498	neutral	062	sub-07	2.0	1.0	062_neutral	0.0		142.11240280360198	
6.0	36.00827980488248	face	0.0		146	27.0	male	black	3.5523278949462798	neutral	042	sub-07	2.0	1.0	042_neutral	1.0	attractiveness	142.42059235468787	1.2416598246845751
6.0	36.40006882229318	pulse	0.0	t		27.0	male	black	3.5523278949462798	neutral	042	sub-07	2.0	1.0	042_neutral	1.0	attractiveness	142.81238137209857	
6.0	37.10004346671121	pulse	0.0	t		27.0	male	black	3.5523278949462798	neutral	042	sub-07	2.0	1.0	042_neutral	1.0	attractiveness	143.5123560165166	
6.0	37.24993962956705	fix	1.0		177	27.0	male	black	3.5523278949462798	neutral	042	sub-07	2.0	1.0	042_neutral	1.0	attractiveness	143.66225217937244	1.5083199512200736
6.0	37.80002324261659	pulse	1.0	t		27.0	male	black	3.5523278949462798	neutral	042	sub-07	2.0	1.0	042_neutral	1.0	attractiveness	144.21233579242198	
6.0	38.50000965926847	pulse	1.0	t		27.0	male	black	3.5523278949462798	neutral	042	sub-07	2.0	1.0	042_neutral	1.0	attractiveness	144.91232220907386	
6.0	38.758259580787126	rating	2.0		294	27.0	male	black	3.5523278949462798	neutral	042	sub-07	2.0	1.0	042_neutral	1.0	attractiveness	145.17057213059252	2.4915680616259124
6.0	39.19998852961726	pulse	2.0	t		27.0	male	black	3.5523278949462798	neutral	042	sub-07	2.0	1.0	042_neutral	1.0	attractiveness	145.61230107942265	
6.0	39.89996528700067	pulse	2.0	t		27.0	male	black	3.5523278949462798	neutral	042	sub-07	2.0	1.0	042_neutral	1.0	attractiveness	146.31227783680606	
6.0	40.51662692279751	response	2.0	y		27.0	male	black	3.5523278949462798	neutral	042	sub-07	2.0	1.0	042_neutral	1.0	attractiveness	146.9289394726029	
6.0	40.599938120305524	pulse	2.0	t		27.0	male	black	3.5523278949462798	neutral	042	sub-07	2.0	1.0	042_neutral	1.0	attractiveness	147.01225067011092	
6.0	41.24982764241304	fix	3.0		443	27.0	male	black	3.5523278949462798	neutral	042	sub-07	2.0	1.0	042_neutral	1.0	attractiveness	147.66214019221843	3.7665405930792986
6.0	41.29992423510612	pulse	3.0	t		27.0	male	black	3.5523278949462798	neutral	042	sub-07	2.0	1.0	042_neutral	1.0	attractiveness	147.7122367849115	
6.0	41.99990733138475	pulse	3.0	t		27.0	male	black	3.5523278949462798	neutral	042	sub-07	2.0	1.0	042_neutral	1.0	attractiveness	148.41221988119014	
6.0	42.69988408876816	pulse	3.0	t		27.0	male	black	3.5523278949462798	neutral	042	sub-07	2.0	1.0	042_neutral	1.0	attractiveness	149.11219663857355	
6.0	43.399850583177795	pulse	3.0	t		27.0	male	black	3.5523278949462798	neutral	042	sub-07	2.0	1.0	042_neutral	1.0	attractiveness	149.8121631329832	
6.0	44.09983035908317	pulse	3.0	t		27.0	male	black	3.5523278949462798	neutral	042	sub-07	2.0	1.0	042_neutral	1.0	attractiveness	150.51214290888856	
6.0	44.799820096109215	pulse	3.0	t		27.0	male	black	3.5523278949462798	neutral	042	sub-07	2.0	1.0	042_neutral	1.0	attractiveness	151.2121326459146	
7.0	45.01636823549234	face	0.0		145	27.0	male	black	3.5523278949462798	smiling	042	sub-07	2.0	1.0	042_smiling	0.0		151.42868078529773	1.233307575282197
7.0	45.49979987201459	pulse	0.0	t		27.0	male	black	3.5523278949462798	smiling	042	sub-07	2.0	1.0	042_smiling	0.0		151.91211242181998	
7.0	46.199788703484046	pulse	0.0	t		27.0	male	black	3.5523278949462798	smiling	042	sub-07	2.0	1.0	042_smiling	0.0		152.61210125328944	
7.0	46.249675810774534	fix	1.0		445	27.0	male	black	3.5523278949462798	smiling	042	sub-07	2.0	1.0	042_smiling	0.0		152.66198836057993	3.758205549250306
7.0	46.899757612711255	pulse	1.0	t		27.0	male	black	3.5523278949462798	smiling	042	sub-07	2.0	1.0	042_smiling	0.0		153.31207016251665	
7.0	47.59973557750345	pulse	1.0	t		27.0	male	black	3.5523278949462798	smiling	042	sub-07	2.0	1.0	042_smiling	0.0		154.01204812730884	
7.0	48.299720183043064	pulse	1.0	t		27.0	male	black	3.5523278949462798	smiling	042	sub-07	2.0	1.0	042_smiling	0.0		154.71203273284846	
7.0	48.99968154596536	pulse	1.0	t		27.0	male	black	3.5523278949462798	smiling	042	sub-07	2.0	1.0	042_smiling	0.0		155.41199409577075	
7.0	49.69966947187913	pulse	1.0	t		27.0	male	black	3.5523278949462798	smiling	042	sub-07	2.0	1.0	042_smiling	0.0		156.11198202168453	
8.0	50.00788136002484	face	0.0		146	27.0	female	white	4.181058495821727	neutral	039	sub-07	2.0	1.0	039_neutral	0.0		156.42019390983023	1.241646845041032
8.0	50.39966403854032	pulse	0.0	t		27.0	female	white	4.181058495821727	neutral	039	sub-07	2.0	1.0	039_neutral	0.0		156.81197658834571	
8.0	51.09963385332321	pulse	0.0	t		27.0	female	white	4.181058495821727	neutral	039	sub-07	2.0	1.0	039_neutral	0.0		157.5119464031286	
8.0	51.24952820506587	fix	1.0		445	27.0	female	white	4.181058495821727	neutral	039	sub-07	2.0	1.0	039_neutral	0.0		157.66184075487126	3.7582674289442366
8.0	51.79960970515003	pulse	1.0	t		27.0	female	white	4.181058495821727	neutral	039	sub-07	2.0	1.0	039_neutral	0.0		158.21192225495543	
8.0	52.499587971794426	pulse	1.0	t		27.0	female	white	4.181058495821727	neutral	039	sub-07	2.0	1.0	039_neutral	0.0		158.91190052159982	
8.0	53.199576501412594	pulse	1.0	t		27.0	female	white	4.181058495821727	neutral	039	sub-07	2.0	1.0	039_neutral	0.0		159.611889051218	
8.0	53.89955295694381	pulse	1.0	t		27.0	female	white	4.181058495821727	neutral	039	sub-07	2.0	1.0	039_neutral	0.0		160.3118655067492	
8.0	54.59953635507463	pulse	1.0	t		27.0	female	white	4.181058495821727	neutral	039	sub-07	2.0	1.0	039_neutral	0.0		161.01184890488003	
9.0	55.00779563401011	face	0.0		146	31.0	male	west_asian	1.9538400318344609	neutral	070	sub-07	2.0	1.0	070_neutral	0.0		161.4201081838155	1.241585267199298
9.0	55.29951190504926	pulse	0.0	t		31.0	male	west_asian	1.9538400318344609	neutral	070	sub-07	2.0	1.0	070_neutral	0.0		161.71182445485465	
9.0	55.999486247615096	pulse	0.0	t		31.0	male	west_asian	1.9538400318344609	neutral	070	sub-07	2.0	1.0	070_neutral	0.0		162.4117987974205	
9.0	56.249380901209406	fix	1.0		444	31.0	male	west_asian	1.9538400318344609	neutral	070	sub-07	2.0	1.0	070_neutral	0.0		162.6616934510148	3.7665421023402814
9.0	56.69947658834553	pulse	1.0	t		31.0	male	west_asian	1.9538400318344609	neutral	070	sub-07	2.0	1.0	070_neutral	0.0		163.11178913815093	
9.0	57.3994494216513	pulse	1.0	t		31.0	male	west_asian	1.9538400318344609	neutral	070	sub-07	2.0	1.0	070_neutral	0.0		163.8117619714567	
9.0	58.099429197555764	pulse	1.0	t		31.0	male	west_asian	1.9538400318344609	neutral	070	sub-07	2.0	1.0	070_neutral	0.0		164.51174174736116	
9.0	58.7993959938176	pulse	1.0	t		31.0	male	west_asian	1.9538400318344609	neutral	070	sub-07	2.0	1.0	070_neutral	0.0		165.211708543623	
9.0	59.49938603269584	pulse	1.0	t		31.0	male	west_asian	1.9538400318344609	neutral	070	sub-07	2.0	1.0	070_neutral	0.0		165.91169858250123	
10.0	60.01592300354969	face	0.0		145	54.0	female	white	2.286908077994429	smiling	136	sub-07	2.0	1.0	136_smiling	0.0		166.42823555335508	1.2333105938032531
10.0	60.199365808601215	pulse	0.0	t		54.0	female	white	2.286908077994429	smiling	136	sub-07	2.0	1.0	136_smiling	0.0		166.6116783584066	
10.0	60.89935192340181	pulse	0.0	t		54.0	female	white	2.286908077994429	smiling	136	sub-07	2.0	1.0	136_smiling	0.0		167.3116644732072	
10.0	61.24923359735294	fix	1.0		445	54.0	female	white	2.286908077994429	smiling	136	sub-07	2.0	1.0	136_smiling	0.0		167.66154614715833	3.766540894931495
10.0	61.59932083262902	pulse	1.0	t		54.0	female	white	2.286908077994429	smiling	136	sub-07	2.0	1.0	136_smiling	0.0		168.0116333824344	
10.0	62.29930966409847	pulse	1.0	t		54.0	female	white	2.286908077994429	smiling	136	sub-07	2.0	1.0	136_smiling	0.0		168.71162221390387	
10.0	62.99927012146509	pulse	1.0	t		54.0	female	white	2.286908077994429	smiling	136	sub-07	2.0	1.0	136_smiling	0.0		169.41158267127048	
10.0	63.69925895293454	pulse	1.0	t		54.0	female	white	2.286908077994429	smiling	136	sub-07	2.0	1.0	136_smiling	0.0		170.11157150273993	
10.0	64.39924416217855	pulse	1.0	t		54.0	female	white	2.286908077994429	smiling	136	sub-07	2.0	1.0	136_smiling	0.0		170.81155671198394	
11.0	65.01577449228444	face	0.0		146	22.0	female	west_asian	3.8205332272184642	neutral	066	sub-07	2.0	1.0	066_neutral	0.0		171.42808704208983	1.2416287339110568
11.0	65.09921397696235	pulse	0.0	t		22.0	female	west_asian	3.8205332272184642	neutral	066	sub-07	2.0	1.0	066_neutral	0.0		171.51152652676774	
11.0	65.79921820289292	pulse	0.0	t		22.0	female	west_asian	3.8205332272184642	neutral	066	sub-07	2.0	1.0	066_neutral	0.0		172.2115307526983	
11.0	66.25740322619549	fix	1.0		444	22.0	female	west_asian	3.8205332272184642	neutral	066	sub-07	2.0	1.0	066_neutral	0.0		172.66971577600088	3.766556591243898
11.0	66.4991886213802	pulse	1.0	t		22.0	female	west_asian	3.8205332272184642	neutral	066	sub-07	2.0	1.0	066_neutral	0.0		172.9115011711856	
11.0	67.199165982468	pulse	1.0	t		22.0	female	west_asian	3.8205332272184642	neutral	066	sub-07	2.0	1.0	066_neutral	0.0		173.6114785322734	
11.0	67.89912915650348	pulse	1.0	t		22.0	female	west_asian	3.8205332272184642	neutral	066	sub-07	2.0	1.0	066_neutral	0.0		174.31144170630887	
11.0	68.59911346019089	pulse	1.0	t		22.0	female	west_asian	3.8205332272184642	neutral	066	sub-07	2.0	1.0	066_neutral	0.0		175.01142600999628	
11.0	69.29910048054808	pulse	1.0	t		22.0	female	west_asian	3.8205332272184642	neutral	066	sub-07	2.0	1.0	066_neutral	0.0		175.71141303035347	
11.0	69.99907301200165	pulse	1.0	t		22.0	female	west_asian	3.8205332272184642	neutral	066	sub-07	2.0	1.0	066_neutral	0.0		176.41138556180704	
12.0	70.02395981743939	face	0.0		146	24.0	female	black	3.0955033824114606	smiling	099	sub-07	2.0	1.0	099_smiling	0.0		176.43627236724478	1.2333078771343935
12.0	70.6990536934627	pulse	0.0	t		24.0	female	black	3.0955033824114606	smiling	099	sub-07	2.0	1.0	099_smiling	0.0		177.1113662432681	
12.0	71.25726769457378	fix	1.0		443	24.0	female	black	3.0955033824114606	smiling	099	sub-07	2.0	1.0	099_smiling	0.0		177.66958024437918	3.7582384511360942
12.0	71.39903528048035	pulse	1.0	t		24.0	female	black	3.0955033824114606	smiling	099	sub-07	2.0	1.0	099_smiling	0.0		177.81134783028574	
12.0	72.09900358600316	pulse	1.0	t		24.0	female	black	3.0955033824114606	smiling	099	sub-07	2.0	1.0	099_smiling	0.0		178.51131613580856	
12.0	72.79899121006474	pulse	1.0	t		24.0	female	black	3.0955033824114606	smiling	099	sub-07	2.0	1.0	099_smiling	0.0		179.21130375987013	
12.0	73.498963137813	pulse	1.0	t		24.0	female	black	3.0955033824114606	smiling	099	sub-07	2.0	1.0	099_smiling	0.0		179.9112756876184	
12.0	74.19894623409164	pulse	1.0	t		24.0	female	black	3.0955033824114606	smiling	099	sub-07	2.0	1.0	099_smiling	0.0		180.61125878389703	
12.0	74.89892027480619	pulse	1.0	t		24.0	female	black	3.0955033824114606	smiling	099	sub-07	2.0	1.0	099_smiling	0.0		181.31123282461158	
13.0	75.01550614570988	face	0.0		147	32.0	male	white	2.389176283326701	smiling	092	sub-07	2.0	1.0	092_smiling	0.0		181.42781869551527	1.2416166598241034
13.0	75.59891001183223	pulse	0.0	t		32.0	male	white	2.389176283326701	smiling	092	sub-07	2.0	1.0	092_smiling	0.0		182.01122256163762	
13.0	76.25712280553398	fix	1.0		443	32.0	male	white	2.389176283326701	smiling	092	sub-07	2.0	1.0	092_smiling	0.0		182.66943535533937	3.7665442153056574
13.0	76.29889039144109	pulse	1.0	t		32.0	male	white	2.389176283326701	smiling	092	sub-07	2.0	1.0	092_smiling	0.0		182.71120294124648	
13.0	76.99886292289466	pulse	1.0	t		32.0	male	white	2.389176283326701	smiling	092	sub-07	2.0	1.0	092_smiling	0.0		183.41117547270005	
13.0	77.69884933954745	pulse	1.0	t		32.0	male	white	2.389176283326701	smiling	092	sub-07	2.0	1.0	092_smiling	0.0		184.11116188935284	
13.0	78.3988303228607	pulse	1.0	t		32.0	male	white	2.389176283326701	smiling	092	sub-07	2.0	1.0	092_smiling	0.0		184.8111428726661	
13.0	79.09880164690458	pulse	1.0	t		32.0	male	white	2.389176283326701	smiling	092	sub-07	2.0	1.0	092_smiling	0.0		185.51111419670997	
13.0	79.79877598947132	pulse	1.0	t		32.0	male	white	2.389176283326701	smiling	092	sub-07	2.0	1.0	092_smiling	0.0		186.21108853927672	
14.0	80.02366702083964	face	0.0		145	31.0	female	white	2.1822522881018704	neutral	102	sub-07	2.0	1.0	102_neutral	1.0	attractiveness	186.43597957064503	1.2332945956386538
14.0	80.49876451908858	pulse	0.0	t		31.0	female	white	2.1822522881018704	neutral	102	sub-07	2.0	1.0	102_neutral	1.0	attractiveness	186.91107706889397	
14.0	81.19873916350662	pulse	0.0	t		31.0	female	white	2.1822522881018704	neutral	102	sub-07	2.0	1.0	102_neutral	1.0	attractiveness	187.611051713312	
14.0	81.25696161647829	fix	1.0		177	31.0	female	white	2.1822522881018704	neutral	102	sub-07	2.0	1.0	102_neutral	1.0	attractiveness	187.66927416628369	1.4999556277316515
14.0	81.89870535606406	pulse	1.0	t		31.0	female	white	2.1822522881018704	neutral	102	sub-07	2.0	1.0	102_neutral	1.0	attractiveness	188.31101790586945	
14.0	82.59870565791698	pulse	1.0	t		31.0	female	white	2.1822522881018704	neutral	102	sub-07	2.0	1.0	102_neutral	1.0	attractiveness	189.01101820772237	
14.0	82.75691724420994	rating	2.0		295	31.0	female	white	2.1822522881018704	neutral	102	sub-07	2.0	1.0	102_neutral	1.0	attractiveness	189.16922979401534	2.4999347999328165
14.0	83.2986972060562	pulse	2.0	t		31.0	female	white	2.1822522881018704	neutral	102	sub-07	2.0	1.0	102_neutral	1.0	attractiveness	189.7110097558616	
14.0	83.9986670208391	pulse	2.0	t		31.0	female	white	2.1822522881018704	neutral	102	sub-07	2.0	1.0	102_neutral	1.0	attractiveness	190.41097957064449	
14.0	84.21531477143708	response	2.0	b		31.0	female	white	2.1822522881018704	neutral	102	sub-07	2.0	1.0	102_neutral	1.0	attractiveness	190.62762732124247	
14.0	84.6986277800579	pulse	2.0	t		31.0	female	white	2.1822522881018704	neutral	102	sub-07	2.0	1.0	102_neutral	1.0	attractiveness	191.1109403298633	
14.0	85.25685204414276	fix	3.0		443	31.0	female	white	2.1822522881018704	neutral	102	sub-07	2.0	1.0	102_neutral	1.0	attractiveness	191.66916459394815	3.766545724565731
14.0	85.39863110043188	pulse	3.0	t		31.0	female	white	2.1822522881018704	neutral	102	sub-07	2.0	1.0	102_neutral	1.0	attractiveness	191.81094365023728	
14.0	86.09859578372834	pulse	3.0	t		31.0	female	white	2.1822522881018704	neutral	102	sub-07	2.0	1.0	102_neutral	1.0	attractiveness	192.51090833353373	
14.0	86.79857405037274	pulse	3.0	t		31.0	female	white	2.1822522881018704	neutral	102	sub-07	2.0	1.0	102_neutral	1.0	attractiveness	193.21088660017813	
14.0	87.49855110960834	pulse	3.0	t		31.0	female	white	2.1822522881018704	neutral	102	sub-07	2.0	1.0	102_neutral	1.0	attractiveness	193.91086365941374	
14.0	88.19852032068775	pulse	3.0	t		31.0	female	white	2.1822522881018704	neutral	102	sub-07	2.0	1.0	102_neutral	1.0	attractiveness	194.61083287049314	
14.0	88.89850824660061	pulse	3.0	t		31.0	female	white	2.1822522881018704	neutral	102	sub-07	2.0	1.0	102_neutral	1.0	attractiveness	195.310820796406	
15.0	89.02339776870849	face	0.0		146	19.0	male	white	3.2522881018702745	smiling	018	sub-07	2.0	1.0	018_smiling	0.0		195.43571031851388	1.2333118012120394
15.0	89.59850613363596	pulse	0.0	t		19.0	male	white	3.2522881018702745	smiling	018	sub-07	2.0	1.0	018_smiling	0.0		196.01081868344136	
15.0	90.25670956992053	fix	1.0		443	19.0	male	white	3.2522881018702745	smiling	018	sub-07	2.0	1.0	018_smiling	0.0		196.66902211972592	3.7582574678226592
15.0	90.29848470213165	pulse	1.0	t		19.0	male	white	3.2522881018702745	smiling	018	sub-07	2.0	1.0	018_smiling	0.0		196.71079725193704	
15.0	90.99846206321945	pulse	1.0	t		19.0	male	white	3.2522881018702745	smiling	018	sub-07	2.0	1.0	018_smiling	0.0		197.41077461302484	
15.0	91.69841316316888	pulse	1.0	t		19.0	male	white	3.2522881018702745	smiling	018	sub-07	2.0	1.0	018_smiling	0.0		198.11072571297427	
15.0	92.39842161502929	pulse	1.0	t		19.0	male	white	3.2522881018702745	smiling	018	sub-07	2.0	1.0	018_smiling	0.0		198.81073416483468	
15.0	93.09838780758673	pulse	1.0	t		19.0	male	white	3.2522881018702745	smiling	018	sub-07	2.0	1.0	018_smiling	0.0		199.51070035739212	
15.0	93.79836245200477	pulse	1.0	t		19.0	male	white	3.2522881018702745	smiling	018	sub-07	2.0	1.0	018_smiling	0.0		200.21067500181016	
16.0	94.01496703774319	face	0.0		146	21.0	male	east_asian/white	3.501790688420215	smiling	036	sub-07	2.0	1.0	036_smiling	0.0		200.42727958754858	1.2415795320084726
16.0	94.49834856680536	pulse	0.0	t		21.0	male	east_asian/white	3.501790688420215	smiling	036	sub-07	2.0	1.0	036_smiling	0.0		200.91066111661075	
16.0	95.19832140011113	pulse	0.0	t		21.0	male	east_asian/white	3.501790688420215	smiling	036	sub-07	2.0	1.0	036_smiling	0.0		201.61063394991652	
16.0	95.25654656975166	fix	1.0		444	21.0	male	east_asian/white	3.501790688420215	smiling	036	sub-07	2.0	1.0	036_smiling	0.0		201.66885911955706	3.7583462123593563
16.0	95.89830962787619	pulse	1.0	t		21.0	male	east_asian/white	3.501790688420215	smiling	036	sub-07	2.0	1.0	036_smiling	0.0		202.31062217768158	
16.0	96.59829634638118	pulse	1.0	t		21.0	male	east_asian/white	3.501790688420215	smiling	036	sub-07	2.0	1.0	036_smiling	0.0		203.01060889618657	
16.0	97.29827310376459	pulse	1.0	t		21.0	male	east_asian/white	3.501790688420215	smiling	036	sub-07	2.0	1.0	036_smiling	0.0		203.71058565356998	
16.0	97.99824654077383	pulse	1.0	t		21.0	male	east_asian/white	3.501790688420215	smiling	036	sub-07	2.0	1.0	036_smiling	0.0		204.41055909057923	
16.0	98.6982184685221	pulse	1.0	t		21.0	male	east_asian/white	3.501790688420215	smiling	036	sub-07	2.0	1.0	036_smiling	0.0		205.1105310183275	
17.0	99.01489278211102	face	0.0		146	21.0	male	black	2.969757262236371	smiling	137	sub-07	2.0	1.0	137_smiling	0.0		205.4272053319164	1.2415055782275886
17.0	99.39820790369686	pulse	0.0	t		21.0	male	black	2.969757262236371	smiling	137	sub-07	2.0	1.0	137_smiling	0.0		205.81052045350225	
17.0	100.09817651107187	pulse	0.0	t		21.0	male	black	2.969757262236371	smiling	137	sub-07	2.0	1.0	137_smiling	0.0		206.51048906087726	
17.0	100.25639836033861	fix	1.0		444	21.0	male	black	2.969757262236371	smiling	137	sub-07	2.0	1.0	137_smiling	0.0		206.668710910144	3.7665562893917013
17.0	100.79817258699313	pulse	1.0	t		21.0	male	black	2.969757262236371	smiling	137	sub-07	2.0	1.0	137_smiling	0.0		207.21048513679852	
17.0	101.49814904252435	pulse	1.0	t		21.0	male	black	2.969757262236371	smiling	137	sub-07	2.0	1.0	137_smiling	0.0		207.91046159232974	
17.0	102.19812761102094	pulse	1.0	t		21.0	male	black	2.969757262236371	smiling	137	sub-07	2.0	1.0	137_smiling	0.0		208.61044016082633	
17.0	102.8980919924652	pulse	1.0	t		21.0	male	black	2.969757262236371	smiling	137	sub-07	2.0	1.0	137_smiling	0.0		209.3104045422706	
17.0	103.598076899857	pulse	1.0	t		21.0	male	black	2.969757262236371	smiling	137	sub-07	2.0	1.0	137_smiling	0.0		210.0103894496624	
18.0	104.02295464973031	face	0.0		145	24.0	female	east_asian	2.9076800636689217	smiling	034	sub-07	2.0	1.0	034_smiling	0.0		210.4352671995357	1.2332970104562264
18.0	104.29806150539662	pulse	0.0	t		24.0	female	east_asian	2.9076800636689217	smiling	034	sub-07	2.0	1.0	034_smiling	0.0		210.710374055202	
18.0	104.9980325275892	pulse	0.0	t		24.0	female	east_asian	2.9076800636689217	smiling	034	sub-07	2.0	1.0	034_smiling	0.0		211.4103450773946	
18.0	105.25625166018654	fix	1.0		444	24.0	female	east_asian	2.9076800636689217	smiling	034	sub-07	2.0	1.0	034_smiling	0.0		211.66856420999193	3.759795706454497
18.0	105.69802920721486	pulse	1.0	t		24.0	female	east_asian	2.9076800636689217	smiling	034	sub-07	2.0	1.0	034_smiling	0.0		212.11034175702025	
18.0	106.3979953997723	pulse	1.0	t		24.0	female	east_asian	2.9076800636689217	smiling	034	sub-07	2.0	1.0	034_smiling	0.0		212.8103079495777	
18.0	107.09798483494706	pulse	1.0	t		24.0	female	east_asian	2.9076800636689217	smiling	034	sub-07	2.0	1.0	034_smiling	0.0		213.51029738475245	
18.0	107.79795766825191	pulse	1.0	t		24.0	female	east_asian	2.9076800636689217	smiling	034	sub-07	2.0	1.0	034_smiling	0.0		214.2102702180573	
18.0	108.49793110526116	pulse	1.0	t		24.0	female	east_asian	2.9076800636689217	smiling	034	sub-07	2.0	1.0	034_smiling	0.0		214.91024365506655	
19.0	109.01604736664103	face	0.0		146	19.0	female	white	4.298846000795861	smiling	100	sub-07	2.0	1.0	100_smiling	0.0		215.42835991644642	1.240069969331671
19.0	109.19792295525349	pulse	0.0	t		19.0	female	white	4.298846000795861	smiling	100	sub-07	2.0	1.0	100_smiling	0.0		215.61023550505888	
19.0	109.897883110767	pulse	0.0	t		19.0	female	white	4.298846000795861	smiling	100	sub-07	2.0	1.0	100_smiling	0.0		216.3101956605724	
19.0	110.2561173359727	fix	1.0		444	19.0	female	white	4.298846000795861	smiling	100	sub-07	2.0	1.0	100_smiling	0.0		216.6684298857781	3.7665411967836917
19.0	110.59786530148995	pulse	1.0	t		19.0	female	white	4.298846000795861	smiling	100	sub-07	2.0	1.0	100_smiling	0.0		217.01017785129534	
19.0	111.29784749221199	pulse	1.0	t		19.0	female	white	4.298846000795861	smiling	100	sub-07	2.0	1.0	100_smiling	0.0		217.71016004201738	
19.0	111.9978242495954	pulse	1.0	t		19.0	female	white	4.298846000795861	smiling	100	sub-07	2.0	1.0	100_smiling	0.0		218.4101367994008	
19.0	112.69781941996007	pulse	1.0	t		19.0	female	white	4.298846000795861	smiling	100	sub-07	2.0	1.0	100_smiling	0.0		219.11013196976546	
19.0	113.39778531066622	pulse	1.0	t		19.0	female	white	4.298846000795861	smiling	100	sub-07	2.0	1.0	100_smiling	0.0		219.81009786047161	
20.0	114.0226585327564	face	0.0		145	20.0	female	white	3.9502586549940313	neutral	091	sub-07	2.0	1.0	091_neutral	0.0		220.4349710825618	1.233310291951966
20.0	114.0977720291703	pulse	0.0	t		20.0	female	white	3.9502586549940313	neutral	091	sub-07	2.0	1.0	091_neutral	0.0		220.5100845789757	
20.0	114.79773942913653	pulse	0.0	t		20.0	female	white	3.9502586549940313	neutral	091	sub-07	2.0	1.0	091_neutral	0.0		221.21005197894192	
20.0	115.25596882470836	fix	1.0		1185	20.0	female	white	3.9502586549940313	neutral	091	sub-07	2.0	1.0	091_neutral	0.0		221.66828137451375	10.016341974353963
20.0	115.49772856245909	pulse	1.0	t		20.0	female	white	3.9502586549940313	neutral	091	sub-07	2.0	1.0	091_neutral	0.0		221.91004111226448	
20.0	116.1977213180071	pulse	1.0	t		20.0	female	white	3.9502586549940313	neutral	091	sub-07	2.0	1.0	091_neutral	0.0		222.6100338678125	
20.0	116.8976989809471	pulse	1.0	t		20.0	female	white	3.9502586549940313	neutral	091	sub-07	2.0	1.0	091_neutral	0.0		223.3100115307525	
20.0	117.59765883460841	pulse	1.0	t		20.0	female	white	3.9502586549940313	neutral	091	sub-07	2.0	1.0	091_neutral	0.0		224.0099713844138	
20.0	118.29764917533976	pulse	1.0	t		20.0	female	white	3.9502586549940313	neutral	091	sub-07	2.0	1.0	091_neutral	0.0		224.70996172514515	
20.0	118.99760389751464	pulse	1.0	t		20.0	female	white	3.9502586549940313	neutral	091	sub-07	2.0	1.0	091_neutral	0.0		225.40991644732003	
20.0	119.69760178454999	pulse	1.0	t		20.0	female	white	3.9502586549940313	neutral	091	sub-07	2.0	1.0	091_neutral	0.0		226.10991433435538	
20.0	120.39758276786324	pulse	1.0	t		20.0	female	white	3.9502586549940313	neutral	091	sub-07	2.0	1.0	091_neutral	0.0		226.80989531766863	
20.0	121.09755861969006	pulse	1.0	t		20.0	female	white	3.9502586549940313	neutral	091	sub-07	2.0	1.0	091_neutral	0.0		227.50987116949545	
20.0	121.79754624375164	pulse	1.0	t		20.0	female	white	3.9502586549940313	neutral	091	sub-07	2.0	1.0	091_neutral	0.0		228.20985879355703	
20.0	122.49752813262148	pulse	1.0	t		20.0	female	white	3.9502586549940313	neutral	091	sub-07	2.0	1.0	091_neutral	0.0		228.90984068242687	
20.0	123.1974888918403	pulse	1.0	t		20.0	female	white	3.9502586549940313	neutral	091	sub-07	2.0	1.0	091_neutral	0.0		229.6098014416457	
20.0	123.89747259182332	pulse	1.0	t		20.0	female	white	3.9502586549940313	neutral	091	sub-07	2.0	1.0	091_neutral	0.0		230.3097851416287	
20.0	124.59745689551073	pulse	1.0	t		20.0	female	white	3.9502586549940313	neutral	091	sub-07	2.0	1.0	091_neutral	0.0		231.00976944531612	
21.0	125.27231079906232	face	0.0		145	25.0	female	west_asian	2.6756864305610826	smiling	064	sub-07	2.0	1.0	064_smiling	0.0		231.68462334886772	1.233325082707779
21.0	125.29744150105034	pulse	0.0	t		25.0	female	west_asian	2.6756864305610826	smiling	064	sub-07	2.0	1.0	064_smiling	0.0		231.70975405085574	
21.0	125.99741976769383	pulse	0.0	t		25.0	female	west_asian	2.6756864305610826	smiling	064	sub-07	2.0	1.0	064_smiling	0.0		232.40973231749922	
21.0	126.5056358817701	fix	1.0		443	25.0	female	west_asian	2.6756864305610826	smiling	064	sub-07	2.0	1.0	064_smiling	0.0		232.9179484315755	3.758291577117234
21.0	126.69740618434662	pulse	1.0	t		25.0	female	west_asian	2.6756864305610826	smiling	064	sub-07	2.0	1.0	064_smiling	0.0		233.109718734152	
21.0	127.39738022506026	pulse	1.0	t		25.0	female	west_asian	2.6756864305610826	smiling	064	sub-07	2.0	1.0	064_smiling	0.0		233.80969277486565	
21.0	128.09735034169626	pulse	1.0	t		25.0	female	west_asian	2.6756864305610826	smiling	064	sub-07	2.0	1.0	064_smiling	0.0		234.50966289150165	
21.0	128.79734309724427	pulse	1.0	t		25.0	female	west_asian	2.6756864305610826	smiling	064	sub-07	2.0	1.0	064_smiling	0.0		235.20965564704966	
21.0	129.4973165342535	pulse	1.0	t		25.0	female	west_asian	2.6756864305610826	smiling	064	sub-07	2.0	1.0	064_smiling	0.0		235.9096290840589	
21.0	130.1972966120111	pulse	1.0	t		25.0	female	west_asian	2.6756864305610826	smiling	064	sub-07	2.0	1.0	064_smiling	0.0		236.60960916181648	
22.0	130.26392745888734	face	0.0		147	31.0	female	east_asian	3.395941106247513	neutral	087	sub-07	2.0	1.0	087_neutral	0.0		236.67624000869273	1.2415617227306939
22.0	130.89724741010832	pulse	0.0	t		31.0	female	east_asian	3.395941106247513	neutral	087	sub-07	2.0	1.0	087_neutral	0.0		237.3095599599137	
22.0	131.50548918161803	fix	1.0		443	31.0	female	east_asian	3.395941106247513	neutral	087	sub-07	2.0	1.0	087_neutral	0.0		237.91780173142342	3.7582538455963004
22.0	131.59726250271615	pulse	1.0	t		31.0	female	east_asian	3.395941106247513	neutral	087	sub-07	2.0	1.0	087_neutral	0.0		238.00957505252154	
22.0	132.29722446934375	pulse	1.0	t		31.0	female	east_asian	3.395941106247513	neutral	087	sub-07	2.0	1.0	087_neutral	0.0		238.70953701914914	
22.0	132.99719156745778	pulse	1.0	t		31.0	female	east_asian	3.395941106247513	neutral	087	sub-07	2.0	1.0	087_neutral	0.0		239.40950411726317	
22.0	133.6972066600656	pulse	1.0	t		31.0	female	east_asian	3.395941106247513	neutral	087	sub-07	2.0	1.0	087_neutral	0.0		240.109519209871	
22.0	134.397168324841	pulse	1.0	t		31.0	female	east_asian	3.395941106247513	neutral	087	sub-07	2.0	1.0	087_neutral	0.0		240.8094808746464	
22.0	135.09715111926744	pulse	1.0	t		31.0	female	east_asian	3.395941106247513	neutral	087	sub-07	2.0	1.0	087_neutral	0.0		241.50946366907283	
23.0	135.26374302721433	face	0.0		147	28.0	male	east_asian	1.5563072025467568	smiling	005	sub-07	2.0	1.0	005_smiling	0.0		241.67605557701972	1.2499311777064577
23.0	135.79754352708187	pulse	0.0	t		28.0	male	east_asian	1.5563072025467568	smiling	005	sub-07	2.0	1.0	005_smiling	0.0		242.20985607688726	
23.0	136.49710493588645	pulse	0.0	t		28.0	male	east_asian	1.5563072025467568	smiling	005	sub-07	2.0	1.0	005_smiling	0.0		242.90941748569185	
23.0	136.5136742049208	fix	1.0		444	28.0	male	east_asian	1.5563072025467568	smiling	005	sub-07	2.0	1.0	005_smiling	0.0		242.92598675472618	3.749956533288241
23.0	137.1970868247563	pulse	1.0	t		28.0	male	east_asian	1.5563072025467568	smiling	005	sub-07	2.0	1.0	005_smiling	0.0		243.6093993745617	
23.0	137.89706871362614	pulse	1.0	t		28.0	male	east_asian	1.5563072025467568	smiling	005	sub-07	2.0	1.0	005_smiling	0.0		244.30938126343153	
23.0	138.59704758397493	pulse	1.0	t		28.0	male	east_asian	1.5563072025467568	smiling	005	sub-07	2.0	1.0	005_smiling	0.0		245.00936013378032	
23.0	139.2970264543237	pulse	1.0	t		28.0	male	east_asian	1.5563072025467568	smiling	005	sub-07	2.0	1.0	005_smiling	0.0		245.7093390041291	
23.0	139.9969971746632	pulse	1.0	t		28.0	male	east_asian	1.5563072025467568	smiling	005	sub-07	2.0	1.0	005_smiling	0.0		246.40930972446859	
24.0	140.26363073820903	face	0.0		146	20.0	male	black	3.1070433744528456	smiling	082	sub-07	2.0	1.0	082_smiling	1.0	trustworthiness	246.67594328801442	1.2415487430880603
24.0	140.69698600613356	pulse	0.0	t		20.0	male	black	3.1070433744528456	smiling	082	sub-07	2.0	1.0	082_smiling	1.0	trustworthiness	247.10929855593895	
24.0	141.3969594431428	pulse	0.0	t		20.0	male	black	3.1070433744528456	smiling	082	sub-07	2.0	1.0	082_smiling	1.0	trustworthiness	247.8092719929482	
24.0	141.5051794812971	fix	1.0		177	20.0	male	black	3.1070433744528456	smiling	082	sub-07	2.0	1.0	082_smiling	1.0	trustworthiness	247.91749203110248	1.4999544203228652
24.0	142.0969543116562	pulse	1.0	t		20.0	male	black	3.1070433744528456	smiling	082	sub-07	2.0	1.0	082_smiling	1.0	trustworthiness	248.50926686146158	
24.0	142.79691205235304	pulse	1.0	t		20.0	male	black	3.1070433744528456	smiling	082	sub-07	2.0	1.0	082_smiling	1.0	trustworthiness	249.20922460215843	
24.0	143.00513390161996	rating	2.0		295	20.0	male	black	3.1070433744528456	smiling	082	sub-07	2.0	1.0	082_smiling	1.0	trustworthiness	249.41744645142535	2.499940535123642
24.0	143.49690661901423	pulse	2.0	t		20.0	male	black	3.1070433744528456	smiling	082	sub-07	2.0	1.0	082_smiling	1.0	trustworthiness	249.90921916881962	
24.0	144.19688186713665	pulse	2.0	t		20.0	male	black	3.1070433744528456	smiling	082	sub-07	2.0	1.0	082_smiling	1.0	trustworthiness	250.60919441694205	
24.0	144.59170630991684	response	2.0	b		20.0	male	black	3.1070433744528456	smiling	082	sub-07	2.0	1.0	082_smiling	1.0	trustworthiness	251.00401885972224	
24.0	144.89684081524229	pulse	2.0	t		20.0	male	black	3.1070433744528456	smiling	082	sub-07	2.0	1.0	082_smiling	1.0	trustworthiness	251.30915336504768	
24.0	145.5050744367436	fix	3.0		443	20.0	male	black	3.1070433744528456	smiling	082	sub-07	2.0	1.0	082_smiling	1.0	trustworthiness	251.917386986549	3.766545422713534
24.0	145.5968414189465	pulse	3.0	t		20.0	male	black	3.1070433744528456	smiling	082	sub-07	2.0	1.0	082_smiling	1.0	trustworthiness	252.0091539687519	
24.0	146.29683900412874	pulse	3.0	t		20.0	male	black	3.1070433744528456	smiling	082	sub-07	2.0	1.0	082_smiling	1.0	trustworthiness	252.70915155393413	
24.0	146.99680549853838	pulse	3.0	t		20.0	male	black	3.1070433744528456	smiling	082	sub-07	2.0	1.0	082_smiling	1.0	trustworthiness	253.40911804834377	
24.0	147.696782557774	pulse	3.0	t		20.0	male	black	3.1070433744528456	smiling	082	sub-07	2.0	1.0	082_smiling	1.0	trustworthiness	254.10909510757938	
24.0	148.396758711453	pulse	3.0	t		20.0	male	black	3.1070433744528456	smiling	082	sub-07	2.0	1.0	082_smiling	1.0	trustworthiness	254.8090712612584	
24.0	149.0967218854894	pulse	3.0	t		20.0	male	black	3.1070433744528456	smiling	082	sub-07	2.0	1.0	082_smiling	1.0	trustworthiness	255.50903443529478	
25.0	149.27161985945713	face	0.0		146	40.0	female	west_asian	1.5777954635893354	smiling	038	sub-07	2.0	1.0	038_smiling	0.0		255.68393240926252	1.2416178672337992
25.0	149.7967303373498	pulse	0.0	t		40.0	female	west_asian	1.5777954635893354	smiling	038	sub-07	2.0	1.0	038_smiling	0.0		256.2090428871552	
25.0	150.4966838521159	pulse	0.0	t		40.0	female	west_asian	1.5777954635893354	smiling	038	sub-07	2.0	1.0	038_smiling	0.0		256.9089964019213	
25.0	150.51323772669093	fix	1.0		444	40.0	female	west_asian	1.5777954635893354	smiling	038	sub-07	2.0	1.0	038_smiling	0.0		256.9255502764963	3.749993057399479
25.0	151.1966757021073	pulse	1.0	t		40.0	female	west_asian	1.5777954635893354	smiling	038	sub-07	2.0	1.0	038_smiling	0.0		257.6089882519127	
25.0	151.89664461133452	pulse	1.0	t		40.0	female	west_asian	1.5777954635893354	smiling	038	sub-07	2.0	1.0	038_smiling	0.0		258.3089571611399	
25.0	152.59662861316974	pulse	1.0	t		40.0	female	west_asian	1.5777954635893354	smiling	038	sub-07	2.0	1.0	038_smiling	0.0		259.00894116297513	
25.0	153.29661382241375	pulse	1.0	t		40.0	female	west_asian	1.5777954635893354	smiling	038	sub-07	2.0	1.0	038_smiling	0.0		259.70892637221914	
25.0	153.99657458163256	pulse	1.0	t		40.0	female	west_asian	1.5777954635893354	smiling	038	sub-07	2.0	1.0	038_smiling	0.0		260.40888713143795	
26.0	154.2632307840904	face	0.0		146	47.0	male	east_asian	2.171110226820533	neutral	024	sub-07	2.0	1.0	024_neutral	0.0		260.6755433338958	1.2415227838018836
26.0	154.6965733742236	pulse	0.0	t		47.0	male	east_asian	2.171110226820533	neutral	024	sub-07	2.0	1.0	024_neutral	0.0		261.108885924029	
26.0	155.3965489241982	pulse	0.0	t		47.0	male	east_asian	2.171110226820533	neutral	024	sub-07	2.0	1.0	024_neutral	0.0		261.8088614740036	
26.0	155.5047535678923	fix	1.0		444	47.0	male	east_asian	2.171110226820533	neutral	024	sub-07	2.0	1.0	024_neutral	0.0		261.9170661176977	3.7665677597742615
26.0	156.09653956678176	pulse	1.0	t		47.0	male	east_asian	2.171110226820533	neutral	024	sub-07	2.0	1.0	024_neutral	0.0		262.50885211658715	
26.0	156.79650334452162	pulse	1.0	t		47.0	male	east_asian	2.171110226820533	neutral	024	sub-07	2.0	1.0	024_neutral	0.0		263.208815894327	
26.0	157.49648010190504	pulse	1.0	t		47.0	male	east_asian	2.171110226820533	neutral	024	sub-07	2.0	1.0	024_neutral	0.0		263.9087926517104	
26.0	158.1964604815139	pulse	1.0	t		47.0	male	east_asian	2.171110226820533	neutral	024	sub-07	2.0	1.0	024_neutral	0.0		264.6087730313193	
26.0	158.8964465963145	pulse	1.0	t		47.0	male	east_asian	2.171110226820533	neutral	024	sub-07	2.0	1.0	024_neutral	0.0		265.3087591461199	
27.0	159.27132132766656	face	0.0		145	40.0	male	black	2.408674890569041	neutral	061	sub-07	2.0	1.0	061_neutral	1.0	dominance	265.68363387747195	1.23329761415971
27.0	159.5964230518457	pulse	0.0	t		40.0	male	black	2.408674890569041	neutral	061	sub-07	2.0	1.0	061_neutral	1.0	dominance	266.0087356016511	
27.0	160.2964100722029	pulse	0.0	t		40.0	male	black	2.408674890569041	neutral	061	sub-07	2.0	1.0	061_neutral	1.0	dominance	266.7087226220083	
27.0	160.50461894182627	fix	1.0		177	40.0	male	black	2.408674890569041	neutral	061	sub-07	2.0	1.0	061_neutral	1.0	dominance	266.91693149163166	1.4999692110795877
27.0	160.99640886479392	pulse	1.0	t		40.0	male	black	2.408674890569041	neutral	061	sub-07	2.0	1.0	061_neutral	1.0	dominance	267.4087214145993	
27.0	161.69640584627268	pulse	1.0	t		40.0	male	black	2.408674890569041	neutral	061	sub-07	2.0	1.0	061_neutral	1.0	dominance	268.1087183960781	
27.0	162.00458815290585	rating	2.0		295	40.0	male	black	2.408674890569041	neutral	061	sub-07	2.0	1.0	061_neutral	1.0	dominance	268.41690070271125	2.5082586752314455
27.0	162.3963569462212	pulse	2.0	t		40.0	male	black	2.408674890569041	neutral	061	sub-07	2.0	1.0	061_neutral	1.0	dominance	268.8086694960266	
27.0	163.09631408321457	pulse	2.0	t		40.0	male	black	2.408674890569041	neutral	061	sub-07	2.0	1.0	061_neutral	1.0	dominance	269.50862663301996	
27.0	163.7962977831976	pulse	2.0	t		40.0	male	black	2.408674890569041	neutral	061	sub-07	2.0	1.0	061_neutral	1.0	dominance	270.208610333003	
27.0	163.94102321846822	response	2.0	y		40.0	male	black	2.408674890569041	neutral	061	sub-07	2.0	1.0	061_neutral	1.0	dominance	270.3533357682736	
27.0	164.49626820168487	pulse	2.0	t		40.0	male	black	2.408674890569041	neutral	061	sub-07	2.0	1.0	061_neutral	1.0	dominance	270.90858075149026	
27.0	164.5128468281373	fix	3.0		443	40.0	male	black	2.408674890569041	neutral	061	sub-07	2.0	1.0	061_neutral	1.0	dominance	270.9251593779427	3.7582091714757553
27.0	165.19625642945084	pulse	3.0	t		40.0	male	black	2.408674890569041	neutral	061	sub-07	2.0	1.0	061_neutral	1.0	dominance	271.60856897925623	
27.0	165.89631347950944	pulse	3.0	t		40.0	male	black	2.408674890569041	neutral	061	sub-07	2.0	1.0	061_neutral	1.0	dominance	272.30862602931484	
27.0	166.59629234985823	pulse	3.0	t		40.0	male	black	2.408674890569041	neutral	061	sub-07	2.0	1.0	061_neutral	1.0	dominance	273.0086048996636	
27.0	167.2963282702658	pulse	3.0	t		40.0	male	black	2.408674890569041	neutral	061	sub-07	2.0	1.0	061_neutral	1.0	dominance	273.7086408200712	
27.0	167.9961788534447	pulse	3.0	t		40.0	male	black	2.408674890569041	neutral	061	sub-07	2.0	1.0	061_neutral	1.0	dominance	274.4084914032501	
28.0	168.27105599961305	face	0.0		145	22.0	female	white	4.614007162753682	neutral	009	sub-07	2.0	1.0	009_neutral	0.0		274.68336854941845	1.2333099900997695
28.0	168.69616949602732	pulse	0.0	t		22.0	female	white	4.614007162753682	neutral	009	sub-07	2.0	1.0	009_neutral	0.0		275.1084820458327	
28.0	169.39613810340234	pulse	0.0	t		22.0	female	white	4.614007162753682	neutral	009	sub-07	2.0	1.0	009_neutral	0.0		275.80845065320773	
28.0	169.50436598971282	fix	1.0		444	22.0	female	white	4.614007162753682	neutral	009	sub-07	2.0	1.0	009_neutral	0.0		275.9166785395182	3.7665481393833034
28.0	170.09612784042838	pulse	1.0	t		22.0	female	white	4.614007162753682	neutral	009	sub-07	2.0	1.0	009_neutral	0.0		276.5084403902338	
28.0	170.79610610707277	pulse	1.0	t		22.0	female	white	4.614007162753682	neutral	009	sub-07	2.0	1.0	009_neutral	0.0		277.20841865687817	
28.0	171.49606807369946	pulse	1.0	t		22.0	female	white	4.614007162753682	neutral	009	sub-07	2.0	1.0	009_neutral	0.0		277.90838062350485	
28.0	172.19605177368248	pulse	1.0	t		22.0	female	white	4.614007162753682	neutral	009	sub-07	2.0	1.0	009_neutral	0.0		278.6083643234879	
28.0	172.89602702180582	pulse	1.0	t		22.0	female	white	4.614007162753682	neutral	009	sub-07	2.0	1.0	009_neutral	0.0		279.3083395716112	
29.0	173.27091412909613	face	0.0		145	25.0	female	west_asian	2.6756864305610826	neutral	064	sub-07	2.0	1.0	064_neutral	0.0		279.6832266789015	1.2333048586124278
29.0	173.59600015696287	pulse	0.0	t		25.0	female	west_asian	2.6756864305610826	neutral	064	sub-07	2.0	1.0	064_neutral	0.0		280.00831270676827	
29.0	174.29598808287574	pulse	0.0	t		25.0	female	west_asian	2.6756864305610826	neutral	064	sub-07	2.0	1.0	064_neutral	0.0		280.70830063268113	
29.0	174.50421898770855	fix	1.0		444	25.0	female	west_asian	2.6756864305610826	neutral	064	sub-07	2.0	1.0	064_neutral	0.0		280.91653153751395	3.758187136268134
29.0	174.9959772161983	pulse	1.0	t		25.0	female	west_asian	2.6756864305610826	neutral	064	sub-07	2.0	1.0	064_neutral	0.0		281.4082897660037	
29.0	175.69595880321594	pulse	1.0	t		25.0	female	west_asian	2.6756864305610826	neutral	064	sub-07	2.0	1.0	064_neutral	0.0		282.10827135302134	
29.0	176.39592680688656	pulse	1.0	t		25.0	female	west_asian	2.6756864305610826	neutral	064	sub-07	2.0	1.0	064_neutral	0.0		282.80823935669196	
29.0	177.09590386612217	pulse	1.0	t		25.0	female	west_asian	2.6756864305610826	neutral	064	sub-07	2.0	1.0	064_neutral	0.0		283.50821641592756	
29.0	177.795879717949	pulse	1.0	t		25.0	female	west_asian	2.6756864305610826	neutral	064	sub-07	2.0	1.0	064_neutral	0.0		284.2081922677544	
30.0	178.2624061239767	face	0.0		146	34.0	male	white	2.651014723438122	neutral	121	sub-07	2.0	1.0	121_neutral	0.0		284.6747186737821	1.2416525802318574
30.0	178.49586704015837	pulse	0.0	t		34.0	male	white	2.651014723438122	neutral	121	sub-07	2.0	1.0	121_neutral	0.0		284.90817958996377	
30.0	179.19584832532382	pulse	0.0	t		34.0	male	white	2.651014723438122	neutral	121	sub-07	2.0	1.0	121_neutral	0.0		285.6081608751292	
30.0	179.50405870420855	fix	1.0		444	34.0	male	white	2.651014723438122	neutral	121	sub-07	2.0	1.0	121_neutral	0.0		285.91637125401394	3.7582484122576716
30.0	179.8958447030982	pulse	1.0	t		34.0	male	white	2.651014723438122	neutral	121	sub-07	2.0	1.0	121_neutral	0.0		286.3081572529036	
30.0	180.59581542343767	pulse	1.0	t		34.0	male	white	2.651014723438122	neutral	121	sub-07	2.0	1.0	121_neutral	0.0		287.00812797324306	
30.0	181.29577920117845	pulse	1.0	t		34.0	male	white	2.651014723438122	neutral	121	sub-07	2.0	1.0	121_neutral	0.0		287.70809175098384	
30.0	181.99575626041315	pulse	1.0	t		34.0	male	white	2.651014723438122	neutral	121	sub-07	2.0	1.0	121_neutral	0.0		288.40806881021854	
30.0	182.69573935669268	pulse	1.0	t		34.0	male	white	2.651014723438122	neutral	121	sub-07	2.0	1.0	121_neutral	0.0		289.1080519064981	
31.0	183.26230711646622	face	0.0		146	31.0	female	east_asian	3.395941106247513	smiling	087	sub-07	2.0	1.0	087_smiling	0.0		289.6746196662716	1.2416133394508506
31.0	183.3957239622323	pulse	0.0	t		31.0	female	east_asian	3.395941106247513	smiling	087	sub-07	2.0	1.0	087_smiling	0.0		289.8080365120377	
31.0	184.09568049552036	pulse	0.0	t		31.0	female	east_asian	3.395941106247513	smiling	087	sub-07	2.0	1.0	087_smiling	0.0		290.50799304532575	
31.0	184.50392045591707	fix	1.0		444	31.0	female	east_asian	3.395941106247513	smiling	087	sub-07	2.0	1.0	087_smiling	0.0		290.91623300572246	3.766544215304748
31.0	184.7956780807026	pulse	1.0	t		31.0	female	east_asian	3.395941106247513	smiling	087	sub-07	2.0	1.0	087_smiling	0.0		291.207990630508	
31.0	185.49565936586896	pulse	1.0	t		31.0	female	east_asian	3.395941106247513	smiling	087	sub-07	2.0	1.0	087_smiling	0.0		291.90797191567435	
31.0	186.19563823621684	pulse	1.0	t		31.0	female	east_asian	3.395941106247513	smiling	087	sub-07	2.0	1.0	087_smiling	0.0		292.60795078602223	
31.0	186.89562918065167	pulse	1.0	t		31.0	female	east_asian	3.395941106247513	smiling	087	sub-07	2.0	1.0	087_smiling	0.0		293.30794173045706	
31.0	187.59559265654025	pulse	1.0	t		31.0	female	east_asian	3.395941106247513	smiling	087	sub-07	2.0	1.0	087_smiling	0.0		294.00790520634564	
32.0	188.27046467122182	face	0.0		145	32.0	male	white	2.389176283326701	neutral	092	sub-07	2.0	1.0	092_neutral	1.0	trustworthiness	294.6827772210272	1.2332749752486052
32.0	188.2955902417225	pulse	0.0	t		32.0	male	white	2.389176283326701	neutral	092	sub-07	2.0	1.0	092_neutral	1.0	trustworthiness	294.7079027915279	
32.0	188.99555643427993	pulse	0.0	t		32.0	male	white	2.389176283326701	neutral	092	sub-07	2.0	1.0	092_neutral	1.0	trustworthiness	295.4078689840853	
32.0	189.50373964647042	fix	1.0		177	32.0	male	white	2.389176283326701	neutral	092	sub-07	2.0	1.0	092_neutral	1.0	trustworthiness	295.9160521962758	1.4999909444350124
32.0	189.6955368138897	pulse	1.0	t		32.0	male	white	2.389176283326701	neutral	092	sub-07	2.0	1.0	092_neutral	1.0	trustworthiness	296.1078493636951	
32.0	190.39551115645554	pulse	1.0	t		32.0	male	white	2.389176283326701	neutral	092	sub-07	2.0	1.0	092_neutral	1.0	trustworthiness	296.80782370626093	
32.0	191.00373059090543	rating	2.0		294	32.0	male	white	2.389176283326701	neutral	092	sub-07	2.0	1.0	092_neutral	1.0	trustworthiness	297.4160431407108	2.499924235106846
32.0	191.09549515829076	pulse	2.0	t		32.0	male	white	2.389176283326701	neutral	092	sub-07	2.0	1.0	092_neutral	1.0	trustworthiness	297.50780770809615	
32.0	191.79547463234394	pulse	2.0	t		32.0	male	white	2.389176283326701	neutral	092	sub-07	2.0	1.0	092_neutral	1.0	trustworthiness	298.20778718214933	
32.0	192.49545320083962	pulse	2.0	t		32.0	male	white	2.389176283326701	neutral	092	sub-07	2.0	1.0	092_neutral	1.0	trustworthiness	298.907765750645	
32.0	192.97350673734036	response	2.0	y		32.0	male	white	2.389176283326701	neutral	092	sub-07	2.0	1.0	092_neutral	1.0	trustworthiness	299.38581928714575	
32.0	193.19543116563182	pulse	2.0	t		32.0	male	white	2.389176283326701	neutral	092	sub-07	2.0	1.0	092_neutral	1.0	trustworthiness	299.6077437154372	
32.0	193.50365482601228	fix	3.0		444	32.0	male	white	2.389176283326701	neutral	092	sub-07	2.0	1.0	092_neutral	1.0	trustworthiness	299.9159673758177	3.766542102339372
32.0	193.89540762116303	pulse	3.0	t		32.0	male	white	2.389176283326701	neutral	092	sub-07	2.0	1.0	092_neutral	1.0	trustworthiness	300.3077201709684	
32.0	194.59538920818068	pulse	3.0	t		32.0	male	white	2.389176283326701	neutral	092	sub-07	2.0	1.0	092_neutral	1.0	trustworthiness	301.00770175798607	
32.0	195.29536928593825	pulse	3.0	t		32.0	male	white	2.389176283326701	neutral	092	sub-07	2.0	1.0	092_neutral	1.0	trustworthiness	301.70768183574364	
32.0	195.99534815628613	pulse	3.0	t		32.0	male	white	2.389176283326701	neutral	092	sub-07	2.0	1.0	092_neutral	1.0	trustworthiness	302.4076607060915	
32.0	196.6953357803477	pulse	3.0	t		32.0	male	white	2.389176283326701	neutral	092	sub-07	2.0	1.0	092_neutral	1.0	trustworthiness	303.1076483301531	
33.0	197.27019692835165	face	0.0		145	28.0	male	east_asian	1.5563072025467568	neutral	005	sub-07	2.0	1.0	005_neutral	0.0		303.68250947815704	1.2333090845431798
33.0	197.39531797106974	pulse	0.0	t		28.0	male	east_asian	1.5563072025467568	neutral	005	sub-07	2.0	1.0	005_neutral	0.0		303.80763052087514	
33.0	198.09528144695832	pulse	0.0	t		28.0	male	east_asian	1.5563072025467568	neutral	005	sub-07	2.0	1.0	005_neutral	0.0		304.5075939967637	
33.0	198.50350601289483	fix	1.0		444	28.0	male	east_asian	1.5563072025467568	neutral	005	sub-07	2.0	1.0	005_neutral	0.0		304.9158185627002	3.758207058511289
33.0	198.79527510806292	pulse	1.0	t		28.0	male	east_asian	1.5563072025467568	neutral	005	sub-07	2.0	1.0	005_neutral	0.0		305.2075876578683	
33.0	199.4952382820984	pulse	1.0	t		28.0	male	east_asian	1.5563072025467568	neutral	005	sub-07	2.0	1.0	005_neutral	0.0		305.9075508319038	
33.0	200.1952313394986	pulse	1.0	t		28.0	male	east_asian	1.5563072025467568	neutral	005	sub-07	2.0	1.0	005_neutral	0.0		306.607543889304	
33.0	200.89562133249547	pulse	1.0	t		28.0	male	east_asian	1.5563072025467568	neutral	005	sub-07	2.0	1.0	005_neutral	0.0		307.30793388230086	
33.0	201.5951866653786	pulse	1.0	t		28.0	male	east_asian	1.5563072025467568	neutral	005	sub-07	2.0	1.0	005_neutral	0.0		308.007499215184	
34.0	202.26171307140612	face	0.0		146	37.0	male	white	3.898925586947871	smiling	101	sub-07	2.0	1.0	101_smiling	0.0		308.6740256212115	1.2416465431888355
34.0	202.29517489314367	pulse	0.0	t		37.0	male	white	3.898925586947871	smiling	101	sub-07	2.0	1.0	101_smiling	0.0		308.70748744294906	
34.0	202.9951428968143	pulse	0.0	t		37.0	male	white	3.898925586947871	smiling	101	sub-07	2.0	1.0	101_smiling	0.0		309.4074554466197	
34.0	203.50335961459496	fix	1.0		443	37.0	male	white	3.898925586947871	smiling	101	sub-07	2.0	1.0	101_smiling	0.0		309.91567216440035	3.766526406026969
34.0	203.69512267271966	pulse	1.0	t		37.0	male	white	3.898925586947871	smiling	101	sub-07	2.0	1.0	101_smiling	0.0		310.10743522252505	
34.0	204.39510275047633	pulse	1.0	t		37.0	male	white	3.898925586947871	smiling	101	sub-07	2.0	1.0	101_smiling	0.0		310.8074153002817	
34.0	205.0950737726689	pulse	1.0	t		37.0	male	white	3.898925586947871	smiling	101	sub-07	2.0	1.0	101_smiling	0.0		311.5073863224743	
34.0	205.79507437637312	pulse	1.0	t		37.0	male	white	3.898925586947871	smiling	101	sub-07	2.0	1.0	101_smiling	0.0		312.2073869261785	
34.0	206.49503302262656	pulse	1.0	t		37.0	male	white	3.898925586947871	smiling	101	sub-07	2.0	1.0	101_smiling	0.0		312.90734557243195	
34.0	207.19501370408761	pulse	1.0	t		37.0	male	white	3.898925586947871	smiling	101	sub-07	2.0	1.0	101_smiling	0.0		313.607326253893	
35.0	207.26988602062193	face	0.0		146	19.0	male	white	2.243931555909272	neutral	130	sub-07	2.0	1.0	130_neutral	0.0		313.6821985704273	1.2333274975253516
35.0	207.8950088744532	pulse	0.0	t		19.0	male	white	2.243931555909272	neutral	130	sub-07	2.0	1.0	130_neutral	0.0		314.3073214242586	
35.0	208.50321351814728	fix	1.0		443	19.0	male	white	2.243931555909272	neutral	130	sub-07	2.0	1.0	130_neutral	0.0		314.91552606795267	3.758183514041775
35.0	208.59498774480198	pulse	1.0	t		19.0	male	white	2.243931555909272	neutral	130	sub-07	2.0	1.0	130_neutral	0.0		315.0073002946074	
35.0	209.29494578735103	pulse	1.0	t		19.0	male	white	2.243931555909272	neutral	130	sub-07	2.0	1.0	130_neutral	0.0		315.7072583371564	
35.0	209.9949258651077	pulse	1.0	t		19.0	male	white	2.243931555909272	neutral	130	sub-07	2.0	1.0	130_neutral	0.0		316.4072384149131	
35.0	210.69492314843865	pulse	1.0	t		19.0	male	white	2.243931555909272	neutral	130	sub-07	2.0	1.0	130_neutral	0.0		317.10723569824404	
35.0	211.3948878317351	pulse	1.0	t		19.0	male	white	2.243931555909272	neutral	130	sub-07	2.0	1.0	130_neutral	0.0		317.8072003815405	
35.0	212.0948730409791	pulse	1.0	t		19.0	male	white	2.243931555909272	neutral	130	sub-07	2.0	1.0	130_neutral	0.0		318.5071855907845	
36.0	212.26139703218905	face	0.0		147	26.0	male	white	2.7966573816155993	neutral	117	sub-07	2.0	1.0	117_neutral	0.0		318.67370958199444	1.2500015092609829
36.0	212.79482625389392	pulse	0.0	t		26.0	male	white	2.7966573816155993	neutral	117	sub-07	2.0	1.0	117_neutral	0.0		319.2071388036993	
36.0	213.49482715945032	pulse	0.0	t		26.0	male	white	2.7966573816155993	neutral	117	sub-07	2.0	1.0	117_neutral	0.0		319.9071397092557	
36.0	213.51139854145003	fix	1.0		443	26.0	male	white	2.7966573816155993	neutral	117	sub-07	2.0	1.0	117_neutral	0.0		319.9237110912554	3.758205549250306
36.0	214.19480814276358	pulse	1.0	t		26.0	male	white	2.7966573816155993	neutral	117	sub-07	2.0	1.0	117_neutral	0.0		320.60712069256897	
36.0	214.89479697423394	pulse	1.0	t		26.0	male	white	2.7966573816155993	neutral	117	sub-07	2.0	1.0	117_neutral	0.0		321.30710952403933	
36.0	215.5947767501384	pulse	1.0	t		26.0	male	white	2.7966573816155993	neutral	117	sub-07	2.0	1.0	117_neutral	0.0		322.0070892999438	
36.0	216.29473690565283	pulse	1.0	t		26.0	male	white	2.7966573816155993	neutral	117	sub-07	2.0	1.0	117_neutral	0.0		322.7070494554582	
36.0	216.99473811306143	pulse	1.0	t		26.0	male	white	2.7966573816155993	neutral	117	sub-07	2.0	1.0	117_neutral	0.0		323.4070506628668	
37.0	217.26960409070034	face	0.0		145	22.0	female	west_asian	3.8205332272184642	smiling	066	sub-07	2.0	1.0	066_smiling	0.0		323.68191664050573	1.2333006326816758
37.0	217.69472060563567	pulse	0.0	t		22.0	female	west_asian	3.8205332272184642	smiling	066	sub-07	2.0	1.0	066_smiling	0.0		324.10703315544106	
37.0	218.39467683707153	pulse	0.0	t		22.0	female	west_asian	3.8205332272184642	smiling	066	sub-07	2.0	1.0	066_smiling	0.0		324.8069893868769	
37.0	218.50290472338202	fix	1.0		444	22.0	female	west_asian	3.8205332272184642	smiling	066	sub-07	2.0	1.0	066_smiling	0.0		324.9152172731874	3.75829369008261
37.0	219.09466234816773	pulse	1.0	t		22.0	female	west_asian	3.8205332272184642	smiling	066	sub-07	2.0	1.0	066_smiling	0.0		325.5069748979731	
37.0	219.79463759629016	pulse	1.0	t		22.0	female	west_asian	3.8205332272184642	smiling	066	sub-07	2.0	1.0	066_smiling	0.0		326.20695014609555	
37.0	220.49463276665574	pulse	1.0	t		22.0	female	west_asian	3.8205332272184642	smiling	066	sub-07	2.0	1.0	066_smiling	0.0		326.90694531646113	
37.0	221.19460650551719	pulse	1.0	t		22.0	female	west_asian	3.8205332272184642	smiling	066	sub-07	2.0	1.0	066_smiling	0.0		327.6069190553226	
37.0	221.89457692400538	pulse	1.0	t		22.0	female	west_asian	3.8205332272184642	smiling	066	sub-07	2.0	1.0	066_smiling	0.0		328.30688947381077	
38.0	222.26119841346463	face	0.0		146	22.0	male	black	2.767608436132113	smiling	044	sub-07	2.0	1.0	044_smiling	0.0		328.67351096327	1.241564439400463
38.0	222.59456545362264	pulse	0.0	t		22.0	male	black	2.767608436132113	smiling	044	sub-07	2.0	1.0	044_smiling	0.0		329.006878003428	
38.0	223.29453647581522	pulse	0.0	t		22.0	male	black	2.767608436132113	smiling	044	sub-07	2.0	1.0	044_smiling	0.0		329.7068490256206	
38.0	223.5027628528651	fix	1.0		444	22.0	male	black	2.767608436132113	smiling	044	sub-07	2.0	1.0	044_smiling	0.0		329.9150754026705	3.758284332664516
38.0	223.99452681654566	pulse	1.0	t		22.0	male	black	2.767608436132113	smiling	044	sub-07	2.0	1.0	044_smiling	0.0		330.40683936635105	
38.0	224.69450689430323	pulse	1.0	t		22.0	male	black	2.767608436132113	smiling	044	sub-07	2.0	1.0	044_smiling	0.0		331.1068194441086	
38.0	225.39447701093832	pulse	1.0	t		22.0	male	black	2.767608436132113	smiling	044	sub-07	2.0	1.0	044_smiling	0.0		331.8067895607437	
38.0	226.0944724831561	pulse	1.0	t		22.0	male	black	2.767608436132113	smiling	044	sub-07	2.0	1.0	044_smiling	0.0		332.5067850329615	
38.0	226.79444712757413	pulse	1.0	t		22.0	male	black	2.767608436132113	smiling	044	sub-07	2.0	1.0	044_smiling	0.0		333.2067596773795	
39.0	227.2610471855296	face	0.0		146	19.0	female	white	4.298846000795861	neutral	100	sub-07	2.0	1.0	100_neutral	0.0		333.673359735335	1.2415568930964582
39.0	227.4944284127405	pulse	0.0	t		19.0	female	white	4.298846000795861	neutral	100	sub-07	2.0	1.0	100_neutral	0.0		333.9067409625459	
39.0	228.19439581270672	pulse	0.0	t		19.0	female	white	4.298846000795861	neutral	100	sub-07	2.0	1.0	100_neutral	0.0		334.6067083625121	
39.0	228.50260407862606	fix	1.0		444	19.0	female	white	4.298846000795861	neutral	100	sub-07	2.0	1.0	100_neutral	0.0		334.91491662843146	3.7499061239768707
39.0	228.89437558861118	pulse	1.0	t		19.0	female	white	4.298846000795861	neutral	100	sub-07	2.0	1.0	100_neutral	0.0		335.3066881384166	
39.0	229.5943505348814	pulse	1.0	t		19.0	female	white	4.298846000795861	neutral	100	sub-07	2.0	1.0	100_neutral	0.0		336.0066630846868	
39.0	230.2943369515342	pulse	1.0	t		19.0	female	white	4.298846000795861	neutral	100	sub-07	2.0	1.0	100_neutral	0.0		336.7066495013396	
39.0	230.99431129410004	pulse	1.0	t		19.0	female	white	4.298846000795861	neutral	100	sub-07	2.0	1.0	100_neutral	0.0		337.40662384390544	
39.0	231.69432125522144	pulse	1.0	t		19.0	female	white	4.298846000795861	neutral	100	sub-07	2.0	1.0	100_neutral	0.0		338.10663380502683	
40.0	232.25251020260293	fix	0.0		720													338.6648227524083	5.999820699814336
40.0	232.39428201444025	pulse	0.0	t														338.80659456424564	
40.0	233.09424398106785	pulse	0.0	t														339.50655653087324	
40.0	233.79422043659815	pulse	0.0	t														340.20653298640354	
40.0	234.49420111806012	pulse	0.0	t														340.9065136678655	
40.0	235.19417395136497	pulse	0.0	t														341.60648650117037	
40.0	235.89416670691298	pulse	0.0	t														342.3064792567184	
40.0	236.5941437661486	pulse	0.0	t														343.006456315954	
40.0	237.29413893651417	pulse	0.0	t														343.70645148631957	
40.0	237.99410965685365	pulse	0.0	t														344.40642220665904	
