trial_nr	onset	event_type	phase	response	nr_frames	trial_type	stim_name	task_probe	onset_abs	duration
0.0	0.056801487290613295	baseline	0.0		41.0		baseline	0.0	90.78871498467652	0.34968762743847037
0.0	0.40648911472908367	ISI	1.0		11.0		baseline	0.0	91.13840261211499	0.09999815869650774
1.0	0.5064872734255914	baseline	0.0		48.0		baseline	0.0	91.2384007708115	0.3999868995806537
1.0	0.7066019171888911	pulse	0.0	t			baseline	0.0	91.4385154145748	
1.0	0.9064741730062451	ISI	1.0		11.0		baseline	0.0	91.63838767039215	0.09999785684340168
2.0	1.0064720298496468	baseline	0.0		48.0		baseline	0.0	91.73838552723555	0.3999730143432316
2.0	1.4064450441928784	ISI	1.0		11.0		baseline	0.0	92.13835854157878	0.09999695128499297
2.0	1.4109151850461785	pulse	1.0	t			baseline	0.0	92.14282868243208	
3.0	1.5064419954778714	baseline	0.0		48.0		baseline	0.0	92.23835549286377	0.3999859940213355
3.0	1.9064279894992069	ISI	1.0		11.0		baseline	0.0	92.63834148688511	0.10000298834438581
4.0	2.0064309778435927	baseline	0.0		48.0		baseline	0.0	92.7383444752295	0.39998750328686583
4.0	2.1065432369687187	pulse	0.0	t			baseline	0.0	92.83845673435462	
4.0	2.4064184811304585	ISI	1.0		11.0		baseline	0.0	93.13833197851636	0.09999725313809904
5.0	2.5064157342685576	baseline	0.0		48.0		baseline	0.0	93.23832923165446	0.3999917292276223
5.0	2.8065228015220782	pulse	0.0	t			baseline	0.0	93.53843629890798	
5.0	2.90640746349618	ISI	1.0		11.0		baseline	0.0	93.63832096088208	0.0999921216371149
6.0	3.0063995851332947	baseline	0.0		48.0		baseline	0.0	93.7383130825192	0.39998840884527453
6.0	3.4063879939785693	ISI	1.0		11.0		baseline	0.0	94.13830149136447	0.0999912160787062
7.0	3.5063792100572755	baseline	0.0		47.0		baseline	0.0	94.23829270744318	0.39999474775777344
7.0	3.5105656091045603	pulse	0.0	t			baseline	0.0	94.24247910649046	
7.0	3.906373957815049	ISI	1.0		11.0		baseline	0.0	94.63828745520095	0.0999921216371149
8.0	4.006366079452164	baseline	0.0		48.0		baseline	0.0	94.73827957683807	0.3999950496108795
8.0	4.206488873246599	pulse	0.0	t			baseline	0.0	94.9384023706325	
8.0	4.406361129063043	ISI	1.0		11.0		baseline	0.0	95.13827462644895	0.09999996981514414
9.0	4.5063610988781875	baseline	0.0		48.0		baseline	0.0	95.23827459626409	0.39999082366921357
9.0	4.906351922547401	ISI	1.0		11.0		baseline	0.0	95.6382654199333	0.10000057352044678
9.0	4.910816026341308	pulse	1.0	t			baseline	0.0	95.64272952372721	
10.0	5.006352496067848	baseline	0.0		48.0		baseline	0.0	95.73826599345375	0.3999733161963377
10.0	5.4063258122641855	ISI	1.0		11.0		baseline	0.0	96.13823930965009	0.10000359205059794
11.0	5.5063294043147835	baseline	0.0		48.0		baseline	0.0	96.23824290170069	0.39998931440368324
11.0	5.606433211555668	pulse	0.0	t			baseline	0.0	96.33834670894157	
11.0	5.906318718718467	ISI	1.0		5.0		baseline	0.0	96.63823221610437	0.12500215070303966
12.0	6.031320869421506	limb	0.0		45.0	body	limb-116.jpg	0.0	96.76323436680741	0.37496389083662507
12.0	6.30640945572577	pulse	0.0	t		body	limb-116.jpg	0.0	97.03832295311167	
12.0	6.406284760258131	ISI	1.0		2.0	body	limb-116.jpg	0.0	97.13819825764404	0.11668791208558105
13.0	6.5229726723437125	limb	0.0		46.0	body	limb-65.jpg	0.0	97.25488616972962	0.38330469251650356
13.0	6.906277364860216	ISI	1.0		6.0	body	limb-65.jpg	0.0	97.63819086224612	0.11668247873149085
14.0	7.022959843591707	limb	0.0		45.0	body	limb-83.jpg	0.0	97.75487334097761	0.3833052962218062
14.0	7.013043671184278	pulse	0.0	t		body	limb-83.jpg	0.0	97.74495716857018	
14.0	7.406265139813513	ISI	1.0		6.0	body	limb-83.jpg	0.0	98.13817863719942	0.11669032691042958
15.0	7.522955466723943	limb	0.0		46.0	body	limb-75.jpg	0.0	98.25486896410985	0.38328839245423296
15.0	7.706373112626352	pulse	0.0	t		body	limb-75.jpg	0.0	98.43828661001226	
15.0	7.906243859178176	ISI	1.0		6.0	body	limb-75.jpg	0.0	98.63815735656408	0.11669455285209551
16.0	8.022938412030271	limb	0.0		46.0	body	limb-32.jpg	0.0	98.75485190941617	0.38329956101460994
16.0	8.406237973044881	ISI	1.0		7.0	body	limb-32.jpg	0.0	99.13815147043078	0.11668791208649054
16.0	8.445917151619142	pulse	1.0	t		body	limb-32.jpg	0.0	99.17783064900505	
17.0	8.522925885131372	limb	0.0		46.0	body	limb-39.jpg	0.0	99.25483938251728	0.3832663571865851
17.0	8.906192242317957	ISI	1.0		7.0	body	limb-39.jpg	0.0	99.63810573970386	0.11668821393868711
18.0	9.022880456256644	limb	0.0		46.0	body	limb-144.jpg	0.0	99.75479395364255	0.3832998628686255
18.0	9.10630416940512	pulse	0.0	t		body	limb-144.jpg	0.0	99.83821766679102	
18.0	9.40618031912527	ISI	1.0		7.0	body	limb-144.jpg	0.0	100.13809381651117	0.11668640282096021
19.0	9.52286672194623	limb	0.0		46.0	body	limb-144.jpg	1.0	100.25478021933213	0.3832799405709011
19.0	9.80628373395757	pulse	0.0	t		body	limb-144.jpg	1.0	100.53819723134347	
19.0	9.90614666251713	ISI	1.0		6.0	body	limb-144.jpg	1.0	100.63806015990303	0.11675099936019251
19.0	9.953539090414779	response	1.0	b		body	limb-144.jpg	1.0	100.68545258780068	
20.0	10.022897661877323	limb	0.0		46.0	body	limb-3.jpg	0.0	100.75481115926323	0.3832573015970411
20.0	10.406154963474364	ISI	1.0		4.0	body	limb-3.jpg	0.0	101.13806846086027	0.11667764908452227
21.0	10.522832612558886	limb	0.0		45.0	body	limb-26.jpg	0.0	101.25474610994479	0.38330680548642704
21.0	10.512712085680505	pulse	0.0	t		body	limb-26.jpg	0.0	101.24462558306641	
21.0	10.906139418045314	ISI	1.0		7.0	body	limb-26.jpg	0.0	101.63805291543122	0.11669032691042958
22.0	11.022829744955743	limb	0.0		46.0	body	limb-36.jpg	0.0	101.75474324234165	0.38329654248536826
22.0	11.20625463532997	pulse	0.0	t		body	limb-36.jpg	0.0	101.93816813271587	
22.0	11.406126287441111	ISI	1.0		3.0	body	limb-36.jpg	0.0	102.13803978482701	0.11668851579179318
23.0	11.522814803232905	limb	0.0		46.0	body	limb-128.jpg	0.0	102.25472830061881	0.38329956101460994
23.0	11.906114364247514	ISI	1.0		7.0	body	limb-128.jpg	0.0	102.63802786163342	0.11668610096876364
23.0	11.941763805472874	pulse	1.0	t		body	limb-128.jpg	0.0	102.67367730285878	
24.0	12.022800465216278	instrument	0.0		46.0	object	instrument-4.jpg	0.0	102.75471396260218	0.38330046657392813
24.0	12.406100931790206	ISI	1.0		6.0	object	instrument-4.jpg	0.0	103.13801442917611	0.11668519540853595
25.0	12.522786127198742	instrument	0.0		46.0	object	instrument-102.jpg	0.0	103.25469962458465	0.3832998628686255
25.0	12.606209236641007	pulse	0.0	t		object	instrument-102.jpg	0.0	103.33812273402691	
25.0	12.906085990067368	ISI	1.0		6.0	object	instrument-102.jpg	0.0	103.63799948745327	0.11668670467406628
26.0	13.022772694741434	instrument	0.0		46.0	object	instrument-57.jpg	0.0	103.75468619212734	0.3833016739863524
26.0	13.306191819723608	pulse	0.0	t		object	instrument-57.jpg	0.0	104.03810531710951	
26.0	13.406074368727786	ISI	1.0		6.0	object	instrument-57.jpg	0.0	104.13798786611369	0.11668640282096021
27.0	13.522760771548747	instrument	0.0		46.0	object	instrument-42.jpg	0.0	104.25467426893465	0.38329684433847433
27.0	13.906057615887221	ISI	1.0		6.0	object	instrument-42.jpg	0.0	104.63797111327312	0.11668096946687001
28.0	14.022738585354091	instrument	0.0		45.0	object	instrument-74.jpg	0.0	104.75465208274	0.3833080128988513
28.0	14.01266635495358	pulse	0.0	t		object	instrument-74.jpg	0.0	104.74457985233948	
28.0	14.406046598252942	ISI	1.0		5.0	object	instrument-74.jpg	0.0	105.13796009563885	0.11668489355633938
29.0	14.522731491809282	instrument	0.0		46.0	object	instrument-24.jpg	0.0	105.25464498919519	0.3833327648435443
29.0	14.706187774893806	pulse	0.0	t		object	instrument-24.jpg	0.0	105.43810127227971	
29.0	14.906064256652826	ISI	1.0		6.0	object	instrument-24.jpg	0.0	105.63797775403873	0.11668851579179318
30.0	15.022752772444619	instrument	0.0		46.0	object	instrument-95.jpg	0.0	105.75466626983052	0.38329865545620123
30.0	15.40605142790082	ISI	1.0		7.0	object	instrument-95.jpg	0.0	106.13796492528672	0.11668730837936891
30.0	15.44170720803777	pulse	1.0	t		object	instrument-95.jpg	0.0	106.17362070542367	
31.0	15.52273873628019	instrument	0.0		46.0	object	instrument-95.jpg	1.0	106.25465223366609	0.38329774989779253
31.0	15.906036486177982	ISI	1.0		5.0	object	instrument-95.jpg	1.0	106.63794998356389	0.11669153432194435
31.0	15.962265962061792	response	1.0	b		object	instrument-95.jpg	1.0	106.6941794594477	
32.0	16.022728020499926	instrument	0.0		46.0	object	instrument-44.jpg	0.0	106.75464151788583	0.38329563692605007
32.0	16.10614418732257	pulse	0.0	t		object	instrument-44.jpg	0.0	106.83805768470847	
32.0	16.406023657425976	ISI	1.0		4.0	object	instrument-44.jpg	0.0	107.13793715481188	0.11669093061573221
33.0	16.52271458804171	instrument	0.0		46.0	object	instrument-7.jpg	0.0	107.25462808542761	0.38329774989779253
33.0	16.806124959287445	pulse	0.0	t		object	instrument-7.jpg	0.0	107.53803845667335	
33.0	16.9060123379395	ISI	1.0		6.0	object	instrument-7.jpg	0.0	107.6379258353254	0.11667674352520407
34.0	17.022689081464705	instrument	0.0		46.0	object	instrument-137.jpg	0.0	107.75460257885061	0.38330740919263917
34.0	17.405996490657344	ISI	1.0		7.0	object	instrument-137.jpg	0.0	108.13790998804325	0.1167328881811045
35.0	17.52272937883845	instrument	0.0		45.0	object	instrument-87.jpg	0.0	108.25464287622435	0.3832515663898448
35.0	17.51373898953534	pulse	0.0	t		object	instrument-87.jpg	0.0	108.24565248692124	
35.0	17.905980945228293	ISI	1.0		11.0	object	instrument-87.jpg	0.0	108.6378944426142	0.10003921070347133
36.0	18.006020155931765	baseline	0.0		48.0		baseline	0.0	108.73793365331767	0.39997905140262446
36.0	18.20613902563673	pulse	0.0	t			baseline	0.0	108.93805252302263	
36.0	18.40599920733439	ISI	1.0		11.0		baseline	0.0	109.13791270472029	0.10000691243294568
37.0	18.506006119767335	baseline	0.0		48.0		baseline	0.0	109.23791961715324	0.3999878051399719
37.0	18.905993924907307	ISI	1.0		11.0		baseline	0.0	109.63790742229321	0.09999061237158458
37.0	18.910452595347124	pulse	1.0	t			baseline	0.0	109.64236609273303	
38.0	19.00598453727889	baseline	0.0		48.0		baseline	0.0	109.7378980346648	0.39999746443481854
38.0	19.40598200171371	ISI	1.0		11.0		baseline	0.0	110.13789549909961	0.0999957438734782
39.0	19.505977745587188	baseline	0.0		48.0		baseline	0.0	110.23789124297309	0.3999923329338344
39.0	19.606092419536253	pulse	0.0	t			baseline	0.0	110.33800591692216	
39.0	19.905970078521023	ISI	1.0		11.0		baseline	0.0	110.63788357590693	0.09999695128499297
40.0	20.005967029806015	baseline	0.0		48.0		baseline	0.0	110.73788052719192	0.3999896162576988
40.0	20.306086473032337	pulse	0.0	t			baseline	0.0	111.03799997041824	
40.0	20.405956646063714	ISI	1.0		11.0		baseline	0.0	111.13787014344962	0.10002562731824582
41.0	20.50598227338196	baseline	0.0		48.0		baseline	0.0	111.23789577076786	0.3999470549861144
41.0	20.905929328368074	ISI	1.0		11.0		baseline	0.0	111.63784282575398	0.09999996981514414
42.0	21.00592929818322	baseline	0.0		47.0		baseline	0.0	111.73784279556912	0.4000007848171663
42.0	21.010134110262698	pulse	0.0	t			baseline	0.0	111.7420476076486	
42.0	21.405930083000385	ISI	1.0		11.0		baseline	0.0	112.13784358038629	0.09999514016726607
43.0	21.50592522316765	baseline	0.0		48.0		baseline	0.0	112.23783872055355	0.39998750328595634
43.0	21.70603533913618	pulse	0.0	t			baseline	0.0	112.43794883652208	
43.0	21.905912726453607	ISI	1.0		11.0		baseline	0.0	112.63782622383951	0.0999984605505233
44.0	22.00591118700413	baseline	0.0		48.0		baseline	0.0	112.73782468439003	0.3999923329338344
44.0	22.405903519937965	ISI	1.0		11.0		baseline	0.0	113.13781701732387	0.09997250119340606
44.0	22.410394790500504	pulse	1.0	t			baseline	0.0	113.14230828788641	
45.0	22.50587602113137	baseline	0.0		48.0		baseline	0.0	113.23778951851727	0.3999896162567893
45.0	22.90586563738816	ISI	1.0		11.0		baseline	0.0	113.63777913477406	0.10001144022862718
46.0	23.005877077616788	baseline	0.0		48.0		baseline	0.0	113.73779057500269	0.4000007848171663
46.0	23.10599054415343	pulse	0.0	t			baseline	0.0	113.83790404153933	
46.0	23.405877862433954	ISI	1.0		11.0		baseline	0.0	114.13779135981986	0.10000781799226388
47.0	23.505885680426218	baseline	0.0		48.0		baseline	0.0	114.23779917781212	0.39997090137239866
47.0	23.805981880972467	pulse	0.0	t			baseline	0.0	114.53789537835837	
47.0	23.905856581798616	ISI	1.0		5.0		baseline	0.0	114.63777007918452	0.1166565193752831
48.0	24.0225131011739	number	0.0		46.0	character	number-43.jpg	0.0	114.7544265985598	0.38329654248536826
48.0	24.405809643659268	ISI	1.0		6.0	character	number-43.jpg	0.0	115.13772314104517	0.11668157317399164
49.0	24.52249121683326	number	0.0		45.0	character	number-20.jpg	0.0	115.25440471421916	0.38330408880938194
49.0	24.512506523798038	pulse	0.0	t		character	number-20.jpg	0.0	115.24442002118394	
49.0	24.90579530564264	ISI	1.0		6.0	character	number-20.jpg	0.0	115.63770880302854	0.11669425099898945
50.0	25.02248955664163	number	0.0		46.0	character	number-86.jpg	0.0	115.75440305402753	0.3832926183968084
50.0	25.20591655998669	pulse	0.0	t		character	number-86.jpg	0.0	115.9378300573726	
50.0	25.40578217503844	ISI	1.0		7.0	character	number-86.jpg	0.0	116.13769567242434	0.116671913877326
51.0	25.522454088915765	number	0.0		46.0	character	number-85.jpg	0.0	116.25436758630167	0.38331495551756234
51.0	25.905769044433328	ISI	1.0		6.0	character	number-85.jpg	0.0	116.63768254181923	0.11669455285118602
51.0	25.952044314432896	pulse	1.0	t		character	number-85.jpg	0.0	116.6839578118188	
52.0	26.022463597284514	number	0.0		46.0	character	number-61.jpg	0.0	116.75437709467042	0.38329412766142923
52.0	26.405757724945943	ISI	1.0		6.0	character	number-61.jpg	0.0	117.13767122233185	0.11668821393959661
53.0	26.52244593888554	number	0.0		46.0	character	number-7.jpg	0.0	117.25435943627144	0.3832962406322622
53.0	26.605862709414396	pulse	0.0	t		character	number-7.jpg	0.0	117.3377762068003	
53.0	26.9057421795178	ISI	1.0		6.0	character	number-7.jpg	0.0	117.6376556769037	0.11668972320330795
54.0	27.02243190272111	number	0.0		46.0	character	number-131.jpg	0.0	117.75434540010701	0.3832953350738535
54.0	27.305842877673058	pulse	0.0	t		character	number-131.jpg	0.0	118.03775637505896	
54.0	27.405727237794963	ISI	1.0		6.0	character	number-131.jpg	0.0	118.13764073518087	0.11669123246883828
55.0	27.5224184702638	number	0.0		46.0	character	number-57.jpg	0.0	118.2543319676497	0.38329774989688303
55.0	27.905716220160684	ISI	1.0		6.0	character	number-57.jpg	0.0	118.63762971754659	0.11668821393868711
56.0	28.02240443409937	number	0.0		45.0	character	number-125.jpg	0.0	118.75431793148528	0.38330016472173156
56.0	28.01242366515362	pulse	0.0	t		character	number-125.jpg	0.0	118.74433716253952	
56.0	28.405704598821103	ISI	1.0		6.0	character	number-125.jpg	0.0	119.137618096207	0.11669123246883828
57.0	28.52239583128994	number	0.0		46.0	character	number-104.jpg	0.0	119.25430932867584	0.3832832609541583
57.0	28.70581045866311	pulse	0.0	t		character	number-104.jpg	0.0	119.43772395604901	
57.0	28.9056790922441	ISI	1.0		7.0	character	number-104.jpg	0.0	119.63759258963	0.1167220214729241
58.0	29.022401113717024	number	0.0		46.0	character	number-102.jpg	0.0	119.75431461110293	0.3832760164823412
58.0	29.405677130199365	ISI	1.0		6.0	character	number-102.jpg	0.0	120.13759062758527	0.11668489355633938
58.0	29.45352414869194	pulse	1.0	t		character	number-102.jpg	0.0	120.18543764607784	
59.0	29.522362023755704	number	0.0		46.0	character	number-47.jpg	0.0	120.25427552114161	0.38328748689582426
59.0	29.90564951065153	ISI	1.0		3.0	character	number-47.jpg	0.0	120.63756300803743	0.11670270288141182
60.0	30.02235221353294	child	0.0		46.0	face	child-131.jpg	0.0	120.75426571091884	0.38326575348128245
60.0	30.105710424583776	pulse	0.0	t		face	child-131.jpg	0.0	120.83762392196968	
60.0	30.405617967014223	ISI	1.0		6.0	face	child-131.jpg	0.0	121.13753146440013	0.11668398799702118
61.0	30.522301955011244	child	0.0		46.0	face	child-8.jpg	0.0	121.25421545239715	0.38330197583945846
61.0	30.805733154113113	pulse	0.0	t		face	child-8.jpg	0.0	121.53764665149902	
61.0	30.905603930850702	ISI	1.0		6.0	face	child-8.jpg	0.0	121.6375174282366	0.11668791208558105
62.0	31.022291842936284	child	0.0		46.0	face	child-7.jpg	0.0	121.75420534032219	0.38328567577809736
62.0	31.40557751871438	ISI	1.0		7.0	face	child-7.jpg	0.0	122.13749101610028	0.11669183617505041
63.0	31.52226935488943	child	0.0		45.0	face	child-139.jpg	0.0	122.25418285227533	0.3833083147510479
63.0	31.512426230903657	pulse	0.0	t		face	child-139.jpg	0.0	122.24433972828956	
63.0	31.90557766964048	ISI	1.0		6.0	face	child-139.jpg	0.0	122.63749116702638	0.11668489355633938
64.0	32.02226256319682	child	0.0		46.0	face	child-20.jpg	0.0	122.75417606058272	0.3833034851040793
64.0	32.20568534060021	pulse	0.0	t		face	child-20.jpg	0.0	122.93759883798612	
64.0	32.4055660483009	ISI	1.0		6.0	face	child-20.jpg	0.0	123.1374795456868	0.1166737249959624
65.0	32.52223977329686	child	0.0		46.0	face	child-40.jpg	0.0	123.25415327068276	0.38330952216347214
65.0	32.90554929546033	ISI	1.0		6.0	face	child-40.jpg	0.0	123.63746279284624	0.1166710083189173
65.0	32.94822134637889	pulse	1.0	t		face	child-40.jpg	0.0	123.68013484376479	
66.0	33.02222030377925	child	0.0		46.0	face	child-4.jpg	0.0	123.75413380116515	0.3833161629290771
66.0	33.40553646670833	ISI	1.0		7.0	face	child-4.jpg	0.0	124.13744996409423	0.11669274173345912
67.0	33.522229208441786	child	0.0		46.0	face	child-12.jpg	0.0	124.25414270582769	0.38329412766142923
67.0	33.60573261077752	pulse	0.0	t		face	child-12.jpg	0.0	124.33764610816343	
67.0	33.905523336103215	ISI	1.0		7.0	face	child-12.jpg	0.0	124.63743683348912	0.1166728194366442
68.0	34.02219615553986	child	0.0		46.0	face	child-2.jpg	0.0	124.75410965292576	0.38331284254672937
68.0	34.30566448255922	pulse	0.0	t		face	child-2.jpg	0.0	125.03757797994513	
68.0	34.40550899808659	ISI	1.0		7.0	face	child-2.jpg	0.0	125.13742249547249	0.11668157317308214
69.0	34.52219057125967	child	0.0		46.0	face	child-65.jpg	0.0	125.25410406864557	0.38330499436960963
69.0	34.90549556562928	ISI	1.0		5.0	face	child-65.jpg	0.0	125.63740906301518	0.11668821393868711
70.0	35.02218377956797	child	0.0		45.0	face	child-144.jpg	0.0	125.75409727695387	0.3833016739863524
70.0	35.01224225150963	pulse	0.0	t		face	child-144.jpg	0.0	125.74415574889554	
70.0	35.40548545355432	ISI	1.0		7.0	face	child-144.jpg	0.0	126.13739895094022	0.11668247873149085
71.0	35.52216793228581	child	0.0		46.0	face	child-111.jpg	0.0	126.25408142967171	0.3833007684270342
71.0	35.70560368936822	pulse	0.0	t		face	child-111.jpg	0.0	126.43751718675412	
71.0	35.905468700712845	ISI	1.0		5.0	face	child-111.jpg	0.0	126.63738219809875	0.11668911949800531
72.0	36.02215782021085	number	0.0		46.0	character	number-140.jpg	0.0	126.75407131759675	0.3833324629904382
72.0	36.40549028320129	ISI	1.0		6.0	character	number-140.jpg	0.0	127.13740378058719	0.11668610096876364
72.0	36.45100186514992	pulse	1.0	t		character	number-140.jpg	0.0	127.18291536253582	
73.0	36.52217638417005	number	0.0		46.0	character	number-124.jpg	0.0	127.25408988155596	0.38330046657392813
73.0	36.90547685074398	ISI	1.0		7.0	character	number-124.jpg	0.0	127.63739034812988	0.11668670467406628
74.0	37.02216355541805	number	0.0		46.0	character	number-22.jpg	0.0	127.75407705280395	0.38329684433847433
74.0	37.105666052194465	pulse	0.0	t		character	number-22.jpg	0.0	127.83757954958037	
74.0	37.40546039975652	ISI	1.0		7.0	character	number-22.jpg	0.0	128.13737389714242	0.11669032690952008
75.0	37.52215072666604	number	0.0		46.0	character	number-14.jpg	0.0	128.25406422405194	0.3832853739249913
75.0	37.80556472014814	pulse	0.0	t		character	number-14.jpg	0.0	128.53747821753404	
75.0	37.90543610059103	ISI	1.0		4.0	character	number-14.jpg	0.0	128.63734959797694	0.11670119361679099
76.0	38.02213729420782	number	0.0		46.0	character	number-1.jpg	0.0	128.75405079159373	0.38331193698832067
76.0	38.405449231196144	ISI	1.0		7.0	character	number-1.jpg	0.0	129.13736272858205	0.11667402684815897
77.0	38.5221232580443	number	0.0		45.0	character	number-129.jpg	0.0	129.2540367554302	0.3832944295145353
77.0	38.51207909997083	pulse	0.0	t		character	number-129.jpg	0.0	129.24399259735674	
77.0	38.90541768755884	ISI	1.0		7.0	character	number-129.jpg	0.0	129.63733118494474	0.11669002505641402
78.0	39.02210771261525	number	0.0		46.0	character	number-17.jpg	0.0	129.75402121000116	0.38330197583945846
78.0	39.20553230113728	pulse	0.0	t		character	number-17.jpg	0.0	129.93744579852319	
78.0	39.40540968845471	ISI	1.0		6.0	character	number-17.jpg	0.0	130.13732318584061	0.11668911949800531
79.0	39.522098807952716	number	0.0		46.0	character	number-114.jpg	0.0	130.25401230533862	0.3832899017197633
79.0	39.90538870967248	ISI	1.0		6.0	character	number-114.jpg	0.0	130.63730220705838	0.11669515655739815
79.0	39.95024708176061	pulse	1.0	t		character	number-114.jpg	0.0	130.6821605791465	
80.0	40.02208386622988	number	0.0		46.0	character	number-98.jpg	0.0	130.75399736361578	0.38331223884051724
80.0	40.405396105070395	ISI	1.0		5.0	character	number-98.jpg	0.0	131.1373096024563	0.116671913877326
81.0	40.52206801894772	number	0.0		46.0	character	number-89.jpg	0.0	131.25398151633362	0.3832971461915804
81.0	40.60550108953885	pulse	0.0	t		character	number-89.jpg	0.0	131.33741458692475	
81.0	40.9053651651393	ISI	1.0		6.0	character	number-89.jpg	0.0	131.6372786625252	0.11668911949800531
82.0	41.022054284637306	number	0.0		46.0	character	number-137.jpg	0.0	131.7539677820232	0.38329684433847433
82.0	41.30547129664865	pulse	0.0	t		character	number-137.jpg	0.0	132.03738479403455	
82.0	41.40535112897578	ISI	1.0		6.0	character	number-137.jpg	0.0	132.13726462636168	0.11669062876262615
83.0	41.52204175773841	number	0.0		46.0	character	number-21.jpg	0.0	132.2539552551243	0.3832808461302193
83.0	41.905322603868626	ISI	1.0		7.0	character	number-21.jpg	0.0	132.63723610125453	0.11670602326466906
84.0	42.022028627133295	number	0.0		45.0	character	number-105.jpg	0.0	132.7539421245192	0.3832980517508986
84.0	42.01206627121974	pulse	0.0	t		character	number-105.jpg	0.0	132.74397976860564	
84.0	42.405326678884194	ISI	1.0		2.0	character	number-105.jpg	0.0	133.1372401762701	0.11668761023247498
85.0	42.52201428911667	number	0.0		46.0	character	number-53.jpg	0.0	133.25392778650257	0.3832998628686255
85.0	42.70544008505021	pulse	0.0	t		character	number-53.jpg	0.0	133.43735358243612	
85.0	42.905314151985294	ISI	1.0		6.0	character	number-53.jpg	0.0	133.6372276493712	0.11668730837936891
86.0	43.02200146036466	number	0.0		46.0	character	number-49.jpg	0.0	133.75391495775057	0.38329774989779253
86.0	43.405299210262456	ISI	1.0		5.0	character	number-49.jpg	0.0	134.13721270764836	0.11668730837936891
86.0	43.45413389172154	pulse	1.0	t		character	number-49.jpg	0.0	134.18604738910744	
87.0	43.521986518641825	number	0.0		46.0	character	number-8.jpg	0.0	134.25390001602773	0.3832889961613546
87.0	43.90527551480318	ISI	1.0		3.0	character	number-8.jpg	0.0	134.63718901218908	0.11670089176368492
88.0	44.021976406566864	number	0.0		46.0	character	number-29.jpg	0.0	134.75388990395277	0.38329744804468646
88.0	44.10539800674451	pulse	0.0	t		character	number-29.jpg	0.0	134.8373115041304	
88.0	44.40527385461155	ISI	1.0		7.0	character	number-29.jpg	0.0	135.13718735199745	0.11668791208558105
89.0	44.52196176669713	number	0.0		46.0	character	number-39.jpg	0.0	135.25387526408304	0.3832980517508986
89.0	44.80536821385431	pulse	0.0	t		character	number-39.jpg	0.0	135.5372817112402	
89.0	44.90525981844803	ISI	1.0		7.0	character	number-39.jpg	0.0	135.63717331583393	0.11669002505641402
90.0	45.021949843504444	number	0.0		46.0	character	number-106.jpg	0.0	135.75386334089035	0.3832868831896121
90.0	45.405236726694056	ISI	1.0		6.0	character	number-106.jpg	0.0	136.13715022407996	0.11669304358656518
91.0	45.52192977028062	number	0.0		45.0	character	number-38.jpg	0.0	136.25384326766653	0.38330318325097323
91.0	45.51240872343078	pulse	0.0	t		character	number-38.jpg	0.0	136.24432222081668	
91.0	45.905232953531595	ISI	1.0		7.0	character	number-38.jpg	0.0	136.6371464509175	0.11668821393959661
92.0	46.02192116747119	number	0.0		46.0	character	number-38.jpg	1.0	136.7538346648571	0.3832669608927972
92.0	46.2053074206633	pulse	0.0	t		character	number-38.jpg	1.0	136.9372209180492	
92.0	46.40518812836399	ISI	1.0		7.0	character	number-38.jpg	1.0	137.1371016257499	0.11668610096785414
93.0	46.52187422933184	number	0.0		46.0	character	number-64.jpg	0.0	137.25378772671775	0.38330046657392813
93.0	46.6636322392269	response	0.0	b		character	number-64.jpg	0.0	137.3955457366128	
93.0	46.90517469590577	ISI	1.0		7.0	character	number-64.jpg	0.0	137.63708819329167	0.11668730838027841
93.0	46.941248542427275	pulse	1.0	t		character	number-64.jpg	0.0	137.67316203981318	
94.0	47.02186200428605	number	0.0		46.0	character	number-31.jpg	0.0	137.75377550167195	0.38330046657392813
94.0	47.40516247085998	ISI	1.0		7.0	character	number-31.jpg	0.0	138.13707596824588	0.11668640282096021
95.0	47.52184887368094	number	0.0		46.0	character	number-108.jpg	0.0	138.25376237106684	0.3832642442157521
95.0	47.6052716812701	pulse	0.0	t		character	number-108.jpg	0.0	138.337185178656	
95.0	47.90511311789669	ISI	1.0		11.0	character	number-108.jpg	0.0	138.6370266152826	0.10003407920248719
96.0	48.00514719709918	baseline	0.0		48.0		baseline	0.0	138.73706069448508	0.39997452360785246
96.0	48.30524852914641	pulse	0.0	t			baseline	0.0	139.03716202653231	
96.0	48.40512172070703	ISI	1.0		11.0		baseline	0.0	139.13703521809293	0.10001053466930898
97.0	48.50513225537634	baseline	0.0		48.0		baseline	0.0	139.23704575276224	0.39998991810989537
97.0	48.905122173486234	ISI	1.0		11.0		baseline	0.0	139.63703567087214	0.10002109952438332
98.0	49.00514327301062	baseline	0.0		47.0		baseline	0.0	139.73705677039652	0.3999630531943694
98.0	49.00949146525818	pulse	0.0	t			baseline	0.0	139.74140496264408	
98.0	49.40510632620499	ISI	1.0		11.0		baseline	0.0	140.1370198235909	0.09999815869650774
99.0	49.505104484901494	baseline	0.0		48.0		baseline	0.0	140.2370179822874	0.39999082366921357
99.0	49.70521641198866	pulse	0.0	t			baseline	0.0	140.43712990937456	
99.0	49.90509530857071	ISI	1.0		11.0		baseline	0.0	140.6370088059566	0.09999936610893201
100.0	50.00509467467964	baseline	0.0		48.0		baseline	0.0	140.73700817206554	0.39998388105050253
100.0	50.40507855573014	ISI	1.0		11.0		baseline	0.0	141.13699205311605	0.10000238463908317
100.0	50.4096458932454	pulse	1.0	t			baseline	0.0	141.1415593906313	
101.0	50.505080940369226	baseline	0.0		48.0		baseline	0.0	141.23699443775513	0.39999021996300144
101.0	50.90507116033223	ISI	1.0		11.0		baseline	0.0	141.63698465771813	0.09999242349022097
102.0	51.00506358382245	baseline	0.0		48.0		baseline	0.0	141.73697708120835	0.3999950496108795
102.0	51.10517795591841	pulse	0.0	t			baseline	0.0	141.8370914533043	
102.0	51.40505863343333	ISI	1.0		11.0		baseline	0.0	142.13697213081923	0.09999664943188691
103.0	51.505055282865214	baseline	0.0		48.0		baseline	0.0	142.23696878025112	0.3999859940213355
103.0	51.805168689031234	pulse	0.0	t			baseline	0.0	142.53708218641714	
103.0	51.90504127688655	ISI	1.0		11.0		baseline	0.0	142.63695477427245	0.09999544202037214
104.0	52.00503671890692	baseline	0.0		48.0		baseline	0.0	142.73695021629283	0.40005632576685457
104.0	52.40509304467378	ISI	1.0		11.0		baseline	0.0	143.13700654205968	0.10000419575590058
105.0	52.50509724042968	baseline	0.0		47.0		baseline	0.0	143.23701073781558	0.39998629587444157
105.0	52.509377817608765	pulse	0.0	t			baseline	0.0	143.24129131499467	
105.0	52.90508353630412	ISI	1.0		11.0		baseline	0.0	143.63699703369002	0.09999695128499297
106.0	53.00508048758911	baseline	0.0		48.0		baseline	0.0	143.73699398497502	0.3999887106983806
106.0	53.205193320234685	pulse	0.0	t			baseline	0.0	143.9371068176206	
106.0	53.40506919828749	ISI	1.0		11.0		baseline	0.0	144.1369826956734	0.0999830660475709
107.0	53.50505226433506	baseline	0.0		48.0		baseline	0.0	144.23696576172097	0.4000062181712565
107.0	53.90505848250632	ISI	1.0		6.0		baseline	0.0	144.63697197989222	0.11665591566998046
107.0	53.94784403014819	pulse	1.0	t			baseline	0.0	144.6797575275341	
108.0	54.0217143981763	limb	0.0		46.0	body	limb-52.jpg	0.0	144.7536278955622	0.3832579053032532
108.0	54.40497230347955	ISI	1.0		8.0	body	limb-52.jpg	0.0	145.13688580086546	0.11667221573043207
109.0	54.521644519209985	limb	0.0		46.0	body	limb-52.jpg	1.0	145.2535580165959	0.38331374810604757
109.0	54.60508091018346	pulse	0.0	t		body	limb-52.jpg	1.0	145.33699440756936	
109.0	54.90495826731603	ISI	1.0		5.0	body	limb-52.jpg	1.0	145.63687176470194	0.11670300473451789
109.0	54.988394054583296	response	1.0	b		body	limb-52.jpg	1.0	145.7203075519692	
110.0	55.02166127205055	limb	0.0		46.0	body	limb-48.jpg	0.0	145.75357476943645	0.3832868831905216
110.0	55.30507617109197	pulse	0.0	t		body	limb-48.jpg	0.0	146.03698966847787	
110.0	55.40494815524107	ISI	1.0		5.0	body	limb-48.jpg	0.0	146.13686165262698	0.11668489355542988
111.0	55.5216330487965	limb	0.0		46.0	body	limb-112.jpg	0.0	146.2535465461824	0.3832886943082485
111.0	55.90492174310475	ISI	1.0		7.0	body	limb-112.jpg	0.0	146.63683524049065	0.11669153432194435
112.0	56.021613277426695	limb	0.0		45.0	body	limb-119.jpg	0.0	146.7535267748126	0.38330197583854897
112.0	56.01362443632752	pulse	0.0	t		body	limb-119.jpg	0.0	146.74553793371342	
112.0	56.404915253265244	ISI	1.0		6.0	body	limb-119.jpg	0.0	147.13682875065115	0.11669364729277731
113.0	56.52160890055802	limb	0.0		46.0	body	limb-33.jpg	0.0	147.25352239794393	0.3832908072790815
113.0	56.7050117556646	pulse	0.0	t		body	limb-33.jpg	0.0	147.4369252530505	
113.0	56.9048997078371	ISI	1.0		7.0	body	limb-33.jpg	0.0	147.636813205223	0.11669183617414092
114.0	57.021591544011244	limb	0.0		46.0	body	limb-4.jpg	0.0	147.75350504139715	0.3832862794843095
114.0	57.40487782349555	ISI	1.0		7.0	body	limb-4.jpg	0.0	148.13679132088146	0.11673771782807307
114.0	57.43980251570338	pulse	1.0	t		body	limb-4.jpg	0.0	148.17171601308928	
115.0	57.52161554132363	limb	0.0		46.0	body	limb-114.jpg	0.0	148.25352903870953	0.3832600182740862
115.0	57.90487555959771	ISI	1.0		5.0	body	limb-114.jpg	0.0	148.63678905698362	0.11669002505732351
116.0	58.021565584655036	limb	0.0		46.0	body	limb-61.jpg	0.0	148.75347908204094	0.38329774989688303
116.0	58.104986882978665	pulse	0.0	t		body	limb-61.jpg	0.0	148.83690038036457	
116.0	58.40486333455192	ISI	1.0		6.0	body	limb-61.jpg	0.0	149.13677683193782	0.11669123246883828
117.0	58.52155456702076	limb	0.0		46.0	body	limb-103.jpg	0.0	149.25346806440666	0.38329865545620123
117.0	58.80496856050286	pulse	0.0	t		body	limb-103.jpg	0.0	149.53688205788876	
117.0	58.90485322247696	ISI	1.0		7.0	body	limb-103.jpg	0.0	149.63676671986286	0.11668338429080904
118.0	59.02153660676777	limb	0.0		46.0	body	limb-85.jpg	0.0	149.75345010415367	0.38330046657483763
118.0	59.404837073342605	ISI	1.0		6.0	body	limb-85.jpg	0.0	150.1367505707285	0.11668096946687001
119.0	59.521518042809475	limb	0.0		45.0	body	limb-78.jpg	0.0	150.25343154019538	0.3833052962218062
119.0	59.51345011622834	pulse	0.0	t		body	limb-78.jpg	0.0	150.24536361361424	
119.0	59.90482333903128	ISI	1.0		3.0	body	limb-78.jpg	0.0	150.63673683641719	0.11668730838027841
120.0	60.02151064741156	corridor	0.0		46.0	place	corridor-13.jpg	0.0	150.75342414479746	0.3833282370487723
120.0	60.20496813790851	pulse	0.0	t		place	corridor-13.jpg	0.0	150.9368816352944	
120.0	60.40483888446033	ISI	1.0		4.0	place	corridor-13.jpg	0.0	151.13675238184624	0.11669545841050422
121.0	60.52153434287084	corridor	0.0		46.0	place	corridor-106.jpg	0.0	151.25344784025674	0.38328839245423296
121.0	60.90482273532507	ISI	1.0		6.0	place	corridor-106.jpg	0.0	151.63673623271097	0.11669998620618571
121.0	60.95183241363793	pulse	1.0	t		place	corridor-106.jpg	0.0	151.68374591102383	
122.0	61.021522721531255	corridor	0.0		46.0	place	corridor-50.jpg	0.0	151.75343621891716	0.38329292024900496
122.0	61.40481564178026	ISI	1.0		7.0	place	corridor-50.jpg	0.0	152.13672913916616	0.11668911949800531
123.0	61.521504761278266	corridor	0.0		46.0	place	corridor-50.jpg	1.0	152.25341825866417	0.3832989573093073
123.0	61.604923644777955	pulse	0.0	t		place	corridor-50.jpg	1.0	152.33683714216386	
123.0	61.90480371858757	ISI	1.0		6.0	place	corridor-50.jpg	1.0	152.63671721597348	0.11668881764489925
124.0	62.02149253623247	corridor	0.0		46.0	place	corridor-63.jpg	0.0	152.75340603361838	0.38329835360309517
124.0	62.0299374771912	response	0.0	b		place	corridor-63.jpg	0.0	152.7618509745771	
124.0	62.30489234262404	pulse	0.0	t		place	corridor-63.jpg	0.0	153.03680584000995	
124.0	62.40479088983557	ISI	1.0		4.0	place	corridor-63.jpg	0.0	153.13670438722147	0.11668821393868711
125.0	62.521479103774254	corridor	0.0		46.0	place	corridor-89.jpg	0.0	153.25339260116016	0.38329835360309517
125.0	62.90477745737735	ISI	1.0		3.0	place	corridor-89.jpg	0.0	153.63669095476325	0.11666768793656956
126.0	63.02144514531392	corridor	0.0		45.0	place	corridor-37.jpg	0.0	153.75335864269982	0.3833164647821832
126.0	63.01149607093066	pulse	0.0	t		place	corridor-37.jpg	0.0	153.74340956831657	
126.0	63.4047616100961	ISI	1.0		6.0	place	corridor-37.jpg	0.0	154.136675107482	0.11668972320421744
127.0	63.52145133330032	corridor	0.0		46.0	place	corridor-127.jpg	0.0	154.25336483068622	0.38329744804377697
127.0	63.70487109217356	pulse	0.0	t		place	corridor-127.jpg	0.0	154.43678458955947	
127.0	63.9047487813441	ISI	1.0		7.0	place	corridor-127.jpg	0.0	154.63666227873	0.11669425099898945
128.0	64.02144303234309	corridor	0.0		46.0	place	corridor-58.jpg	0.0	154.753356529729	0.38329292024900496
128.0	64.40473595259209	ISI	1.0		6.0	place	corridor-58.jpg	0.0	155.136649449978	0.11669243988126254
128.0	64.45218392143852	pulse	1.0	t		place	corridor-58.jpg	0.0	155.18409741882442	
129.0	64.52142839247335	corridor	0.0		46.0	place	corridor-1.jpg	0.0	155.25334188985926	0.38329412766142923
129.0	64.90472252013478	ISI	1.0		7.0	place	corridor-1.jpg	0.0	155.6366360175207	0.11668881764489925
130.0	65.02141133777968	corridor	0.0		46.0	place	corridor-42.jpg	0.0	155.75332483516559	0.3832980517499891
130.0	65.10484501207611	pulse	0.0	t		place	corridor-42.jpg	0.0	155.83675850946202	
130.0	65.40470938952967	ISI	1.0		7.0	place	corridor-42.jpg	0.0	156.13662288691557	0.11668972320421744
131.0	65.52139911273389	corridor	0.0		46.0	place	corridor-98.jpg	0.0	156.2533126101198	0.383299862867716
131.0	65.80481069139114	pulse	0.0	t		place	corridor-98.jpg	0.0	156.53672418877704	
131.0	65.9046989756016	ISI	1.0		6.0	place	corridor-98.jpg	0.0	156.6366124729875	0.11666798978876614
132.0	66.02136696539037	number	0.0		46.0	character	number-10.jpg	0.0	156.75328046277627	0.3833173703415014
132.0	66.40468433573187	ISI	1.0		7.0	character	number-10.jpg	0.0	157.13659783311778	0.11668217687929427
133.0	66.52136651261117	number	0.0		45.0	character	number-115.jpg	0.0	157.25328000999707	0.38330227769165504
133.0	66.51137366954572	pulse	0.0	t		character	number-115.jpg	0.0	157.24328716693162	
133.0	66.90466879030282	ISI	1.0		4.0	character	number-115.jpg	0.0	157.63658228768873	0.11669093061573221
134.0	67.02135972091855	number	0.0		46.0	character	number-74.jpg	0.0	157.75327321830446	0.38329473136764136
134.0	67.20477857423339	pulse	0.0	t		character	number-74.jpg	0.0	157.9366920716193	
134.0	67.4046544522862	ISI	1.0		6.0	character	number-74.jpg	0.0	158.1365679496721	0.11668972320421744
135.0	67.52134417549041	number	0.0		46.0	character	number-138.jpg	0.0	158.25325767287632	0.38329835360309517
135.0	67.90464252909351	ISI	1.0		7.0	character	number-138.jpg	0.0	158.6365560264794	0.11666949905338697
135.0	67.94237717073793	pulse	1.0	t		character	number-138.jpg	0.0	158.67429066812383	
136.0	68.0213120281469	number	0.0		46.0	character	number-76.jpg	0.0	158.7532255255328	0.38330861660506343
136.0	68.40462064475196	ISI	1.0		7.0	character	number-76.jpg	0.0	159.13653414213786	0.11669183617505041
137.0	68.52131248092701	number	0.0		46.0	character	number-109.jpg	0.0	159.2532259783129	0.38330137213324633
137.0	68.604737401487	pulse	0.0	t		character	number-109.jpg	0.0	159.3366508988729	
137.0	68.90461385306025	ISI	1.0		7.0	character	number-109.jpg	0.0	159.63652735044616	0.11669032690952008
138.0	69.02130417996977	number	0.0		46.0	character	number-109.jpg	1.0	159.75321767735568	0.38329774989688303
138.0	69.30471636233324	pulse	0.0	t		character	number-109.jpg	1.0	160.03662985971914	
138.0	69.40460192986666	ISI	1.0		7.0	character	number-109.jpg	1.0	160.13651542725256	0.11669002505732351
138.0	69.44280112325578	response	1.0	b		character	number-109.jpg	1.0	160.17471462064168	
139.0	69.52129195492398	number	0.0		46.0	character	number-103.jpg	0.0	160.25320545230989	0.38327571462923515
139.0	69.90456766955322	ISI	1.0		5.0	character	number-103.jpg	0.0	160.63648116693912	0.11670300473542738
140.0	70.02127067428864	number	0.0		45.0	character	number-123.jpg	0.0	160.75318417167455	0.38330499436870014
140.0	70.01123738292245	pulse	0.0	t		character	number-123.jpg	0.0	160.74315088030835	
140.0	70.40457566865734	ISI	1.0		6.0	character	number-123.jpg	0.0	161.13648916604325	0.11670904179482022
141.0	70.52128471045216	number	0.0		46.0	character	number-41.jpg	0.0	161.25319820783807	0.38327662018855335
141.0	70.7046842451764	pulse	0.0	t		character	number-41.jpg	0.0	161.4365977425623	
141.0	70.90456133064072	ISI	1.0		5.0	character	number-41.jpg	0.0	161.63647482802662	0.11668851579179318
142.0	71.02124984643251	number	0.0		46.0	character	number-72.jpg	0.0	161.75316334381841	0.38329865545620123
142.0	71.40454850188871	ISI	1.0		6.0	character	number-72.jpg	0.0	162.13646199927462	0.11668881764489925
142.0	71.45104412456749	pulse	1.0	t		character	number-72.jpg	0.0	162.1829576219534	
143.0	71.52123731953361	number	0.0		46.0	character	number-65.jpg	0.0	162.25315081691951	0.38329412766142923
143.0	71.90453144719504	ISI	1.0		4.0	character	number-65.jpg	0.0	162.63644494458094	0.11669153432194435
144.0	72.02122298151698	instrument	0.0		46.0	object	instrument-55.jpg	0.0	162.7531364789029	0.38329865545620123
144.0	72.10464699651766	pulse	0.0	t		object	instrument-55.jpg	0.0	162.83656049390356	
144.0	72.40452163697319	ISI	1.0		7.0	object	instrument-55.jpg	0.0	163.1364351343591	0.11668791208558105
145.0	72.52120954905877	instrument	0.0		46.0	object	instrument-55.jpg	1.0	163.25312304644467	0.3832950332207474
145.0	72.80462444809928	pulse	0.0	t		object	instrument-55.jpg	1.0	163.53653794548518	
145.0	72.90450458227951	ISI	1.0		3.0	object	instrument-55.jpg	1.0	163.63641807966542	0.11667493240747717
146.0	73.02117951468699	instrument	0.0		46.0	object	instrument-21.jpg	0.0	163.7530930120729	0.38330922031036607
146.0	73.03795016467575	response	0.0	b		object	instrument-21.jpg	0.0	163.76986366206165	
146.0	73.40448873499736	ISI	1.0		6.0	object	instrument-21.jpg	0.0	164.13640223238326	0.11668670467406628
147.0	73.52117543967142	instrument	0.0		45.0	object	instrument-117.jpg	0.0	164.25308893705733	0.38329925916241336
147.0	73.51122576158286	pulse	0.0	t		object	instrument-117.jpg	0.0	164.24313925896877	
147.0	73.90447469883384	ISI	1.0		5.0	object	instrument-117.jpg	0.0	164.63638819621974	0.11668308243861247
148.0	74.02115778127245	instrument	0.0		46.0	object	instrument-115.jpg	0.0	164.75307127865835	0.383324614812409
148.0	74.20458750129455	pulse	0.0	t		object	instrument-115.jpg	0.0	164.93650099868046	
148.0	74.40448239608486	ISI	1.0		7.0	object	instrument-115.jpg	0.0	165.13639589347076	0.11667402684906847
149.0	74.52115642293393	instrument	0.0		46.0	object	instrument-60.jpg	0.0	165.25306992031983	0.38329412766142923
149.0	74.90445055059536	ISI	1.0		6.0	object	instrument-60.jpg	0.0	165.63636404798126	0.11669213802724698
149.0	74.95053836989155	pulse	1.0	t		object	instrument-60.jpg	0.0	165.68245186727745	
150.0	75.0211426886226	instrument	0.0		46.0	object	instrument-114.jpg	0.0	165.7530561860085	0.3832971461915804
150.0	75.40443983481418	ISI	1.0		7.0	object	instrument-114.jpg	0.0	166.1363533322001	0.11668821393868711
151.0	75.52112804875287	instrument	0.0		46.0	object	instrument-59.jpg	0.0	166.25304154613877	0.38329563692695956
151.0	75.60455357301907	pulse	0.0	t		object	instrument-59.jpg	0.0	166.33646707040498	
151.0	75.90442368567983	ISI	1.0		7.0	object	instrument-59.jpg	0.0	166.63633718306573	0.11668972320330795
152.0	76.02111340888314	instrument	0.0		46.0	object	instrument-22.jpg	0.0	166.75302690626904	0.38330318325097323
152.0	76.30453434498395	pulse	0.0	t		object	instrument-22.jpg	0.0	167.03644784236985	
152.0	76.40441659213411	ISI	1.0		7.0	object	instrument-22.jpg	0.0	167.13633008952002	0.11668549726255151
153.0	76.52110208939666	instrument	0.0		46.0	object	instrument-28.jpg	0.0	167.25301558678257	0.3832989573093073
153.0	76.90440104670597	ISI	1.0		4.0	object	instrument-28.jpg	0.0	167.63631454409187	0.11668036576065788
154.0	77.02108141246663	instrument	0.0		45.0	object	instrument-101.jpg	0.0	167.75299490985253	0.38330559807491227
154.0	77.01096813006006	pulse	0.0	t		object	instrument-101.jpg	0.0	167.74288162744597	
154.0	77.40438701054154	ISI	1.0		7.0	object	instrument-101.jpg	0.0	168.13630050792744	0.11669002505732351
155.0	77.52107703559886	instrument	0.0		46.0	object	instrument-35.jpg	0.0	168.25299053298477	0.38329020357195986
155.0	77.70449770003142	pulse	0.0	t		object	instrument-35.jpg	0.0	168.43641119741733	
155.0	77.90436723917082	ISI	1.0		6.0	object	instrument-35.jpg	0.0	168.63628073655673	0.11669847694065538
156.0	78.02106571611148	instrument	0.0		46.0	object	instrument-84.jpg	0.0	168.75297921349738	0.3832853739249913
156.0	78.40435109003647	ISI	1.0		6.0	object	instrument-84.jpg	0.0	169.13626458742237	0.11669787323444325
156.0	78.44980501806458	pulse	1.0	t		object	instrument-84.jpg	0.0	169.18171851545048	
157.0	78.52104896327091	instrument	0.0		46.0	object	instrument-97.jpg	0.0	169.25296246065682	0.3832971461915804
157.0	78.9043461094625	ISI	1.0		6.0	object	instrument-97.jpg	0.0	169.6362596068484	0.11668640282096021
158.0	79.02103251228345	instrument	0.0		46.0	object	instrument-129.jpg	0.0	169.75294600966936	0.38330016472082207
158.0	79.10445652728413	pulse	0.0	t		object	instrument-129.jpg	0.0	169.83637002467003	
158.0	79.40433267700428	ISI	1.0		7.0	object	instrument-129.jpg	0.0	170.13624617439018	0.11667915834914311
159.0	79.52101183535342	instrument	0.0		46.0	object	instrument-90.jpg	0.0	170.25292533273932	0.38330831475195737
159.0	79.80443880851362	pulse	0.0	t		object	instrument-90.jpg	0.0	170.53635230589953	
159.0	79.90432015010538	ISI	1.0		6.0	object	instrument-90.jpg	0.0	170.63623364749128	0.11670692882398725
160.0	80.02102707892936	instrument	0.0		46.0	object	instrument-108.jpg	0.0	170.75294057631527	0.38328024242400716
160.0	80.40430732135337	ISI	1.0		6.0	object	instrument-108.jpg	0.0	171.13622081873928	0.1166809694677795
161.0	80.52098829082115	instrument	0.0		45.0	object	instrument-11.jpg	0.0	171.25290178820705	0.38330408881029143
161.0	80.5110147663463	pulse	0.0	t		object	instrument-11.jpg	0.0	171.2429282637322	
161.0	80.90429237963144	ISI	1.0		6.0	object	instrument-11.jpg	0.0	171.63620587701735	0.11668942135020188
162.0	81.02098180098164	instrument	0.0		46.0	object	instrument-75.jpg	0.0	171.75289529836755	0.38329654248536826
162.0	81.20440548394436	pulse	0.0	t		object	instrument-75.jpg	0.0	171.93631898133026	
162.0	81.40427834346701	ISI	1.0		7.0	object	instrument-75.jpg	0.0	172.13619184085292	0.11669062876262615
163.0	81.52096897222964	instrument	0.0		46.0	object	instrument-75.jpg	1.0	172.25288246961554	0.38329774989779253
163.0	81.90426672212743	ISI	1.0		4.0	object	instrument-75.jpg	1.0	172.63618021951334	0.11669123246883828
163.0	81.96430196044457	pulse	1.0	t		object	instrument-75.jpg	1.0	172.69621545783048	
164.0	82.02095795459627	instrument	0.0		46.0	object	instrument-47.jpg	0.0	172.75287145198217	0.38329412766142923
164.0	82.04605340805574	response	0.0	b		object	instrument-47.jpg	0.0	172.77796690544164	
164.0	82.4042520822577	ISI	1.0		7.0	object	instrument-47.jpg	0.0	173.1361655796436	0.11664806749195122
165.0	82.52090014974965	instrument	0.0		46.0	object	instrument-133.jpg	0.0	173.25281364713555	0.3833400093153614
165.0	82.60436431119706	pulse	0.0	t		object	instrument-133.jpg	0.0	173.33627780858296	
165.0	82.90424015906501	ISI	1.0		6.0	object	instrument-133.jpg	0.0	173.63615365645092	0.11668881764489925
166.0	83.02092897670991	instrument	0.0		46.0	object	instrument-103.jpg	0.0	173.75284247409581	0.3832971461906709
166.0	83.3043429701911	pulse	0.0	t		object	instrument-103.jpg	0.0	174.036256467577	
166.0	83.40422612290058	ISI	1.0		7.0	object	instrument-103.jpg	0.0	174.13613962028649	0.11669877879376145
167.0	83.52092490169434	instrument	0.0		46.0	object	instrument-111.jpg	0.0	174.25283839908025	0.3832754127761291
167.0	83.90420031447047	ISI	1.0		6.0	object	instrument-111.jpg	0.0	174.63611381185638	0.11670058991148835
168.0	84.02090090438196	number	0.0		45.0	character	number-2.jpg	0.0	174.75281440176786	0.38329774989688303
168.0	84.01080482759517	pulse	0.0	t		character	number-2.jpg	0.0	174.74271832498107	
168.0	84.40419865427884	ISI	1.0		6.0	character	number-2.jpg	0.0	175.13611215166475	0.11668428985012724
169.0	84.52088294412897	number	0.0		46.0	character	number-40.jpg	0.0	175.25279644151487	0.38330469251650356
169.0	84.70430481597396	pulse	0.0	t		character	number-40.jpg	0.0	175.43621831335986	
169.0	84.90418763664547	ISI	1.0		6.0	character	number-40.jpg	0.0	175.63610113403138	0.11666708422944794
170.0	85.02085472087492	number	0.0		46.0	character	number-135.jpg	0.0	175.75276821826083	0.38330499436960963
170.0	85.40415971524453	ISI	1.0		6.0	character	number-135.jpg	0.0	176.13607321263044	0.11669515655739815
170.0	85.44930665878655	pulse	1.0	t		character	number-135.jpg	0.0	176.18122015617246	
171.0	85.52085487180193	number	0.0		46.0	character	number-91.jpg	0.0	176.25276836918783	0.38330046657392813
171.0	85.90415533837586	ISI	1.0		6.0	character	number-91.jpg	0.0	176.63606883576176	0.11669304358656518
172.0	86.02084838196242	number	0.0		46.0	character	number-32.jpg	0.0	176.75276187934833	0.38329744804468646
172.0	86.10426877472764	pulse	0.0	t		character	number-32.jpg	0.0	176.83618227211355	
172.0	86.40414583000711	ISI	1.0		4.0	character	number-32.jpg	0.0	177.136059327393	0.11668670467406628
173.0	86.52083253468118	number	0.0		46.0	character	number-27.jpg	0.0	177.25274603206708	0.3833025795447611
173.0	86.80426011154668	pulse	0.0	t		character	number-27.jpg	0.0	177.5361736089326	
173.0	86.90413511422594	ISI	1.0		7.0	character	number-27.jpg	0.0	177.63604861161184	0.11668670467406628
174.0	87.0208218189	number	0.0		46.0	character	number-37.jpg	0.0	177.7527353162859	0.38329744804377697
174.0	87.40411926694378	ISI	1.0		7.0	character	number-37.jpg	0.0	178.13603276432968	0.11668247873240034
175.0	87.52080174567618	number	0.0		45.0	character	number-19.jpg	0.0	178.25271524306208	0.3833034851040793
175.0	87.51065827797083	pulse	0.0	t		character	number-19.jpg	0.0	178.24257177535674	
175.0	87.90410523078026	ISI	1.0		6.0	character	number-19.jpg	0.0	178.63601872816616	0.11669093061573221
176.0	88.02079616139599	number	0.0		46.0	character	number-13.jpg	0.0	178.7527096587819	0.38329382580832316
176.0	88.20422648512431	pulse	0.0	t		character	number-13.jpg	0.0	178.9361399825102	
176.0	88.40408998720432	ISI	1.0		7.0	character	number-13.jpg	0.0	179.13600348459022	0.11668911949800531
177.0	88.52077910670232	number	0.0		46.0	character	number-46.jpg	0.0	179.25269260408822	0.38329956101551943
177.0	88.90407866771784	ISI	1.0		7.0	character	number-46.jpg	0.0	179.63599216510374	0.11668730837936891
177.0	88.94061857524775	pulse	1.0	t		character	number-46.jpg	0.0	179.67253207263366	
178.0	89.02076597609721	number	0.0		46.0	character	number-46.jpg	1.0	179.7526794734831	0.38330589992801833
178.0	89.40407187602523	ISI	1.0		6.0	character	number-46.jpg	1.0	180.13598537341113	0.11669213802815648
179.0	89.52076401405338	number	0.0		45.0	character	number-45.jpg	0.0	180.2526775114393	0.38328477021877916
179.0	89.51092149377382	response	0.0	b		character	number-45.jpg	0.0	180.24283499115973	
179.0	89.60416780490414	pulse	0.0	t		character	number-45.jpg	0.0	180.33608130229004	
179.0	89.90404878427216	ISI	1.0		6.0	character	number-45.jpg	0.0	180.63596228165807	0.11668851579179318
180.0	90.02073730006396	limb	0.0		46.0	body	limb-133.jpg	0.0	180.75265079744986	0.38330499436870014
180.0	90.30415702875234	pulse	0.0	t		body	limb-133.jpg	0.0	181.03607052613825	
180.0	90.40404229443266	ISI	1.0		7.0	body	limb-133.jpg	0.0	181.13595579181856	0.11668640282096021
181.0	90.52072869725362	limb	0.0		46.0	body	limb-131.jpg	0.0	181.25264219463952	0.3832579053032532
181.0	90.90398660255687	ISI	1.0		5.0	body	limb-131.jpg	0.0	181.63590009994277	0.11668791208649054
182.0	91.02067451464336	limb	0.0		45.0	body	limb-143.jpg	0.0	181.75258801202926	0.38330771104574524
182.0	91.01038766676993	pulse	0.0	t		body	limb-143.jpg	0.0	181.74230116415583	
182.0	91.4039822256891	ISI	1.0		7.0	body	limb-143.jpg	0.0	182.135895723075	0.11675039565398038
183.0	91.52073262134309	limb	0.0		46.0	body	limb-134.jpg	0.0	182.252646118729	0.38323405891696893
183.0	91.7040874818249	pulse	0.0	t		body	limb-134.jpg	0.0	182.4360009792108	
183.0	91.90396668026005	ISI	1.0		6.0	body	limb-134.jpg	0.0	182.63588017764596	0.11668398799702118
184.0	92.02065066825708	limb	0.0		46.0	body	limb-64.jpg	0.0	182.75256416564298	0.3833016739863524
184.0	92.40395234224343	ISI	1.0		7.0	body	limb-64.jpg	0.0	183.13586583962933	0.11668640282096021
184.0	92.4433251400369	pulse	1.0	t		body	limb-64.jpg	0.0	183.1752386374228	
185.0	92.52063874506439	limb	0.0		46.0	body	limb-73.jpg	0.0	183.2525522424503	0.3833007684270342
185.0	92.90393951349142	ISI	1.0		6.0	body	limb-73.jpg	0.0	183.63585301087733	0.11668911949800531
186.0	93.02062863298943	limb	0.0		46.0	body	limb-129.jpg	0.0	183.75254213037533	0.3832962406322622
186.0	93.10406623137442	pulse	0.0	t		body	limb-129.jpg	0.0	183.83597972876032	
186.0	93.40392487362169	ISI	1.0		6.0	body	limb-129.jpg	0.0	184.1358383710076	0.11668640282096021
187.0	93.52061127644265	limb	0.0		46.0	body	limb-107.jpg	0.0	184.25252477382855	0.38330046657392813
187.0	93.80402677918937	pulse	0.0	t		body	limb-107.jpg	0.0	184.53594027657527	
187.0	93.90391174301658	ISI	1.0		7.0	body	limb-107.jpg	0.0	184.63582524040248	0.11668791208649054
188.0	94.02059965510307	limb	0.0		46.0	body	limb-84.jpg	0.0	184.75251315248897	0.38329744804377697
188.0	94.40389710314685	ISI	1.0		7.0	body	limb-84.jpg	0.0	185.13581060053275	0.11668338429171854
189.0	94.52058048743856	limb	0.0		45.0	body	limb-19.jpg	0.0	185.25249398482447	0.38330499436870014
189.0	94.51234201392072	pulse	0.0	t		body	limb-19.jpg	0.0	185.24425551130662	
189.0	94.90388548180727	ISI	1.0		5.0	body	limb-19.jpg	0.0	185.63579897919317	0.11668640282096021
190.0	95.02057188462823	limb	0.0		46.0	body	limb-88.jpg	0.0	185.75248538201413	0.38330137213324633
190.0	95.20398379532435	pulse	0.0	t		body	limb-88.jpg	0.0	185.93589729271025	
190.0	95.40387325676147	ISI	1.0		7.0	body	limb-88.jpg	0.0	186.13578675414738	0.11668459170323331
191.0	95.5205578484647	limb	0.0		46.0	body	limb-117.jpg	0.0	186.2524713458506	0.38329201469059626
191.0	95.9038498631553	ISI	1.0		11.0	body	limb-117.jpg	0.0	186.6357633605412	0.10000449760900665
191.0	95.90828740388679	pulse	1.0	t		body	limb-117.jpg	0.0	186.6402009012727	
192.0	96.00385436076431	baseline	0.0		48.0		baseline	0.0	186.7357678581502	0.39999263478784997
192.0	96.40384699555216	ISI	1.0		11.0		baseline	0.0	187.13576049293806	0.10000268649127975
193.0	96.50384968204344	baseline	0.0		48.0		baseline	0.0	187.23576317942934	0.4000496850012496
193.0	96.60402412288295	pulse	0.0	t			baseline	0.0	187.33593762026885	
193.0	96.90389936704469	ISI	1.0		11.0		baseline	0.0	187.6358128644306	0.09999846054961381
194.0	97.0038978275943	baseline	0.0		48.0		baseline	0.0	187.7358113249802	0.39997995696194266
194.0	97.30402028935077	pulse	0.0	t			baseline	0.0	188.03593378673668	
194.0	97.40387778455624	ISI	1.0		11.0		baseline	0.0	188.13579128194215	0.09999996981423465
195.0	97.50387775437048	baseline	0.0		48.0		baseline	0.0	188.23579125175638	0.39998448475671466
195.0	97.90386223912719	ISI	1.0		11.0		baseline	0.0	188.6357757365131	0.10001023281620292
196.0	98.0038724719434	baseline	0.0		47.0		baseline	0.0	188.7357859693293	0.39998810699307796
196.0	98.00820285486498	pulse	0.0	t			baseline	0.0	188.74011635225088	
196.0	98.40386057893647	ISI	1.0		11.0		baseline	0.0	189.13577407632238	0.09999785684340168
197.0	98.50385843577988	baseline	0.0		48.0		baseline	0.0	189.23577193316578	0.3999730143432316
197.0	98.70396643877757	pulse	0.0	t			baseline	0.0	189.43587993616347	
197.0	98.9038314501231	ISI	1.0		11.0		baseline	0.0	189.635744947509	0.10001234578703588
198.0	99.00384379591014	baseline	0.0		48.0		baseline	0.0	189.73575729329605	0.39999082366921357
198.0	99.40383461957936	ISI	1.0		11.0		baseline	0.0	190.13574811696526	0.09999634757878084
198.0	99.4085145482577	pulse	1.0	t			baseline	0.0	190.1404280456436	
199.0	99.50383096715814	baseline	0.0		48.0		baseline	0.0	190.23574446454404	0.39999293664004654
199.0	99.90382390379818	ISI	1.0		11.0		baseline	0.0	190.6357374011841	0.10001747728802002
200.0	100.0038413810862	baseline	0.0		48.0		baseline	0.0	190.7357548784721	0.3999651661652024
200.0	100.10395605503527	pulse	0.0	t			baseline	0.0	190.83586955242117	
200.0	100.4038065472514	ISI	1.0		11.0		baseline	0.0	191.1357200446373	0.09999725313809904
201.0	100.5038038003895	baseline	0.0		48.0		baseline	0.0	191.2357172977754	0.39999203108163783
201.0	100.8039093583784	pulse	0.0	t			baseline	0.0	191.5358228557643	
201.0	100.90379583147114	ISI	1.0		11.0		baseline	0.0	191.63570932885705	0.09999574387256871
202.0	101.00379157534371	baseline	0.0		48.0		baseline	0.0	191.73570507272962	0.3999887106983806
202.0	101.40378028604209	ISI	1.0		11.0		baseline	0.0	192.135693783428	0.09999876240271988
203.0	101.50377904844481	baseline	0.0		47.0		baseline	0.0	192.23569254583072	0.3999748254609585
203.0	101.5081100350726	pulse	0.0	t			baseline	0.0	192.2400235324585	
203.0	101.90375387390577	ISI	1.0		6.0		baseline	0.0	192.63566737129167	0.11664414340339135
204.0	102.02039801730916	child	0.0		46.0	face	child-103.jpg	0.0	192.75231151469507	0.38329050542506593
204.0	102.20380389094589	pulse	0.0	t		face	child-103.jpg	0.0	192.9357173883318	
204.0	102.40368852273423	ISI	1.0		6.0	face	child-103.jpg	0.0	193.13560202012013	0.1166836861448246
205.0	102.52037220887905	child	0.0		46.0	face	child-115.jpg	0.0	193.25228570626496	0.3832989573093073
205.0	102.90367116618836	ISI	1.0		7.0	face	child-115.jpg	0.0	193.63558466357426	0.11668489355542988
205.0	102.93769512908875	pulse	1.0	t		face	child-115.jpg	0.0	193.66960862647466	
206.0	103.02035605974379	child	0.0		46.0	face	child-6.jpg	0.0	193.7522695571297	0.38330318325097323
206.0	103.40365924299476	ISI	1.0		6.0	face	child-6.jpg	0.0	194.13557274038067	0.11668127132088557
207.0	103.52034051431565	child	0.0		46.0	face	child-125.jpg	0.0	194.25225401170155	0.3833345759612712
207.0	103.60382761659002	pulse	0.0	t		face	child-125.jpg	0.0	194.33574111397593	
207.0	103.90367509027692	ISI	1.0		6.0	face	child-125.jpg	0.0	194.63558858766282	0.11669968435217015
208.0	104.02037477462909	child	0.0		46.0	face	child-55.jpg	0.0	194.752288272015	0.38325669789173844
208.0	104.30374620684051	pulse	0.0	t		face	child-55.jpg	0.0	195.03565970422642	
208.0	104.40363147252083	ISI	1.0		7.0	face	child-55.jpg	0.0	195.13554496990673	0.11668368614391511
209.0	104.52031515866474	child	0.0		46.0	face	child-130.jpg	0.0	195.25222865605065	0.38330016472082207
209.0	104.90361532338557	ISI	1.0		6.0	face	child-130.jpg	0.0	195.63552882077147	0.11667704537831014
210.0	105.02029236876388	child	0.0		45.0	face	child-23.jpg	0.0	195.75220586614978	0.38331314439983544
210.0	105.01009305825664	pulse	0.0	t		face	child-23.jpg	0.0	195.74200655564255	
210.0	105.40360551316371	ISI	1.0		6.0	face	child-23.jpg	0.0	196.13551901054961	0.1166682916418722
211.0	105.52027380480558	child	0.0		46.0	face	child-19.jpg	0.0	196.2521873021915	0.3833188796061222
211.0	105.70371227856413	pulse	0.0	t		face	child-19.jpg	0.0	196.43562577595003	
211.0	105.9035926844117	ISI	1.0		7.0	face	child-19.jpg	0.0	196.6355061817976	0.11668308243861247
212.0	106.02027576685032	child	0.0		46.0	face	child-122.jpg	0.0	196.75218926423622	0.38329020357286936
212.0	106.40356597042319	ISI	1.0		7.0	face	child-122.jpg	0.0	197.1354794678091	0.11667946020224917
212.0	106.44113097069021	pulse	1.0	t		face	child-122.jpg	0.0	197.1730444680761	
213.0	106.52024543062544	child	0.0		46.0	face	child-25.jpg	0.0	197.25215892801134	0.3833191814592283
213.0	106.90356461208466	ISI	1.0		7.0	face	child-25.jpg	0.0	197.63547810947057	0.11666949905338697
214.0	107.02023411113805	child	0.0		46.0	face	child-58.jpg	0.0	197.75214760852396	0.38330137213324633
214.0	107.10374355053409	pulse	0.0	t		face	child-58.jpg	0.0	197.83565704792	
214.0	107.4035354832713	ISI	1.0		7.0	face	child-58.jpg	0.0	198.1354489806572	0.11669968435217015
215.0	107.52023516762347	child	0.0		46.0	face	child-113.jpg	0.0	198.25214866500937	0.3832923165437023
215.0	107.80365519816496	pulse	0.0	t		face	child-113.jpg	0.0	198.53556869555086	
215.0	107.90352748416717	ISI	1.0		11.0	face	child-113.jpg	0.0	198.63544098155307	0.0999839716068891
216.0	108.00351145577406	baseline	0.0		48.0		baseline	0.0	198.73542495315996	0.4000952648020757
216.0	108.40360672057614	ISI	1.0		11.0		baseline	0.0	199.13552021796204	0.09999061237158458
217.0	108.50359733294772	baseline	0.0		47.0		baseline	0.0	199.23551083033362	0.39998086252126086
217.0	108.50820270393888	pulse	0.0	t			baseline	0.0	199.24011620132478	
217.0	108.90357819546898	ISI	1.0		11.0		baseline	0.0	199.63549169285488	0.09999453646105394
218.0	109.00357273193003	baseline	0.0		48.0		baseline	0.0	199.73548622931594	0.39998991810989537
218.0	109.20368647013402	pulse	0.0	t			baseline	0.0	199.93559996751992	
218.0	109.40356265003993	ISI	1.0		11.0		baseline	0.0	200.13547614742583	0.10000087537355284
219.0	109.50356352541348	baseline	0.0		48.0		baseline	0.0	200.2354770227994	0.39997724028489756
219.0	109.90354076569838	ISI	1.0		11.0		baseline	0.0	200.63545426308428	0.10000962910999078
219.0	109.9082065072862	pulse	1.0	t			baseline	0.0	200.6401200046721	
220.0	110.00355039480837	baseline	0.0		48.0		baseline	0.0	200.73546389219428	0.399965769872324
220.0	110.4035161646807	ISI	1.0		11.0		baseline	0.0	201.1354296620666	0.10001838284642872
221.0	110.50353454752712	baseline	0.0		48.0		baseline	0.0	201.23544804491303	0.3999887106983806
221.0	110.60365224000543	pulse	0.0	t			baseline	0.0	201.33556573739133	
221.0	110.9035232582255	ISI	1.0		11.0		baseline	0.0	201.6354367556114	0.09999725313809904
222.0	111.0035205113636	baseline	0.0		48.0		baseline	0.0	201.7354340087495	0.39998750328595634
222.0	111.30362818232334	pulse	0.0	t			baseline	0.0	202.03554167970924	
222.0	111.40350801464956	ISI	1.0		11.0		baseline	0.0	202.13542151203546	0.09999936610893201
223.0	111.50350738075849	baseline	0.0		48.0		baseline	0.0	202.2354208781444	0.3999905218161075
223.0	111.9034979025746	ISI	1.0		11.0		baseline	0.0	202.6354113999605	0.09998638643082813
224.0	112.00348428900543	baseline	0.0		47.0		baseline	0.0	202.73539778639133	0.3999995774056515
224.0	112.00779988113027	pulse	0.0	t			baseline	0.0	202.73971337851617	
224.0	112.40348386641108	ISI	1.0		11.0		baseline	0.0	203.13539736379698	0.09999604572567478
225.0	112.50347991213675	baseline	0.0		48.0		baseline	0.0	203.23539340952266	0.39999021996300144
225.0	112.7035975744302	pulse	0.0	t			baseline	0.0	203.4355110718161	
225.0	112.90347013209976	ISI	1.0		11.0		baseline	0.0	203.63538362948566	0.10000147907976498
226.0	113.00347161117952	baseline	0.0		48.0		baseline	0.0	203.73538510856542	0.39998357919739647
226.0	113.40345519037692	ISI	1.0		11.0		baseline	0.0	204.13536868776282	0.09999876240271988
226.0	113.40812364864178	pulse	1.0	t			baseline	0.0	204.14003714602768	
227.0	113.50345395277964	baseline	0.0		48.0		baseline	0.0	204.23536745016554	0.39998991811080487
227.0	113.90344387089044	ISI	1.0		11.0		baseline	0.0	204.63535736827635	0.09999634757878084
228.0	114.00344021846922	baseline	0.0		48.0		baseline	0.0	204.73535371585513	0.39998931440459273
228.0	114.10355670353601	pulse	0.0	t			baseline	0.0	204.83547020092192	
228.0	114.40342953287382	ISI	1.0		11.0		baseline	0.0	205.13534303025972	0.09999725313718955
229.0	114.503426786011	baseline	0.0		48.0		baseline	0.0	205.2353402833969	0.3999914273754257
229.0	114.80353204214771	pulse	0.0	t			baseline	0.0	205.5354455395336	
229.0	114.90341821338643	ISI	1.0		11.0		baseline	0.0	205.63533171077233	0.09999423460794787
230.0	115.00341244799438	baseline	0.0		48.0		baseline	0.0	205.73532594538028	0.39999021996391093
230.0	115.40340266795829	ISI	1.0		11.0		baseline	0.0	206.1353161653442	0.10002894770059356
231.0	115.50343161565888	baseline	0.0		47.0		baseline	0.0	206.2353451130448	0.3999567142818705
231.0	115.50788424903931	pulse	0.0	t			baseline	0.0	206.2397977464252	
231.0	115.90338832994075	ISI	1.0		11.0		baseline	0.0	206.63530182732666	0.09999906425582594
232.0	116.00338739419658	baseline	0.0		48.0		baseline	0.0	206.73530089158248	0.39998901255148667
232.0	116.20352437508154	pulse	0.0	t			baseline	0.0	206.93543787246745	
232.0	116.40337640674807	ISI	1.0		11.0		baseline	0.0	207.13528990413397	0.09999846054961381
233.0	116.50337486729768	baseline	0.0		48.0		baseline	0.0	207.23528836468358	0.39998720143375976
233.0	116.90336206873144	ISI	1.0		11.0		baseline	0.0	207.63527556611734	0.09999966796203807
233.0	116.90801935843592	pulse	1.0	t			baseline	0.0	207.63993285582183	
234.0	117.00336173669348	baseline	0.0		48.0		baseline	0.0	207.73527523407938	0.3999868995797442
234.0	117.40334863627322	ISI	1.0		11.0		baseline	0.0	208.13526213365913	0.09999996981514414
235.0	117.50334860608837	baseline	0.0		48.0		baseline	0.0	208.23526210347427	0.39998357919739647
235.0	117.60346448744895	pulse	0.0	t			baseline	0.0	208.33537798483485	
235.0	117.90333218528576	ISI	1.0		11.0		baseline	0.0	208.63524568267167	0.1000002716682502
236.0	118.00333245695401	baseline	0.0		48.0		baseline	0.0	208.73524595433992	0.39998931440368324
236.0	118.30342714823473	pulse	0.0	t			baseline	0.0	209.03534064562064	
236.0	118.4033217713577	ISI	1.0		11.0		baseline	0.0	209.1352352687436	0.0999975549912051
237.0	118.5033193263489	baseline	0.0		48.0		baseline	0.0	209.2352328237348	0.39998901255148667
237.0	118.90330833890039	ISI	1.0		11.0		baseline	0.0	209.6352218362863	0.10000178093196155
238.0	119.00331011983235	baseline	0.0		47.0		baseline	0.0	209.73522361721825	0.3999841829036086
238.0	119.00781346451458	pulse	0.0	t			baseline	0.0	209.7397269619005	
238.0	119.40329430273596	ISI	1.0		11.0		baseline	0.0	210.13520780012186	0.0999984605505233
239.0	119.50329276328648	baseline	0.0		48.0		baseline	0.0	210.23520626067238	0.39998991810989537
239.0	119.70340076628418	pulse	0.0	t			baseline	0.0	210.43531426367008	
239.0	119.90328268139638	ISI	1.0		5.0		baseline	0.0	210.63519617878228	0.11665772678770736
240.0	120.01994040818408	corridor	0.0		46.0	place	corridor-124.jpg	0.0	210.75185390557	0.383290807278172
240.0	120.40323121546226	ISI	1.0		6.0	place	corridor-124.jpg	0.0	211.13514471284816	0.11668911949800531
240.0	120.44791149429057	pulse	1.0	t		place	corridor-124.jpg	0.0	211.17982499167647	
241.0	120.51992033496026	corridor	0.0		46.0	place	corridor-104.jpg	0.0	211.25183383234616	0.3832980517499891
241.0	120.90321838671025	ISI	1.0		7.0	place	corridor-104.jpg	0.0	211.63513188409615	0.11669032691042958
242.0	121.01990871362068	corridor	0.0		46.0	place	corridor-109.jpg	0.0	211.75182221100658	0.3832880906011269
242.0	121.1033294082381	pulse	0.0	t		place	corridor-109.jpg	0.0	211.835242905624	
242.0	121.4031968042218	ISI	1.0		6.0	place	corridor-109.jpg	0.0	212.1351103016077	0.11670481585315429
243.0	121.51990162007496	corridor	0.0		46.0	place	corridor-31.jpg	0.0	212.25181511746086	0.3832889961613546
243.0	121.80330836908524	pulse	0.0	t		place	corridor-31.jpg	0.0	212.53522186647115	
243.0	121.90319061623632	ISI	1.0		6.0	place	corridor-31.jpg	0.0	212.63510411362222	0.11668911949800531
244.0	122.01987973573432	corridor	0.0		46.0	place	corridor-101.jpg	0.0	212.75179323312022	0.38329835360309517
244.0	122.40317808933742	ISI	1.0		6.0	place	corridor-101.jpg	0.0	213.13509158672332	0.11668489355542988
245.0	122.51986298289285	corridor	0.0		45.0	place	corridor-8.jpg	0.0	213.25177648027875	0.38330288139877666
245.0	122.5096884243303	pulse	0.0	t		place	corridor-8.jpg	0.0	213.2416019217162	
245.0	122.90316586429162	ISI	1.0		6.0	place	corridor-8.jpg	0.0	213.63507936167753	0.11667251758353814
246.0	123.01983838187516	corridor	0.0		46.0	place	corridor-75.jpg	0.0	213.75175187926106	0.3833116351343051
246.0	123.20327112042742	pulse	0.0	t		place	corridor-75.jpg	0.0	213.93518461781332	
246.0	123.40315001700947	ISI	1.0		7.0	place	corridor-75.jpg	0.0	214.13506351439537	0.11669032690952008
247.0	123.51984034391899	corridor	0.0		46.0	place	corridor-30.jpg	0.0	214.2517538413049	0.38329654248536826
247.0	123.90313688640435	ISI	1.0		7.0	place	corridor-30.jpg	0.0	214.63505038379026	0.11669304358747468
247.0	123.94239950785868	pulse	1.0	t		place	corridor-30.jpg	0.0	214.67431300524458	
248.0	124.01982992999183	corridor	0.0		46.0	place	corridor-33.jpg	0.0	214.75174342737773	0.38329865545620123
248.0	124.40312858544803	ISI	1.0		6.0	place	corridor-33.jpg	0.0	215.13504208283393	0.11668489355542988
249.0	124.51981347900346	corridor	0.0		46.0	place	corridor-48.jpg	0.0	215.25172697638936	0.3832895998666572
249.0	124.60321123279482	pulse	0.0	t		place	corridor-48.jpg	0.0	215.33512473018072	
249.0	124.90310307887012	ISI	1.0		7.0	place	corridor-48.jpg	0.0	215.63501657625602	0.11668278058550641
250.0	125.01978585945562	corridor	0.0		46.0	place	corridor-65.jpg	0.0	215.75169935684153	0.38332219998937944
250.0	125.30321554929287	pulse	0.0	t		place	corridor-65.jpg	0.0	216.03512904667878	
250.0	125.403108059445	ISI	1.0		7.0	place	corridor-65.jpg	0.0	216.1350215568309	0.11667704537831014
251.0	125.51978510482331	corridor	0.0		46.0	place	corridor-82.jpg	0.0	216.25169860220922	0.3832871850427182
251.0	125.90307228986603	ISI	1.0		6.0	place	corridor-82.jpg	0.0	216.63498578725194	0.11669425099807995
252.0	126.01976654086411	child	0.0		45.0	face	child-57.jpg	0.0	216.75168003825002	0.38330408881029143
252.0	126.00981837204017	pulse	0.0	t		face	child-57.jpg	0.0	216.74173186942608	
252.0	126.4030706296744	ISI	1.0		7.0	face	child-57.jpg	0.0	217.1349841270603	0.11668761023338448
253.0	126.51975823990779	child	0.0		46.0	face	child-129.jpg	0.0	217.2516717372937	0.38329925916150387
253.0	126.70319128031224	pulse	0.0	t		face	child-129.jpg	0.0	217.43510477769814	
253.0	126.90305749906929	ISI	1.0		5.0	face	child-129.jpg	0.0	217.6349709964552	0.11668851579270267
254.0	127.019746014862	child	0.0		46.0	face	child-82.jpg	0.0	217.7516595122479	0.3832971461906709
254.0	127.40304316105266	ISI	1.0		7.0	face	child-82.jpg	0.0	218.13495665843857	0.11669062876262615
254.0	127.4404765534182	pulse	1.0	t		face	child-82.jpg	0.0	218.1723900508041	
255.0	127.51973378981529	child	0.0		46.0	face	child-98.jpg	0.0	218.2516472872012	0.3832953350738535
255.0	127.90302912488914	ISI	1.0		6.0	face	child-98.jpg	0.0	218.63494262227505	0.11668972320421744
256.0	128.01971884809336	child	0.0		46.0	face	child-16.jpg	0.0	218.75163234547927	0.38329684433756483
256.0	128.10314346680025	pulse	0.0	t		face	child-16.jpg	0.0	218.83505696418615	
256.0	128.40301569243093	ISI	1.0		6.0	face	child-16.jpg	0.0	219.13492918981683	0.11669274173436861
257.0	128.5197084341653	child	0.0		46.0	face	child-70.jpg	0.0	219.2516219315512	0.3832642442157521
257.0	128.80308741270073	pulse	0.0	t		face	child-70.jpg	0.0	219.53500091008664	
257.0	128.90297267838105	ISI	1.0		6.0	face	child-70.jpg	0.0	219.63488617576695	0.11668428985012724
258.0	129.01965696823117	child	0.0		46.0	face	child-68.jpg	0.0	219.75157046561708	0.38330197583854897
258.0	129.40295894406972	ISI	1.0		6.0	face	child-68.jpg	0.0	220.13487244145563	0.1166800639084613
259.0	129.51963900797818	child	0.0		45.0	face	child-128.jpg	0.0	220.2515525053641	0.38330378695718537
259.0	129.50972193001235	pulse	0.0	t		face	child-128.jpg	0.0	220.24163542739825	
259.0	129.90294279493537	ISI	1.0		7.0	face	child-128.jpg	0.0	220.63485629232127	0.11667221573043207
260.0	130.0196150106658	child	0.0		46.0	face	child-63.jpg	0.0	220.7515285080517	0.3833146536644563
260.0	130.20306525669184	pulse	0.0	t		face	child-63.jpg	0.0	220.93497875407775	
260.0	130.40292966433026	ISI	1.0		7.0	face	child-63.jpg	0.0	221.13484316171616	0.11668579911565757
261.0	130.51961546344592	child	0.0		46.0	face	child-124.jpg	0.0	221.25152896083182	0.38330318325097323
261.0	130.9029186466969	ISI	1.0		5.0	face	child-124.jpg	0.0	221.6348321440828	0.11668066761376394
261.0	130.95407004981462	pulse	1.0	t		face	child-124.jpg	0.0	221.68598354720052	
262.0	131.01959931431065	child	0.0		46.0	face	child-104.jpg	0.0	221.75151281169656	0.38330469251650356
262.0	131.40290400682716	ISI	1.0		7.0	face	child-104.jpg	0.0	222.13481750421306	0.11668761023247498
263.0	131.51959161705963	child	0.0		46.0	face	child-18.jpg	0.0	222.25150511444554	0.3832868831896121
263.0	131.60301714132584	pulse	0.0	t		face	child-18.jpg	0.0	222.33493063871174	
263.0	131.90287850024924	ISI	1.0		6.0	face	child-18.jpg	0.0	222.63479199763515	0.11669908064686751
264.0	132.0195775808961	child	0.0		46.0	face	child-141.jpg	0.0	222.75149107828202	0.3832989573093073
264.0	132.30299368734904	pulse	0.0	t		face	child-141.jpg	0.0	223.03490718473495	
264.0	132.40287653820542	ISI	1.0		7.0	face	child-141.jpg	0.0	223.13479003559132	0.11668579911474808
265.0	132.51956233732017	child	0.0		46.0	face	child-10.jpg	0.0	223.25147583470607	0.38329925916241336
265.0	132.90286159648258	ISI	1.0		6.0	face	child-10.jpg	0.0	223.63477509386848	0.11668066761376394
266.0	133.01954226409634	child	0.0		45.0	face	child-52.jpg	0.0	223.75145576148225	0.38330922031127557
266.0	133.0094682225781	pulse	0.0	t		face	child-52.jpg	0.0	223.741381719964	
266.0	133.40285148440762	ISI	1.0		6.0	face	child-52.jpg	0.0	224.13476498179352	0.11668278058459691
267.0	133.51953426499222	child	0.0		46.0	face	child-61.jpg	0.0	224.25144776237812	0.38330378695718537
267.0	133.702955533131	pulse	0.0	t		face	child-61.jpg	0.0	224.4348690305169	
267.0	133.9028380519494	ISI	1.0		7.0	face	child-61.jpg	0.0	224.6347515493353	0.11668761023338448
268.0	134.0195256621828	child	0.0		46.0	face	child-61.jpg	1.0	224.7514391595687	0.3832989573093073
268.0	134.4028246194921	ISI	1.0		3.0	face	child-61.jpg	1.0	225.134738116878	0.116667386082554
268.0	134.47610094084575	pulse	1.0	t		face	child-61.jpg	1.0	225.20801443823166	
269.0	134.51949200557465	child	0.0		45.0	face	child-45.jpg	0.0	225.25140550296055	0.3833490649049054
269.0	134.5095999814057	response	0.0	b		face	child-45.jpg	0.0	225.2415134787916	
269.0	134.90284107047955	ISI	1.0		7.0	face	child-45.jpg	0.0	225.63475456786546	0.11669364729277731
270.0	135.01953471777233	child	0.0		46.0	face	child-78.jpg	0.0	225.75144821515823	0.38329563692605007
270.0	135.10295511053755	pulse	0.0	t		face	child-78.jpg	0.0	225.83486860792345	
270.0	135.40283035469838	ISI	1.0		7.0	face	child-78.jpg	0.0	226.13474385208428	0.11668459170323331
271.0	135.5195149464016	child	0.0		46.0	face	child-17.jpg	0.0	226.25142844378752	0.38330137213324633
271.0	135.80293346767849	pulse	0.0	t		face	child-17.jpg	0.0	226.5348469650644	
271.0	135.90281631853486	ISI	1.0		6.0	face	child-17.jpg	0.0	226.63472981592076	0.116667386082554
272.0	136.01948370461741	child	0.0		46.0	face	child-84.jpg	0.0	226.75139720200332	0.38331948331233434
272.0	136.40280318792975	ISI	1.0		7.0	face	child-84.jpg	0.0	227.13471668531565	0.1166782527907344
273.0	136.51948144072048	child	0.0		45.0	face	child-112.jpg	0.0	227.2513949381064	0.3833062017811244
273.0	136.5096872169188	pulse	0.0	t		face	child-112.jpg	0.0	227.2416007143047	
273.0	136.9027876425016	ISI	1.0		7.0	face	child-112.jpg	0.0	227.6347011398875	0.11669485470429208
274.0	137.0194824972059	child	0.0		46.0	face	child-92.jpg	0.0	227.7513959945918	0.38329412766142923
274.0	137.20290165237384	pulse	0.0	t		face	child-92.jpg	0.0	227.93481514975974	
274.0	137.40277662486733	ISI	1.0		6.0	face	child-92.jpg	0.0	228.13469012225323	0.11668489355633938
275.0	137.51946151842367	child	0.0		46.0	face	child-71.jpg	0.0	228.25137501580957	0.38330318325097323
275.0	137.90276470167464	ISI	1.0		6.0	face	child-71.jpg	0.0	228.63467819906055	0.11668821393868711
275.0	137.95048705488352	pulse	1.0	t		face	child-71.jpg	0.0	228.68240055226943	
276.0	138.01945291561333	corridor	0.0		46.0	place	corridor-115.jpg	0.0	228.75136641299923	0.38326122568560095
276.0	138.40271414129893	ISI	1.0		6.0	place	corridor-115.jpg	0.0	229.13462763868483	0.11668761023338448
277.0	138.5194017515323	corridor	0.0		46.0	place	corridor-26.jpg	0.0	229.25131524891822	0.38330137213324633
277.0	138.6028269739454	pulse	0.0	t		place	corridor-26.jpg	0.0	229.33474047133132	
277.0	138.90270312366556	ISI	1.0		7.0	place	corridor-26.jpg	0.0	229.63461662105146	0.11668398799702118
278.0	139.01938711166258	corridor	0.0		46.0	place	corridor-120.jpg	0.0	229.75130060904849	0.38330107028014027
278.0	139.3028083496156	pulse	0.0	t		place	corridor-120.jpg	0.0	230.0347218470015	
278.0	139.40268818194272	ISI	1.0		6.0	place	corridor-120.jpg	0.0	230.13460167932863	0.11668398799702118
279.0	139.51937216993974	corridor	0.0		46.0	place	corridor-128.jpg	0.0	230.25128566732565	0.38330318325097323
279.0	139.90267535319072	ISI	1.0		6.0	place	corridor-128.jpg	0.0	230.63458885057662	0.11667976205535524
280.0	140.01935511524607	corridor	0.0		45.0	place	corridor-43.jpg	0.0	230.75126861263197	0.3833016739863524
280.0	140.00976735888617	pulse	0.0	t		place	corridor-43.jpg	0.0	230.74168085627207	
280.0	140.40265678923242	ISI	1.0		7.0	place	corridor-43.jpg	0.0	231.13457028661833	0.11668368614391511
281.0	140.51934047537634	corridor	0.0		46.0	place	corridor-134.jpg	0.0	231.25125397276224	0.3832953350738535
281.0	140.70277532689943	pulse	0.0	t		place	corridor-134.jpg	0.0	231.43468882428533	
281.0	140.9026358104502	ISI	1.0		6.0	place	corridor-134.jpg	0.0	231.6345493078361	0.11669938249906409
282.0	141.01933519294926	corridor	0.0		46.0	place	corridor-126.jpg	0.0	231.75124869033516	0.38330559807491227
282.0	141.40264079102417	ISI	1.0		7.0	place	corridor-126.jpg	0.0	232.13455428841007	0.11667946020224917
282.0	141.44085085111965	pulse	1.0	t		place	corridor-126.jpg	0.0	232.17276434850555	
283.0	141.51932025122642	corridor	0.0		46.0	place	corridor-34.jpg	0.0	232.25123374861232	0.3832980517499891
283.0	141.9026183029764	ISI	1.0		6.0	place	corridor-34.jpg	0.0	232.6345318003623	0.11668851579179318
284.0	142.0193068187682	corridor	0.0		46.0	place	corridor-39.jpg	0.0	232.7512203161541	0.38331223884051724
284.0	142.1027383800938	pulse	0.0	t		place	corridor-39.jpg	0.0	232.8346518774797	
284.0	142.40261905760872	ISI	1.0		7.0	place	corridor-39.jpg	0.0	233.13453255499462	0.1166800639084613
285.0	142.51929912151718	corridor	0.0		46.0	place	corridor-44.jpg	0.0	233.25121261890308	0.3832914109852936
285.0	142.80271220943996	pulse	0.0	t		place	corridor-44.jpg	0.0	233.53462570682586	
285.0	142.90259053250247	ISI	1.0		6.0	place	corridor-44.jpg	0.0	233.63450402988838	0.1166728194366442
286.0	143.01926335193912	corridor	0.0		46.0	place	corridor-60.jpg	0.0	233.75117684932502	0.3833173703405919
286.0	143.4025807222797	ISI	1.0		7.0	place	corridor-60.jpg	0.0	234.1344942196656	0.11667946020224917
287.0	143.51926018248196	corridor	0.0		45.0	place	corridor-96.jpg	0.0	234.25117367986786	0.38330680548733653
287.0	143.509674840946	pulse	0.0	t		place	corridor-96.jpg	0.0	234.2415883383319	
287.0	143.9025669879693	ISI	1.0		5.0	place	corridor-96.jpg	0.0	234.6344804853552	0.11668942135111138
288.0	144.0192564093204	instrument	0.0		46.0	object	instrument-140.jpg	0.0	234.7511699067063	0.3833282370487723
288.0	144.20272838876008	pulse	0.0	t		object	instrument-140.jpg	0.0	234.93464188614598	
288.0	144.40258464636918	ISI	1.0		7.0	object	instrument-140.jpg	0.0	235.13449814375508	0.11669183617414092
289.0	144.51927648254332	instrument	0.0		46.0	object	instrument-140.jpg	1.0	235.25118997992922	0.3832953350738535
289.0	144.90257181761717	ISI	1.0		5.0	object	instrument-140.jpg	1.0	235.63448531500308	0.11668338429080904
289.0	144.9518363377265	pulse	1.0	t		object	instrument-140.jpg	1.0	235.6837498351124	
290.0	145.01925520190798	instrument	0.0		45.0	object	instrument-83.jpg	0.0	235.75116869929388	0.38330378695718537
290.0	145.0096689548127	response	0.0	b		object	instrument-83.jpg	0.0	235.7415824521986	
290.0	145.40255898886517	ISI	1.0		6.0	object	instrument-83.jpg	0.0	236.13447248625107	0.11668791208558105
291.0	145.51924690095075	instrument	0.0		46.0	object	instrument-130.jpg	0.0	236.25116039833665	0.3832980517508986
291.0	145.60267091595233	pulse	0.0	t		object	instrument-130.jpg	0.0	236.33458441333823	
291.0	145.90254495270165	ISI	1.0		6.0	object	instrument-130.jpg	0.0	236.63445845008755	0.11669002505641402
292.0	146.01923497775806	instrument	0.0		46.0	object	instrument-38.jpg	0.0	236.75114847514396	0.38329684433847433
292.0	146.30264987679857	pulse	0.0	t		object	instrument-38.jpg	0.0	237.03456337418447	
292.0	146.40253182209653	ISI	1.0		6.0	object	instrument-38.jpg	0.0	237.13444531948244	0.11668881764489925
293.0	146.51922063974143	instrument	0.0		46.0	object	instrument-100.jpg	0.0	237.25113413712734	0.38329744804377697
293.0	146.9025180877852	ISI	1.0		6.0	object	instrument-100.jpg	0.0	237.63443158517111	0.11668278058550641
294.0	147.01920086837072	instrument	0.0		45.0	object	instrument-67.jpg	0.0	237.75111436575662	0.38330378695718537
294.0	147.00974139952905	pulse	0.0	t		object	instrument-67.jpg	0.0	237.74165489691495	
294.0	147.4025046553279	ISI	1.0		7.0	object	instrument-67.jpg	0.0	238.1344181527138	0.11669093061573221
295.0	147.51919558594363	instrument	0.0		46.0	object	instrument-125.jpg	0.0	238.25110908332954	0.3832609238334044
295.0	147.70258063172423	pulse	0.0	t		object	instrument-125.jpg	0.0	238.43449412911013	
295.0	147.90245650977704	ISI	1.0		5.0	object	instrument-125.jpg	0.0	238.63437000716294	0.11668911949709582
296.0	148.01914562927413	instrument	0.0		46.0	object	instrument-25.jpg	0.0	238.75105912666004	0.38329110913218756
296.0	148.40243673840632	ISI	1.0		6.0	object	instrument-25.jpg	0.0	239.13435023579223	0.11669545841050422
296.0	148.45107219689544	pulse	1.0	t		object	instrument-25.jpg	0.0	239.18298569428134	
297.0	148.51913219681683	instrument	0.0		46.0	object	instrument-98.jpg	0.0	239.25104569420273	0.38330137213324633
297.0	148.90243356895007	ISI	1.0		5.0	object	instrument-98.jpg	0.0	239.63434706633598	0.11668489355542988
298.0	149.0191184625055	instrument	0.0		46.0	object	instrument-118.jpg	0.0	239.7510319598914	0.3832935239561266
298.0	149.10254519418413	pulse	0.0	t		object	instrument-118.jpg	0.0	239.83445869157003	
298.0	149.40241198646163	ISI	1.0		2.0	object	instrument-118.jpg	0.0	240.13432548384753	0.11669243988035305
299.0	149.51910442634198	instrument	0.0		46.0	object	instrument-53.jpg	0.0	240.2510179237279	0.38330288139786717
299.0	149.8025501143875	pulse	0.0	t		object	instrument-53.jpg	0.0	240.5344636117734	
299.0	149.90240730773985	ISI	1.0		6.0	object	instrument-53.jpg	0.0	240.63432080512575	0.11671145661875926
300.0	150.0191187643586	limb	0.0		46.0	body	limb-113.jpg	0.0	240.7510322617445	0.38327662018855335
300.0	150.40239538454716	ISI	1.0		7.0	body	limb-113.jpg	0.0	241.13430888193307	0.11667613981990144
301.0	150.51907152436706	limb	0.0		45.0	body	limb-8.jpg	0.0	241.25098502175297	0.38330771104574524
301.0	150.50962745002744	pulse	0.0	t		body	limb-8.jpg	0.0	241.24154094741334	
301.0	150.9023792354128	ISI	1.0		6.0	body	limb-8.jpg	0.0	241.6342927327987	0.11668640282096021
302.0	151.01906563823377	limb	0.0		46.0	body	limb-80.jpg	0.0	241.75097913561967	0.38330137213324633
302.0	151.20250139531527	pulse	0.0	t		body	limb-80.jpg	0.0	241.93441489270117	
302.0	151.40236701036702	ISI	1.0		7.0	body	limb-80.jpg	0.0	242.13428050775292	0.11668730837936891
303.0	151.51905431874638	limb	0.0		46.0	body	limb-80.jpg	1.0	242.2509678161323	0.38329684433847433
303.0	151.90235116308486	ISI	1.0		5.0	body	limb-80.jpg	1.0	242.63426466047076	0.11669153432194435
303.0	151.94305211401206	response	1.0	b		body	limb-80.jpg	1.0	242.67496561139797	
303.0	151.94318100523742	pulse	1.0	t		body	limb-80.jpg	1.0	242.67509450262332	
304.0	152.0190426974068	limb	0.0		46.0	body	limb-86.jpg	0.0	242.7509561947927	0.3832971461915804
304.0	152.40233984359838	ISI	1.0		6.0	body	limb-86.jpg	0.0	243.1342533409843	0.11668700652626285
305.0	152.51902685012465	limb	0.0		46.0	body	limb-7.jpg	0.0	243.25094034751055	0.3832998628686255
305.0	152.6024490540076	pulse	0.0	t		body	limb-7.jpg	0.0	243.3343625513935	
305.0	152.90232671299327	ISI	1.0		6.0	body	limb-7.jpg	0.0	243.63424021037918	0.11666708422944794
306.0	153.01899379722272	limb	0.0		46.0	body	limb-127.jpg	0.0	243.75090729460862	0.3833134462529415
306.0	153.30241775185368	pulse	0.0	t		body	limb-127.jpg	0.0	244.03433124923959	
306.0	153.40230724347566	ISI	1.0		7.0	body	limb-127.jpg	0.0	244.13422074086156	0.11667946020224917
307.0	153.5189867036779	limb	0.0		46.0	body	limb-67.jpg	0.0	244.2509002010638	0.3833424241393004
307.0	153.9023291278172	ISI	1.0		6.0	body	limb-67.jpg	0.0	244.63424262520311	0.11668791208558105
308.0	154.0190170399028	limb	0.0		45.0	body	limb-47.jpg	0.0	244.7509305372887	0.3833007684270342
308.0	154.00964269360338	pulse	0.0	t		body	limb-47.jpg	0.0	244.7415561909893	
308.0	154.40231780832983	ISI	1.0		7.0	body	limb-47.jpg	0.0	245.13423130571573	0.11668761023338448
309.0	154.5190054185632	limb	0.0		46.0	body	limb-28.jpg	0.0	245.25091891594911	0.38326665903969115
309.0	154.70240525513964	pulse	0.0	t		body	limb-28.jpg	0.0	245.43431875252554	
309.0	154.9022720776029	ISI	1.0		7.0	body	limb-28.jpg	0.0	245.6341855749888	0.11668459170323331
310.0	155.01895666930614	limb	0.0		46.0	body	limb-92.jpg	0.0	245.75087016669204	0.38330408881029143
310.0	155.40226075811643	ISI	1.0		6.0	body	limb-92.jpg	0.0	246.13417425550233	0.11668610096785414
310.0	155.4473108068505	pulse	1.0	t		body	limb-92.jpg	0.0	246.1792243042364	
311.0	155.51894685908428	limb	0.0		46.0	body	limb-104.jpg	0.0	246.25086035647018	0.38328295910105226
311.0	155.90222981818533	ISI	1.0		6.0	body	limb-104.jpg	0.0	246.63414331557124	0.11674043450511817
312.0	156.01897025269045	child	0.0		46.0	face	child-24.jpg	0.0	246.75088375007635	0.38326032012719224
312.0	156.1023550268028	pulse	0.0	t		face	child-24.jpg	0.0	246.8342685241887	
312.0	156.40223057281764	ISI	1.0		7.0	face	child-24.jpg	0.0	247.13414407020355	0.11668670467406628
313.0	156.5189172774917	child	0.0		46.0	face	child-126.jpg	0.0	247.2508307748776	0.3833062017802149
313.0	156.80233459135616	pulse	0.0	t		face	child-126.jpg	0.0	247.53424808874206	
313.0	156.90222347927192	ISI	1.0		7.0	face	child-126.jpg	0.0	247.63413697665783	0.11668278058550641
314.0	157.01890625985743	child	0.0		46.0	face	child-91.jpg	0.0	247.75081975724333	0.38328567577809736
314.0	157.40219193563553	ISI	1.0		5.0	face	child-91.jpg	0.0	248.13410543302143	0.11669334543967125
315.0	157.5188852810752	child	0.0		45.0	face	child-117.jpg	0.0	248.2507987784611	0.38330288139786717
315.0	157.50939019358157	pulse	0.0	t		face	child-117.jpg	0.0	248.24130369096747	
315.0	157.90218816247307	ISI	1.0		6.0	face	child-117.jpg	0.0	248.63410165985897	0.11669002505732351
316.0	158.0188781875304	child	0.0		46.0	face	child-93.jpg	0.0	248.7507916849163	0.3832944295136258
316.0	158.2023205853775	pulse	0.0	t		face	child-93.jpg	0.0	248.9342340827634	
316.0	158.40217261704402	ISI	1.0		7.0	face	child-93.jpg	0.0	249.13408611442992	0.11668881764489925
317.0	158.51886143468892	child	0.0		46.0	face	child-99.jpg	0.0	249.25077493207482	0.38329744804468646
317.0	158.9021588827336	ISI	1.0		2.0	face	child-99.jpg	0.0	249.6340723801195	0.11669062876262615
317.0	158.9792470035809	pulse	1.0	t		face	child-99.jpg	0.0	249.7111605009668	
318.0	159.01884951149623	child	0.0		46.0	face	child-77.jpg	0.0	249.75076300888213	0.38331223884051724
318.0	159.40216175033675	ISI	1.0		7.0	face	child-77.jpg	0.0	250.13407524772265	0.11669213802815648
319.0	159.5188538883649	child	0.0		46.0	face	child-31.jpg	0.0	250.2507673857508	0.3832832609541583
319.0	159.60225647180323	pulse	0.0	t		face	child-31.jpg	0.0	250.33416996918913	
319.0	159.90213714931906	ISI	1.0		7.0	face	child-31.jpg	0.0	250.63405064670496	0.11668489355542988
320.0	160.0188220428745	child	0.0		46.0	face	child-76.jpg	0.0	250.7507355402604	0.38330137213324633
320.0	160.30226350497833	pulse	0.0	t		face	child-76.jpg	0.0	251.03417700236423	
320.0	160.40212341500774	ISI	1.0		6.0	face	child-76.jpg	0.0	251.13403691239364	0.11668640282096021
321.0	160.5188098178287	child	0.0		46.0	face	child-62.jpg	0.0	251.2507233152146	0.3833333685497564
321.0	160.90214318637845	ISI	1.0		6.0	face	child-62.jpg	0.0	251.63405668376436	0.11668217687929427
322.0	161.01882536325775	child	0.0		45.0	face	child-22.jpg	0.0	251.75073886064365	0.38330197583854897
322.0	161.00929646822988	pulse	0.0	t		face	child-22.jpg	0.0	251.74120996561578	
322.0	161.4021273390963	ISI	1.0		7.0	face	child-22.jpg	0.0	252.1340408364822	0.11669213802815648
323.0	161.51881947712445	child	0.0		46.0	face	child-95.jpg	0.0	252.25073297451036	0.38329563692605007
323.0	161.702240141557	pulse	0.0	t		face	child-95.jpg	0.0	252.43415363894292	
323.0	161.9021151140505	ISI	1.0		6.0	face	child-95.jpg	0.0	252.6340286114364	0.11669394914588338
324.0	162.0188090631964	instrument	0.0		46.0	object	instrument-110.jpg	0.0	252.7507225605823	0.38329412766142923
324.0	162.40210319085782	ISI	1.0		6.0	object	instrument-110.jpg	0.0	253.13401668824372	0.11668821393868711
324.0	162.4488061865377	pulse	1.0	t		object	instrument-110.jpg	0.0	253.1807196839236	
325.0	162.5187914047965	instrument	0.0		46.0	object	instrument-62.jpg	0.0	253.2507049021824	0.3832850720718852
325.0	162.9020764768684	ISI	1.0		4.0	object	instrument-62.jpg	0.0	253.6339899742543	0.11671024920724449
326.0	163.01878672607563	instrument	0.0		46.0	object	instrument-109.jpg	0.0	253.75070022346154	0.38327752574696206
326.0	163.1021980632513	pulse	0.0	t		object	instrument-109.jpg	0.0	253.8341115606372	
326.0	163.4020642518226	ISI	1.0		6.0	object	instrument-109.jpg	0.0	254.1339777492085	0.11669726952823112
327.0	163.51876152135083	instrument	0.0		46.0	object	instrument-126.jpg	0.0	254.25067501873673	0.38328839245514246
327.0	163.80217943892148	pulse	0.0	t		object	instrument-126.jpg	0.0	254.5340929363074	
327.0	163.90204991380597	ISI	1.0		7.0	object	instrument-126.jpg	0.0	254.63396341119187	0.11668610096785414
328.0	164.01873601477382	instrument	0.0		46.0	object	instrument-105.jpg	0.0	254.75064951215973	0.38331103142900247
328.0	164.40204704620282	ISI	1.0		5.0	object	instrument-105.jpg	0.0	255.13396054358873	0.11668398799702118
329.0	164.51873103419985	instrument	0.0		45.0	object	instrument-85.jpg	0.0	255.25064453158575	0.38330559807491227
329.0	164.50880973029143	pulse	0.0	t		object	instrument-85.jpg	0.0	255.24072322767734	
329.0	164.90203663227476	ISI	1.0		7.0	object	instrument-85.jpg	0.0	255.63395012966066	0.11670692882398725
330.0	165.01874356109874	instrument	0.0		46.0	object	instrument-63.jpg	0.0	255.75065705848465	0.38323768115333223
330.0	165.20223516098304	pulse	0.0	t		object	instrument-63.jpg	0.0	255.93414865836894	
330.0	165.40198124225208	ISI	1.0		5.0	object	instrument-63.jpg	0.0	256.133894739638	0.116728360385423
331.0	165.5187096026375	instrument	0.0		46.0	object	instrument-1.jpg	0.0	256.2506231000234	0.38326394236355554
331.0	165.90197354500106	ISI	1.0		7.0	object	instrument-1.jpg	0.0	256.63388704238696	0.11668730837936891
331.0	165.93713036215468	pulse	1.0	t		object	instrument-1.jpg	0.0	256.6690438595406	
332.0	166.01866085338042	instrument	0.0		46.0	object	instrument-143.jpg	0.0	256.7505743507663	0.3833007684279437
332.0	166.40196162180837	ISI	1.0		6.0	object	instrument-143.jpg	0.0	257.1338751191943	0.1167120603240619
333.0	166.51867368213243	instrument	0.0		46.0	object	instrument-142.jpg	0.0	257.25058717951833	0.3832778276000681
333.0	166.60232197390178	pulse	0.0	t		object	instrument-142.jpg	0.0	257.3342354712877	
333.0	166.9019515097325	ISI	1.0		2.0	object	instrument-142.jpg	0.0	257.6338650071184	0.11668428985012724
334.0	167.01863579958263	instrument	0.0		46.0	object	instrument-50.jpg	0.0	257.75054929696853	0.38331676663619874
334.0	167.1353919304438	response	0.0	b		object	instrument-50.jpg	0.0	257.8673054278297	
334.0	167.3021608749632	pulse	0.0	t		object	instrument-50.jpg	0.0	258.0340743723491	
334.0	167.40195256621882	ISI	1.0		4.0	object	instrument-50.jpg	0.0	258.1338660636047	0.11665682122838916
335.0	167.5186093874472	instrument	0.0		46.0	object	instrument-78.jpg	0.0	258.2505228848331	0.3833128425458199
335.0	167.90192222999303	ISI	1.0		6.0	object	instrument-78.jpg	0.0	258.63383572737894	0.1166791583500526
336.0	168.0186013883431	corridor	0.0		45.0	place	corridor-97.jpg	0.0	258.750514885729	0.38330680548642704
336.0	168.0088953056129	pulse	0.0	t		place	corridor-97.jpg	0.0	258.7408088029988	
336.0	168.4019081938295	ISI	1.0		6.0	place	corridor-97.jpg	0.0	259.1338216912154	0.11668791208558105
337.0	168.5185961059151	corridor	0.0		46.0	place	corridor-57.jpg	0.0	259.250509603301	0.38330650363423047
337.0	168.70201586478925	pulse	0.0	t		place	corridor-57.jpg	0.0	259.43392936217515	
337.0	168.90190260954932	ISI	1.0		5.0	place	corridor-57.jpg	0.0	259.6338161069352	0.11670089176459442
338.0	169.01860350131392	corridor	0.0		46.0	place	corridor-41.jpg	0.0	259.7505169986998	0.38327843130628025
338.0	169.4018819326202	ISI	1.0		6.0	place	corridor-41.jpg	0.0	260.1337954300061	0.11668308243770298
338.0	169.44601947978026	pulse	1.0	t		place	corridor-41.jpg	0.0	260.17793297716617	
339.0	169.5185650150579	corridor	0.0		46.0	place	corridor-74.jpg	0.0	260.2504785124438	0.38329473136764136
339.0	169.90185974642554	ISI	1.0		6.0	place	corridor-74.jpg	0.0	260.63377324381145	0.1166755361136893
340.0	170.01853528253923	corridor	0.0		46.0	place	corridor-114.jpg	0.0	260.75044877992514	0.383317974046804
340.0	170.10206705905603	pulse	0.0	t		place	corridor-114.jpg	0.0	260.83398055644193	
340.0	170.40185325658604	ISI	1.0		7.0	place	corridor-114.jpg	0.0	261.13376675397194	0.11668127132088557
341.0	170.51853452790692	corridor	0.0		46.0	place	corridor-81.jpg	0.0	261.2504480252928	0.3833164647821832
341.0	170.8019599918016	pulse	0.0	t		place	corridor-81.jpg	0.0	261.5338734891875	
341.0	170.9018509926891	ISI	1.0		7.0	place	corridor-81.jpg	0.0	261.633764490075	0.11667674352520407
342.0	171.0185277362143	corridor	0.0		46.0	place	corridor-72.jpg	0.0	261.7504412336002	0.3833324629904382
342.0	171.40186019920475	ISI	1.0		7.0	place	corridor-72.jpg	0.0	262.13377369659065	0.11668217687929427
343.0	171.51854237608404	corridor	0.0		45.0	place	corridor-122.jpg	0.0	262.25045587346995	0.38330318325097323
343.0	171.5088960602452	pulse	0.0	t		place	corridor-122.jpg	0.0	262.2408095576311	
343.0	171.90184555933502	ISI	1.0		6.0	place	corridor-122.jpg	0.0	262.6337590567209	0.11668942135111138
344.0	172.01853498068613	corridor	0.0		46.0	place	corridor-139.jpg	0.0	262.75044847807203	0.3832971461915804
344.0	172.20194538211763	pulse	0.0	t		place	corridor-139.jpg	0.0	262.93385887950353	
344.0	172.4018321268777	ISI	1.0		7.0	place	corridor-139.jpg	0.0	263.1337456242636	0.11667855464293098
345.0	172.51851068152064	corridor	0.0		46.0	place	corridor-111.jpg	0.0	263.25042417890654	0.38327752574787155
345.0	172.9017882072685	ISI	1.0		7.0	place	corridor-111.jpg	0.0	263.6337017046544	0.11668700652626285
345.0	172.9386278548127	pulse	1.0	t		place	corridor-111.jpg	0.0	263.6705413521986	
346.0	173.01847521379477	corridor	0.0		46.0	place	corridor-111.jpg	1.0	263.7503887111807	0.38329744804468646
346.0	173.40177266183946	ISI	1.0		5.0	place	corridor-111.jpg	1.0	264.13368615922536	0.11668881764489925
346.0	173.47688817343078	response	1.0	b		place	corridor-111.jpg	1.0	264.2088016708167	
347.0	173.51846147948436	corridor	0.0		46.0	place	corridor-7.jpg	0.0	264.25037497687026	0.3832989573093073
347.0	173.6019346965213	pulse	0.0	t		place	corridor-7.jpg	0.0	264.3338481939072	
347.0	173.90176043679367	ISI	1.0		7.0	place	corridor-7.jpg	0.0	264.63367393417957	0.11668640282096021
348.0	174.01844683961463	corridor	0.0		46.0	place	corridor-32.jpg	0.0	264.75036033700053	0.38330227769165504
348.0	174.30186234236135	pulse	0.0	t		place	corridor-32.jpg	0.0	265.03377583974725	
348.0	174.40174911730628	ISI	1.0		7.0	place	corridor-32.jpg	0.0	265.1336626146922	0.11668338429171854
349.0	174.518432501598	corridor	0.0		46.0	place	corridor-46.jpg	0.0	265.2503459989839	0.38329322210211103
349.0	174.9017257237001	ISI	1.0		7.0	place	corridor-46.jpg	0.0	265.633639221086	0.11671779553125816
350.0	175.01844351923137	corridor	0.0		45.0	place	corridor-103.jpg	0.0	265.7503570166173	0.38328205354264355
350.0	175.00864205095877	pulse	0.0	t		place	corridor-103.jpg	0.0	265.7405555483447	
350.0	175.401725572774	ISI	1.0		7.0	place	corridor-103.jpg	0.0	266.1336390701599	0.1166800639084613
351.0	175.51840563668247	corridor	0.0		46.0	place	corridor-84.jpg	0.0	266.2503191340684	0.38329141098438413
351.0	175.70181060475988	pulse	0.0	t		place	corridor-84.jpg	0.0	266.4337241021458	
351.0	175.90169704766686	ISI	1.0		5.0	place	corridor-84.jpg	0.0	266.63361054505276	0.11670058991148835
352.0	176.01839763757835	corridor	0.0		46.0	place	corridor-85.jpg	0.0	266.75031113496425	0.3833119369874112
352.0	176.40170957456576	ISI	1.0		6.0	place	corridor-85.jpg	0.0	267.13362307195166	0.11666768793566007
352.0	176.44375588424646	pulse	1.0	t		place	corridor-85.jpg	0.0	267.17566938163236	
353.0	176.51837726250142	corridor	0.0		46.0	place	corridor-130.jpg	0.0	267.2502907598873	0.3833016739863524
353.0	176.90167893648777	ISI	1.0		7.0	place	corridor-130.jpg	0.0	267.6335924338737	0.11668549726164201
354.0	177.0183644337494	corridor	0.0		46.0	place	corridor-102.jpg	0.0	267.7502779311353	0.38330408881029143
354.0	177.10179388210418	pulse	0.0	t		place	corridor-102.jpg	0.0	267.8337073794901	
354.0	177.4016685225597	ISI	1.0		6.0	place	corridor-102.jpg	0.0	268.1335820199456	0.11668338429080904
355.0	177.5183519068505	corridor	0.0		46.0	place	corridor-107.jpg	0.0	268.2502654042364	0.3832998628686255
355.0	177.80177012627428	pulse	0.0	t		place	corridor-107.jpg	0.0	268.5336836236602	
355.0	177.90165176971914	ISI	1.0		5.0	place	corridor-107.jpg	0.0	268.63356526710504	0.11668670467406628
356.0	178.0183384743932	corridor	0.0		46.0	place	corridor-21.jpg	0.0	268.7502519717791	0.3832989573093073
356.0	178.4016374317025	ISI	1.0		4.0	place	corridor-21.jpg	0.0	269.1335509290884	0.11669576026361028
357.0	178.51833319196612	corridor	0.0		45.0	place	corridor-59.jpg	0.0	269.250246689352	0.3833255203717272
357.0	178.5086560871223	pulse	0.0	t		place	corridor-59.jpg	0.0	269.2405695845082	
357.0	178.90165871233785	ISI	1.0		7.0	place	corridor-59.jpg	0.0	269.63357220972375	0.11668942135020188
358.0	179.01834813368805	corridor	0.0		46.0	place	corridor-59.jpg	1.0	269.75026163107395	0.3832962406331717
358.0	179.20176336476743	pulse	0.0	t		place	corridor-59.jpg	1.0	269.93367686215333	
358.0	179.40164437432122	ISI	1.0		7.0	place	corridor-59.jpg	1.0	270.1335578717071	0.11669394914497389
359.0	179.5183383234662	corridor	0.0		46.0	place	corridor-93.jpg	0.0	270.2502518208521	0.3832923165437023
359.0	179.56842388369478	response	0.0	b		place	corridor-93.jpg	0.0	270.3003373810807	
359.0	179.9016306400099	ISI	1.0		6.0	place	corridor-93.jpg	0.0	270.6335441373958	0.11668851579179318
359.0	179.94880362078675	pulse	1.0	t		place	corridor-93.jpg	0.0	270.68071711817265	
360.0	180.0183191558017	limb	0.0		46.0	body	limb-99.jpg	0.0	270.7502326531876	0.38329744804468646
360.0	180.40161660384638	ISI	1.0		6.0	body	limb-99.jpg	0.0	271.1335301012323	0.11668700652717234
361.0	180.51830361037355	limb	0.0		46.0	body	limb-38.jpg	0.0	271.25021710775945	0.38329956101460994
361.0	180.6017387939346	pulse	0.0	t		body	limb-38.jpg	0.0	271.3336522913205	
361.0	180.90160317138816	ISI	1.0		7.0	body	limb-38.jpg	0.0	271.63351666877406	0.11669606211671635
362.0	181.01829923350488	limb	0.0		46.0	body	limb-93.jpg	0.0	271.7502127308908	0.38329201469059626
362.0	181.3017077936329	pulse	0.0	t		body	limb-93.jpg	0.0	272.0336212910188	
362.0	181.40159124819547	ISI	1.0		7.0	body	limb-93.jpg	0.0	272.1335047455814	0.11667493240747717
363.0	181.51826618060295	limb	0.0		46.0	body	limb-93.jpg	1.0	272.25017967798885	0.38330589992801833
363.0	181.90157208053097	ISI	1.0		5.0	body	limb-93.jpg	1.0	272.6334855779169	0.11668851579179318
364.0	182.01826059632276	limb	0.0		45.0	body	limb-20.jpg	0.0	272.75017409370867	0.3833043906633975
364.0	182.00888504261093	pulse	0.0	t		body	limb-20.jpg	0.0	272.74079853999683	
364.0	182.02327437440272	response	0.0	b		body	limb-20.jpg	0.0	272.7551878717886	
364.0	182.40156498698616	ISI	1.0		7.0	body	limb-20.jpg	0.0	273.13347848437206	0.11668670467315678
365.0	182.51825169165932	limb	0.0		46.0	body	limb-97.jpg	0.0	273.2501651890452	0.3832980517508986
365.0	182.70165998011998	pulse	0.0	t		body	limb-97.jpg	0.0	273.4335734775059	
365.0	182.90154974341021	ISI	1.0		4.0	body	limb-97.jpg	0.0	273.6334632407961	0.11668942135020188
366.0	183.01823916476042	limb	0.0		46.0	body	limb-60.jpg	0.0	273.7501526621463	0.38329654248536826
366.0	183.40153570724578	ISI	1.0		4.0	body	limb-60.jpg	0.0	274.1334492046317	0.11668761023338448
366.0	183.45902058969386	pulse	1.0	t		body	limb-60.jpg	0.0	274.19093408707977	
367.0	183.51822331747917	limb	0.0		46.0	body	limb-51.jpg	0.0	274.2501368148651	0.3832850720718852
367.0	183.90150838955105	ISI	1.0		7.0	body	limb-51.jpg	0.0	274.63342188693696	0.11670391029383609
368.0	184.0182122998449	limb	0.0		46.0	body	limb-40.jpg	0.0	274.7501257972308	0.3832971461915804
368.0	184.1016378241111	pulse	0.0	t		body	limb-40.jpg	0.0	274.833551321497	
368.0	184.40150944603647	ISI	1.0		7.0	body	limb-40.jpg	0.0	275.1334229434224	0.11668821393868711
369.0	184.51819765997516	limb	0.0		46.0	body	limb-69.jpg	0.0	275.25011115736106	0.38329925916241336
369.0	184.80161497384051	pulse	0.0	t		body	limb-69.jpg	0.0	275.5335284712264	
369.0	184.90149691913757	ISI	1.0		7.0	body	limb-69.jpg	0.0	275.6334104165235	0.11668791208558105
370.0	185.01818483122315	limb	0.0		46.0	body	limb-91.jpg	0.0	275.75009832860906	0.3832953350738535
370.0	185.401480166297	ISI	1.0		6.0	body	limb-91.jpg	0.0	276.1333936636829	0.11669093061573221
371.0	185.51817109691274	limb	0.0		45.0	body	limb-34.jpg	0.0	276.25008459429864	0.3832980517499891
371.0	185.5095743239026	pulse	0.0	t		body	limb-34.jpg	0.0	276.2414878212885	
371.0	185.90146914866273	ISI	1.0		6.0	body	limb-34.jpg	0.0	276.63338264604863	0.1166719138782355
372.0	186.01814106254096	number	0.0		46.0	character	number-92.jpg	0.0	276.75005455992687	0.3833137481051381
372.0	186.2015985530379	pulse	0.0	t		character	number-92.jpg	0.0	276.9335120504238	
372.0	186.4014548106461	ISI	1.0		6.0	character	number-92.jpg	0.0	277.133368308032	0.11669002505732351
373.0	186.51814483570342	number	0.0		46.0	character	number-66.jpg	0.0	277.2500583330893	0.3832971461906709
373.0	186.9014419818941	ISI	1.0		4.0	character	number-66.jpg	0.0	277.63335547928	0.1166610471709646
373.0	186.96307522991447	pulse	1.0	t		character	number-66.jpg	0.0	277.69498872730037	
374.0	187.01810302906506	number	0.0		46.0	character	number-112.jpg	0.0	277.75001652645096	0.38332672778324195
374.0	187.4014297568483	ISI	1.0		7.0	character	number-112.jpg	0.0	278.1333432542342	0.1166809694677795
375.0	187.51811072631608	number	0.0		46.0	character	number-112.jpg	1.0	278.250024223702	0.38330499436870014
375.0	187.60155436176046	pulse	0.0	t		character	number-112.jpg	1.0	278.33346785914637	
375.0	187.90141572068478	ISI	1.0		4.0	character	number-112.jpg	1.0	278.6333292180707	0.11671990850209113
376.0	188.01813562918687	number	0.0		46.0	character	number-23.jpg	0.0	278.7500491265728	0.3832660553343885
376.0	188.04318882322968	response	0.0	b		character	number-23.jpg	0.0	278.7751023206156	
376.0	188.3014892520714	pulse	0.0	t		character	number-23.jpg	0.0	279.0334027494573	
376.0	188.40140168452126	ISI	1.0		7.0	character	number-23.jpg	0.0	279.13331518190716	0.11668851579179318
377.0	188.51809020031305	number	0.0		46.0	character	number-99.jpg	0.0	279.25000369769896	0.38329925916241336
377.0	188.90138945947547	ISI	1.0		6.0	character	number-99.jpg	0.0	279.63330295686137	0.11668881764398975
378.0	189.01807827711946	number	0.0		45.0	character	number-79.jpg	0.0	279.74999177450536	0.3832980517508986
378.0	189.00997231706333	pulse	0.0	t		character	number-79.jpg	0.0	279.74188581444923	
