trial_nr	onset	event_type	phase	response	nr_frames	face_age	face_sex	face_eth	attractiveness	expression	face_id	sub_id	ses	run	trial_type	catch	rating_type	onset_abs	duration
-1.0	0.055297052012974746	fix	0.0		714													22.730575081251118	5.966300830910768
-1.0	0.7051847174252543	pulse	0.0	t														23.380462746663397	
-1.0	1.4051679042140677	pulse	0.0	t														24.08044593345221	
-1.0	2.105151392855987	pulse	0.0	t														24.78042942209413	
-1.0	2.805124014789726	pulse	0.0	t														25.48040204402787	
-1.0	3.505106296019221	pulse	0.0	t														26.180384325257364	
-1.0	4.2050894828080345	pulse	0.0	t														26.880367512046178	
-1.0	4.905075989980105	pulse	0.0	t														27.580354019218248	
-1.0	5.6050549508272525	pulse	0.0	t														28.280332980065396	
0.0	6.021597882923743	face	0.0		144	27.0	female	white	3.504576203740549	neutral	144	sub-12	1.0	5.0	144_neutral	0.0		28.696875912161886	1.2332985498078415
0.0	6.305039948733793	pulse	0.0	t		27.0	female	white	3.504576203740549	neutral	144	sub-12	1.0	5.0	144_neutral	0.0		28.980317977971936	
0.0	7.005016192903895	pulse	0.0	t		27.0	female	white	3.504576203740549	neutral	144	sub-12	1.0	5.0	144_neutral	0.0		29.680294222142038	
0.0	7.254896432731584	fix	1.0		445	27.0	female	white	3.504576203740549	neutral	144	sub-12	1.0	5.0	144_neutral	0.0		29.930174461969727	3.7582317572887405
0.0	7.704996361162557	pulse	1.0	t		27.0	female	white	3.504576203740549	neutral	144	sub-12	1.0	5.0	144_neutral	0.0		30.3802743904007	
0.0	8.40498739612849	pulse	1.0	t		27.0	female	white	3.504576203740549	neutral	144	sub-12	1.0	5.0	144_neutral	0.0		31.080265425366633	
0.0	9.104958810650714	pulse	1.0	t		27.0	female	white	3.504576203740549	neutral	144	sub-12	1.0	5.0	144_neutral	0.0		31.780236839888858	
0.0	9.804943506705058	pulse	1.0	t		27.0	female	white	3.504576203740549	neutral	144	sub-12	1.0	5.0	144_neutral	0.0		32.4802215359432	
0.0	10.504919449022054	pulse	1.0	t		27.0	female	white	3.504576203740549	neutral	144	sub-12	1.0	5.0	144_neutral	0.0		33.1801974782602	
1.0	11.013128190020325	face	0.0		146	31.0	female	east_asian	3.395941106247513	neutral	087	sub-12	1.0	5.0	087_neutral	0.0		33.68840621925847	1.2416351255451445
1.0	11.204908069164048	pulse	0.0	t		31.0	female	east_asian	3.395941106247513	neutral	087	sub-12	1.0	5.0	087_neutral	0.0		33.88018609840219	
1.0	11.904885822599681	pulse	0.0	t		31.0	female	east_asian	3.395941106247513	neutral	087	sub-12	1.0	5.0	087_neutral	0.0		34.580163851837824	
1.0	12.25476331556547	fix	1.0		445	31.0	female	east_asian	3.395941106247513	neutral	087	sub-12	1.0	5.0	087_neutral	0.0		34.93004134480361	3.758214249814955
1.0	12.604866896417661	pulse	1.0	t		31.0	female	east_asian	3.395941106247513	neutral	087	sub-12	1.0	5.0	087_neutral	0.0		35.280144925655804	
1.0	13.304846460970111	pulse	1.0	t		31.0	female	east_asian	3.395941106247513	neutral	087	sub-12	1.0	5.0	087_neutral	0.0		35.980124490208254	
1.0	14.00482994961203	pulse	1.0	t		31.0	female	east_asian	3.395941106247513	neutral	087	sub-12	1.0	5.0	087_neutral	0.0		36.680107978850174	
1.0	14.704812230841526	pulse	1.0	t		31.0	female	east_asian	3.395941106247513	neutral	087	sub-12	1.0	5.0	087_neutral	0.0		37.38009026007967	
1.0	15.404793304659506	pulse	1.0	t		31.0	female	east_asian	3.395941106247513	neutral	087	sub-12	1.0	5.0	087_neutral	0.0		38.08007133389765	
2.0	16.012977565380424	face	0.0		146	19.0	male	white	3.2522881018702745	neutral	018	sub-12	1.0	5.0	018_neutral	0.0		38.68825559461857	1.2416514256065057
2.0	16.10478041553688	pulse	0.0	t		19.0	male	white	3.2522881018702745	neutral	018	sub-12	1.0	5.0	018_neutral	0.0		38.78005844477502	
2.0	16.80475605600077	pulse	0.0	t		19.0	male	white	3.2522881018702745	neutral	018	sub-12	1.0	5.0	018_neutral	0.0		39.48003408523891	
2.0	17.25462899098693	fix	1.0		444	19.0	male	white	3.2522881018702745	neutral	018	sub-12	1.0	5.0	018_neutral	0.0		39.92990702022507	3.7582257202293476
2.0	17.504737733524962	pulse	1.0	t		19.0	male	white	3.2522881018702745	neutral	018	sub-12	1.0	5.0	018_neutral	0.0		40.180015762763105	
2.0	18.204706129517035	pulse	1.0	t		19.0	male	white	3.2522881018702745	neutral	018	sub-12	1.0	5.0	018_neutral	0.0		40.87998415875518	
2.0	18.904674525510018	pulse	1.0	t		19.0	male	white	3.2522881018702745	neutral	018	sub-12	1.0	5.0	018_neutral	0.0		41.57995255474816	
2.0	19.604680954978903	pulse	1.0	t		19.0	male	white	3.2522881018702745	neutral	018	sub-12	1.0	5.0	018_neutral	0.0		42.279958984217046	
2.0	20.305011574552736	pulse	1.0	t		19.0	male	white	3.2522881018702745	neutral	018	sub-12	1.0	5.0	018_neutral	0.0		42.98028960379088	
3.0	21.012854711216278	face	0.0		147	27.0	female	white	4.181058495821727	neutral	039	sub-12	1.0	5.0	039_neutral	0.0		43.68813274045442	1.2416390496337044
3.0	21.00563167113978	pulse	0.0	t		27.0	female	white	4.181058495821727	neutral	039	sub-12	1.0	5.0	039_neutral	0.0		43.680909700377924	
3.0	21.704627194962086	pulse	0.0	t		27.0	female	white	4.181058495821727	neutral	039	sub-12	1.0	5.0	039_neutral	0.0		44.37990522420023	
3.0	22.254493760849982	fix	1.0		443	27.0	female	white	4.181058495821727	neutral	039	sub-12	1.0	5.0	039_neutral	0.0		44.929771790088125	3.7582329647002553
3.0	22.404616418810292	pulse	1.0	t		27.0	female	white	4.181058495821727	neutral	039	sub-12	1.0	5.0	039_neutral	0.0		45.079894448048435	
3.0	23.104584814803275	pulse	1.0	t		27.0	female	white	4.181058495821727	neutral	039	sub-12	1.0	5.0	039_neutral	0.0		45.77986284404142	
3.0	23.804589433153524	pulse	1.0	t		27.0	female	white	4.181058495821727	neutral	039	sub-12	1.0	5.0	039_neutral	0.0		46.47986746239167	
3.0	24.504552395792416	pulse	1.0	t		27.0	female	white	4.181058495821727	neutral	039	sub-12	1.0	5.0	039_neutral	0.0		47.17983042503056	
3.0	25.20453014922714	pulse	1.0	t		27.0	female	white	4.181058495821727	neutral	039	sub-12	1.0	5.0	039_neutral	0.0		47.87980817846528	
3.0	25.90450820451497	pulse	1.0	t		27.0	female	white	4.181058495821727	neutral	039	sub-12	1.0	5.0	039_neutral	0.0		48.57978623375311	
4.0	26.012726725550237	face	0.0		147	30.0	female	black	2.7345801830481498	smiling	062	sub-12	1.0	5.0	062_smiling	0.0		48.68800475478838	1.2416390496337044
4.0	26.604494409833933	pulse	0.0	t		30.0	female	black	2.7345801830481498	smiling	062	sub-12	1.0	5.0	062_smiling	0.0		49.279772439072076	
4.0	27.254365775183942	fix	1.0		443	30.0	female	black	2.7345801830481498	smiling	062	sub-12	1.0	5.0	062_smiling	0.0		49.929643804422085	3.7582103257273047
4.0	27.3044812188582	pulse	1.0	t		30.0	female	black	2.7345801830481498	smiling	062	sub-12	1.0	5.0	062_smiling	0.0		49.97975924809634	
4.0	28.004452633380424	pulse	1.0	t		30.0	female	black	2.7345801830481498	smiling	062	sub-12	1.0	5.0	062_smiling	0.0		50.67973066261857	
4.0	28.70443099052136	pulse	1.0	t		30.0	female	black	2.7345801830481498	smiling	062	sub-12	1.0	5.0	062_smiling	0.0		51.3797090197595	
4.0	29.404417195840324	pulse	1.0	t		30.0	female	black	2.7345801830481498	smiling	062	sub-12	1.0	5.0	062_smiling	0.0		52.07969522507847	
4.0	30.10439555298126	pulse	1.0	t		30.0	female	black	2.7345801830481498	smiling	062	sub-12	1.0	5.0	062_smiling	0.0		52.7796735822194	
4.0	30.804389606477343	pulse	1.0	t		30.0	female	black	2.7345801830481498	smiling	062	sub-12	1.0	5.0	062_smiling	0.0		53.47966763571549	
5.0	31.012576100911247	face	0.0		146	23.0	male	white	2.6275368085953046	smiling	141	sub-12	1.0	5.0	141_smiling	1.0	trustworthiness	53.68785413014939	1.2416517274587022
5.0	31.504363435823507	pulse	0.0	t		23.0	male	white	2.6275368085953046	smiling	141	sub-12	1.0	5.0	141_smiling	1.0	trustworthiness	54.17964146506165	
5.0	32.20434360408217	pulse	0.0	t		23.0	male	white	2.6275368085953046	smiling	141	sub-12	1.0	5.0	141_smiling	1.0	trustworthiness	54.87962163332031	
5.0	32.25422782836995	fix	1.0		177	23.0	male	white	2.6275368085953046	smiling	141	sub-12	1.0	5.0	141_smiling	1.0	trustworthiness	54.92950585760809	1.5083134839842387
5.0	32.904318640840756	pulse	1.0	t		23.0	male	white	2.6275368085953046	smiling	141	sub-12	1.0	5.0	141_smiling	1.0	trustworthiness	55.5795966700789	
5.0	33.60430273318889	pulse	1.0	t		23.0	male	white	2.6275368085953046	smiling	141	sub-12	1.0	5.0	141_smiling	1.0	trustworthiness	56.27958076242703	
5.0	33.76254131235419	rating	2.0		294	23.0	male	white	2.6275368085953046	smiling	141	sub-12	1.0	5.0	141_smiling	1.0	trustworthiness	56.43781934159233	2.4915772452359306
5.0	34.299059033690355	pulse	2.0	t		23.0	male	white	2.6275368085953046	smiling	141	sub-12	1.0	5.0	141_smiling	1.0	trustworthiness	56.9743370629285	
5.0	34.58760996126966	response	2.0	g		23.0	male	white	2.6275368085953046	smiling	141	sub-12	1.0	5.0	141_smiling	1.0	trustworthiness	57.26288799050781	
5.0	35.00425009002811	pulse	2.0	t		23.0	male	white	2.6275368085953046	smiling	141	sub-12	1.0	5.0	141_smiling	1.0	trustworthiness	57.67952811926625	
5.0	35.70425229355442	pulse	2.0	t		23.0	male	white	2.6275368085953046	smiling	141	sub-12	1.0	5.0	141_smiling	1.0	trustworthiness	58.37953032279256	
5.0	36.25411855759012	fix	3.0		443	23.0	male	white	2.6275368085953046	smiling	141	sub-12	1.0	5.0	141_smiling	1.0	trustworthiness	58.92939658682826	3.758235681376391
5.0	36.40423729146096	pulse	3.0	t		23.0	male	white	2.6275368085953046	smiling	141	sub-12	1.0	5.0	141_smiling	1.0	trustworthiness	59.0795153206991	
5.0	37.104210818954925	pulse	3.0	t		23.0	male	white	2.6275368085953046	smiling	141	sub-12	1.0	5.0	141_smiling	1.0	trustworthiness	59.77948884819307	
5.0	37.8041979298323	pulse	3.0	t		23.0	male	white	2.6275368085953046	smiling	141	sub-12	1.0	5.0	141_smiling	1.0	trustworthiness	60.47947595907044	
5.0	38.5041678350899	pulse	3.0	t		23.0	male	white	2.6275368085953046	smiling	141	sub-12	1.0	5.0	141_smiling	1.0	trustworthiness	61.179445864328045	
5.0	39.204156455231896	pulse	3.0	t		23.0	male	white	2.6275368085953046	smiling	141	sub-12	1.0	5.0	141_smiling	1.0	trustworthiness	61.87943448447004	
5.0	39.90413722719677	pulse	3.0	t		23.0	male	white	2.6275368085953046	smiling	141	sub-12	1.0	5.0	141_smiling	1.0	trustworthiness	62.57941525643491	
6.0	40.01235423896651	face	0.0		147	27.0	female	white	3.504576203740549	smiling	144	sub-12	1.0	5.0	144_smiling	0.0		62.68763226820465	1.24162999404507
6.0	40.60411135839604	pulse	0.0	t		27.0	female	white	3.504576203740549	smiling	144	sub-12	1.0	5.0	144_smiling	0.0		63.27938938763418	
6.0	41.25398423301158	fix	1.0		443	27.0	female	white	3.504576203740549	smiling	144	sub-12	1.0	5.0	144_smiling	0.0		63.92926226224972	3.7582329647002553
6.0	41.30410028039114	pulse	1.0	t		27.0	female	white	3.504576203740549	smiling	144	sub-12	1.0	5.0	144_smiling	0.0		63.97937830962928	
6.0	42.004084070886165	pulse	1.0	t		27.0	female	white	3.504576203740549	smiling	144	sub-12	1.0	5.0	144_smiling	0.0		64.67936210012431	
6.0	42.70405518355528	pulse	1.0	t		27.0	female	white	3.504576203740549	smiling	144	sub-12	1.0	5.0	144_smiling	0.0		65.37933321279343	
6.0	43.404058896347124	pulse	1.0	t		27.0	female	white	3.504576203740549	smiling	144	sub-12	1.0	5.0	144_smiling	0.0		66.07933692558527	
6.0	44.10402065157359	pulse	1.0	t		27.0	female	white	3.504576203740549	smiling	144	sub-12	1.0	5.0	144_smiling	0.0		66.77929868081173	
6.0	44.80400836615718	pulse	1.0	t		27.0	female	white	3.504576203740549	smiling	144	sub-12	1.0	5.0	144_smiling	0.0		67.47928639539532	
7.0	45.012217197711834	face	0.0		146	20.0	male	black	2.609629924393156	smiling	043	sub-12	1.0	5.0	043_smiling	0.0		67.68749522694998	1.2416378422221896
7.0	45.503988836269855	pulse	0.0	t		20.0	male	black	2.609629924393156	smiling	043	sub-12	1.0	5.0	043_smiling	0.0		68.179266865508	
7.0	46.20396749526299	pulse	0.0	t		20.0	male	black	2.609629924393156	smiling	043	sub-12	1.0	5.0	043_smiling	0.0		68.87924552450113	
7.0	46.253855039934024	fix	1.0		445	20.0	male	black	2.609629924393156	smiling	043	sub-12	1.0	5.0	043_smiling	0.0		68.92913306917217	3.7665656163489984
7.0	46.90395702096521	pulse	1.0	t		20.0	male	black	2.609629924393156	smiling	043	sub-12	1.0	5.0	043_smiling	0.0		69.57923505020335	
7.0	47.603930548458266	pulse	1.0	t		20.0	male	black	2.609629924393156	smiling	043	sub-12	1.0	5.0	043_smiling	0.0		70.27920857769641	
7.0	48.30391373524708	pulse	1.0	t		20.0	male	black	2.609629924393156	smiling	043	sub-12	1.0	5.0	043_smiling	0.0		70.97919176448522	
7.0	49.003889677564075	pulse	1.0	t		20.0	male	black	2.609629924393156	smiling	043	sub-12	1.0	5.0	043_smiling	0.0		71.67916770680222	
7.0	49.70388463661948	pulse	1.0	t		20.0	male	black	2.609629924393156	smiling	043	sub-12	1.0	5.0	043_smiling	0.0		72.37916266585762	
8.0	50.02042065628302	face	0.0		145	21.0	male	east_asian/white	3.501790688420215	smiling	036	sub-12	1.0	5.0	036_smiling	0.0		72.69569868552117	1.2332970405423112
8.0	50.403858164112535	pulse	0.0	t		21.0	male	east_asian/white	3.501790688420215	smiling	036	sub-12	1.0	5.0	036_smiling	0.0		73.07913619335068	
8.0	51.10384044534203	pulse	0.0	t		21.0	male	east_asian/white	3.501790688420215	smiling	036	sub-12	1.0	5.0	036_smiling	0.0		73.77911847458017	
8.0	51.25371769682533	fix	1.0		445	21.0	male	east_asian/white	3.501790688420215	smiling	036	sub-12	1.0	5.0	036_smiling	0.0		73.92899572606348	3.766569540438468
8.0	51.80382333027774	pulse	1.0	t		21.0	male	east_asian/white	3.501790688420215	smiling	036	sub-12	1.0	5.0	036_smiling	0.0		74.47910135951588	
8.0	52.5037971596239	pulse	1.0	t		21.0	male	east_asian/white	3.501790688420215	smiling	036	sub-12	1.0	5.0	036_smiling	0.0		75.17907518886204	
8.0	53.20377702602946	pulse	1.0	t		21.0	male	east_asian/white	3.501790688420215	smiling	036	sub-12	1.0	5.0	036_smiling	0.0		75.8790550552676	
8.0	53.903765344319254	pulse	1.0	t		21.0	male	east_asian/white	3.501790688420215	smiling	036	sub-12	1.0	5.0	036_smiling	0.0		76.5790433735574	
8.0	54.60374370146019	pulse	1.0	t		21.0	male	east_asian/white	3.501790688420215	smiling	036	sub-12	1.0	5.0	036_smiling	0.0		77.27902173069833	
9.0	55.0202872372638	face	0.0		145	22.0	male	black	2.767608436132113	neutral	044	sub-12	1.0	5.0	044_neutral	0.0		77.69556526650194	1.2333045868672343
9.0	55.30373866051559	pulse	0.0	t		22.0	male	black	2.767608436132113	neutral	044	sub-12	1.0	5.0	044_neutral	0.0		77.97901668975373	
9.0	56.00370433983153	pulse	0.0	t		22.0	male	black	2.767608436132113	neutral	044	sub-12	1.0	5.0	044_neutral	0.0		78.67898236906967	
9.0	56.253591824131036	fix	1.0		444	22.0	male	black	2.767608436132113	neutral	044	sub-12	1.0	5.0	044_neutral	0.0		78.92886985336918	3.7665619941135446
9.0	56.70369175256201	pulse	1.0	t		22.0	male	black	2.767608436132113	neutral	044	sub-12	1.0	5.0	044_neutral	0.0		79.37896978180015	
9.0	57.40369788017688	pulse	1.0	t		22.0	male	black	2.767608436132113	neutral	044	sub-12	1.0	5.0	044_neutral	0.0		80.07897590941502	
9.0	58.10365480575638	pulse	1.0	t		22.0	male	black	2.767608436132113	neutral	044	sub-12	1.0	5.0	044_neutral	0.0		80.77893283499452	
9.0	58.80364614257542	pulse	1.0	t		22.0	male	black	2.767608436132113	neutral	044	sub-12	1.0	5.0	044_neutral	0.0		81.47892417181356	
9.0	59.50361152003825	pulse	1.0	t		22.0	male	black	2.767608436132113	neutral	044	sub-12	1.0	5.0	044_neutral	0.0		82.17888954927639	
10.0	60.02015381824458	face	0.0		145	31.0	female	west_asian	2.364902506963788	smiling	006	sub-12	1.0	5.0	006_smiling	0.0		82.69543184748272	1.233300964630871
10.0	60.203606177240545	pulse	0.0	t		31.0	female	west_asian	2.364902506963788	smiling	006	sub-12	1.0	5.0	006_smiling	0.0		82.87888420647869	
10.0	60.90357608249815	pulse	0.0	t		31.0	female	west_asian	2.364902506963788	smiling	006	sub-12	1.0	5.0	006_smiling	0.0		83.57885411173629	
10.0	61.25345478287545	fix	1.0		444	31.0	female	west_asian	2.364902506963788	smiling	006	sub-12	1.0	5.0	006_smiling	0.0		83.9287328121136	3.7582302480241196
10.0	61.603561382257794	pulse	1.0	t		31.0	female	west_asian	2.364902506963788	smiling	006	sub-12	1.0	5.0	006_smiling	0.0		84.27883941149594	
10.0	62.30354758757585	pulse	1.0	t		31.0	female	west_asian	2.364902506963788	smiling	006	sub-12	1.0	5.0	006_smiling	0.0		84.97882561681399	
10.0	63.00351930395118	pulse	1.0	t		31.0	female	west_asian	2.364902506963788	smiling	006	sub-12	1.0	5.0	006_smiling	0.0		85.67879733318932	
10.0	63.703504000004614	pulse	1.0	t		31.0	female	west_asian	2.364902506963788	smiling	006	sub-12	1.0	5.0	006_smiling	0.0		86.37878202924276	
10.0	64.40348054602782	pulse	1.0	t		31.0	female	west_asian	2.364902506963788	smiling	006	sub-12	1.0	5.0	006_smiling	0.0		87.07875857526597	
11.0	65.01168503089957	face	0.0		146	25.0	female	black	3.858336649423	smiling	126	sub-12	1.0	5.0	126_smiling	0.0		87.68696306013771	1.2416360311035533
11.0	65.103467355053	pulse	0.0	t		25.0	female	black	3.858336649423	smiling	126	sub-12	1.0	5.0	126_smiling	0.0		87.77874538429114	
11.0	65.80344691960545	pulse	0.0	t		25.0	female	black	3.858336649423	smiling	126	sub-12	1.0	5.0	126_smiling	0.0		88.47872494884359	
11.0	66.25332106200312	fix	1.0		444	25.0	female	black	3.858336649423	smiling	126	sub-12	1.0	5.0	126_smiling	0.0		88.92859909124127	3.7665592774364995
11.0	66.50343010639426	pulse	1.0	t		25.0	female	black	3.858336649423	smiling	126	sub-12	1.0	5.0	126_smiling	0.0		89.1787081356324	
11.0	67.20341208577156	pulse	1.0	t		25.0	female	black	3.858336649423	smiling	126	sub-12	1.0	5.0	126_smiling	0.0		89.8786901150097	
11.0	67.9033904429125	pulse	1.0	t		25.0	female	black	3.858336649423	smiling	126	sub-12	1.0	5.0	126_smiling	0.0		90.57866847215064	
11.0	68.60336547967017	pulse	1.0	t		25.0	female	black	3.858336649423	smiling	126	sub-12	1.0	5.0	126_smiling	0.0		91.27864350890832	
11.0	69.30335138313603	pulse	1.0	t		25.0	female	black	3.858336649423	smiling	126	sub-12	1.0	5.0	126_smiling	0.0		91.97862941237418	
12.0	70.01988033943962	face	0.0		146	24.0	female	east_asian	2.9076800636689217	neutral	034	sub-12	1.0	5.0	034_neutral	0.0		92.69515836867777	1.2333066998389768
12.0	70.00591209256254	pulse	0.0	t		24.0	female	east_asian	2.9076800636689217	neutral	034	sub-12	1.0	5.0	034_neutral	0.0		92.68119012180068	
12.0	70.70332862342093	pulse	0.0	t		24.0	female	east_asian	2.9076800636689217	neutral	034	sub-12	1.0	5.0	034_neutral	0.0		93.37860665265907	
12.0	71.2531870392786	fix	1.0		443	24.0	female	east_asian	2.9076800636689217	neutral	034	sub-12	1.0	5.0	034_neutral	0.0		93.92846506851674	3.7582740167063093
12.0	71.40331996023997	pulse	1.0	t		24.0	female	east_asian	2.9076800636689217	neutral	034	sub-12	1.0	5.0	034_neutral	0.0		94.07859798947811	
12.0	72.10328111176113	pulse	1.0	t		24.0	female	east_asian	2.9076800636689217	neutral	034	sub-12	1.0	5.0	034_neutral	0.0		94.77855914099928	
12.0	72.80325977075518	pulse	1.0	t		24.0	female	east_asian	2.9076800636689217	neutral	034	sub-12	1.0	5.0	034_neutral	0.0		95.47853779999332	
12.0	73.50324295754399	pulse	1.0	t		24.0	female	east_asian	2.9076800636689217	neutral	034	sub-12	1.0	5.0	034_neutral	0.0		96.17852098678213	
12.0	74.20322312580265	pulse	1.0	t		24.0	female	east_asian	2.9076800636689217	neutral	034	sub-12	1.0	5.0	034_neutral	0.0		96.8785011550408	
12.0	74.90320661444457	pulse	1.0	t		24.0	female	east_asian	2.9076800636689217	neutral	034	sub-12	1.0	5.0	034_neutral	0.0		97.57848464368271	
13.0	75.01146105598491	face	0.0		147	40.0	male	white	1.868682849184242	smiling	172	sub-12	1.0	5.0	172_smiling	0.0		97.68673908522305	1.2415940735390905
13.0	75.60320036608755	pulse	0.0	t		40.0	male	white	1.868682849184242	smiling	172	sub-12	1.0	5.0	172_smiling	0.0		98.27847839532569	
13.0	76.253055129524	fix	1.0		443	40.0	male	white	1.868682849184242	smiling	172	sub-12	1.0	5.0	172_smiling	0.0		98.92833315876214	3.766564408936574
13.0	76.30316755466811	pulse	1.0	t		40.0	male	white	1.868682849184242	smiling	172	sub-12	1.0	5.0	172_smiling	0.0		98.97844558390625	
13.0	77.00315798592874	pulse	1.0	t		40.0	male	white	1.868682849184242	smiling	172	sub-12	1.0	5.0	172_smiling	0.0		99.67843601516688	
13.0	77.70317558395709	pulse	1.0	t		40.0	male	white	1.868682849184242	smiling	172	sub-12	1.0	5.0	172_smiling	0.0		100.37845361319523	
13.0	78.40310836129811	pulse	1.0	t		40.0	male	white	1.868682849184242	smiling	172	sub-12	1.0	5.0	172_smiling	0.0		101.07838639053625	
13.0	79.10309124623382	pulse	1.0	t		40.0	male	white	1.868682849184242	smiling	172	sub-12	1.0	5.0	172_smiling	0.0		101.77836927547196	
13.0	79.80306930152165	pulse	1.0	t		40.0	male	white	1.868682849184242	smiling	172	sub-12	1.0	5.0	172_smiling	0.0		102.47834733075979	
14.0	80.01961953846057	face	0.0		145	25.0	female	west_asian	2.6756864305610826	neutral	064	sub-12	1.0	5.0	064_neutral	0.0		102.69489756769872	1.2333033794557196
14.0	80.50305701610523	pulse	0.0	t		25.0	female	west_asian	2.6756864305610826	neutral	064	sub-12	1.0	5.0	064_neutral	0.0		103.17833504534337	
14.0	81.20303869362851	pulse	0.0	t		25.0	female	west_asian	2.6756864305610826	neutral	064	sub-12	1.0	5.0	064_neutral	0.0		103.87831672286666	
14.0	81.2529229179163	fix	1.0		445	25.0	female	west_asian	2.6756864305610826	neutral	064	sub-12	1.0	5.0	064_neutral	0.0		103.92820094715444	3.7665635033781655
14.0	81.9030324452724	pulse	1.0	t		25.0	female	west_asian	2.6756864305610826	neutral	064	sub-12	1.0	5.0	064_neutral	0.0		104.57831047451054	
14.0	82.60299661532281	pulse	1.0	t		25.0	female	west_asian	2.6756864305610826	neutral	064	sub-12	1.0	5.0	064_neutral	0.0		105.27827464456095	
14.0	83.30298583917101	pulse	1.0	t		25.0	female	west_asian	2.6756864305610826	neutral	064	sub-12	1.0	5.0	064_neutral	0.0		105.97826386840916	
14.0	84.0029608759296	pulse	1.0	t		25.0	female	west_asian	2.6756864305610826	neutral	064	sub-12	1.0	5.0	064_neutral	0.0		106.67823890516775	
14.0	84.70294255345289	pulse	1.0	t		25.0	female	west_asian	2.6756864305610826	neutral	064	sub-12	1.0	5.0	064_neutral	0.0		107.37822058269103	
15.0	85.01948642129446	face	0.0		145	47.0	male	east_asian	2.171110226820533	smiling	024	sub-12	1.0	5.0	024_smiling	0.0		107.6947644505326	1.2333012664848866
15.0	85.40294686995094	pulse	0.0	t		47.0	male	east_asian	2.171110226820533	smiling	024	sub-12	1.0	5.0	024_smiling	0.0		108.07822489918908	
15.0	86.1029083233243	pulse	0.0	t		47.0	male	east_asian	2.171110226820533	smiling	024	sub-12	1.0	5.0	024_smiling	0.0		108.77818635256244	
15.0	86.25278768777935	fix	1.0		444	47.0	male	east_asian	2.171110226820533	smiling	024	sub-12	1.0	5.0	024_smiling	0.0		108.92806571701749	3.7665438829344566
15.0	86.80288969899539	pulse	1.0	t		47.0	male	east_asian	2.171110226820533	smiling	024	sub-12	1.0	5.0	024_smiling	0.0		109.47816772823353	
15.0	87.50286383019466	pulse	1.0	t		47.0	male	east_asian	2.171110226820533	smiling	024	sub-12	1.0	5.0	024_smiling	0.0		110.1781418594328	
15.0	88.20284852624809	pulse	1.0	t		47.0	male	east_asian	2.171110226820533	smiling	024	sub-12	1.0	5.0	024_smiling	0.0		110.87812655548623	
15.0	88.90282446856509	pulse	1.0	t		47.0	male	east_asian	2.171110226820533	smiling	024	sub-12	1.0	5.0	024_smiling	0.0		111.57810249780323	
15.0	89.60282969062246	pulse	1.0	t		47.0	male	east_asian	2.171110226820533	smiling	024	sub-12	1.0	5.0	024_smiling	0.0		112.2781077198606	
16.0	90.0193315707138	face	0.0		145	26.0	female	white	4.854755272582572	smiling	027	sub-12	1.0	5.0	027_smiling	0.0		112.69460959995195	1.233314849868293
16.0	90.30282585708937	pulse	0.0	t		26.0	female	white	4.854755272582572	smiling	027	sub-12	1.0	5.0	027_smiling	0.0		112.97810388632752	
16.0	91.0027661807544	pulse	0.0	t		26.0	female	white	4.854755272582572	smiling	027	sub-12	1.0	5.0	027_smiling	0.0		113.67804420999255	
16.0	91.2526464205821	fix	1.0		444	26.0	female	white	4.854755272582572	smiling	027	sub-12	1.0	5.0	027_smiling	0.0		113.92792444982024	3.7665743700854364
16.0	91.70275872498496	pulse	1.0	t		26.0	female	white	4.854755272582572	smiling	027	sub-12	1.0	5.0	027_smiling	0.0		114.3780367542231	
16.0	92.40273889324453	pulse	1.0	t		26.0	female	white	4.854755272582572	smiling	027	sub-12	1.0	5.0	027_smiling	0.0		115.07801692248267	
16.0	93.10273988935933	pulse	1.0	t		26.0	female	white	4.854755272582572	smiling	027	sub-12	1.0	5.0	027_smiling	0.0		115.77801791859747	
16.0	93.80270134273269	pulse	1.0	t		26.0	female	white	4.854755272582572	smiling	027	sub-12	1.0	5.0	027_smiling	0.0		116.47797937197083	
16.0	94.5026778887559	pulse	1.0	t		26.0	female	white	4.854755272582572	smiling	027	sub-12	1.0	5.0	027_smiling	0.0		117.17795591799404	
17.0	95.01922079066753	face	0.0		145	28.0	female	white	5.676880222841227	smiling	124	sub-12	1.0	5.0	124_smiling	0.0		117.69449881990568	1.2332991535140536
17.0	95.20268462007789	pulse	0.0	t		28.0	female	white	5.676880222841227	smiling	124	sub-12	1.0	5.0	124_smiling	0.0		117.87796264931603	
17.0	95.90264697901057	pulse	0.0	t		28.0	female	white	5.676880222841227	smiling	124	sub-12	1.0	5.0	124_smiling	0.0		118.57792500824871	
17.0	96.25251994418159	fix	1.0		444	28.0	female	white	5.676880222841227	smiling	124	sub-12	1.0	5.0	124_smiling	0.0		118.92779797341973	3.758237190641921
17.0	96.60262714726923	pulse	1.0	t		28.0	female	white	5.676880222841227	smiling	124	sub-12	1.0	5.0	124_smiling	0.0		119.27790517650737	
17.0	97.30260248588002	pulse	1.0	t		28.0	female	white	5.676880222841227	smiling	124	sub-12	1.0	5.0	124_smiling	0.0		119.97788051511816	
17.0	98.00258657822815	pulse	1.0	t		28.0	female	white	5.676880222841227	smiling	124	sub-12	1.0	5.0	124_smiling	0.0		120.67786460746629	
17.0	98.70256221869204	pulse	1.0	t		28.0	female	white	5.676880222841227	smiling	124	sub-12	1.0	5.0	124_smiling	0.0		121.37784024793018	
17.0	99.40255808330585	pulse	1.0	t		28.0	female	white	5.676880222841227	smiling	124	sub-12	1.0	5.0	124_smiling	0.0		122.07783611254399	
18.0	100.0107571348235	face	0.0		146	20.0	male	black	3.1070433744528456	smiling	082	sub-12	1.0	5.0	082_smiling	0.0		122.68603516406165	1.2416302958972665
18.0	100.10253493118216	pulse	0.0	t		20.0	male	black	3.1070433744528456	smiling	082	sub-12	1.0	5.0	082_smiling	0.0		122.7778129604203	
18.0	100.80251389202931	pulse	0.0	t		20.0	male	black	3.1070433744528456	smiling	082	sub-12	1.0	5.0	082_smiling	0.0		123.47779192126745	
18.0	101.25238743072077	fix	1.0		444	20.0	male	black	3.1070433744528456	smiling	082	sub-12	1.0	5.0	082_smiling	0.0		123.92766545995892	3.76654750517082
18.0	101.50249798437653	pulse	1.0	t		20.0	male	black	3.1070433744528456	smiling	082	sub-12	1.0	5.0	082_smiling	0.0		124.17777601361468	
18.0	102.20249203787353	pulse	1.0	t		20.0	male	black	3.1070433744528456	smiling	082	sub-12	1.0	5.0	082_smiling	0.0		124.87777006711167	
18.0	102.90246888574893	pulse	1.0	t		20.0	male	black	3.1070433744528456	smiling	082	sub-12	1.0	5.0	082_smiling	0.0		125.57774691498707	
18.0	103.60243909285964	pulse	1.0	t		20.0	male	black	3.1070433744528456	smiling	082	sub-12	1.0	5.0	082_smiling	0.0		126.27771712209778	
18.0	104.30250589292518	pulse	1.0	t		20.0	male	black	3.1070433744528456	smiling	082	sub-12	1.0	5.0	082_smiling	0.0		126.97778392216333	
19.0	105.0189349358916	face	0.0		146	47.0	male	east_asian	2.171110226820533	neutral	024	sub-12	1.0	5.0	024_neutral	0.0		127.69421296512974	1.2333199813692772
19.0	105.00498117795723	pulse	0.0	t		47.0	male	east_asian	2.171110226820533	neutral	024	sub-12	1.0	5.0	024_neutral	0.0		127.68025920719538	
19.0	105.70240585884585	pulse	0.0	t		47.0	male	east_asian	2.171110226820533	neutral	024	sub-12	1.0	5.0	024_neutral	0.0		128.377683888084	
19.0	106.25225491726087	fix	1.0		443	47.0	male	east_asian	2.171110226820533	neutral	024	sub-12	1.0	5.0	024_neutral	0.0		128.927532946499	3.7583078242405463
19.0	106.4023911586055	pulse	1.0	t		47.0	male	east_asian	2.171110226820533	neutral	024	sub-12	1.0	5.0	024_neutral	0.0		129.07766918784364	
19.0	107.10234597121325	pulse	1.0	t		47.0	male	east_asian	2.171110226820533	neutral	024	sub-12	1.0	5.0	024_neutral	0.0		129.7776240004514	
19.0	107.80234636362275	pulse	1.0	t		47.0	male	east_asian	2.171110226820533	neutral	024	sub-12	1.0	5.0	024_neutral	0.0		130.4776243928609	
19.0	108.50230238364293	pulse	1.0	t		47.0	male	east_asian	2.171110226820533	neutral	024	sub-12	1.0	5.0	024_neutral	0.0		131.17758041288107	
19.0	109.20228587228485	pulse	1.0	t		47.0	male	east_asian	2.171110226820533	neutral	024	sub-12	1.0	5.0	024_neutral	0.0		131.877563901523	
19.0	109.90226845536745	pulse	1.0	t		47.0	male	east_asian	2.171110226820533	neutral	024	sub-12	1.0	5.0	024_neutral	0.0		132.5775464846056	
20.0	110.01056274150142	face	0.0		147	22.0	female	white	4.614007162753682	neutral	009	sub-12	1.0	5.0	009_neutral	1.0	trustworthiness	132.68584077073956	1.2415575493278084
20.0	110.60225556624482	pulse	0.0	t		22.0	female	white	4.614007162753682	neutral	009	sub-12	1.0	5.0	009_neutral	1.0	trustworthiness	133.27753359548296	
20.0	111.25212029082923	fix	1.0		176	22.0	female	white	4.614007162753682	neutral	009	sub-12	1.0	5.0	009_neutral	1.0	trustworthiness	133.92739832006737	1.4999624193033014
20.0	111.30223603635659	pulse	1.0	t		22.0	female	white	4.614007162753682	neutral	009	sub-12	1.0	5.0	009_neutral	1.0	trustworthiness	133.97751406559473	
20.0	112.0022189212923	pulse	1.0	t		22.0	female	white	4.614007162753682	neutral	009	sub-12	1.0	5.0	009_neutral	1.0	trustworthiness	134.67749695053044	
20.0	112.70219335434467	pulse	1.0	t		22.0	female	white	4.614007162753682	neutral	009	sub-12	1.0	5.0	009_neutral	1.0	trustworthiness	135.37747138358282	
20.0	112.75208271013253	rating	2.0		295	22.0	female	white	4.614007162753682	neutral	009	sub-12	1.0	5.0	009_neutral	1.0	trustworthiness	135.42736073937067	2.4999316302992156
20.0	113.40219072822401	pulse	2.0	t		22.0	female	white	4.614007162753682	neutral	009	sub-12	1.0	5.0	009_neutral	1.0	trustworthiness	136.07746875746216	
20.0	114.10216123718692	pulse	2.0	t		22.0	female	white	4.614007162753682	neutral	009	sub-12	1.0	5.0	009_neutral	1.0	trustworthiness	136.77743926642506	
20.0	114.2635668578705	response	2.0	y		22.0	female	white	4.614007162753682	neutral	009	sub-12	1.0	5.0	009_neutral	1.0	trustworthiness	136.93884488710864	
20.0	114.80214744250588	pulse	2.0	t		22.0	female	white	4.614007162753682	neutral	009	sub-12	1.0	5.0	009_neutral	1.0	trustworthiness	137.47742547174403	
20.0	115.25201434043174	fix	3.0		1185	22.0	female	white	4.614007162753682	neutral	009	sub-12	1.0	5.0	009_neutral	1.0	trustworthiness	137.92729236966989	10.0163894096695
20.0	115.50212278111667	pulse	3.0	t		22.0	female	white	4.614007162753682	neutral	009	sub-12	1.0	5.0	009_neutral	1.0	trustworthiness	138.1774008103548	
20.0	116.20210204381692	pulse	3.0	t		22.0	female	white	4.614007162753682	neutral	009	sub-12	1.0	5.0	009_neutral	1.0	trustworthiness	138.87738007305506	
20.0	116.90208191022248	pulse	3.0	t		22.0	female	white	4.614007162753682	neutral	009	sub-12	1.0	5.0	009_neutral	1.0	trustworthiness	139.57735993946062	
20.0	117.60206479515819	pulse	3.0	t		22.0	female	white	4.614007162753682	neutral	009	sub-12	1.0	5.0	009_neutral	1.0	trustworthiness	140.27734282439633	
20.0	118.30206971536154	pulse	3.0	t		22.0	female	white	4.614007162753682	neutral	009	sub-12	1.0	5.0	009_neutral	1.0	trustworthiness	140.97734774459968	
20.0	119.00202513167642	pulse	3.0	t		22.0	female	white	4.614007162753682	neutral	009	sub-12	1.0	5.0	009_neutral	1.0	trustworthiness	141.67730316091456	
20.0	119.70200741290591	pulse	3.0	t		22.0	female	white	4.614007162753682	neutral	009	sub-12	1.0	5.0	009_neutral	1.0	trustworthiness	142.37728544214406	
20.0	120.4019954293426	pulse	3.0	t		22.0	female	white	4.614007162753682	neutral	009	sub-12	1.0	5.0	009_neutral	1.0	trustworthiness	143.07727345858075	
20.0	121.10197197536581	pulse	3.0	t		22.0	female	white	4.614007162753682	neutral	009	sub-12	1.0	5.0	009_neutral	1.0	trustworthiness	143.77725000460396	
20.0	121.80194791768281	pulse	3.0	t		22.0	female	white	4.614007162753682	neutral	009	sub-12	1.0	5.0	009_neutral	1.0	trustworthiness	144.47722594692095	
20.0	122.50194136747268	pulse	3.0	t		22.0	female	white	4.614007162753682	neutral	009	sub-12	1.0	5.0	009_neutral	1.0	trustworthiness	145.17721939671083	
20.0	123.20193481726255	pulse	3.0	t		22.0	female	white	4.614007162753682	neutral	009	sub-12	1.0	5.0	009_neutral	1.0	trustworthiness	145.8772128465007	
20.0	123.90189747804834	pulse	3.0	t		22.0	female	white	4.614007162753682	neutral	009	sub-12	1.0	5.0	009_neutral	1.0	trustworthiness	146.57717550728648	
20.0	124.60188730560276	pulse	3.0	t		22.0	female	white	4.614007162753682	neutral	009	sub-12	1.0	5.0	009_neutral	1.0	trustworthiness	147.2771653348409	
21.0	125.26840375010124	face	0.0		145	37.0	male	white	3.898925586947871	smiling	101	sub-12	1.0	5.0	101_smiling	0.0		147.94368177933939	1.233310020220415
21.0	125.3018783405696	pulse	0.0	t		37.0	male	white	3.898925586947871	smiling	101	sub-12	1.0	5.0	101_smiling	0.0		147.97715636980774	
21.0	126.0018413032085	pulse	0.0	t		37.0	male	white	3.898925586947871	smiling	101	sub-12	1.0	5.0	101_smiling	0.0		148.67711933244664	
21.0	126.50171377032166	fix	1.0		443	37.0	male	white	3.898925586947871	smiling	101	sub-12	1.0	5.0	101_smiling	0.0		149.1769917995598	3.7582172683460158
21.0	126.7018241881442	pulse	1.0	t		37.0	male	white	3.898925586947871	smiling	101	sub-12	1.0	5.0	101_smiling	0.0		149.37710221738234	
21.0	127.40180737493301	pulse	1.0	t		37.0	male	white	3.898925586947871	smiling	101	sub-12	1.0	5.0	101_smiling	0.0		150.07708540417116	
21.0	128.10178331725	pulse	1.0	t		37.0	male	white	3.898925586947871	smiling	101	sub-12	1.0	5.0	101_smiling	0.0		150.77706134648815	
21.0	128.80176257994935	pulse	1.0	t		37.0	male	white	3.898925586947871	smiling	101	sub-12	1.0	5.0	101_smiling	0.0		151.4770406091875	
21.0	129.5017481815621	pulse	1.0	t		37.0	male	white	3.898925586947871	smiling	101	sub-12	1.0	5.0	101_smiling	0.0		152.17702621080025	
21.0	130.20172804796857	pulse	1.0	t		37.0	male	white	3.898925586947871	smiling	101	sub-12	1.0	5.0	101_smiling	0.0		152.87700607720672	
22.0	130.25993103866767	face	0.0		147	20.0	male	black	3.1070433744528456	neutral	082	sub-12	1.0	5.0	082_neutral	0.0		152.93520906790582	1.2416493126347632
22.0	130.90172723296564	pulse	0.0	t		20.0	male	black	3.1070433744528456	neutral	082	sub-12	1.0	5.0	082_neutral	0.0		153.57700526220378	
22.0	131.50158035130244	fix	1.0		443	20.0	male	black	3.1070433744528456	neutral	082	sub-12	1.0	5.0	082_neutral	0.0		154.17685838054058	3.7665662200552106
22.0	131.60170468454726	pulse	1.0	t		20.0	male	black	3.1070433744528456	neutral	082	sub-12	1.0	5.0	082_neutral	0.0		154.2769827137854	
22.0	132.30167277868713	pulse	1.0	t		20.0	male	black	3.1070433744528456	neutral	082	sub-12	1.0	5.0	082_neutral	0.0		154.97695080792528	
22.0	133.00165475806352	pulse	1.0	t		20.0	male	black	3.1070433744528456	neutral	082	sub-12	1.0	5.0	082_neutral	0.0		155.67693278730167	
22.0	133.70163975597006	pulse	1.0	t		20.0	male	black	3.1070433744528456	neutral	082	sub-12	1.0	5.0	082_neutral	0.0		156.3769177852082	
22.0	134.40161539643395	pulse	1.0	t		20.0	male	black	3.1070433744528456	neutral	082	sub-12	1.0	5.0	082_neutral	0.0		157.0768934256721	
22.0	135.10160160175292	pulse	1.0	t		20.0	male	black	3.1070433744528456	neutral	082	sub-12	1.0	5.0	082_neutral	0.0		157.77687963099106	
23.0	135.26814657135765	face	0.0		146	27.0	male	black	3.5523278949462798	neutral	042	sub-12	1.0	5.0	042_neutral	0.0		157.9434246005958	1.2333003609255684
23.0	135.80158116630537	pulse	0.0	t		27.0	male	black	3.5523278949462798	neutral	042	sub-12	1.0	5.0	042_neutral	0.0		158.4768591955435	
23.0	136.50144693228322	fix	1.0		444	27.0	male	black	3.5523278949462798	neutral	042	sub-12	1.0	5.0	042_neutral	0.0		159.17672496152136	3.7665490144354408
23.0	136.50881244696848	pulse	1.0	t		27.0	male	black	3.5523278949462798	neutral	042	sub-12	1.0	5.0	042_neutral	0.0		159.18409047620662	
23.0	137.2015351639111	pulse	1.0	t		27.0	male	black	3.5523278949462798	neutral	042	sub-12	1.0	5.0	042_neutral	0.0		159.87681319314925	
23.0	137.90152529331863	pulse	1.0	t		27.0	male	black	3.5523278949462798	neutral	042	sub-12	1.0	5.0	042_neutral	0.0		160.57680332255677	
23.0	138.60148976522214	pulse	1.0	t		27.0	male	black	3.5523278949462798	neutral	042	sub-12	1.0	5.0	042_neutral	0.0		161.27676779446028	
23.0	139.30148381871822	pulse	1.0	t		27.0	male	black	3.5523278949462798	neutral	042	sub-12	1.0	5.0	042_neutral	0.0		161.97676184795637	
23.0	140.00146157215295	pulse	1.0	t		27.0	male	black	3.5523278949462798	neutral	042	sub-12	1.0	5.0	042_neutral	0.0		162.6767396013911	
24.0	140.26799594671866	face	0.0		145	22.0	female	white	4.614007162753682	smiling	009	sub-12	1.0	5.0	009_smiling	0.0		162.9432739759568	1.2333187739577625
24.0	140.7014529089729	pulse	0.0	t		22.0	female	white	4.614007162753682	smiling	009	sub-12	1.0	5.0	009_smiling	0.0		163.37673093821104	
24.0	141.40145782917625	pulse	0.0	t		22.0	female	white	4.614007162753682	smiling	009	sub-12	1.0	5.0	009_smiling	0.0		164.0767358584144	
24.0	141.50131472067642	fix	1.0		445	22.0	female	white	4.614007162753682	smiling	009	sub-12	1.0	5.0	009_smiling	0.0		164.17659274991456	3.7582356813773004
24.0	142.10141324549022	pulse	1.0	t		22.0	female	white	4.614007162753682	smiling	009	sub-12	1.0	5.0	009_smiling	0.0		164.77669127472836	
24.0	142.80139281004358	pulse	1.0	t		22.0	female	white	4.614007162753682	smiling	009	sub-12	1.0	5.0	009_smiling	0.0		165.47667083928172	
24.0	143.50137901536164	pulse	1.0	t		22.0	female	white	4.614007162753682	smiling	009	sub-12	1.0	5.0	009_smiling	0.0		166.17665704459978	
24.0	144.2013525428547	pulse	1.0	t		22.0	female	white	4.614007162753682	smiling	009	sub-12	1.0	5.0	009_smiling	0.0		166.87663057209284	
24.0	144.90133874817366	pulse	1.0	t		22.0	female	white	4.614007162753682	smiling	009	sub-12	1.0	5.0	009_smiling	0.0		167.5766167774118	
25.0	145.25955040205372	face	0.0		146	24.0	female	black	3.0955033824114606	neutral	099	sub-12	1.0	5.0	099_neutral	0.0		167.93482843129186	1.2416269755140092
25.0	145.60133249981664	pulse	0.0	t		24.0	female	black	3.0955033824114606	neutral	099	sub-12	1.0	5.0	099_neutral	0.0		168.27661052905478	
25.0	146.30130270692734	pulse	0.0	t		24.0	female	black	3.0955033824114606	neutral	099	sub-12	1.0	5.0	099_neutral	0.0		168.9765807361655	
25.0	146.50117737756773	fix	1.0		444	24.0	female	black	3.0955033824114606	neutral	099	sub-12	1.0	5.0	099_neutral	0.0		169.17645540680587	3.7665677293198314
25.0	147.00128770483389	pulse	1.0	t		24.0	female	black	3.0955033824114606	neutral	099	sub-12	1.0	5.0	099_neutral	0.0		169.67656573407203	
25.0	147.70126153418005	pulse	1.0	t		24.0	female	black	3.0955033824114606	neutral	099	sub-12	1.0	5.0	099_neutral	0.0		170.3765395634182	
25.0	148.40124230614492	pulse	1.0	t		24.0	female	black	3.0955033824114606	neutral	099	sub-12	1.0	5.0	099_neutral	0.0		171.07652033538307	
25.0	149.10123454852328	pulse	1.0	t		24.0	female	black	3.0955033824114606	neutral	099	sub-12	1.0	5.0	099_neutral	0.0		171.77651257776142	
25.0	149.80120747231013	pulse	1.0	t		24.0	female	black	3.0955033824114606	neutral	099	sub-12	1.0	5.0	099_neutral	0.0		172.47648550154827	
26.0	150.26774510688756	face	0.0		145	20.0	female	white	3.9502586549940313	neutral	091	sub-12	1.0	5.0	091_neutral	0.0		172.9430231361257	1.2333033794557196
26.0	150.50118945168742	pulse	0.0	t		20.0	female	white	3.9502586549940313	neutral	091	sub-12	1.0	5.0	091_neutral	0.0		173.17646748092557	
26.0	151.20116780882836	pulse	0.0	t		20.0	female	white	3.9502586549940313	neutral	091	sub-12	1.0	5.0	091_neutral	0.0		173.8764458380665	
26.0	151.50104848634328	fix	1.0		444	20.0	female	white	3.9502586549940313	neutral	091	sub-12	1.0	5.0	091_neutral	0.0		174.17632651558142	3.7583371039800113
26.0	151.90115009005785	pulse	1.0	t		20.0	female	white	3.9502586549940313	neutral	091	sub-12	1.0	5.0	091_neutral	0.0		174.576428119296	
26.0	152.60113961575917	pulse	1.0	t		20.0	female	white	3.9502586549940313	neutral	091	sub-12	1.0	5.0	091_neutral	0.0		175.2764176449973	
26.0	153.30110921916366	pulse	1.0	t		20.0	female	white	3.9502586549940313	neutral	091	sub-12	1.0	5.0	091_neutral	0.0		175.9763872484018	
26.0	154.00110417821907	pulse	1.0	t		20.0	female	white	3.9502586549940313	neutral	091	sub-12	1.0	5.0	091_neutral	0.0		176.6763822074572	
26.0	154.70107680015371	pulse	1.0	t		20.0	female	white	3.9502586549940313	neutral	091	sub-12	1.0	5.0	091_neutral	0.0		177.37635482939186	
27.0	155.2593855903233	face	0.0		146	20.0	female	white	3.9502586549940313	smiling	091	sub-12	1.0	5.0	091_smiling	0.0		177.93466361956143	1.2415267603237226
27.0	155.4010645147364	pulse	0.0	t		20.0	female	white	3.9502586549940313	smiling	091	sub-12	1.0	5.0	091_smiling	0.0		178.07634254397453	
27.0	156.10105072005535	pulse	0.0	t		20.0	female	white	3.9502586549940313	smiling	091	sub-12	1.0	5.0	091_smiling	0.0		178.7763287492935	
27.0	156.500912350647	fix	1.0		444	20.0	female	white	3.9502586549940313	smiling	091	sub-12	1.0	5.0	091_smiling	0.0		179.17619037988516	3.7665692385853617
27.0	156.80102454940152	pulse	1.0	t		20.0	female	white	3.9502586549940313	smiling	091	sub-12	1.0	5.0	091_smiling	0.0		179.47630257863966	
27.0	157.50099837874768	pulse	1.0	t		20.0	female	white	3.9502586549940313	smiling	091	sub-12	1.0	5.0	091_smiling	0.0		180.17627640798582	
27.0	158.20097975441877	pulse	1.0	t		20.0	female	white	3.9502586549940313	smiling	091	sub-12	1.0	5.0	091_smiling	0.0		180.8762577836569	
27.0	158.90096233750137	pulse	1.0	t		20.0	female	white	3.9502586549940313	smiling	091	sub-12	1.0	5.0	091_smiling	0.0		181.5762403667395	
27.0	159.60094763726102	pulse	1.0	t		20.0	female	white	3.9502586549940313	smiling	091	sub-12	1.0	5.0	091_smiling	0.0		182.27622566649916	
28.0	160.26748158923237	face	0.0		145	24.0	male	white	3.1153999204138483	smiling	012	sub-12	1.0	5.0	012_smiling	1.0	attractiveness	182.94275961847052	1.2332961349839024
28.0	160.30100930582557	pulse	0.0	t		24.0	male	white	3.1153999204138483	smiling	012	sub-12	1.0	5.0	012_smiling	1.0	attractiveness	182.97628733506372	
28.0	161.00090948304387	pulse	0.0	t		24.0	male	white	3.1153999204138483	smiling	012	sub-12	1.0	5.0	012_smiling	1.0	attractiveness	183.676187512282	
28.0	161.50077772421628	fix	1.0		177	24.0	male	white	3.1153999204138483	smiling	012	sub-12	1.0	5.0	012_smiling	1.0	attractiveness	184.17605575345442	1.4999660415387552
28.0	161.70089176427336	pulse	1.0	t		24.0	male	white	3.1153999204138483	smiling	012	sub-12	1.0	5.0	012_smiling	1.0	attractiveness	184.3761697935115	
28.0	162.40087223438513	pulse	1.0	t		24.0	male	white	3.1153999204138483	smiling	012	sub-12	1.0	5.0	012_smiling	1.0	attractiveness	185.07615026362328	
28.0	163.00074376575503	rating	2.0		294	24.0	male	white	3.1153999204138483	smiling	012	sub-12	1.0	5.0	012_smiling	1.0	attractiveness	185.67602179499318	2.4999307247398974
28.0	163.09562461079895	pulse	2.0	t		24.0	male	white	3.1153999204138483	smiling	012	sub-12	1.0	5.0	012_smiling	1.0	attractiveness	185.7709026400371	
28.0	163.79562711617837	pulse	2.0	t		24.0	male	white	3.1153999204138483	smiling	012	sub-12	1.0	5.0	012_smiling	1.0	attractiveness	186.4709051454165	
28.0	164.49560124737764	pulse	2.0	t		24.0	male	white	3.1153999204138483	smiling	012	sub-12	1.0	5.0	012_smiling	1.0	attractiveness	187.17087927661578	
28.0	164.8674681265893	response	2.0	b		24.0	male	white	3.1153999204138483	smiling	012	sub-12	1.0	5.0	012_smiling	1.0	attractiveness	187.54274615582744	
28.0	165.20076966474153	pulse	2.0	t		24.0	male	white	3.1153999204138483	smiling	012	sub-12	1.0	5.0	012_smiling	1.0	attractiveness	187.87604769397967	
28.0	165.50067449049493	fix	3.0		444	24.0	male	white	3.1153999204138483	smiling	012	sub-12	1.0	5.0	012_smiling	1.0	attractiveness	188.17595251973307	3.7665496181407434
28.0	165.90078665906458	pulse	3.0	t		24.0	male	white	3.1153999204138483	smiling	012	sub-12	1.0	5.0	012_smiling	1.0	attractiveness	188.57606468830272	
28.0	166.60076018655764	pulse	3.0	t		24.0	male	white	3.1153999204138483	smiling	012	sub-12	1.0	5.0	012_smiling	1.0	attractiveness	189.27603821579578	
28.0	167.30073914740478	pulse	3.0	t		24.0	male	white	3.1153999204138483	smiling	012	sub-12	1.0	5.0	012_smiling	1.0	attractiveness	189.97601717664293	
28.0	168.00072052307496	pulse	3.0	t		24.0	male	white	3.1153999204138483	smiling	012	sub-12	1.0	5.0	012_smiling	1.0	attractiveness	190.6759985523131	
28.0	168.70069495612734	pulse	3.0	t		24.0	male	white	3.1153999204138483	smiling	012	sub-12	1.0	5.0	012_smiling	1.0	attractiveness	191.37597298536548	
29.0	169.26722410863567	face	0.0		145	19.0	male	white	2.243931555909272	smiling	130	sub-12	1.0	5.0	130_smiling	0.0		191.94250213787382	1.2333190758108685
29.0	169.40069021703584	pulse	0.0	t		19.0	male	white	2.243931555909272	smiling	130	sub-12	1.0	5.0	130_smiling	0.0		192.075968246274	
29.0	170.10066766861746	pulse	0.0	t		19.0	male	white	2.243931555909272	smiling	130	sub-12	1.0	5.0	130_smiling	0.0		192.7759456978556	
29.0	170.50054318444654	fix	1.0		444	19.0	male	white	2.243931555909272	smiling	130	sub-12	1.0	5.0	130_smiling	0.0		193.17582121368469	3.7665644089374837
29.0	170.8006463276115	pulse	1.0	t		19.0	male	white	2.243931555909272	smiling	130	sub-12	1.0	5.0	130_smiling	0.0		193.47592435684965	
29.0	171.50063706072524	pulse	1.0	t		19.0	male	white	2.243931555909272	smiling	130	sub-12	1.0	5.0	130_smiling	0.0		194.17591508996338	
29.0	172.20061511601307	pulse	1.0	t		19.0	male	white	2.243931555909272	smiling	130	sub-12	1.0	5.0	130_smiling	0.0		194.8758931452512	
29.0	172.90058502127067	pulse	1.0	t		19.0	male	white	2.243931555909272	smiling	130	sub-12	1.0	5.0	130_smiling	0.0		195.57586305050881	
29.0	173.600569415471	pulse	1.0	t		19.0	male	white	2.243931555909272	smiling	130	sub-12	1.0	5.0	130_smiling	0.0		196.27584744470914	
30.0	174.26710759338403	face	0.0		145	31.0	male	west_asian	1.9538400318344609	neutral	070	sub-12	1.0	5.0	070_neutral	0.0		196.94238562262217	1.2333048887203404
30.0	174.30055682820148	pulse	0.0	t		31.0	male	west_asian	1.9538400318344609	neutral	070	sub-12	1.0	5.0	070_neutral	0.0		196.97583485743962	
30.0	175.00053820387257	pulse	0.0	t		31.0	male	west_asian	1.9538400318344609	neutral	070	sub-12	1.0	5.0	070_neutral	0.0		197.6758162331107	
30.0	175.50041248210437	fix	1.0		443	31.0	male	west_asian	1.9538400318344609	neutral	070	sub-12	1.0	5.0	070_neutral	0.0		198.1756905113425	3.766543882933547
30.0	175.70052772957388	pulse	1.0	t		31.0	male	west_asian	1.9538400318344609	neutral	070	sub-12	1.0	5.0	070_neutral	0.0		198.37580575881202	
30.0	176.40050337003777	pulse	1.0	t		31.0	male	west_asian	1.9538400318344609	neutral	070	sub-12	1.0	5.0	070_neutral	0.0		199.0757813992759	
30.0	177.1004874623859	pulse	1.0	t		31.0	male	west_asian	1.9538400318344609	neutral	070	sub-12	1.0	5.0	070_neutral	0.0		199.77576549162404	
30.0	177.80045948061343	pulse	1.0	t		31.0	male	west_asian	1.9538400318344609	neutral	070	sub-12	1.0	5.0	070_neutral	0.0		200.47573750985157	
30.0	178.50043572478353	pulse	1.0	t		31.0	male	west_asian	1.9538400318344609	neutral	070	sub-12	1.0	5.0	070_neutral	0.0		201.17571375402167	
30.0	179.2004216282494	pulse	1.0	t		31.0	male	west_asian	1.9538400318344609	neutral	070	sub-12	1.0	5.0	070_neutral	0.0		201.87569965748753	
31.0	179.2669563650379	face	0.0		146	19.0	male	white	3.2522881018702745	smiling	018	sub-12	1.0	5.0	018_smiling	0.0		201.94223439427606	1.2333190758108685
31.0	179.9004168891579	pulse	0.0	t		19.0	male	white	3.2522881018702745	smiling	018	sub-12	1.0	5.0	018_smiling	0.0		202.57569491839604	
31.0	180.50027544084878	fix	1.0		443	19.0	male	white	3.2522881018702745	smiling	018	sub-12	1.0	5.0	018_smiling	0.0		203.17555347008692	3.7583666855725824
31.0	180.6003867944155	pulse	1.0	t		19.0	male	white	3.2522881018702745	smiling	018	sub-12	1.0	5.0	018_smiling	0.0		203.27566482365364	
31.0	181.30036817008568	pulse	1.0	t		19.0	male	white	3.2522881018702745	smiling	018	sub-12	1.0	5.0	018_smiling	0.0		203.97564619932382	
31.0	182.00034803649214	pulse	1.0	t		19.0	male	white	3.2522881018702745	smiling	018	sub-12	1.0	5.0	018_smiling	0.0		204.67562606573028	
31.0	182.70032428066224	pulse	1.0	t		19.0	male	white	3.2522881018702745	smiling	018	sub-12	1.0	5.0	018_smiling	0.0		205.3756023099004	
31.0	183.4003098822741	pulse	1.0	t		19.0	male	white	3.2522881018702745	smiling	018	sub-12	1.0	5.0	018_smiling	0.0		206.07558791151223	
31.0	184.1002997098285	pulse	1.0	t		19.0	male	white	3.2522881018702745	smiling	018	sub-12	1.0	5.0	018_smiling	0.0		206.77557773906665	
32.0	184.25864212642136	face	0.0		147	19.0	male	white	2.243931555909272	neutral	130	sub-12	1.0	5.0	130_neutral	1.0	dominance	206.9339201556595	1.2415119695278918
32.0	184.8002931596193	pulse	0.0	t		19.0	male	white	2.243931555909272	neutral	130	sub-12	1.0	5.0	130_neutral	1.0	dominance	207.47557118885743	
32.0	185.50015409594926	fix	1.0		177	19.0	male	white	2.243931555909272	neutral	130	sub-12	1.0	5.0	130_neutral	1.0	dominance	208.1754321251874	1.4999500433305002
32.0	185.5080146495293	pulse	1.0	t		19.0	male	white	2.243931555909272	neutral	130	sub-12	1.0	5.0	130_neutral	1.0	dominance	208.18329267876743	
32.0	186.20025168501888	pulse	1.0	t		19.0	male	white	2.243931555909272	neutral	130	sub-12	1.0	5.0	130_neutral	1.0	dominance	208.87552971425703	
32.0	186.90022430695353	pulse	1.0	t		19.0	male	white	2.243931555909272	neutral	130	sub-12	1.0	5.0	130_neutral	1.0	dominance	209.57550233619168	
32.0	187.00010413927976	rating	2.0		295	19.0	male	white	2.243931555909272	neutral	130	sub-12	1.0	5.0	130_neutral	1.0	dominance	209.6753821685179	2.4999222728565655
32.0	187.59501018904757	pulse	2.0	t		19.0	male	white	2.243931555909272	neutral	130	sub-12	1.0	5.0	130_neutral	1.0	dominance	210.2702882182857	
32.0	188.29498673507078	pulse	2.0	t		19.0	male	white	2.243931555909272	neutral	130	sub-12	1.0	5.0	130_neutral	1.0	dominance	210.97026476430892	
32.0	188.9949382272962	pulse	2.0	t		19.0	male	white	2.243931555909272	neutral	130	sub-12	1.0	5.0	130_neutral	1.0	dominance	211.67021625653433	
32.0	189.133480899196	response	2.0	w		19.0	male	white	2.243931555909272	neutral	130	sub-12	1.0	5.0	130_neutral	1.0	dominance	211.80875892843414	
32.0	189.50002641213632	fix	3.0		443	19.0	male	white	2.243931555909272	neutral	130	sub-12	1.0	5.0	130_neutral	1.0	dominance	212.17530444137446	3.7665737663801337
32.0	189.70013441513402	pulse	3.0	t		19.0	male	white	2.243931555909272	neutral	130	sub-12	1.0	5.0	130_neutral	1.0	dominance	212.37541244437216	
32.0	190.4001227334238	pulse	3.0	t		19.0	male	white	2.243931555909272	neutral	130	sub-12	1.0	5.0	130_neutral	1.0	dominance	213.07540076266196	
32.0	191.1001050146533	pulse	3.0	t		19.0	male	white	2.243931555909272	neutral	130	sub-12	1.0	5.0	130_neutral	1.0	dominance	213.77538304389145	
32.0	191.8000869940306	pulse	3.0	t		19.0	male	white	2.243931555909272	neutral	130	sub-12	1.0	5.0	130_neutral	1.0	dominance	214.47536502326875	
32.0	192.50006504931844	pulse	3.0	t		19.0	male	white	2.243931555909272	neutral	130	sub-12	1.0	5.0	130_neutral	1.0	dominance	215.17534307855658	
32.0	193.20005276390202	pulse	3.0	t		19.0	male	white	2.243931555909272	neutral	130	sub-12	1.0	5.0	130_neutral	1.0	dominance	215.87533079314017	
33.0	193.26660017851646	face	0.0		146	40.0	female	west_asian	1.5777954635893354	smiling	038	sub-12	1.0	5.0	038_smiling	0.0		215.9418782077546	1.2333021720432953
33.0	193.9000347432784	pulse	0.0	t		40.0	female	west_asian	1.5777954635893354	smiling	038	sub-12	1.0	5.0	038_smiling	0.0		216.57531277251655	
33.0	194.49990235055975	fix	1.0		443	40.0	female	west_asian	1.5777954635893354	smiling	038	sub-12	1.0	5.0	038_smiling	0.0		217.1751803797979	3.7582830722958533
33.0	194.60002125045048	pulse	1.0	t		40.0	female	west_asian	1.5777954635893354	smiling	038	sub-12	1.0	5.0	038_smiling	0.0		217.27529927968862	
33.0	195.2999929668258	pulse	1.0	t		40.0	female	west_asian	1.5777954635893354	smiling	038	sub-12	1.0	5.0	038_smiling	0.0		217.97527099606395	
33.0	195.99996407949493	pulse	1.0	t		40.0	female	west_asian	1.5777954635893354	smiling	038	sub-12	1.0	5.0	038_smiling	0.0		218.67524210873307	
33.0	196.6999629626389	pulse	1.0	t		40.0	female	west_asian	1.5777954635893354	smiling	038	sub-12	1.0	5.0	038_smiling	0.0		219.37524099187704	
33.0	197.39993679198506	pulse	1.0	t		40.0	female	west_asian	1.5777954635893354	smiling	038	sub-12	1.0	5.0	038_smiling	0.0		220.0752148212232	
33.0	198.0999154509791	pulse	1.0	t		40.0	female	west_asian	1.5777954635893354	smiling	038	sub-12	1.0	5.0	038_smiling	0.0		220.77519348021724	
34.0	198.2581854228556	face	0.0		147	32.0	male	white	2.389176283326701	neutral	092	sub-12	1.0	5.0	092_neutral	0.0		220.93346345209375	1.2415877346265916
34.0	198.79990678779814	pulse	0.0	t		32.0	male	white	2.389176283326701	neutral	092	sub-12	1.0	5.0	092_neutral	0.0		221.47518481703628	
34.0	199.4997731574822	fix	1.0		444	32.0	male	white	2.389176283326701	neutral	092	sub-12	1.0	5.0	092_neutral	0.0		222.17505118672034	3.766562295965741
34.0	199.5076261647373	pulse	1.0	t		32.0	male	white	2.389176283326701	neutral	092	sub-12	1.0	5.0	092_neutral	0.0		222.18290419397545	
34.0	200.1998628983747	pulse	1.0	t		32.0	male	white	2.389176283326701	neutral	092	sub-12	1.0	5.0	092_neutral	0.0		222.87514092761285	
34.0	200.89984034995632	pulse	1.0	t		32.0	male	white	2.389176283326701	neutral	092	sub-12	1.0	5.0	092_neutral	0.0		223.57511837919446	
34.0	201.59982534786286	pulse	1.0	t		32.0	male	white	2.389176283326701	neutral	092	sub-12	1.0	5.0	092_neutral	0.0		224.275103377101	
34.0	202.29980521426933	pulse	1.0	t		32.0	male	white	2.389176283326701	neutral	092	sub-12	1.0	5.0	092_neutral	0.0		224.97508324350747	
34.0	202.99979021217587	pulse	1.0	t		32.0	male	white	2.389176283326701	neutral	092	sub-12	1.0	5.0	092_neutral	0.0		225.675068241414	
35.0	203.26633545344794	face	0.0		145	31.0	female	white	2.1822522881018704	neutral	102	sub-12	1.0	5.0	102_neutral	0.0		225.94161348268608	1.2333000590733718
35.0	203.69977007858142	pulse	0.0	t		31.0	female	white	2.1822522881018704	neutral	102	sub-12	1.0	5.0	102_neutral	0.0		226.37504810781957	
35.0	204.39975024684009	pulse	0.0	t		31.0	female	white	2.1822522881018704	neutral	102	sub-12	1.0	5.0	102_neutral	0.0		227.07502827607823	
35.0	204.4996355125213	fix	1.0		444	31.0	female	white	2.1822522881018704	neutral	102	sub-12	1.0	5.0	102_neutral	0.0		227.17491354175945	3.7583192946540294
35.0	205.09973433918822	pulse	1.0	t		31.0	female	white	2.1822522881018704	neutral	102	sub-12	1.0	5.0	102_neutral	0.0		227.77501236842636	
35.0	205.7997163185646	pulse	1.0	t		31.0	female	white	2.1822522881018704	neutral	102	sub-12	1.0	5.0	102_neutral	0.0		228.47499434780275	
35.0	206.49970524056062	pulse	1.0	t		31.0	female	white	2.1822522881018704	neutral	102	sub-12	1.0	5.0	102_neutral	0.0		229.17498326979876	
35.0	207.19967695693595	pulse	1.0	t		31.0	female	white	2.1822522881018704	neutral	102	sub-12	1.0	5.0	102_neutral	0.0		229.8749549861741	
35.0	207.89967070857892	pulse	1.0	t		31.0	female	white	2.1822522881018704	neutral	102	sub-12	1.0	5.0	102_neutral	0.0		230.57494873781707	
36.0	208.25795480717534	face	0.0		146	34.0	male	white	2.651014723438122	neutral	121	sub-12	1.0	5.0	121_neutral	1.0	dominance	230.93323283641348	1.2415475881789462
36.0	208.59964333051357	pulse	0.0	t		34.0	male	white	2.651014723438122	neutral	121	sub-12	1.0	5.0	121_neutral	1.0	dominance	231.27492135975172	
36.0	209.2996144431827	pulse	0.0	t		34.0	male	white	2.651014723438122	neutral	121	sub-12	1.0	5.0	121_neutral	1.0	dominance	231.97489247242083	
36.0	209.49950239535428	fix	1.0		177	34.0	male	white	2.651014723438122	neutral	121	sub-12	1.0	5.0	121_neutral	1.0	dominance	232.17478042459243	1.4999406858887596
36.0	209.99960578000173	pulse	1.0	t		34.0	male	white	2.651014723438122	neutral	121	sub-12	1.0	5.0	121_neutral	1.0	dominance	232.67488380923987	
36.0	210.69958111861342	pulse	1.0	t		34.0	male	white	2.651014723438122	neutral	121	sub-12	1.0	5.0	121_neutral	1.0	dominance	233.37485914785157	
36.0	210.99944308124304	rating	2.0		295	34.0	male	white	2.651014723438122	neutral	121	sub-12	1.0	5.0	121_neutral	1.0	dominance	233.6747211104812	2.4999560803908025
36.0	211.39442254165624	pulse	2.0	t		34.0	male	white	2.651014723438122	neutral	121	sub-12	1.0	5.0	121_neutral	1.0	dominance	234.06970057089438	
36.0	212.0943450559953	pulse	2.0	t		34.0	male	white	2.651014723438122	neutral	121	sub-12	1.0	5.0	121_neutral	1.0	dominance	234.76962308523343	
36.0	212.56935992980107	response	2.0	y		34.0	male	white	2.651014723438122	neutral	121	sub-12	1.0	5.0	121_neutral	1.0	dominance	235.2446379590392	
36.0	212.7942847759541	pulse	2.0	t		34.0	male	white	2.651014723438122	neutral	121	sub-12	1.0	5.0	121_neutral	1.0	dominance	235.46956280519225	
36.0	213.49939916163385	fix	3.0		444	34.0	male	white	2.651014723438122	neutral	121	sub-12	1.0	5.0	121_neutral	1.0	dominance	236.174677190872	3.7665625978188473
36.0	213.5073309525187	pulse	3.0	t		34.0	male	white	2.651014723438122	neutral	121	sub-12	1.0	5.0	121_neutral	1.0	dominance	236.18260898175686	
36.0	214.1994925247618	pulse	3.0	t		34.0	male	white	2.651014723438122	neutral	121	sub-12	1.0	5.0	121_neutral	1.0	dominance	236.87477055399995	
36.0	214.89947812637456	pulse	3.0	t		34.0	male	white	2.651014723438122	neutral	121	sub-12	1.0	5.0	121_neutral	1.0	dominance	237.5747561556127	
36.0	215.5994504464561	pulse	3.0	t		34.0	male	white	2.651014723438122	neutral	121	sub-12	1.0	5.0	121_neutral	1.0	dominance	238.27472847569425	
36.0	216.29943363324492	pulse	3.0	t		34.0	male	white	2.651014723438122	neutral	121	sub-12	1.0	5.0	121_neutral	1.0	dominance	238.97471166248306	
36.0	216.99942044226918	pulse	3.0	t		34.0	male	white	2.651014723438122	neutral	121	sub-12	1.0	5.0	121_neutral	1.0	dominance	239.67469847150733	
37.0	217.2659617594527	face	0.0		145	21.0	male	black	2.969757262236371	neutral	137	sub-12	1.0	5.0	137_neutral	0.0		239.94123978869084	1.2333012664848866
37.0	217.6993975919986	pulse	0.0	t		21.0	male	black	2.969757262236371	neutral	137	sub-12	1.0	5.0	137_neutral	0.0		240.37467562123675	
37.0	218.3993801750812	pulse	0.0	t		21.0	male	black	2.969757262236371	neutral	137	sub-12	1.0	5.0	137_neutral	0.0		241.07465820431935	
37.0	218.49926302593758	fix	1.0		444	21.0	male	black	2.969757262236371	neutral	137	sub-12	1.0	5.0	137_neutral	0.0		241.17454105517572	3.7665641070843776
37.0	219.09935973963366	pulse	1.0	t		21.0	male	black	2.969757262236371	neutral	137	sub-12	1.0	5.0	137_neutral	0.0		241.7746377688718	
37.0	219.7993447375402	pulse	1.0	t		21.0	male	black	2.969757262236371	neutral	137	sub-12	1.0	5.0	137_neutral	0.0		242.47462276677834	
37.0	220.49931856688636	pulse	1.0	t		21.0	male	black	2.969757262236371	neutral	137	sub-12	1.0	5.0	137_neutral	0.0		243.1745965961245	
37.0	221.1993041684991	pulse	1.0	t		21.0	male	black	2.969757262236371	neutral	137	sub-12	1.0	5.0	137_neutral	0.0		243.87458219773725	
37.0	221.8992909775243	pulse	1.0	t		21.0	male	black	2.969757262236371	neutral	137	sub-12	1.0	5.0	137_neutral	0.0		244.57456900676243	
38.0	222.26582713302196	face	0.0		145	19.0	female	white	4.298846000795861	smiling	100	sub-12	1.0	5.0	100_smiling	0.0		244.9411051622601	1.2333024738964014
38.0	222.5992672216944	pulse	0.0	t		19.0	female	white	4.298846000795861	smiling	100	sub-12	1.0	5.0	100_smiling	0.0		245.27454525093253	
38.0	223.29924135289366	pulse	0.0	t		19.0	female	white	4.298846000795861	smiling	100	sub-12	1.0	5.0	100_smiling	0.0		245.9745193821318	
38.0	223.49912960691836	fix	1.0		445	19.0	female	white	4.298846000795861	smiling	100	sub-12	1.0	5.0	100_smiling	0.0		246.1744076361565	3.7665472033168044
38.0	223.99924204715535	pulse	1.0	t		19.0	female	white	4.298846000795861	smiling	100	sub-12	1.0	5.0	100_smiling	0.0		246.6745200763935	
38.0	224.69921165055985	pulse	1.0	t		19.0	female	white	4.298846000795861	smiling	100	sub-12	1.0	5.0	100_smiling	0.0		247.374489679798	
38.0	225.39918789472995	pulse	1.0	t		19.0	female	white	4.298846000795861	smiling	100	sub-12	1.0	5.0	100_smiling	0.0		248.0744659239681	
38.0	226.09918768343232	pulse	1.0	t		19.0	female	white	4.298846000795861	smiling	100	sub-12	1.0	5.0	100_smiling	0.0		248.77446571267046	
38.0	226.79915939980765	pulse	1.0	t		19.0	female	white	4.298846000795861	smiling	100	sub-12	1.0	5.0	100_smiling	0.0		249.4744374290458	
39.0	227.26567681023516	face	0.0		146	19.0	female	white	4.298846000795861	neutral	100	sub-12	1.0	5.0	100_neutral	0.0		249.9409548394733	1.2416571608127924
39.0	227.49913986991942	pulse	0.0	t		19.0	female	white	4.298846000795861	neutral	100	sub-12	1.0	5.0	100_neutral	0.0		250.17441789915756	
39.0	228.1991140011187	pulse	0.0	t		19.0	female	white	4.298846000795861	neutral	100	sub-12	1.0	5.0	100_neutral	0.0		250.87439203035683	
39.0	228.50733397104796	fix	1.0		444	19.0	female	white	4.298846000795861	neutral	100	sub-12	1.0	5.0	100_neutral	0.0		251.1826120002861	3.7498972945222704
39.0	228.89909960273144	pulse	1.0	t		19.0	female	white	4.298846000795861	neutral	100	sub-12	1.0	5.0	100_neutral	0.0		251.57437763196958	
39.0	229.59907826172548	pulse	1.0	t		19.0	female	white	4.298846000795861	neutral	100	sub-12	1.0	5.0	100_neutral	0.0		252.27435629096362	
39.0	230.2990617503674	pulse	1.0	t		19.0	female	white	4.298846000795861	neutral	100	sub-12	1.0	5.0	100_neutral	0.0		252.97433977960554	
39.0	230.99903075006569	pulse	1.0	t		19.0	female	white	4.298846000795861	neutral	100	sub-12	1.0	5.0	100_neutral	0.0		253.67430877930383	
39.0	231.69902419985556	pulse	1.0	t		19.0	female	white	4.298846000795861	neutral	100	sub-12	1.0	5.0	100_neutral	0.0		254.3743022290937	
40.0	232.25723126557023	fix	0.0		720													254.93250929480837	5.999840621623662
40.0	232.39901010332142	pulse	0.0	t														255.07428813255956	
40.0	233.09898634749152	pulse	0.0	t														255.77426437672966	
40.0	233.79897587319283	pulse	0.0	t														256.474253902431	
40.0	234.49894547659733	pulse	0.0	t														257.17422350583547	
40.0	235.19893017265076	pulse	0.0	t														257.8742082018889	
40.0	235.89891698167594	pulse	0.0	t														258.5741950109141	
40.0	236.59888960360968	pulse	0.0	t														259.2741676328478	
40.0	237.29887701634016	pulse	0.0	t														259.9741550455783	
40.0	237.99885446792268	pulse	0.0	t														260.6741324971608	
