trial_nr	onset	event_type	phase	response	nr_frames	face_age	face_sex	face_eth	attractiveness	expression	face_id	sub_id	ses	run	trial_type	catch	rating_type	onset_abs	duration
-1.0	0.05539726720417093	fix	0.0		714													101.43918643376105	5.9662519307271396
-1.0	0.705263802906984	pulse	0.0	t														102.08905296946386	
-1.0	1.4052367266942838	pulse	0.0	t														102.78902589325116	
-1.0	2.1052214227479453	pulse	0.0	t														103.48901058930483	
-1.0	2.8051994780357745	pulse	0.0	t														104.18898864459265	
-1.0	3.5051745147939073	pulse	0.0	t														104.88896368135079	
-1.0	4.205164644201432	pulse	0.0	t														105.58895381075831	
-1.0	4.905148434696002	pulse	0.0	t														106.28893760125288	
-1.0	5.605126489984059	pulse	0.0	t														106.98891565654094	
0.0	6.0216491979313105	face	0.0		144	24.0	female	east_asian	2.9076800636689217	neutral	034	sub-14	2.0	1.0	034_neutral	0.0		107.40543836448819	1.2333302443712455
0.0	6.305113299008553	pulse	0.0	t		24.0	female	east_asian	2.9076800636689217	neutral	034	sub-14	2.0	1.0	034_neutral	0.0		107.68890246556543	
0.0	7.005084713531005	pulse	0.0	t		24.0	female	east_asian	2.9076800636689217	neutral	034	sub-14	2.0	1.0	034_neutral	0.0		108.38887388008789	
0.0	7.254979442302556	fix	1.0		444	24.0	female	east_asian	2.9076800636689217	neutral	034	sub-14	2.0	1.0	034_neutral	0.0		108.63876860885944	3.766548108875895
0.0	7.705074541085423	pulse	1.0	t		24.0	female	east_asian	2.9076800636689217	neutral	034	sub-14	2.0	1.0	034_neutral	0.0		109.0888637076423	
0.0	8.40505048340242	pulse	1.0	t		24.0	female	east_asian	2.9076800636689217	neutral	034	sub-14	2.0	1.0	034_neutral	0.0		109.7888396499593	
0.0	9.105033066485248	pulse	1.0	t		24.0	female	east_asian	2.9076800636689217	neutral	034	sub-14	2.0	1.0	034_neutral	0.0		110.48882223304213	
0.0	9.805018064392016	pulse	1.0	t		24.0	female	east_asian	2.9076800636689217	neutral	034	sub-14	2.0	1.0	034_neutral	0.0		111.1888072309489	
0.0	10.50499762894492	pulse	1.0	t		24.0	female	east_asian	2.9076800636689217	neutral	034	sub-14	2.0	1.0	034_neutral	0.0		111.8887867955018	
1.0	11.021527551178451	face	0.0		145	19.0	male	white	3.2522881018702745	smiling	018	sub-14	2.0	1.0	018_smiling	0.0		112.40531671773533	1.2333166609867021
1.0	11.204981419439491	pulse	0.0	t		19.0	male	white	3.2522881018702745	smiling	018	sub-14	2.0	1.0	018_smiling	0.0		112.58877058599637	
1.0	11.90495675805073	pulse	0.0	t		19.0	male	white	3.2522881018702745	smiling	018	sub-14	2.0	1.0	018_smiling	0.0		113.28874592460761	
1.0	12.254844212165153	fix	1.0		444	19.0	male	white	3.2522881018702745	smiling	018	sub-14	2.0	1.0	018_smiling	0.0		113.63863337872203	3.7665502218469555
1.0	12.604946585605148	pulse	1.0	t		19.0	male	white	3.2522881018702745	smiling	018	sub-14	2.0	1.0	018_smiling	0.0		113.98873575216203	
1.0	13.30492313162813	pulse	1.0	t		19.0	male	white	3.2522881018702745	smiling	018	sub-14	2.0	1.0	018_smiling	0.0		114.68871229818501	
1.0	14.004896659121414	pulse	1.0	t		19.0	male	white	3.2522881018702745	smiling	018	sub-14	2.0	1.0	018_smiling	0.0		115.3886858256783	
1.0	14.704887392234696	pulse	1.0	t		19.0	male	white	3.2522881018702745	smiling	018	sub-14	2.0	1.0	018_smiling	0.0		116.08867655879158	
1.0	15.404867560493585	pulse	1.0	t		19.0	male	white	3.2522881018702745	smiling	018	sub-14	2.0	1.0	018_smiling	0.0		116.78865672705047	
2.0	16.02139443401211	face	0.0		145	32.0	male	white	2.389176283326701	neutral	092	sub-14	2.0	1.0	092_neutral	0.0		117.40518360056899	1.233319679516626
2.0	16.104859199165958	pulse	0.0	t		32.0	male	white	2.389176283326701	neutral	092	sub-14	2.0	1.0	092_neutral	0.0		117.48864836572284	
2.0	16.80483453777697	pulse	0.0	t		32.0	male	white	2.389176283326701	neutral	092	sub-14	2.0	1.0	092_neutral	0.0		118.18862370433385	
2.0	17.254714113528735	fix	1.0		444	32.0	male	white	2.389176283326701	neutral	092	sub-14	2.0	1.0	092_neutral	0.0		118.63850328008562	3.758208816461547
2.0	17.50484790986434	pulse	1.0	t		32.0	male	white	2.389176283326701	neutral	092	sub-14	2.0	1.0	092_neutral	0.0		118.88863707642122	
2.0	18.204785818705204	pulse	1.0	t		32.0	male	white	2.389176283326701	neutral	092	sub-14	2.0	1.0	092_neutral	0.0		119.58857498526208	
2.0	18.90477202402394	pulse	1.0	t		32.0	male	white	2.389176283326701	neutral	092	sub-14	2.0	1.0	092_neutral	0.0		120.28856119058082	
2.0	19.60475490895965	pulse	1.0	t		32.0	male	white	2.389176283326701	neutral	092	sub-14	2.0	1.0	092_neutral	0.0		120.98854407551653	
2.0	20.304732058688614	pulse	1.0	t		32.0	male	white	2.389176283326701	neutral	092	sub-14	2.0	1.0	092_neutral	0.0		121.6885212252455	
3.0	21.01292292999028	face	0.0		147	37.0	male	white	3.898925586947871	smiling	101	sub-14	2.0	1.0	101_smiling	0.0		122.39671209654716	1.2416565571072624
3.0	21.007101393323182	pulse	0.0	t		37.0	male	white	3.898925586947871	smiling	101	sub-14	2.0	1.0	101_smiling	0.0		122.39089055988006	
3.0	21.704702960061013	pulse	0.0	t		37.0	male	white	3.898925586947871	smiling	101	sub-14	2.0	1.0	101_smiling	0.0		123.0884921266179	
3.0	22.254579487097544	fix	1.0		443	37.0	male	white	3.898925586947871	smiling	101	sub-14	2.0	1.0	101_smiling	0.0		123.63836865365442	3.76653935513923
3.0	22.404684335731872	pulse	1.0	t		37.0	male	white	3.898925586947871	smiling	101	sub-14	2.0	1.0	101_smiling	0.0		123.78847350228875	
3.0	23.10466450399076	pulse	1.0	t		37.0	male	white	3.898925586947871	smiling	101	sub-14	2.0	1.0	101_smiling	0.0		124.48845367054764	
3.0	23.804643162984576	pulse	1.0	t		37.0	male	white	3.898925586947871	smiling	101	sub-14	2.0	1.0	101_smiling	0.0		125.18843232954146	
3.0	24.5046224256846	pulse	1.0	t		37.0	male	white	3.898925586947871	smiling	101	sub-14	2.0	1.0	101_smiling	0.0		125.88841159224148	
3.0	25.204607121738263	pulse	1.0	t		37.0	male	white	3.898925586947871	smiling	101	sub-14	2.0	1.0	101_smiling	0.0		126.58839628829514	
3.0	25.90458517702632	pulse	1.0	t		37.0	male	white	3.898925586947871	smiling	101	sub-14	2.0	1.0	101_smiling	0.0		127.2883743435832	
4.0	26.021118842236774	face	0.0		146	26.0	male	white	2.7966573816155993	smiling	117	sub-14	2.0	1.0	117_smiling	0.0		127.40490800879365	1.2333302443712455
4.0	26.604577721257556	pulse	0.0	t		26.0	male	white	2.7966573816155993	smiling	117	sub-14	2.0	1.0	117_smiling	0.0		127.98836688781444	
4.0	27.25444908660802	fix	1.0		444	26.0	male	white	2.7966573816155993	smiling	117	sub-14	2.0	1.0	117_smiling	0.0		128.6382382531649	3.7665475051699104
4.0	27.304550946897734	pulse	1.0	t		26.0	male	white	2.7966573816155993	smiling	117	sub-14	2.0	1.0	117_smiling	0.0		128.68834011345461	
4.0	28.00453654851026	pulse	1.0	t		26.0	male	white	2.7966573816155993	smiling	117	sub-14	2.0	1.0	117_smiling	0.0		129.38832571506714	
4.0	28.704512188974377	pulse	1.0	t		26.0	male	white	2.7966573816155993	smiling	117	sub-14	2.0	1.0	117_smiling	0.0		130.08830135553126	
4.0	29.404491451674403	pulse	1.0	t		26.0	male	white	2.7966573816155993	smiling	117	sub-14	2.0	1.0	117_smiling	0.0		130.78828061823128	
4.0	30.10448369405276	pulse	1.0	t		26.0	male	white	2.7966573816155993	smiling	117	sub-14	2.0	1.0	117_smiling	0.0		131.48827286060964	
4.0	30.804429752924307	pulse	1.0	t		26.0	male	white	2.7966573816155993	smiling	117	sub-14	2.0	1.0	117_smiling	0.0		132.1882189194812	
5.0	31.02099659177793	face	0.0		145	24.0	female	east_asian	2.9076800636689217	smiling	034	sub-14	2.0	1.0	034_smiling	0.0		132.4047857583348	1.2333181702517777
5.0	31.504437691657813	pulse	0.0	t		24.0	female	east_asian	2.9076800636689217	smiling	034	sub-14	2.0	1.0	034_smiling	0.0		132.8882268582147	
5.0	32.20442751921223	pulse	0.0	t		24.0	female	east_asian	2.9076800636689217	smiling	034	sub-14	2.0	1.0	034_smiling	0.0		133.5882166857691	
5.0	32.25431476202971	fix	1.0		445	24.0	female	east_asian	2.9076800636689217	smiling	034	sub-14	2.0	1.0	034_smiling	0.0		133.6381039285866	3.7583579318361444
5.0	32.904407385618015	pulse	1.0	t		24.0	female	east_asian	2.9076800636689217	smiling	034	sub-14	2.0	1.0	034_smiling	0.0		134.2881965521749	
5.0	33.60438362978812	pulse	1.0	t		24.0	female	east_asian	2.9076800636689217	smiling	034	sub-14	2.0	1.0	034_smiling	0.0		134.988172796345	
5.0	34.30436832584178	pulse	1.0	t		24.0	female	east_asian	2.9076800636689217	smiling	034	sub-14	2.0	1.0	034_smiling	0.0		135.68815749239866	
5.0	35.00435030521862	pulse	1.0	t		24.0	female	east_asian	2.9076800636689217	smiling	034	sub-14	2.0	1.0	034_smiling	0.0		136.3881394717755	
5.0	35.70432836050668	pulse	1.0	t		24.0	female	east_asian	2.9076800636689217	smiling	034	sub-14	2.0	1.0	034_smiling	0.0		137.08811752706356	
6.0	36.01267269386585	face	0.0		146	19.0	male	white	2.243931555909272	neutral	130	sub-14	2.0	1.0	130_neutral	0.0		137.39646186042273	1.2415086491444072
6.0	36.40432030103193	pulse	0.0	t		19.0	male	white	2.243931555909272	neutral	130	sub-14	2.0	1.0	130_neutral	0.0		137.7881094675888	
6.0	37.10428839517135	pulse	0.0	t		19.0	male	white	2.243931555909272	neutral	130	sub-14	2.0	1.0	130_neutral	0.0		138.48807756172823	
6.0	37.25418134301026	fix	1.0		444	19.0	male	white	2.243931555909272	neutral	130	sub-14	2.0	1.0	130_neutral	0.0		138.63797050956714	3.758298466798351
6.0	37.80428033569683	pulse	1.0	t		19.0	male	white	2.243931555909272	neutral	130	sub-14	2.0	1.0	130_neutral	0.0		139.1880695022537	
6.0	38.50425325948413	pulse	1.0	t		19.0	male	white	2.243931555909272	neutral	130	sub-14	2.0	1.0	130_neutral	0.0		139.888042426041	
6.0	39.204233125889914	pulse	1.0	t		19.0	male	white	2.243931555909272	neutral	130	sub-14	2.0	1.0	130_neutral	0.0		140.5880222924468	
6.0	39.90421812379668	pulse	1.0	t		19.0	male	white	2.243931555909272	neutral	130	sub-14	2.0	1.0	130_neutral	0.0		141.28800729035356	
6.0	40.60419889576133	pulse	1.0	t		19.0	male	white	2.243931555909272	neutral	130	sub-14	2.0	1.0	130_neutral	0.0		141.9879880623182	
7.0	41.01247980980861	face	0.0		146	19.0	female	white	4.298846000795861	smiling	100	sub-14	2.0	1.0	100_smiling	0.0		142.3962689763655	1.2415714345652304
7.0	41.304191138139686	pulse	0.0	t		19.0	female	white	4.298846000795861	smiling	100	sub-14	2.0	1.0	100_smiling	0.0		142.68798030469657	
7.0	42.00415379892547	pulse	0.0	t		19.0	female	white	4.298846000795861	smiling	100	sub-14	2.0	1.0	100_smiling	0.0		143.38794296548235	
7.0	42.25405124437384	fix	1.0		444	19.0	female	white	4.298846000795861	smiling	100	sub-14	2.0	1.0	100_smiling	0.0		143.63784041093072	3.7665462977581683
7.0	42.70414936168663	pulse	1.0	t		19.0	female	white	4.298846000795861	smiling	100	sub-14	2.0	1.0	100_smiling	0.0		144.0879385282435	
7.0	43.404117455826054	pulse	1.0	t		19.0	female	white	4.298846000795861	smiling	100	sub-14	2.0	1.0	100_smiling	0.0		144.78790662238293	
7.0	44.104103057438806	pulse	1.0	t		19.0	female	white	4.298846000795861	smiling	100	sub-14	2.0	1.0	100_smiling	0.0		145.4878922239957	
7.0	44.8040931868461	pulse	1.0	t		19.0	female	white	4.298846000795861	smiling	100	sub-14	2.0	1.0	100_smiling	0.0		146.18788235340298	
7.0	45.50406490322143	pulse	1.0	t		19.0	female	white	4.298846000795861	smiling	100	sub-14	2.0	1.0	100_smiling	0.0		146.8878540697783	
8.0	46.02059754213201	face	0.0		145	24.0	female	black	3.0955033824114606	smiling	099	sub-14	2.0	1.0	099_smiling	0.0		147.4043867086889	1.2333190758106412
8.0	46.204055334481836	pulse	0.0	t		24.0	female	black	3.0955033824114606	smiling	099	sub-14	2.0	1.0	099_smiling	0.0		147.58784450103872	
8.0	46.9040324842108	pulse	0.0	t		24.0	female	black	3.0955033824114606	smiling	099	sub-14	2.0	1.0	099_smiling	0.0		148.28782165076768	
8.0	47.25391661794265	fix	1.0		444	24.0	female	black	3.0955033824114606	smiling	099	sub-14	2.0	1.0	099_smiling	0.0		148.63770578449953	3.7665505236998342
8.0	47.603999974644466	pulse	1.0	t		24.0	female	black	3.0955033824114606	smiling	099	sub-14	2.0	1.0	099_smiling	0.0		148.98778914120135	
8.0	48.30399734852335	pulse	1.0	t		24.0	female	black	3.0955033824114606	smiling	099	sub-14	2.0	1.0	099_smiling	0.0		149.68778651508023	
8.0	49.00397419639944	pulse	1.0	t		24.0	female	black	3.0955033824114606	smiling	099	sub-14	2.0	1.0	099_smiling	0.0		150.38776336295632	
8.0	49.70396009986507	pulse	1.0	t		24.0	female	black	3.0955033824114606	smiling	099	sub-14	2.0	1.0	099_smiling	0.0		151.08774926642195	
8.0	50.403934834770325	pulse	1.0	t		24.0	female	black	3.0955033824114606	smiling	099	sub-14	2.0	1.0	099_smiling	0.0		151.7877240013272	
9.0	51.020467141642484	face	0.0		145	22.0	female	white	4.614007162753682	neutral	009	sub-14	2.0	1.0	009_neutral	0.0		152.40425630819936	1.2333154535747326
9.0	51.103927982707546	pulse	0.0	t		22.0	female	white	4.614007162753682	neutral	009	sub-14	2.0	1.0	009_neutral	0.0		152.48771714926443	
9.0	51.80390090649462	pulse	0.0	t		22.0	female	white	4.614007162753682	neutral	009	sub-14	2.0	1.0	009_neutral	0.0		153.1876900730515	
9.0	52.25378259521722	fix	1.0		444	22.0	female	white	4.614007162753682	neutral	009	sub-14	2.0	1.0	009_neutral	0.0		153.6375717617741	3.7665487125821073
9.0	52.50388801737222	pulse	1.0	t		22.0	female	white	4.614007162753682	neutral	009	sub-14	2.0	1.0	009_neutral	0.0		153.8876771839291	
9.0	53.20386667636626	pulse	1.0	t		22.0	female	white	4.614007162753682	neutral	009	sub-14	2.0	1.0	009_neutral	0.0		154.58765584292314	
9.0	53.90385257983189	pulse	1.0	t		22.0	female	white	4.614007162753682	neutral	009	sub-14	2.0	1.0	009_neutral	0.0		155.28764174638877	
9.0	54.60383304994366	pulse	1.0	t		22.0	female	white	4.614007162753682	neutral	009	sub-14	2.0	1.0	009_neutral	0.0		155.98762221650054	
9.0	55.30381321820255	pulse	1.0	t		22.0	female	white	4.614007162753682	neutral	009	sub-14	2.0	1.0	009_neutral	0.0		156.68760238475943	
10.0	56.020331307799324	face	0.0		146	47.0	male	east_asian	2.171110226820533	smiling	024	sub-14	2.0	1.0	024_smiling	0.0		157.4041204743562	1.2333214906343528
10.0	56.00664710458091	pulse	0.0	t		47.0	male	east_asian	2.171110226820533	smiling	024	sub-14	2.0	1.0	024_smiling	0.0		157.3904362711378	
10.0	56.70377325286745	pulse	0.0	t		47.0	male	east_asian	2.171110226820533	smiling	024	sub-14	2.0	1.0	024_smiling	0.0		158.08756241942433	
10.0	57.25365279843368	fix	1.0		443	47.0	male	east_asian	2.171110226820533	smiling	024	sub-14	2.0	1.0	024_smiling	0.0		158.63744196499056	3.7665508255529403
10.0	57.40375915633308	pulse	1.0	t		47.0	male	east_asian	2.171110226820533	smiling	024	sub-14	2.0	1.0	024_smiling	0.0		158.78754832288996	
10.0	58.103731476414396	pulse	1.0	t		47.0	male	east_asian	2.171110226820533	smiling	024	sub-14	2.0	1.0	024_smiling	0.0		159.48752064297128	
10.0	58.80371556876207	pulse	1.0	t		47.0	male	east_asian	2.171110226820533	smiling	024	sub-14	2.0	1.0	024_smiling	0.0		160.18750473531895	
10.0	59.50368909625513	pulse	1.0	t		47.0	male	east_asian	2.171110226820533	smiling	024	sub-14	2.0	1.0	024_smiling	0.0		160.887478262812	
10.0	60.20368103678061	pulse	1.0	t		47.0	male	east_asian	2.171110226820533	smiling	024	sub-14	2.0	1.0	024_smiling	0.0		161.5874702033375	
10.0	60.90366029948041	pulse	1.0	t		47.0	male	east_asian	2.171110226820533	smiling	024	sub-14	2.0	1.0	024_smiling	0.0		162.2874494660373	
11.0	61.02020362398662	face	0.0		146	21.0	male	black	2.969757262236371	neutral	137	sub-14	2.0	1.0	137_neutral	0.0		162.4039927905435	1.2333139443098844
11.0	61.603646504799144	pulse	0.0	t		21.0	male	black	2.969757262236371	neutral	137	sub-14	2.0	1.0	137_neutral	0.0		162.98743567135602	
11.0	62.2535175682965	fix	1.0		443	21.0	male	black	2.969757262236371	neutral	137	sub-14	2.0	1.0	137_neutral	0.0		163.63730673485338	3.766549316288092
11.0	62.30362938973485	pulse	1.0	t		21.0	male	black	2.969757262236371	neutral	137	sub-14	2.0	1.0	137_neutral	0.0		163.68741855629173	
11.0	63.003605633904954	pulse	1.0	t		21.0	male	black	2.969757262236371	neutral	137	sub-14	2.0	1.0	137_neutral	0.0		164.38739480046183	
11.0	63.70358640586983	pulse	1.0	t		21.0	male	black	2.969757262236371	neutral	137	sub-14	2.0	1.0	137_neutral	0.0		165.0873755724267	
11.0	64.40357985566015	pulse	1.0	t		21.0	male	black	2.969757262236371	neutral	137	sub-14	2.0	1.0	137_neutral	0.0		165.78736902221704	
11.0	65.10352651823769	pulse	1.0	t		21.0	male	black	2.969757262236371	neutral	137	sub-14	2.0	1.0	137_neutral	0.0		166.48731568479457	
11.0	65.80353747550089	pulse	1.0	t		21.0	male	black	2.969757262236371	neutral	137	sub-14	2.0	1.0	137_neutral	0.0		167.18732664205777	
12.0	66.0200668845846	face	0.0		145	23.0	male	white	2.6275368085953046	smiling	141	sub-14	2.0	1.0	141_smiling	0.0		167.40385605114147	1.2333199813692772
12.0	66.50351975673084	pulse	0.0	t		23.0	male	white	2.6275368085953046	smiling	141	sub-14	2.0	1.0	141_smiling	0.0		167.88730892328772	
12.0	67.20349600090094	pulse	0.0	t		23.0	male	white	2.6275368085953046	smiling	141	sub-14	2.0	1.0	141_smiling	0.0		168.58728516745782	
12.0	67.25338686595387	fix	1.0		445	23.0	male	white	2.6275368085953046	smiling	141	sub-14	2.0	1.0	141_smiling	0.0		168.63717603251075	3.7665502218469555
12.0	67.9034761691596	pulse	1.0	t		23.0	male	white	2.6275368085953046	smiling	141	sub-14	2.0	1.0	141_smiling	0.0		169.28726533571648	
12.0	68.60345905409531	pulse	1.0	t		23.0	male	white	2.6275368085953046	smiling	141	sub-14	2.0	1.0	141_smiling	0.0		169.9872482206522	
12.0	69.30343680753049	pulse	1.0	t		23.0	male	white	2.6275368085953046	smiling	141	sub-14	2.0	1.0	141_smiling	0.0		170.68722597408737	
12.0	70.00342150358392	pulse	1.0	t		23.0	male	white	2.6275368085953046	smiling	141	sub-14	2.0	1.0	141_smiling	0.0		171.3872106701408	
12.0	70.70340136998993	pulse	1.0	t		23.0	male	white	2.6275368085953046	smiling	141	sub-14	2.0	1.0	141_smiling	0.0		172.0871905365468	
13.0	71.01993708780083	face	0.0		145	24.0	female	east_asian	4.409868682849185	smiling	030	sub-14	2.0	1.0	030_smiling	0.0		172.4037262543577	1.2333163591338234
13.0	71.40338697160269	pulse	0.0	t		24.0	female	east_asian	4.409868682849185	smiling	030	sub-14	2.0	1.0	030_smiling	0.0		172.78717613815957	
13.0	72.10336895097953	pulse	0.0	t		24.0	female	east_asian	4.409868682849185	smiling	030	sub-14	2.0	1.0	030_smiling	0.0		173.4871581175364	
13.0	72.25325344693465	fix	1.0		444	24.0	female	east_asian	4.409868682849185	smiling	030	sub-14	2.0	1.0	030_smiling	0.0		173.63704261349153	3.75821424981541
13.0	72.80335123220902	pulse	1.0	t		24.0	female	east_asian	4.409868682849185	smiling	030	sub-14	2.0	1.0	030_smiling	0.0		174.1871403987659	
13.0	73.50332657082026	pulse	1.0	t		24.0	female	east_asian	4.409868682849185	smiling	030	sub-14	2.0	1.0	030_smiling	0.0		174.88711573737714	
13.0	74.2033148891096	pulse	1.0	t		24.0	female	east_asian	4.409868682849185	smiling	030	sub-14	2.0	1.0	030_smiling	0.0		175.5871040556665	
13.0	74.90329083142706	pulse	1.0	t		24.0	female	east_asian	4.409868682849185	smiling	030	sub-14	2.0	1.0	030_smiling	0.0		176.28707999798394	
13.0	75.60327220709769	pulse	1.0	t		24.0	female	east_asian	4.409868682849185	smiling	030	sub-14	2.0	1.0	030_smiling	0.0		176.98706137365457	
14.0	76.01146769675006	face	0.0		146	25.0	female	black	3.858336649423	neutral	126	sub-14	2.0	1.0	126_neutral	0.0		177.39525686330694	1.2416547459893081
14.0	76.30326052538703	pulse	0.0	t		25.0	female	black	3.858336649423	neutral	126	sub-14	2.0	1.0	126_neutral	0.0		177.6870496919439	
14.0	77.00322590284986	pulse	0.0	t		25.0	female	black	3.858336649423	neutral	126	sub-14	2.0	1.0	126_neutral	0.0		178.38701506940674	
14.0	77.25312244273937	fix	1.0		444	25.0	female	black	3.858336649423	neutral	126	sub-14	2.0	1.0	126_neutral	0.0		178.63691160929625	3.7582954482682
14.0	77.70322176746413	pulse	1.0	t		25.0	female	black	3.858336649423	neutral	126	sub-14	2.0	1.0	126_neutral	0.0		179.087010934021	
14.0	78.40319438939832	pulse	1.0	t		25.0	female	black	3.858336649423	neutral	126	sub-14	2.0	1.0	126_neutral	0.0		179.7869835559552	
14.0	79.10317636877517	pulse	1.0	t		25.0	female	black	3.858336649423	neutral	126	sub-14	2.0	1.0	126_neutral	0.0		180.48696553533205	
14.0	79.80317555377178	pulse	1.0	t		25.0	female	black	3.858336649423	neutral	126	sub-14	2.0	1.0	126_neutral	0.0		181.18696472032866	
14.0	80.50313881826378	pulse	1.0	t		25.0	female	black	3.858336649423	neutral	126	sub-14	2.0	1.0	126_neutral	0.0		181.88692798482066	
15.0	81.01141789100757	face	0.0		146	47.0	male	east_asian	2.171110226820533	neutral	024	sub-14	2.0	1.0	024_neutral	0.0		182.39520705756445	1.2415512104153095
15.0	81.20312683470002	pulse	0.0	t		47.0	male	east_asian	2.171110226820533	neutral	024	sub-14	2.0	1.0	024_neutral	0.0		182.5869160012569	
15.0	81.90308134545558	pulse	0.0	t		47.0	male	east_asian	2.171110226820533	neutral	024	sub-14	2.0	1.0	024_neutral	0.0		183.28687051201246	
15.0	82.25296910142288	fix	1.0		444	47.0	male	east_asian	2.171110226820533	neutral	024	sub-14	2.0	1.0	024_neutral	0.0		183.63675826797976	3.76657135155574
15.0	82.60309622680734	pulse	1.0	t		47.0	male	east_asian	2.171110226820533	neutral	024	sub-14	2.0	1.0	024_neutral	0.0		183.98688539336422	
15.0	83.30306432094721	pulse	1.0	t		47.0	male	east_asian	2.171110226820533	neutral	024	sub-14	2.0	1.0	024_neutral	0.0		184.6868534875041	
15.0	84.0030463003236	pulse	1.0	t		47.0	male	east_asian	2.171110226820533	neutral	024	sub-14	2.0	1.0	024_neutral	0.0		185.38683546688048	
15.0	84.70303069452439	pulse	1.0	t		47.0	male	east_asian	2.171110226820533	neutral	024	sub-14	2.0	1.0	024_neutral	0.0		186.08681986108127	
15.0	85.40301176834237	pulse	1.0	t		47.0	male	east_asian	2.171110226820533	neutral	024	sub-14	2.0	1.0	024_neutral	0.0		186.78680093489925	
16.0	86.01954045297862	face	0.0		145	25.0	female	west_asian	2.6756864305610826	smiling	064	sub-14	2.0	1.0	064_smiling	0.0		187.4033296195355	1.2333148498692026
16.0	86.10300431257383	pulse	0.0	t		25.0	female	west_asian	2.6756864305610826	smiling	064	sub-14	2.0	1.0	064_smiling	0.0		187.4867934791307	
16.0	86.80297150115439	pulse	0.0	t		25.0	female	west_asian	2.6756864305610826	smiling	064	sub-14	2.0	1.0	064_smiling	0.0		188.18676066771127	
16.0	87.25285530284782	fix	1.0		444	25.0	female	west_asian	2.6756864305610826	smiling	064	sub-14	2.0	1.0	064_smiling	0.0		188.6366444694047	3.766546297757941
16.0	87.50296012129684	pulse	1.0	t		25.0	female	west_asian	2.6756864305610826	smiling	064	sub-14	2.0	1.0	064_smiling	0.0		188.88674928785372	
16.0	88.20293304508368	pulse	1.0	t		25.0	female	west_asian	2.6756864305610826	smiling	064	sub-14	2.0	1.0	064_smiling	0.0		189.58672221164056	
16.0	88.90291804299068	pulse	1.0	t		25.0	female	west_asian	2.6756864305610826	smiling	064	sub-14	2.0	1.0	064_smiling	0.0		190.28670720954756	
16.0	89.60290424830919	pulse	1.0	t		25.0	female	west_asian	2.6756864305610826	smiling	064	sub-14	2.0	1.0	064_smiling	0.0		190.98669341486607	
16.0	90.30288049247929	pulse	1.0	t		25.0	female	west_asian	2.6756864305610826	smiling	064	sub-14	2.0	1.0	064_smiling	0.0		191.68666965903617	
17.0	91.01940160060576	face	0.0		146	20.0	male	black	2.609629924393156	neutral	043	sub-14	2.0	1.0	043_neutral	0.0		192.40319076716264	1.2333233017525345
17.0	91.00571045476863	pulse	0.0	t		20.0	male	black	2.609629924393156	neutral	043	sub-14	2.0	1.0	043_neutral	0.0		192.3894996213255	
17.0	91.70284203640904	pulse	0.0	t		20.0	male	black	2.609629924393156	neutral	043	sub-14	2.0	1.0	043_neutral	0.0		193.08663120296592	
17.0	92.2527249023583	fix	1.0		443	20.0	male	black	2.609629924393156	neutral	043	sub-14	2.0	1.0	043_neutral	0.0		193.63651406891518	3.7665312051085493
17.0	92.40283186396346	pulse	1.0	t		20.0	male	black	2.609629924393156	neutral	043	sub-14	2.0	1.0	043_neutral	0.0		193.78662103052034	
17.0	93.1028105229575	pulse	1.0	t		20.0	male	black	2.609629924393156	neutral	043	sub-14	2.0	1.0	043_neutral	0.0		194.48659968951438	
17.0	93.80279038936305	pulse	1.0	t		20.0	male	black	2.609629924393156	neutral	043	sub-14	2.0	1.0	043_neutral	0.0		195.18657955591993	
17.0	94.50276421870922	pulse	1.0	t		20.0	male	black	2.609629924393156	neutral	043	sub-14	2.0	1.0	043_neutral	0.0		195.8865533852661	
17.0	95.2027673277953	pulse	1.0	t		20.0	male	black	2.609629924393156	neutral	043	sub-14	2.0	1.0	043_neutral	0.0		196.58655649435218	
17.0	95.90273481822851	pulse	1.0	t		20.0	male	black	2.609629924393156	neutral	043	sub-14	2.0	1.0	043_neutral	0.0		197.2865239847854	
18.0	96.01925610746684	face	0.0		146	40.0	female	west_asian	1.5777954635893354	neutral	038	sub-14	2.0	1.0	038_neutral	0.0		197.40304527402373	1.2333341684598054
18.0	96.60272192910634	pulse	0.0	t		40.0	female	west_asian	1.5777954635893354	neutral	038	sub-14	2.0	1.0	038_neutral	0.0		197.98651109566322	
18.0	97.25259027592665	fix	1.0		443	40.0	female	west_asian	1.5777954635893354	neutral	038	sub-14	2.0	1.0	038_neutral	0.0		198.63637944248353	3.75835551701266
18.0	97.30270722886598	pulse	1.0	t		40.0	female	west_asian	1.5777954635893354	neutral	038	sub-14	2.0	1.0	038_neutral	0.0		198.68649639542286	
18.0	98.00267924709397	pulse	1.0	t		40.0	female	west_asian	1.5777954635893354	neutral	038	sub-14	2.0	1.0	038_neutral	0.0		199.38646841365085	
18.0	98.70266062276505	pulse	1.0	t		40.0	female	west_asian	1.5777954635893354	neutral	038	sub-14	2.0	1.0	038_neutral	0.0		200.08644978932193	
18.0	99.40262660393364	pulse	1.0	t		40.0	female	west_asian	1.5777954635893354	neutral	038	sub-14	2.0	1.0	038_neutral	0.0		200.78641577049052	
18.0	100.10262609078336	pulse	1.0	t		40.0	female	west_asian	1.5777954635893354	neutral	038	sub-14	2.0	1.0	038_neutral	0.0		201.48641525734024	
18.0	100.80260324051278	pulse	1.0	t		40.0	female	west_asian	1.5777954635893354	neutral	038	sub-14	2.0	1.0	038_neutral	0.0		202.18639240706966	
19.0	101.01094579293931	face	0.0		146	40.0	female	west_asian	1.5777954635893354	smiling	038	sub-14	2.0	1.0	038_smiling	0.0		202.3947349594962	1.2415107621150128
19.0	101.50258884212508	pulse	0.0	t		40.0	female	west_asian	1.5777954635893354	smiling	038	sub-14	2.0	1.0	038_smiling	0.0		202.88637800868196	
19.0	102.20256599185404	pulse	0.0	t		40.0	female	west_asian	1.5777954635893354	smiling	038	sub-14	2.0	1.0	038_smiling	0.0		203.58635515841092	
19.0	102.25245655505432	fix	1.0		444	40.0	female	west_asian	1.5777954635893354	smiling	038	sub-14	2.0	1.0	038_smiling	0.0		203.6362457216112	3.766549618141198
19.0	102.90255008420172	pulse	1.0	t		40.0	female	west_asian	1.5777954635893354	smiling	038	sub-14	2.0	1.0	038_smiling	0.0		204.2863392507586	
19.0	103.6025344784025	pulse	1.0	t		40.0	female	west_asian	1.5777954635893354	smiling	038	sub-14	2.0	1.0	038_smiling	0.0		204.98632364495938	
19.0	104.30250800589602	pulse	1.0	t		40.0	female	west_asian	1.5777954635893354	smiling	038	sub-14	2.0	1.0	038_smiling	0.0		205.6862971724529	
19.0	105.00249451306718	pulse	1.0	t		40.0	female	west_asian	1.5777954635893354	smiling	038	sub-14	2.0	1.0	038_smiling	0.0		206.38628367962406	
19.0	105.70247196464925	pulse	1.0	t		40.0	female	west_asian	1.5777954635893354	smiling	038	sub-14	2.0	1.0	038_smiling	0.0		207.08626113120613	
20.0	106.01900617319552	face	0.0		145	22.0	male	black	2.767608436132113	smiling	044	sub-14	2.0	1.0	044_smiling	1.0	dominance	207.4027953397524	1.2333181702515503
20.0	106.40246179220367	pulse	0.0	t		22.0	male	black	2.767608436132113	smiling	044	sub-14	2.0	1.0	044_smiling	1.0	dominance	207.78625095876055	
20.0	107.1024401493446	pulse	0.0	t		22.0	male	black	2.767608436132113	smiling	044	sub-14	2.0	1.0	044_smiling	1.0	dominance	208.48622931590148	
20.0	107.25232434344707	fix	1.0		177	22.0	male	black	2.767608436132113	smiling	044	sub-14	2.0	1.0	044_smiling	1.0	dominance	208.63611351000395	1.5083303877513572
20.0	107.8024218268688	pulse	1.0	t		22.0	male	black	2.767608436132113	smiling	044	sub-14	2.0	1.0	044_smiling	1.0	dominance	209.18621099342568	
20.0	108.50239625992072	pulse	1.0	t		22.0	male	black	2.767608436132113	smiling	044	sub-14	2.0	1.0	044_smiling	1.0	dominance	209.8861854264776	
20.0	108.76065473119843	rating	2.0		294	22.0	male	black	2.767608436132113	smiling	044	sub-14	2.0	1.0	044_smiling	1.0	dominance	210.1444438977553	2.491563963703811
20.0	109.19717067160173	pulse	2.0	t		22.0	male	black	2.767608436132113	smiling	044	sub-14	2.0	1.0	044_smiling	1.0	dominance	210.5809598381586	
20.0	109.89715536765561	pulse	2.0	t		22.0	male	black	2.767608436132113	smiling	044	sub-14	2.0	1.0	044_smiling	1.0	dominance	211.2809445342125	
20.0	110.29714045611809	response	2.0	y		22.0	male	black	2.767608436132113	smiling	044	sub-14	2.0	1.0	044_smiling	1.0	dominance	211.68092962267497	
20.0	110.5970962950264	pulse	2.0	t		22.0	male	black	2.767608436132113	smiling	044	sub-14	2.0	1.0	044_smiling	1.0	dominance	211.98088546158328	
20.0	111.25221869490224	fix	3.0		1184	22.0	male	black	2.767608436132113	smiling	044	sub-14	2.0	1.0	044_smiling	1.0	dominance	212.63600786145912	10.016389107816394
20.0	111.30232387557498	pulse	3.0	t		22.0	male	black	2.767608436132113	smiling	044	sub-14	2.0	1.0	044_smiling	1.0	dominance	212.68611304213186	
20.0	112.00230525124607	pulse	3.0	t		22.0	male	black	2.767608436132113	smiling	044	sub-14	2.0	1.0	044_smiling	1.0	dominance	213.38609441780295	
20.0	112.70228873988754	pulse	3.0	t		22.0	male	black	2.767608436132113	smiling	044	sub-14	2.0	1.0	044_smiling	1.0	dominance	214.08607790644442	
20.0	113.40226619146961	pulse	3.0	t		22.0	male	black	2.767608436132113	smiling	044	sub-14	2.0	1.0	044_smiling	1.0	dominance	214.7860553580265	
20.0	114.10224998196418	pulse	3.0	t		22.0	male	black	2.767608436132113	smiling	044	sub-14	2.0	1.0	044_smiling	1.0	dominance	215.48603914852106	
20.0	114.80223497987117	pulse	3.0	t		22.0	male	black	2.767608436132113	smiling	044	sub-14	2.0	1.0	044_smiling	1.0	dominance	216.18602414642805	
20.0	115.50221575183605	pulse	3.0	t		22.0	male	black	2.767608436132113	smiling	044	sub-14	2.0	1.0	044_smiling	1.0	dominance	216.88600491839293	
20.0	116.20218384597547	pulse	3.0	t		22.0	male	black	2.767608436132113	smiling	044	sub-14	2.0	1.0	044_smiling	1.0	dominance	217.58597301253235	
20.0	116.9021682401758	pulse	3.0	t		22.0	male	black	2.767608436132113	smiling	044	sub-14	2.0	1.0	044_smiling	1.0	dominance	218.28595740673268	
20.0	117.60215867143643	pulse	3.0	t		22.0	male	black	2.767608436132113	smiling	044	sub-14	2.0	1.0	044_smiling	1.0	dominance	218.9859478379933	
20.0	118.30213551931229	pulse	3.0	t		22.0	male	black	2.767608436132113	smiling	044	sub-14	2.0	1.0	044_smiling	1.0	dominance	219.68592468586917	
20.0	119.00211659313027	pulse	3.0	t		22.0	male	black	2.767608436132113	smiling	044	sub-14	2.0	1.0	044_smiling	1.0	dominance	220.38590575968715	
20.0	119.70210279844878	pulse	3.0	t		22.0	male	black	2.767608436132113	smiling	044	sub-14	2.0	1.0	044_smiling	1.0	dominance	221.08589196500566	
20.0	120.40207904261888	pulse	3.0	t		22.0	male	black	2.767608436132113	smiling	044	sub-14	2.0	1.0	044_smiling	1.0	dominance	221.78586820917576	
20.0	121.10206796461443	pulse	3.0	t		22.0	male	black	2.767608436132113	smiling	044	sub-14	2.0	1.0	044_smiling	1.0	dominance	222.48585713117131	
21.0	121.26860780271863	face	0.0		146	27.0	female	white	3.504576203740549	neutral	144	sub-14	2.0	1.0	144_neutral	0.0		222.65239696927551	1.233315151721854
21.0	121.80205296252097	pulse	0.0	t		27.0	female	white	3.504576203740549	neutral	144	sub-14	2.0	1.0	144_neutral	0.0		223.18584212907786	
21.0	122.50192295444049	fix	1.0		444	27.0	female	white	3.504576203740549	neutral	144	sub-14	2.0	1.0	144_neutral	0.0		223.88571212099737	3.758194025665489
21.0	122.50944784750163	pulse	1.0	t		27.0	female	white	3.504576203740549	neutral	144	sub-14	2.0	1.0	144_neutral	0.0		223.8932370140585	
21.0	123.20202144906943	pulse	1.0	t		27.0	female	white	3.504576203740549	neutral	144	sub-14	2.0	1.0	144_neutral	0.0		224.58581061562631	
21.0	123.90198863764999	pulse	1.0	t		27.0	female	white	3.504576203740549	neutral	144	sub-14	2.0	1.0	144_neutral	0.0		225.28577780420687	
21.0	124.60197635223358	pulse	1.0	t		27.0	female	white	3.504576203740549	neutral	144	sub-14	2.0	1.0	144_neutral	0.0		225.98576551879046	
21.0	125.3019541056683	pulse	1.0	t		27.0	female	white	3.504576203740549	neutral	144	sub-14	2.0	1.0	144_neutral	0.0		226.68574327222518	
21.0	126.00193457578052	pulse	1.0	t		27.0	female	white	3.504576203740549	neutral	144	sub-14	2.0	1.0	144_neutral	0.0		227.3857237423374	
22.0	126.26011698010598	face	0.0		146	31.0	female	west_asian	2.364902506963788	smiling	006	sub-14	2.0	1.0	006_smiling	0.0		227.64390614666286	1.2416713479033206
22.0	126.70192047924593	pulse	0.0	t		31.0	female	west_asian	2.364902506963788	smiling	006	sub-14	2.0	1.0	006_smiling	0.0		228.0857096458028	
22.0	127.40189551600406	pulse	0.0	t		31.0	female	west_asian	2.364902506963788	smiling	006	sub-14	2.0	1.0	006_smiling	0.0		228.78568468256094	
22.0	127.5017883280093	fix	1.0		444	31.0	female	west_asian	2.364902506963788	smiling	006	sub-14	2.0	1.0	006_smiling	0.0		228.88557749456618	3.758345555863798
22.0	128.10188323058765	pulse	1.0	t		31.0	female	west_asian	2.364902506963788	smiling	006	sub-14	2.0	1.0	006_smiling	0.0		229.48567239714453	
22.0	128.80185796549267	pulse	1.0	t		31.0	female	west_asian	2.364902506963788	smiling	006	sub-14	2.0	1.0	006_smiling	0.0		230.18564713204955	
22.0	129.50183602078096	pulse	1.0	t		31.0	female	west_asian	2.364902506963788	smiling	006	sub-14	2.0	1.0	006_smiling	0.0		230.88562518733784	
22.0	130.20182916871818	pulse	1.0	t		31.0	female	west_asian	2.364902506963788	smiling	006	sub-14	2.0	1.0	006_smiling	0.0		231.58561833527506	
22.0	130.90180269621123	pulse	1.0	t		31.0	female	west_asian	2.364902506963788	smiling	006	sub-14	2.0	1.0	006_smiling	0.0		232.28559186276811	
23.0	131.2601338838731	face	0.0		146	26.0	male	white	2.7966573816155993	neutral	117	sub-14	2.0	1.0	117_neutral	1.0	attractiveness	232.64392305042998	1.2415213269696324
23.0	131.60179101450058	pulse	0.0	t		26.0	male	white	2.7966573816155993	neutral	117	sub-14	2.0	1.0	117_neutral	1.0	attractiveness	232.98558018105746	
23.0	132.30176846608265	pulse	0.0	t		26.0	male	white	2.7966573816155993	neutral	117	sub-14	2.0	1.0	117_neutral	1.0	attractiveness	233.68555763263953	
23.0	132.50165521084273	fix	1.0		177	26.0	male	white	2.7966573816155993	neutral	117	sub-14	2.0	1.0	117_neutral	1.0	attractiveness	233.8854443773996	1.4999533637137574
23.0	133.00174652137093	pulse	1.0	t		26.0	male	white	2.7966573816155993	neutral	117	sub-14	2.0	1.0	117_neutral	1.0	attractiveness	234.3855356879278	
23.0	133.70172125627596	pulse	1.0	t		26.0	male	white	2.7966573816155993	neutral	117	sub-14	2.0	1.0	117_neutral	1.0	attractiveness	235.08551042283284	
23.0	134.00160857455649	rating	2.0		295	26.0	male	white	2.7966573816155993	neutral	117	sub-14	2.0	1.0	117_neutral	1.0	attractiveness	235.38539774111337	2.4999289136221705
23.0	134.39647816048364	pulse	2.0	t		26.0	male	white	2.7966573816155993	neutral	117	sub-14	2.0	1.0	117_neutral	1.0	attractiveness	235.78026732704052	
23.0	135.08503470252845	response	2.0	w		26.0	male	white	2.7966573816155993	neutral	117	sub-14	2.0	1.0	117_neutral	1.0	attractiveness	236.46882386908533	
23.0	135.0963704895239	pulse	2.0	t		26.0	male	white	2.7966573816155993	neutral	117	sub-14	2.0	1.0	117_neutral	1.0	attractiveness	236.4801596560808	
23.0	135.80167142034816	pulse	2.0	t		26.0	male	white	2.7966573816155993	neutral	117	sub-14	2.0	1.0	117_neutral	1.0	attractiveness	237.18546058690504	
23.0	136.50153748817866	fix	3.0		443	26.0	male	white	2.7966573816155993	neutral	117	sub-14	2.0	1.0	117_neutral	1.0	attractiveness	237.88532665473554	3.7665635033781655
23.0	136.50946475126875	pulse	3.0	t		26.0	male	white	2.7966573816155993	neutral	117	sub-14	2.0	1.0	117_neutral	1.0	attractiveness	237.89325391782563	
23.0	137.20164866063305	pulse	3.0	t		26.0	male	white	2.7966573816155993	neutral	117	sub-14	2.0	1.0	117_neutral	1.0	attractiveness	238.58543782718993	
23.0	137.9016206788615	pulse	3.0	t		26.0	male	white	2.7966573816155993	neutral	117	sub-14	2.0	1.0	117_neutral	1.0	attractiveness	239.28540984541837	
23.0	138.6015984322962	pulse	3.0	t		26.0	male	white	2.7966573816155993	neutral	117	sub-14	2.0	1.0	117_neutral	1.0	attractiveness	239.9853875988531	
23.0	139.3015795061142	pulse	3.0	t		26.0	male	white	2.7966573816155993	neutral	117	sub-14	2.0	1.0	117_neutral	1.0	attractiveness	240.68536867267107	
23.0	140.00156812625664	pulse	3.0	t		26.0	male	white	2.7966573816155993	neutral	117	sub-14	2.0	1.0	117_neutral	1.0	attractiveness	241.38535729281352	
24.0	140.26810099155682	face	0.0		145	19.0	male	white	3.2522881018702745	neutral	018	sub-14	2.0	1.0	018_neutral	0.0		241.6518901581137	1.2333142461629905
24.0	140.70155312416318	pulse	0.0	t		19.0	male	white	3.2522881018702745	neutral	018	sub-14	2.0	1.0	018_neutral	0.0		242.08534229072006	
24.0	141.40152212386192	pulse	0.0	t		19.0	male	white	3.2522881018702745	neutral	018	sub-14	2.0	1.0	018_neutral	0.0		242.7853112904188	
24.0	141.5014152377198	fix	1.0		444	19.0	male	white	3.2522881018702745	neutral	018	sub-14	2.0	1.0	018_neutral	0.0		242.8852044042767	3.7665414681105176
24.0	142.10151346068096	pulse	1.0	t		19.0	male	white	3.2522881018702745	neutral	018	sub-14	2.0	1.0	018_neutral	0.0		243.48530262723784	
24.0	142.80149091226303	pulse	1.0	t		19.0	male	white	3.2522881018702745	neutral	018	sub-14	2.0	1.0	018_neutral	0.0		244.18528007881991	
24.0	143.50146293049147	pulse	1.0	t		19.0	male	white	3.2522881018702745	neutral	018	sub-14	2.0	1.0	018_neutral	0.0		244.88525209704835	
24.0	144.20144883395687	pulse	1.0	t		19.0	male	white	3.2522881018702745	neutral	018	sub-14	2.0	1.0	018_neutral	0.0		245.58523800051375	
24.0	144.90143171889258	pulse	1.0	t		19.0	male	white	3.2522881018702745	neutral	018	sub-14	2.0	1.0	018_neutral	0.0		246.28522088544946	
25.0	145.26795670583033	face	0.0		145	26.0	female	white	4.854755272582572	smiling	027	sub-14	2.0	1.0	027_smiling	0.0		246.6517458723872	1.2333076053969307
25.0	145.60143422427245	pulse	0.0	t		26.0	female	white	4.854755272582572	smiling	027	sub-14	2.0	1.0	027_smiling	0.0		246.98522339082933	
25.0	146.30139024429263	pulse	0.0	t		26.0	female	white	4.854755272582572	smiling	027	sub-14	2.0	1.0	027_smiling	0.0		247.6851794108495	
25.0	146.50126431122726	fix	1.0		444	26.0	female	white	4.854755272582572	smiling	027	sub-14	2.0	1.0	027_smiling	0.0		247.88505347778414	3.766571955261952
25.0	147.00137041255175	pulse	1.0	t		26.0	female	white	4.854755272582572	smiling	027	sub-14	2.0	1.0	027_smiling	0.0		248.38515957910863	
25.0	147.70136114566503	pulse	1.0	t		26.0	female	white	4.854755272582572	smiling	027	sub-14	2.0	1.0	027_smiling	0.0		249.0851503122219	
25.0	148.40133889909976	pulse	1.0	t		26.0	female	white	4.854755272582572	smiling	027	sub-14	2.0	1.0	027_smiling	0.0		249.78512806565664	
25.0	149.10130729509228	pulse	1.0	t		26.0	female	white	4.854755272582572	smiling	027	sub-14	2.0	1.0	027_smiling	0.0		250.48509646164916	
25.0	149.80130738564822	pulse	1.0	t		26.0	female	white	4.854755272582572	smiling	027	sub-14	2.0	1.0	027_smiling	0.0		251.1850965522051	
26.0	150.2678362664892	face	0.0		145	32.0	male	white	2.389176283326701	smiling	092	sub-14	2.0	1.0	092_smiling	0.0		251.6516254330461	1.2333229998994284
26.0	150.50125616119658	pulse	0.0	t		32.0	male	white	2.389176283326701	smiling	092	sub-14	2.0	1.0	092_smiling	0.0		251.88504532775346	
26.0	151.20125444063478	pulse	0.0	t		32.0	male	white	2.389176283326701	smiling	092	sub-14	2.0	1.0	092_smiling	0.0		252.58504360719166	
26.0	151.50115926638864	fix	1.0		443	32.0	male	white	2.389176283326701	smiling	092	sub-14	2.0	1.0	092_smiling	0.0		252.88494843294552	3.766546297757941
26.0	151.901243664483	pulse	1.0	t		32.0	male	white	2.389176283326701	smiling	092	sub-14	2.0	1.0	092_smiling	0.0		253.28503283103987	
26.0	152.6012416420681	pulse	1.0	t		32.0	male	white	2.389176283326701	smiling	092	sub-14	2.0	1.0	092_smiling	0.0		253.98503080862497	
26.0	153.30121667882622	pulse	1.0	t		32.0	male	white	2.389176283326701	smiling	092	sub-14	2.0	1.0	092_smiling	0.0		254.6850058453831	
26.0	154.00119594152648	pulse	1.0	t		32.0	male	white	2.389176283326701	smiling	092	sub-14	2.0	1.0	092_smiling	0.0		255.38498510808336	
26.0	154.70117852460908	pulse	1.0	t		32.0	male	white	2.389176283326701	smiling	092	sub-14	2.0	1.0	092_smiling	0.0		256.08496769116596	
26.0	154.9011591456474	response	1.0	y		32.0	male	white	2.389176283326701	smiling	092	sub-14	2.0	1.0	092_smiling	0.0		256.2849483122043	
27.0	155.26770556414658	face	0.0		145	22.0	male	black	2.767608436132113	neutral	044	sub-14	2.0	1.0	044_neutral	0.0		256.65149473070346	1.233313340604127
27.0	155.40115718360312	pulse	0.0	t		22.0	male	black	2.767608436132113	neutral	044	sub-14	2.0	1.0	044_neutral	0.0		256.78494635016	
27.0	156.101132824067	pulse	0.0	t		22.0	male	black	2.767608436132113	neutral	044	sub-14	2.0	1.0	044_neutral	0.0		257.4849219906239	
27.0	156.5010189047507	fix	1.0		444	22.0	male	black	2.767608436132113	neutral	044	sub-14	2.0	1.0	044_neutral	0.0		257.8848080713076	3.76655263667044
27.0	156.80112506644537	pulse	1.0	t		22.0	male	black	2.767608436132113	neutral	044	sub-14	2.0	1.0	044_neutral	0.0		258.18491423300225	
27.0	157.50109859393842	pulse	1.0	t		22.0	male	black	2.767608436132113	neutral	044	sub-14	2.0	1.0	044_neutral	0.0		258.8848877604953	
27.0	158.2010793659033	pulse	1.0	t		22.0	male	black	2.767608436132113	neutral	044	sub-14	2.0	1.0	044_neutral	0.0		259.5848685324602	
27.0	158.90105862860355	pulse	1.0	t		22.0	male	black	2.767608436132113	neutral	044	sub-14	2.0	1.0	044_neutral	0.0		260.28484779516043	
27.0	159.60104905986373	pulse	1.0	t		22.0	male	black	2.767608436132113	neutral	044	sub-14	2.0	1.0	044_neutral	0.0		260.9848382264206	
28.0	160.26757154142115	face	0.0		145	21.0	male	east_asian/white	3.501790688420215	smiling	036	sub-14	2.0	1.0	036_smiling	0.0		261.65136070797803	1.233315755428066
28.0	160.3010364725942	pulse	0.0	t		21.0	male	east_asian/white	3.501790688420215	smiling	036	sub-14	2.0	1.0	036_smiling	0.0		261.6848256391511	
28.0	161.00100879267575	pulse	0.0	t		21.0	male	east_asian/white	3.501790688420215	smiling	036	sub-14	2.0	1.0	036_smiling	0.0		262.3847979592326	
28.0	161.5008872968492	fix	1.0		443	21.0	male	east_asian/white	3.501790688420215	smiling	036	sub-14	2.0	1.0	036_smiling	0.0		262.8846764634061	3.7582607351750994
28.0	161.70099047019949	pulse	1.0	t		21.0	male	east_asian/white	3.501790688420215	smiling	036	sub-14	2.0	1.0	036_smiling	0.0		263.08477963675637	
28.0	162.40096912919353	pulse	1.0	t		21.0	male	east_asian/white	3.501790688420215	smiling	036	sub-14	2.0	1.0	036_smiling	0.0		263.7847582957504	
28.0	163.10094688262825	pulse	1.0	t		21.0	male	east_asian/white	3.501790688420215	smiling	036	sub-14	2.0	1.0	036_smiling	0.0		264.48473604918513	
28.0	163.80093157868214	pulse	1.0	t		21.0	male	east_asian/white	3.501790688420215	smiling	036	sub-14	2.0	1.0	036_smiling	0.0		265.184720745239	
28.0	164.50091114323504	pulse	1.0	t		21.0	male	east_asian/white	3.501790688420215	smiling	036	sub-14	2.0	1.0	036_smiling	0.0		265.8847003097919	
28.0	165.20090187634833	pulse	1.0	t		21.0	male	east_asian/white	3.501790688420215	smiling	036	sub-14	2.0	1.0	036_smiling	0.0		266.5846910429052	
29.0	165.2591480320243	face	0.0		147	28.0	female	white	5.676880222841227	neutral	124	sub-14	2.0	1.0	124_neutral	0.0		266.6429371985812	1.2416052420994674
29.0	165.90088838351994	pulse	0.0	t		28.0	female	white	5.676880222841227	neutral	124	sub-14	2.0	1.0	124_neutral	0.0		267.2846775500768	
29.0	166.50075327412378	fix	1.0		443	28.0	female	white	5.676880222841227	neutral	124	sub-14	2.0	1.0	124_neutral	0.0		267.88454244068066	3.766549618141198
29.0	166.6008622128661	pulse	1.0	t		28.0	female	white	5.676880222841227	neutral	124	sub-14	2.0	1.0	124_neutral	0.0		267.984651379423	
29.0	167.30084298483098	pulse	1.0	t		28.0	female	white	5.676880222841227	neutral	124	sub-14	2.0	1.0	124_neutral	0.0		268.68463215138786	
29.0	168.00080715488184	pulse	1.0	t		28.0	female	white	5.676880222841227	neutral	124	sub-14	2.0	1.0	124_neutral	0.0		269.3845963214387	
29.0	168.70081418805603	pulse	1.0	t		28.0	female	white	5.676880222841227	neutral	124	sub-14	2.0	1.0	124_neutral	0.0		270.0846033546129	
29.0	169.40078016922507	pulse	1.0	t		28.0	female	white	5.676880222841227	neutral	124	sub-14	2.0	1.0	124_neutral	0.0		270.78456933578195	
29.0	170.10077090233835	pulse	1.0	t		28.0	female	white	5.676880222841227	neutral	124	sub-14	2.0	1.0	124_neutral	0.0		271.48456006889523	
30.0	170.26730289226498	face	0.0		146	22.0	female	white	4.614007162753682	smiling	009	sub-14	2.0	1.0	009_smiling	1.0	attractiveness	271.65109205882186	1.2333169628395808
30.0	170.80076827621724	pulse	0.0	t		22.0	female	white	4.614007162753682	smiling	009	sub-14	2.0	1.0	009_smiling	1.0	attractiveness	272.1845574427741	
30.0	171.50061985510456	fix	1.0		176	22.0	female	white	4.614007162753682	smiling	009	sub-14	2.0	1.0	009_smiling	1.0	attractiveness	272.88440902166144	1.499964230421483
30.0	171.5085271958974	pulse	1.0	t		22.0	female	white	4.614007162753682	smiling	009	sub-14	2.0	1.0	009_smiling	1.0	attractiveness	272.89231636245427	
30.0	172.20071352008563	pulse	1.0	t		22.0	female	white	4.614007162753682	smiling	009	sub-14	2.0	1.0	009_smiling	1.0	attractiveness	273.5845026866425	
30.0	172.90068976425573	pulse	1.0	t		22.0	female	white	4.614007162753682	smiling	009	sub-14	2.0	1.0	009_smiling	1.0	attractiveness	274.2844789308126	
30.0	173.00058408552604	rating	2.0		295	22.0	female	white	4.614007162753682	smiling	009	sub-14	2.0	1.0	009_smiling	1.0	attractiveness	274.3843732520829	2.4999307247398974
30.0	173.5954517999644	pulse	2.0	t		22.0	female	white	4.614007162753682	smiling	009	sub-14	2.0	1.0	009_smiling	1.0	attractiveness	274.9792409665213	
30.0	174.29544706087245	pulse	2.0	t		22.0	female	white	4.614007162753682	smiling	009	sub-14	2.0	1.0	009_smiling	1.0	attractiveness	275.6792362274293	
30.0	174.87564562580292	response	2.0	b		22.0	female	white	4.614007162753682	smiling	009	sub-14	2.0	1.0	009_smiling	1.0	attractiveness	276.2594347923598	
30.0	174.99538798824324	pulse	2.0	t		22.0	female	white	4.614007162753682	smiling	009	sub-14	2.0	1.0	009_smiling	1.0	attractiveness	276.3791771548001	
30.0	175.50051481026594	fix	3.0		443	22.0	female	white	4.614007162753682	smiling	009	sub-14	2.0	1.0	009_smiling	1.0	attractiveness	276.8843039768228	3.766539053286124
30.0	175.70062552994068	pulse	3.0	t		22.0	female	white	4.614007162753682	smiling	009	sub-14	2.0	1.0	009_smiling	1.0	attractiveness	277.08441469649756	
30.0	176.40059815187487	pulse	3.0	t		22.0	female	white	4.614007162753682	smiling	009	sub-14	2.0	1.0	009_smiling	1.0	attractiveness	277.78438731843175	
30.0	177.10058194236944	pulse	3.0	t		22.0	female	white	4.614007162753682	smiling	009	sub-14	2.0	1.0	009_smiling	1.0	attractiveness	278.4843711089263	
30.0	177.80056361989364	pulse	3.0	t		22.0	female	white	4.614007162753682	smiling	009	sub-14	2.0	1.0	009_smiling	1.0	attractiveness	279.1843527864505	
30.0	178.50053926035753	pulse	3.0	t		22.0	female	white	4.614007162753682	smiling	009	sub-14	2.0	1.0	009_smiling	1.0	attractiveness	279.8843284269144	
30.0	179.20052274899945	pulse	3.0	t		22.0	female	white	4.614007162753682	smiling	009	sub-14	2.0	1.0	009_smiling	1.0	attractiveness	280.5843119155563	
31.0	179.26705386355206	face	0.0		146	26.0	female	white	4.854755272582572	neutral	027	sub-14	2.0	1.0	027_neutral	0.0		280.65084303010894	1.233329036959276
31.0	179.90052646179083	pulse	0.0	t		26.0	female	white	4.854755272582572	neutral	027	sub-14	2.0	1.0	027_neutral	0.0		281.2843156283477	
31.0	180.50038290051134	fix	1.0		443	26.0	female	white	4.854755272582572	neutral	027	sub-14	2.0	1.0	027_neutral	0.0		281.8841720670682	3.758279450059945
31.0	180.6004906318417	pulse	1.0	t		26.0	female	white	4.854755272582572	neutral	027	sub-14	2.0	1.0	027_neutral	0.0		281.9842797983986	
31.0	181.30046627230604	pulse	1.0	t		26.0	female	white	4.854755272582572	neutral	027	sub-14	2.0	1.0	027_neutral	0.0		282.6842554388629	
31.0	182.00045247762455	pulse	1.0	t		26.0	female	white	4.854755272582572	neutral	027	sub-14	2.0	1.0	027_neutral	0.0		283.38424164418143	
31.0	182.70044321073783	pulse	1.0	t		26.0	female	white	4.854755272582572	neutral	027	sub-14	2.0	1.0	027_neutral	0.0		284.0842323772947	
31.0	183.40040406040544	pulse	1.0	t		26.0	female	white	4.854755272582572	neutral	027	sub-14	2.0	1.0	027_neutral	0.0		284.7841932269623	
31.0	184.10039811390197	pulse	1.0	t		26.0	female	white	4.854755272582572	neutral	027	sub-14	2.0	1.0	027_neutral	0.0		285.48418728045885	
32.0	184.25866235057129	face	0.0		147	31.0	male	west_asian	1.9538400318344609	smiling	070	sub-14	2.0	1.0	070_smiling	0.0		285.64245151712817	1.2415943753921965
32.0	184.8003544357748	pulse	0.0	t		31.0	male	west_asian	1.9538400318344609	smiling	070	sub-14	2.0	1.0	070_smiling	0.0		286.1841436023317	
32.0	185.50025672596348	fix	1.0		444	31.0	male	west_asian	1.9538400318344609	smiling	070	sub-14	2.0	1.0	070_smiling	0.0		286.88404589252036	3.76654478849332
32.0	185.50786402488984	pulse	1.0	t		31.0	male	west_asian	1.9538400318344609	smiling	070	sub-14	2.0	1.0	070_smiling	0.0		286.8916531914467	
32.0	186.20034224091432	pulse	1.0	t		31.0	male	west_asian	1.9538400318344609	smiling	070	sub-14	2.0	1.0	070_smiling	0.0		287.5841314074712	
32.0	186.9003199943495	pulse	1.0	t		31.0	male	west_asian	1.9538400318344609	smiling	070	sub-14	2.0	1.0	070_smiling	0.0		288.2841091609064	
32.0	187.60030438854983	pulse	1.0	t		31.0	male	west_asian	1.9538400318344609	smiling	070	sub-14	2.0	1.0	070_smiling	0.0		288.9840935551067	
32.0	188.30028576422092	pulse	1.0	t		31.0	male	west_asian	1.9538400318344609	smiling	070	sub-14	2.0	1.0	070_smiling	0.0		289.6840749307778	
32.0	189.000263215803	pulse	1.0	t		31.0	male	west_asian	1.9538400318344609	smiling	070	sub-14	2.0	1.0	070_smiling	0.0		290.38405238235987	
33.0	189.2668015144568	face	0.0		145	31.0	male	west_asian	1.9538400318344609	neutral	070	sub-14	2.0	1.0	070_neutral	0.0		290.6505906810137	1.233315151721854
33.0	189.700255760034	pulse	0.0	t		31.0	male	west_asian	1.9538400318344609	neutral	070	sub-14	2.0	1.0	070_neutral	0.0		291.0840449265909	
33.0	190.40022053379062	pulse	0.0	t		31.0	male	west_asian	1.9538400318344609	neutral	070	sub-14	2.0	1.0	070_neutral	0.0		291.7840097003475	
33.0	190.50011666617866	fix	1.0		444	31.0	male	west_asian	1.9538400318344609	neutral	070	sub-14	2.0	1.0	070_neutral	0.0		291.88390583273554	3.7665592774364995
33.0	191.10020915393306	pulse	1.0	t		31.0	male	west_asian	1.9538400318344609	neutral	070	sub-14	2.0	1.0	070_neutral	0.0		292.48399832048995	
33.0	191.80018932219218	pulse	1.0	t		31.0	male	west_asian	1.9538400318344609	neutral	070	sub-14	2.0	1.0	070_neutral	0.0		293.18397848874906	
33.0	192.50017401824562	pulse	1.0	t		31.0	male	west_asian	1.9538400318344609	neutral	070	sub-14	2.0	1.0	070_neutral	0.0		293.8839631848025	
33.0	193.20015418650473	pulse	1.0	t		31.0	male	west_asian	1.9538400318344609	neutral	070	sub-14	2.0	1.0	070_neutral	0.0		294.5839433530616	
33.0	193.90013737329355	pulse	1.0	t		31.0	male	west_asian	1.9538400318344609	neutral	070	sub-14	2.0	1.0	070_neutral	0.0		295.2839265398504	
34.0	194.26667594361516	face	0.0		145	54.0	female	white	2.286908077994429	neutral	136	sub-14	2.0	1.0	136_neutral	0.0		295.65046511017204	1.2333091146620063
34.0	194.60012478602403	pulse	0.0	t		54.0	female	white	2.286908077994429	neutral	136	sub-14	2.0	1.0	136_neutral	0.0		295.9839139525809	
34.0	195.30010103019413	pulse	0.0	t		54.0	female	white	2.286908077994429	neutral	136	sub-14	2.0	1.0	136_neutral	0.0		296.683890196751	
34.0	195.49998505827716	fix	1.0		444	54.0	female	white	2.286908077994429	neutral	136	sub-14	2.0	1.0	136_neutral	0.0		296.88377422483404	3.7665505237000616
34.0	196.00008059474703	pulse	1.0	t		54.0	female	white	2.286908077994429	neutral	136	sub-14	2.0	1.0	136_neutral	0.0		297.3838697613039	
34.0	196.7000607630057	pulse	1.0	t		54.0	female	white	2.286908077994429	neutral	136	sub-14	2.0	1.0	136_neutral	0.0		298.0838499295626	
34.0	197.4000406294117	pulse	1.0	t		54.0	female	white	2.286908077994429	neutral	136	sub-14	2.0	1.0	136_neutral	0.0		298.7838297959686	
34.0	198.10002562731825	pulse	1.0	t		54.0	female	white	2.286908077994429	neutral	136	sub-14	2.0	1.0	136_neutral	0.0		299.4838147938751	
34.0	198.80000670113623	pulse	1.0	t		54.0	female	white	2.286908077994429	neutral	136	sub-14	2.0	1.0	136_neutral	0.0		300.1837958676931	
35.0	199.26653558197722	face	0.0		145	28.0	male	white	3.9076800636689217	smiling	033	sub-14	2.0	1.0	033_smiling	0.0		300.6503247485341	1.233317566545793
35.0	199.4999907934839	pulse	0.0	t		28.0	male	white	3.9076800636689217	smiling	033	sub-14	2.0	1.0	033_smiling	0.0		300.8837799600408	
35.0	200.1999703580368	pulse	0.0	t		28.0	male	white	3.9076800636689217	smiling	033	sub-14	2.0	1.0	033_smiling	0.0		301.5837595245937	
35.0	200.49985314852302	fix	1.0		444	28.0	male	white	3.9076800636689217	smiling	033	sub-14	2.0	1.0	033_smiling	0.0		301.8836423150799	3.7583561207179628
35.0	200.89995052629592	pulse	1.0	t		28.0	male	white	3.9076800636689217	smiling	033	sub-14	2.0	1.0	033_smiling	0.0		302.2837396928528	
35.0	201.59989356663755	pulse	1.0	t		28.0	male	white	3.9076800636689217	smiling	033	sub-14	2.0	1.0	033_smiling	0.0		302.9836827331944	
35.0	202.29991569246113	pulse	1.0	t		28.0	male	white	3.9076800636689217	smiling	033	sub-14	2.0	1.0	033_smiling	0.0		303.683704859018	
35.0	202.99989254033744	pulse	1.0	t		28.0	male	white	3.9076800636689217	smiling	033	sub-14	2.0	1.0	033_smiling	0.0		304.3836817068943	
35.0	203.6998727085961	pulse	1.0	t		28.0	male	white	3.9076800636689217	smiling	033	sub-14	2.0	1.0	033_smiling	0.0		305.083661875153	
36.0	204.25820926924098	face	0.0		146	28.0	male	east_asian	1.5563072025467568	neutral	005	sub-14	2.0	1.0	005_neutral	0.0		305.64199843579786	1.2414908398186526
36.0	204.3998643472687	pulse	0.0	t		28.0	male	east_asian	1.5563072025467568	neutral	005	sub-14	2.0	1.0	005_neutral	0.0		305.7836535138256	
36.0	205.0998405914388	pulse	0.0	t		28.0	male	east_asian	1.5563072025467568	neutral	005	sub-14	2.0	1.0	005_neutral	0.0		306.4836297579957	
36.0	205.49970010905963	fix	1.0		444	28.0	male	east_asian	1.5563072025467568	neutral	005	sub-14	2.0	1.0	005_neutral	0.0		306.8834892756165	3.76657135155574
36.0	205.79985758576186	pulse	1.0	t		28.0	male	east_asian	1.5563072025467568	neutral	005	sub-14	2.0	1.0	005_neutral	0.0		307.18364675231874	
36.0	206.49979458904363	pulse	1.0	t		28.0	male	east_asian	1.5563072025467568	neutral	005	sub-14	2.0	1.0	005_neutral	0.0		307.8835837556005	
36.0	207.19978532215737	pulse	1.0	t		28.0	male	east_asian	1.5563072025467568	neutral	005	sub-14	2.0	1.0	005_neutral	0.0		308.58357448871425	
36.0	207.89976398115095	pulse	1.0	t		28.0	male	east_asian	1.5563072025467568	neutral	005	sub-14	2.0	1.0	005_neutral	0.0		309.28355314770783	
36.0	208.59975743094128	pulse	1.0	t		28.0	male	east_asian	1.5563072025467568	neutral	005	sub-14	2.0	1.0	005_neutral	0.0		309.98354659749816	
37.0	209.26627146061537	face	0.0		145	36.0	female	white	2.7548746518105847	smiling	011	sub-14	2.0	1.0	011_smiling	0.0		310.65006062717225	1.23331545357496
37.0	209.29973910846502	pulse	0.0	t		36.0	female	white	2.7548746518105847	smiling	011	sub-14	2.0	1.0	011_smiling	0.0		310.6835282750219	
37.0	209.9997105229877	pulse	0.0	t		36.0	female	white	2.7548746518105847	smiling	011	sub-14	2.0	1.0	011_smiling	0.0		311.3834996895446	
37.0	210.49958691419033	fix	1.0		443	36.0	female	white	2.7548746518105847	smiling	011	sub-14	2.0	1.0	011_smiling	0.0		311.8833760807472	3.7582646592636593
37.0	210.69969189865833	pulse	1.0	t		36.0	female	white	2.7548746518105847	smiling	011	sub-14	2.0	1.0	011_smiling	0.0		312.0834810652152	
37.0	211.39967025579926	pulse	1.0	t		36.0	female	white	2.7548746518105847	smiling	011	sub-14	2.0	1.0	011_smiling	0.0		312.78345942235615	
37.0	212.09965042405838	pulse	1.0	t		36.0	female	white	2.7548746518105847	smiling	011	sub-14	2.0	1.0	011_smiling	0.0		313.48343959061526	
37.0	212.79963391269985	pulse	1.0	t		36.0	female	white	2.7548746518105847	smiling	011	sub-14	2.0	1.0	011_smiling	0.0		314.1834230792567	
37.0	213.4996125716939	pulse	1.0	t		36.0	female	white	2.7548746518105847	smiling	011	sub-14	2.0	1.0	011_smiling	0.0		314.88340173825077	
37.0	214.19959364551187	pulse	1.0	t		36.0	female	white	2.7548746518105847	smiling	011	sub-14	2.0	1.0	011_smiling	0.0		315.58338281206875	
38.0	214.257851573454	face	0.0		147	30.0	female	black	2.7345801830481498	neutral	062	sub-14	2.0	1.0	062_neutral	1.0	trustworthiness	315.64164074001087	1.241606449511437
38.0	214.89958588789023	pulse	0.0	t		30.0	female	black	2.7345801830481498	neutral	062	sub-14	2.0	1.0	062_neutral	1.0	trustworthiness	316.2833750544471	
38.0	215.49945802296543	fix	1.0		177	30.0	female	black	2.7345801830481498	neutral	062	sub-14	2.0	1.0	062_neutral	1.0	trustworthiness	316.8832471895223	1.4999566840970147
38.0	215.59958114879828	pulse	1.0	t		30.0	female	black	2.7345801830481498	neutral	062	sub-14	2.0	1.0	062_neutral	1.0	trustworthiness	316.98337031535516	
38.0	216.29955407258558	pulse	1.0	t		30.0	female	black	2.7345801830481498	neutral	062	sub-14	2.0	1.0	062_neutral	1.0	trustworthiness	317.68334323914246	
38.0	216.99941470706244	rating	2.0		294	30.0	female	black	2.7345801830481498	neutral	062	sub-14	2.0	1.0	062_neutral	1.0	trustworthiness	318.3832038736193	2.4999261969451254
38.0	216.99558540009548	pulse	2.0	t		30.0	female	black	2.7345801830481498	neutral	062	sub-14	2.0	1.0	062_neutral	1.0	trustworthiness	318.37937456665236	
38.0	217.69428027834465	pulse	2.0	t		30.0	female	black	2.7345801830481498	neutral	062	sub-14	2.0	1.0	062_neutral	1.0	trustworthiness	319.07806944490153	
38.0	218.3942541076908	pulse	2.0	t		30.0	female	black	2.7345801830481498	neutral	062	sub-14	2.0	1.0	062_neutral	1.0	trustworthiness	319.7780432742477	
38.0	218.46923952064526	response	2.0	b		30.0	female	black	2.7345801830481498	neutral	062	sub-14	2.0	1.0	062_neutral	1.0	trustworthiness	319.85302868720214	
38.0	219.0994324862031	pulse	2.0	t		30.0	female	black	2.7345801830481498	neutral	062	sub-14	2.0	1.0	062_neutral	1.0	trustworthiness	320.48322165276	
38.0	219.49934090400757	fix	3.0		444	30.0	female	black	2.7345801830481498	neutral	062	sub-14	2.0	1.0	062_neutral	1.0	trustworthiness	320.88313007056445	3.7583063149754707
38.0	219.79945310276207	pulse	3.0	t		30.0	female	black	2.7345801830481498	neutral	062	sub-14	2.0	1.0	062_neutral	1.0	trustworthiness	321.18324226931895	
38.0	220.49942059319528	pulse	3.0	t		30.0	female	black	2.7345801830481498	neutral	062	sub-14	2.0	1.0	062_neutral	1.0	trustworthiness	321.88320975975216	
38.0	221.19940860963197	pulse	3.0	t		30.0	female	black	2.7345801830481498	neutral	062	sub-14	2.0	1.0	062_neutral	1.0	trustworthiness	322.58319777618885	
38.0	221.89938606121405	pulse	3.0	t		30.0	female	black	2.7345801830481498	neutral	062	sub-14	2.0	1.0	062_neutral	1.0	trustworthiness	323.2831752277709	
38.0	222.59937377579763	pulse	3.0	t		30.0	female	black	2.7345801830481498	neutral	062	sub-14	2.0	1.0	062_neutral	1.0	trustworthiness	323.9831629423545	
39.0	223.25764721898304	face	0.0		146	31.0	female	white	2.1822522881018704	neutral	102	sub-14	2.0	1.0	102_neutral	1.0	trustworthiness	324.6414363855399	1.24156871788864
39.0	223.29937779044212	pulse	0.0	t		31.0	female	white	2.1822522881018704	neutral	102	sub-14	2.0	1.0	102_neutral	1.0	trustworthiness	324.683166956999	
39.0	223.9993371308451	pulse	0.0	t		31.0	female	white	2.1822522881018704	neutral	102	sub-14	2.0	1.0	102_neutral	1.0	trustworthiness	325.383126297402	
39.0	224.49921593687168	fix	1.0		177	31.0	female	white	2.1822522881018704	neutral	102	sub-14	2.0	1.0	102_neutral	1.0	trustworthiness	325.88300510342856	1.4999621174501954
39.0	224.69932363801672	pulse	1.0	t		31.0	female	white	2.1822522881018704	neutral	102	sub-14	2.0	1.0	102_neutral	1.0	trustworthiness	326.0831128045736	
39.0	225.39930048589258	pulse	1.0	t		31.0	female	white	2.1822522881018704	neutral	102	sub-14	2.0	1.0	102_neutral	1.0	trustworthiness	326.78308965244946	
39.0	225.99917805432187	rating	2.0		295	31.0	female	white	2.1822522881018704	neutral	102	sub-14	2.0	1.0	102_neutral	1.0	trustworthiness	327.38296722087875	2.50826458380061
39.0	226.09409481987086	pulse	2.0	t		31.0	female	white	2.1822522881018704	neutral	102	sub-14	2.0	1.0	102_neutral	1.0	trustworthiness	327.47788398642774	
39.0	226.7940580843624	pulse	2.0	t		31.0	female	white	2.1822522881018704	neutral	102	sub-14	2.0	1.0	102_neutral	1.0	trustworthiness	328.1778472509193	
39.0	227.49402285811902	pulse	2.0	t		31.0	female	white	2.1822522881018704	neutral	102	sub-14	2.0	1.0	102_neutral	1.0	trustworthiness	328.8778120246759	
39.0	227.6856865238642	response	2.0	e		31.0	female	white	2.1822522881018704	neutral	102	sub-14	2.0	1.0	102_neutral	1.0	trustworthiness	329.0694756904211	
39.0	228.19921783854534	pulse	2.0	t		31.0	female	white	2.1822522881018704	neutral	102	sub-14	2.0	1.0	102_neutral	1.0	trustworthiness	329.5830070051022	
39.0	228.50744263812248	fix	3.0		444	31.0	female	white	2.1822522881018704	neutral	102	sub-14	2.0	1.0	102_neutral	1.0	trustworthiness	329.89123180467936	3.7499033315816632
39.0	228.8992100809237	pulse	3.0	t		31.0	female	white	2.1822522881018704	neutral	102	sub-14	2.0	1.0	102_neutral	1.0	trustworthiness	330.2829992474806	
39.0	229.59919266400675	pulse	3.0	t		31.0	female	white	2.1822522881018704	neutral	102	sub-14	2.0	1.0	102_neutral	1.0	trustworthiness	330.98298183056363	
39.0	230.2991692100295	pulse	3.0	t		31.0	female	white	2.1822522881018704	neutral	102	sub-14	2.0	1.0	102_neutral	1.0	trustworthiness	331.6829583765864	
39.0	230.9991505857006	pulse	3.0	t		31.0	female	white	2.1822522881018704	neutral	102	sub-14	2.0	1.0	102_neutral	1.0	trustworthiness	332.38293975225747	
39.0	231.69912713172334	pulse	3.0	t		31.0	female	white	2.1822522881018704	neutral	102	sub-14	2.0	1.0	102_neutral	1.0	trustworthiness	333.0829162982802	
40.0	232.25734596970415	fix	0.0		720													333.641135136261	5.999837904947071
40.0	232.3991196759548	pulse	0.0	t														333.7829088425117	
40.0	233.09909471271294	pulse	0.0	t														334.4828838792698	
40.0	233.79907820135486	pulse	0.0	t														335.18286736791174	
40.0	234.49905384181875	pulse	0.0	t														335.88284300837563	
40.0	235.199045782344	pulse	0.0	t														336.5828349489009	
40.0	235.89899848198138	pulse	0.0	t														337.28278764853826	
40.0	236.59899706327224	pulse	0.0	t														337.9827862298291	
40.0	237.29898326859075	pulse	0.0	t														338.6827724351476	
40.0	237.9989661535269	pulse	0.0	t														339.3827553200838	
