trial_nr	onset	event_type	phase	response	nr_frames	trial_type	stim_name	task_probe	onset_abs	duration
0.0	0.05921268893371234	baseline	0.0		700		baseline	0.0	33.8371566535493	5.841199370576305
0.0	0.7006711097415064	pulse	0.0	t			baseline	0.0	34.478615074357094	
0.0	1.4006419205579732	pulse	0.0	t			baseline	0.0	35.17858588517356	
0.0	2.1006178628749694	pulse	0.0	t			baseline	0.0	35.87856182749056	
0.0	2.800603464487722	pulse	0.0	t			baseline	0.0	36.57854742910331	
0.0	3.500570954921386	pulse	0.0	t			baseline	0.0	37.278514919536974	
0.0	4.200563197299289	pulse	0.0	t			baseline	0.0	37.97850716191488	
0.0	4.9005451766761325	pulse	0.0	t			baseline	0.0	38.67848914129172	
0.0	5.60052806161184	pulse	0.0	t			baseline	0.0	39.37847202622743	
0.0	5.900412059510018	ISI	1.0		5		baseline	0.0	39.678356024125605	0.12498766175895071
1.0	6.025399721268968	number	0.0		45	character	number-128.jpg	0.0	39.803343685884556	0.3749373277742052
1.0	6.300460235246192	pulse	0.0	t		character	number-128.jpg	0.0	40.07840419986178	
1.0	6.4003370490431735	ISI	1.0		235	character	number-128.jpg	0.0	40.17828101365876	2.016636929116885
1.0	7.000576237348469	pulse	1.0	t		character	number-128.jpg	0.0	40.77852020196406	
1.0	7.700428721794651	pulse	1.0	t		character	number-128.jpg	0.0	41.47837268641024	
2.0	8.416973978160058	limb	0.0		45	body	limb-78.jpg	0.0	42.194917942775646	0.38330891845771475
2.0	8.40885986807234	pulse	0.0	t		body	limb-78.jpg	0.0	42.18680383268793	
2.0	8.800282896617773	ISI	1.0		233	body	limb-78.jpg	0.0	42.57822686123336	2.016635117998703
2.0	9.100377889752053	pulse	1.0	t		body	limb-78.jpg	0.0	42.87832185436764	
2.0	9.800345078332612	pulse	1.0	t		body	limb-78.jpg	0.0	43.5782890429482	
2.0	10.500312870618927	pulse	1.0	t		body	limb-78.jpg	0.0	44.278256835234515	
3.0	10.816918014616476	number	0.0		46	character	number-31.jpg	0.0	44.594861979232064	0.38329654248536826
3.0	11.200214557101845	ISI	1.0		232	character	number-31.jpg	0.0	44.97815852171743	2.01667949038756
3.0	11.260520255693791	pulse	1.0	t		character	number-31.jpg	0.0	45.03846422030938	
3.0	11.900301581317308	pulse	1.0	t		character	number-31.jpg	0.0	45.678245545932896	
3.0	12.600361136911488	pulse	1.0	t		character	number-31.jpg	0.0	46.378305101527076	
4.0	13.216894047489404	house	0.0		46	place	house-112.jpg	0.0	46.99483801210499	0.3832633386573434
4.0	13.30089943133953	pulse	0.0	t		place	house-112.jpg	0.0	47.07884339595512	
4.0	13.600157386146748	ISI	1.0		232	place	house-112.jpg	0.0	47.378101350762336	2.0166378346752936
4.0	14.000256575037383	pulse	1.0	t		place	house-112.jpg	0.0	47.77820053965297	
4.0	14.700235234031425	pulse	1.0	t		place	house-112.jpg	0.0	48.47817919864701	
4.0	15.40021751526092	pulse	1.0	t		place	house-112.jpg	0.0	49.17816147987651	
5.0	15.616795220822041	car	0.0		46	object	car-45.jpg	0.0	49.39473918543763	0.38328386466037045
5.0	16.00007908548241	ISI	1.0		353	object	car-45.jpg	0.0	49.778023050098	3.0165998011993906
5.0	16.100204626138748	pulse	1.0	t		object	car-45.jpg	0.0	49.878148590754336	
5.0	16.80016457024749	pulse	1.0	t		object	car-45.jpg	0.0	50.57810853486308	
5.0	17.50015500150812	pulse	1.0	t		object	car-45.jpg	0.0	51.27809896612371	
5.0	18.200138188296478	pulse	1.0	t		object	car-45.jpg	0.0	51.978082152912066	
5.0	18.900109904671808	pulse	1.0	t		object	car-45.jpg	0.0	52.678053869287396	
6.0	19.016678886681802	limb	0.0		46	body	limb-62.jpg	0.0	52.79462285129739	0.3833593279064189
6.0	19.40003821458822	ISI	1.0		236	body	limb-62.jpg	0.0	53.17798217920381	2.016614591995676
6.0	19.600183949209168	pulse	1.0	t		body	limb-62.jpg	0.0	53.378127913824756	
6.0	20.300147213701166	pulse	1.0	t		body	limb-62.jpg	0.0	54.078091178316754	
6.0	21.000133419019676	pulse	1.0	t		body	limb-62.jpg	0.0	54.778077383635264	
7.0	21.416652806583897	limb	0.0		46	body	limb-62.jpg	1.0	55.194596771199485	0.3832847702192339
7.0	21.700052914828575	pulse	0.0	t		body	limb-62.jpg	1.0	55.47799687944416	
7.0	21.79993757680313	ISI	1.0		234	body	limb-62.jpg	1.0	55.57788154141872	2.0166296846450678
7.0	22.40003489420542	pulse	1.0	t		body	limb-62.jpg	1.0	56.17797885882101	
7.0	22.5416718610536	response	1.0	b		body	limb-62.jpg	1.0	56.31961582566919	
7.0	23.09999483831416	pulse	1.0	t		body	limb-62.jpg	1.0	56.87793880292975	
8.0	23.8165672614482	car	0.0		45	object	car-104.jpg	0.0	57.59451122606379	0.3833080128988513
8.0	23.80846643289169	pulse	0.0	t		object	car-104.jpg	0.0	57.58641039750728	
8.0	24.19987527434705	ISI	1.0		352	object	car-104.jpg	0.0	57.97781923896264	3.016596178963482
8.0	24.49996724895118	pulse	1.0	t		object	car-104.jpg	0.0	58.27791121356677	
8.0	25.199957378358704	pulse	1.0	t		object	car-104.jpg	0.0	58.97790134297429	
8.0	25.899929094734034	pulse	1.0	t		object	car-104.jpg	0.0	59.67787305934962	
8.0	26.599915300052544	pulse	1.0	t		object	car-104.jpg	0.0	60.37785926466813	
9.0	27.216471453310533	adult	0.0		46	face	adult-95.jpg	0.0	60.99441541792612	0.3833119369878659
9.0	27.299897581282494	pulse	0.0	t		face	adult-95.jpg	0.0	61.07784154589808	
9.0	27.5997833902984	ISI	1.0		353	face	adult-95.jpg	0.0	61.377727354913986	3.016645682853323
9.0	27.999936007167435	pulse	1.0	t		face	adult-95.jpg	0.0	61.77787997178302	
9.0	28.699923419897914	pulse	1.0	t		face	adult-95.jpg	0.0	62.4778673845135	
9.0	29.39990358815703	pulse	1.0	t		face	adult-95.jpg	0.0	63.17784755277262	
9.0	30.099898849065085	pulse	1.0	t		face	adult-95.jpg	0.0	63.87784281368067	
10.0	30.61642907315172	number	0.0		46	character	number-21.jpg	0.0	64.39437303776731	0.3832500571256787
10.0	30.799807176313607	pulse	0.0	t		character	number-21.jpg	0.0	64.5777511409292	
10.0	30.9996791302774	ISI	1.0		233	character	number-21.jpg	0.0	64.77762309489299	2.0166336087336276
10.0	31.499791268661284	pulse	1.0	t		character	number-21.jpg	0.0	65.27773523327687	
10.0	32.19976660727207	pulse	1.0	t		character	number-21.jpg	0.0	65.97771057188766	
10.0	32.899757642238455	pulse	1.0	t		character	number-21.jpg	0.0	66.67770160685404	
11.0	33.01631273901103	adult	0.0		46	face	adult-130.jpg	0.0	66.79425670362662	0.38331767219460744
11.0	33.399630411205635	ISI	1.0		234	face	adult-130.jpg	0.0	67.17757437582122	2.0166293827919617
11.0	33.59973267899659	pulse	1.0	t		face	adult-130.jpg	0.0	67.37767664361218	
11.0	34.299711639843736	pulse	1.0	t		face	adult-130.jpg	0.0	68.07765560445932	
11.0	34.99969693960338	pulse	1.0	t		face	adult-130.jpg	0.0	68.77764090421897	
12.0	35.4162597939976	car	0.0		46	object	car-105.jpg	0.0	69.19420375861318	0.38330589992801833
12.0	35.699678315274014	pulse	0.0	t		object	car-105.jpg	0.0	69.4776222798896	
12.0	35.799565693925615	ISI	1.0		234	object	car-105.jpg	0.0	69.5775096585412	2.0166634921793047
12.0	36.39965154091442	pulse	1.0	t		object	car-105.jpg	0.0	70.17759550553001	
12.0	37.09970505944875	pulse	1.0	t		object	car-105.jpg	0.0	70.87764902406434	
13.0	37.81622918610492	adult	0.0		45	face	adult-59.jpg	0.0	71.59417315072051	0.3833052962218062
13.0	37.80805651653827	pulse	0.0	t		face	adult-59.jpg	0.0	71.58600048115386	
13.0	38.199534482326726	ISI	1.0		593	face	adult-59.jpg	0.0	71.97747844694231	5.016555126957883
13.0	38.49967656452691	pulse	1.0	t		face	adult-59.jpg	0.0	72.2776205291425	
13.0	39.19964677163716	pulse	1.0	t		face	adult-59.jpg	0.0	72.97759073625275	
13.0	39.899628751014006	pulse	1.0	t		face	adult-59.jpg	0.0	73.6775727156296	
13.0	40.59960590074297	pulse	1.0	t		face	adult-59.jpg	0.0	74.37754986535856	
13.0	41.299597237562466	pulse	1.0	t		face	adult-59.jpg	0.0	75.07754120217805	
13.0	41.999573783585674	pulse	1.0	t		face	adult-59.jpg	0.0	75.77751774820126	
13.0	42.69956330928699	pulse	1.0	t		face	adult-59.jpg	0.0	76.47750727390257	
14.0	43.21608960928461	car	0.0		46	object	car-56.jpg	0.0	76.9940335739002	0.38326816830476673
14.0	43.399468316152706	pulse	0.0	t		object	car-56.jpg	0.0	77.1774122807683	
14.0	43.599357777589375	ISI	1.0		232	object	car-56.jpg	0.0	77.37730174220496	2.016634514292946
14.0	44.09944697514675	pulse	1.0	t		object	car-56.jpg	0.0	77.87739093976234	
14.0	44.7994355952892	pulse	1.0	t		object	car-56.jpg	0.0	78.57737955990478	
14.0	45.49941395243013	pulse	1.0	t		object	car-56.jpg	0.0	79.27735791704572	
15.0	45.61599229188232	car	0.0		46	object	car-18.jpg	0.0	79.39393625649791	0.3833034851040793
15.0	45.9992957769864	ISI	1.0		234	object	car-18.jpg	0.0	79.77723974160199	2.0166206290555238
15.0	46.19940257257258	pulse	1.0	t		object	car-18.jpg	0.0	79.97734653718817	
15.0	46.899375194506774	pulse	1.0	t		object	car-18.jpg	0.0	80.67731915912236	
15.0	47.59936049426642	pulse	1.0	t		object	car-18.jpg	0.0	81.37730445888201	
16.0	48.015916406041924	adult	0.0		46	face	adult-2.jpg	0.0	81.79386037065751	0.3833143518113502
16.0	48.29935001996773	pulse	0.0	t		face	adult-2.jpg	0.0	82.07729398458332	
16.0	48.399230757853275	ISI	1.0		233	face	adult-2.jpg	0.0	82.17717472246886	2.0166474939715044
16.0	48.99931901966602	pulse	1.0	t		face	adult-2.jpg	0.0	82.7772629842816	
16.0	49.699375254877395	pulse	1.0	t		face	adult-2.jpg	0.0	83.47731921949298	
17.0	50.41587825182478	limb	0.0		45	body	limb-57.jpg	0.0	84.19382221644037	0.38332189813581863
17.0	50.40800351115422	pulse	0.0	t		body	limb-57.jpg	0.0	84.18594747576981	
17.0	50.7992001499606	ISI	1.0		352	body	limb-57.jpg	0.0	84.57714411457619	3.0166067438185564
17.0	51.099318083921844	pulse	1.0	t		body	limb-57.jpg	0.0	84.87726204853743	
17.0	51.79931455224187	pulse	1.0	t		body	limb-57.jpg	0.0	85.57725851685746	
17.0	52.49929200382394	pulse	1.0	t		body	limb-57.jpg	0.0	86.27723596843953	
17.0	53.19926794614139	pulse	1.0	t		body	limb-57.jpg	0.0	86.97721191075698	
18.0	53.815806893779154	limb	0.0		47	body	limb-21.jpg	0.0	87.59375085839474	0.39160444218896373
18.0	53.899194384568546	pulse	0.0	t		body	limb-21.jpg	0.0	87.67713834918413	
18.0	54.20741133596812	ISI	1.0		951	body	limb-21.jpg	0.0	87.9853553005837	8.01648630447744
18.0	54.59916821391516	pulse	1.0	t		body	limb-21.jpg	0.0	88.37711217853075	
18.0	55.299154721086325	pulse	1.0	t		body	limb-21.jpg	0.0	89.07709868570191	
18.0	55.999129455991806	pulse	1.0	t		body	limb-21.jpg	0.0	89.7770734206074	
18.0	56.699115661310316	pulse	1.0	t		body	limb-21.jpg	0.0	90.4770596259259	
18.0	57.39909069806845	pulse	1.0	t		body	limb-21.jpg	0.0	91.17703466268404	
18.0	58.09907871450514	pulse	1.0	t		body	limb-21.jpg	0.0	91.87702267912073	
18.0	58.79906039202888	pulse	1.0	t		body	limb-21.jpg	0.0	92.57700435664447	
18.0	59.499040862140646	pulse	1.0	t		body	limb-21.jpg	0.0	93.27698482675623	
18.0	60.19909166399793	pulse	1.0	t		body	limb-21.jpg	0.0	93.97703562861352	
18.0	60.89906458778523	pulse	1.0	t		body	limb-21.jpg	0.0	94.67700855240082	
18.0	61.59904264307306	pulse	1.0	t		body	limb-21.jpg	0.0	95.37698660768865	
19.0	62.22389764044556	house	0.0		46	place	house-101.jpg	0.0	96.00184160506114	0.38327963871824977
19.0	62.2989612333231	pulse	0.0	t		place	house-101.jpg	0.0	96.07690519793869	
19.0	62.60717727916381	ISI	1.0		474	place	house-101.jpg	0.0	96.3851212437794	4.01656629551826
19.0	62.998959814613954	pulse	1.0	t		place	house-101.jpg	0.0	96.77690377922954	
19.0	63.698927606900725	pulse	1.0	t		place	house-101.jpg	0.0	97.47687157151631	
19.0	64.39891894372022	pulse	1.0	t		place	house-101.jpg	0.0	98.1768629083358	
19.0	65.09889609344918	pulse	1.0	t		place	house-101.jpg	0.0	98.87684005806477	
19.0	65.79886992279535	pulse	1.0	t		place	house-101.jpg	0.0	99.57681388741094	
19.0	66.49885069476022	pulse	1.0	t		place	house-101.jpg	0.0	100.27679465937581	
20.0	66.62374357468207	adult	0.0		46	face	adult-61.jpg	0.0	100.40168753929765	0.3833264259310454
20.0	67.00707000061311	ISI	1.0		353	face	adult-61.jpg	0.0	100.7850139652287	3.0249716937360063
20.0	67.19883237228396	pulse	1.0	t		face	adult-61.jpg	0.0	100.97677633689955	
20.0	67.8988176720436	pulse	1.0	t		face	adult-61.jpg	0.0	101.6767616366592	
20.0	68.59887028501862	pulse	1.0	t		face	adult-61.jpg	0.0	102.37681424963421	
20.0	69.2988513588366	pulse	1.0	t		face	adult-61.jpg	0.0	103.07679532345219	
20.0	69.99883907342019	pulse	1.0	t		face	adult-61.jpg	0.0	103.77678303803577	
21.0	70.03204169434912	limb	0.0		45	body	limb-100.jpg	0.0	103.8099856589647	0.37496992789647265
21.0	70.40701162224559	ISI	1.0		232	body	limb-100.jpg	0.0	104.18495558686118	2.0166333068809763
21.0	70.69882044909082	pulse	1.0	t		body	limb-100.jpg	0.0	104.4767644137064	
21.0	71.39879729696713	pulse	1.0	t		body	limb-100.jpg	0.0	105.17674126158272	
21.0	72.09877716337314	pulse	1.0	t		body	limb-100.jpg	0.0	105.87672112798873	
22.0	72.42364492912657	car	0.0		46	object	car-127.jpg	0.0	106.20158889374216	0.38327209239378135
22.0	72.7986906221222	pulse	0.0	t		object	car-127.jpg	0.0	106.57663458673778	
22.0	72.80691702152035	ISI	1.0		233	object	car-127.jpg	0.0	106.58486098613594	2.016629986498174
22.0	73.4986704885282	pulse	1.0	t		object	car-127.jpg	0.0	107.2766144531438	
22.0	74.1986464308452	pulse	1.0	t		object	car-127.jpg	0.0	107.97659039546079	
23.0	74.82354700801852	car	0.0		46	object	car-92.jpg	0.0	108.60149097263411	0.38330499436870014
23.0	74.89865768996151	pulse	0.0	t		object	car-92.jpg	0.0	108.6766016545771	
23.0	75.20685200238722	ISI	1.0		233	object	car-92.jpg	0.0	108.98479596700281	2.016596782669694
23.0	75.59861129515775	pulse	1.0	t		object	car-92.jpg	0.0	109.37655525977334	
23.0	76.29859478379967	pulse	1.0	t		object	car-92.jpg	0.0	110.07653874841526	
23.0	76.99857042426356	pulse	1.0	t		object	car-92.jpg	0.0	110.77651438887915	
24.0	77.22344878505692	house	0.0		46	place	house-95.jpg	0.0	111.0013927496725	0.3833397074622553
24.0	77.60678849251917	ISI	1.0		353	place	house-95.jpg	0.0	111.38473245713476	3.0166384383819604
24.0	77.69856719443669	pulse	1.0	t		place	house-95.jpg	0.0	111.47651115905228	
24.0	78.39853196819331	pulse	1.0	t		place	house-95.jpg	0.0	112.1764759328089	
24.0	79.09856677184234	pulse	1.0	t		place	house-95.jpg	0.0	112.87651073645793	
24.0	79.79857652169403	pulse	1.0	t		place	house-95.jpg	0.0	113.57652048630962	
24.0	80.49855487883497	pulse	1.0	t		place	house-95.jpg	0.0	114.27649884345055	
25.0	80.62342693090113	limb	0.0		46	body	limb-117.jpg	0.0	114.40137089551672	0.38326967756938757
25.0	81.00669660847052	ISI	1.0		234	body	limb-117.jpg	0.0	114.78464057308611	2.016623043879463
25.0	81.19847135611417	pulse	1.0	t		body	limb-117.jpg	0.0	114.97641532072976	
25.0	81.89844820399003	pulse	1.0	t		body	limb-117.jpg	0.0	115.67639216860562	
25.0	82.59842807039604	pulse	1.0	t		body	limb-117.jpg	0.0	116.37637203501163	
26.0	83.02331965234998	car	0.0		46	object	car-59.jpg	0.0	116.80126361696557	0.3833140499586989
26.0	83.2984115590375	pulse	0.0	t		object	car-59.jpg	0.0	117.07635552365309	
26.0	83.40663370230868	ISI	1.0		353	object	car-59.jpg	0.0	117.18457766692427	3.01658772708015
26.0	83.99839353841435	pulse	1.0	t		object	car-59.jpg	0.0	117.77633750302994	
26.0	84.69837400852612	pulse	1.0	t		object	car-59.jpg	0.0	118.4763179731417	
26.0	85.39835327122637	pulse	1.0	t		object	car-59.jpg	0.0	119.17629723584196	
26.0	86.09833706172094	pulse	1.0	t		object	car-59.jpg	0.0	119.87628102633653	
27.0	86.42322142938883	limb	0.0		46	body	limb-109.jpg	0.0	120.20116539400442	0.3833554038174043
27.0	86.79835405604399	pulse	0.0	t		body	limb-109.jpg	0.0	120.57629802065958	
27.0	86.80657683320624	ISI	1.0		353	body	limb-109.jpg	0.0	120.58452079782182	3.016589236345226
27.0	87.49837014480818	pulse	1.0	t		body	limb-109.jpg	0.0	121.27631410942377	
27.0	88.19835001121419	pulse	1.0	t		body	limb-109.jpg	0.0	121.97629397582978	
27.0	88.89832897206088	pulse	1.0	t		body	limb-109.jpg	0.0	122.67627293667647	
27.0	89.59831698849757	pulse	1.0	t		body	limb-109.jpg	0.0	123.37626095311316	
28.0	89.82316606955146	number	0.0		46	character	number-20.jpg	0.0	123.60111003416705	0.3832868831896121
28.0	90.20645295274107	ISI	1.0		354	character	number-20.jpg	0.0	123.98439691735666	3.0165949715519673
28.0	90.29825882142723	pulse	1.0	t		character	number-20.jpg	0.0	124.07620278604281	
28.0	90.99820035250423	pulse	1.0	t		character	number-20.jpg	0.0	124.77614431711982	
28.0	91.69819772638311	pulse	1.0	t		character	number-20.jpg	0.0	125.4761416909987	
28.0	92.39815465196216	pulse	1.0	t		character	number-20.jpg	0.0	126.17609861657775	
28.0	93.09815353510612	pulse	1.0	t		character	number-20.jpg	0.0	126.87609749972171	
29.0	93.22304792429304	car	0.0		46	object	car-117.jpg	0.0	127.00099188890863	0.3833137481055928
29.0	93.60636167239863	ISI	1.0		233	object	car-117.jpg	0.0	127.38430563701422	2.016639645793475
29.0	93.79813581633607	pulse	1.0	t		object	car-117.jpg	0.0	127.57607978095166	
29.0	94.49811206050617	pulse	1.0	t		object	car-117.jpg	0.0	128.27605602512176	
29.0	95.19808498429347	pulse	1.0	t		object	car-117.jpg	0.0	128.97602894890906	
30.0	95.62300131819211	number	0.0		46	character	number-27.jpg	0.0	129.4009452828077	0.3833140499586989
30.0	95.89809563970357	pulse	0.0	t		character	number-27.jpg	0.0	129.67603960431916	
30.0	96.00631536815081	ISI	1.0		712	character	number-27.jpg	0.0	129.7842593327664	6.016538525043416
30.0	96.5981521767676	pulse	1.0	t		character	number-27.jpg	0.0	130.3760961413832	
30.0	97.29810578196384	pulse	1.0	t		character	number-27.jpg	0.0	131.07604974657943	
30.0	97.9980883650469	pulse	1.0	t		character	number-27.jpg	0.0	131.77603232966248	
30.0	98.69814822249373	pulse	1.0	t		character	number-27.jpg	0.0	132.47609218710932	
30.0	99.39804900341733	pulse	1.0	t		character	number-27.jpg	0.0	133.17599296803292	
30.0	100.09803913282485	pulse	1.0	t		character	number-27.jpg	0.0	133.87598309744044	
30.0	100.79800783067049	pulse	1.0	t		character	number-27.jpg	0.0	134.57595179528607	
30.0	101.4979910174593	pulse	1.0	t		character	number-27.jpg	0.0	135.2759349820749	
31.0	102.02285389319422	house	0.0		46	place	house-25.jpg	0.0	135.8007978578098	0.38326816830476673
31.0	102.19791172067971	pulse	0.0	t		place	house-25.jpg	0.0	135.9758556852953	
31.0	102.40612206149899	ISI	1.0		232	place	house-25.jpg	0.0	136.18406602611458	2.0166378346757483
31.0	102.8978900778211	pulse	1.0	t		place	house-25.jpg	0.0	136.6758340424367	
31.0	103.5978693405209	pulse	1.0	t		place	house-25.jpg	0.0	137.3758133051365	
31.0	104.29784920692691	pulse	1.0	t		place	house-25.jpg	0.0	138.0757931715425	
32.0	104.42275989617474	number	0.0		46	character	number-61.jpg	0.0	138.20070386079033	0.3832892980140059
32.0	104.80604919418874	ISI	1.0		232	character	number-61.jpg	0.0	138.58399315880433	2.0166378346757483
32.0	104.99783239371573	pulse	1.0	t		character	number-61.jpg	0.0	138.7757763583313	
32.0	105.69781165641552	pulse	1.0	t		character	number-61.jpg	0.0	139.4757556210311	
32.0	106.39779303208616	pulse	1.0	t		character	number-61.jpg	0.0	140.17573699670174	
33.0	106.8226870288645	car	0.0		46	object	car-28.jpg	0.0	140.60063099348008	0.3833146536644563
33.0	107.09778195408171	pulse	0.0	t		object	car-28.jpg	0.0	140.8757259186973	
33.0	107.20600168252895	ISI	1.0		592	object	car-28.jpg	0.0	140.98394564714454	5.024920076875787
33.0	107.79776363160545	pulse	1.0	t		object	car-28.jpg	0.0	141.57570759622104	
33.0	108.4978059815794	pulse	1.0	t		object	car-28.jpg	0.0	142.275749946195	
33.0	109.19779248875102	pulse	1.0	t		object	car-28.jpg	0.0	142.9757364533666	
33.0	109.89776661995029	pulse	1.0	t		object	car-28.jpg	0.0	143.67571058456588	
33.0	110.59775674935736	pulse	1.0	t		object	car-28.jpg	0.0	144.37570071397295	
33.0	111.29772967314466	pulse	1.0	t		object	car-28.jpg	0.0	145.07567363776025	
33.0	111.9978462789527	pulse	1.0	t		object	car-28.jpg	0.0	145.77579024356828	
34.0	112.23092175940474	adult	0.0		45	face	adult-111.jpg	0.0	146.00886572402032	0.37494577965753706
34.0	112.60586753906227	ISI	1.0		353	face	adult-111.jpg	0.0	146.38381150367786	3.016629986498174
34.0	112.69769302819259	pulse	1.0	t		face	adult-111.jpg	0.0	146.47563699280818	
34.0	113.3976855724236	pulse	1.0	t		face	adult-111.jpg	0.0	147.17562953703919	
34.0	114.09765728879893	pulse	1.0	t		face	adult-111.jpg	0.0	147.87560125341452	
34.0	114.7976380607638	pulse	1.0	t		face	adult-111.jpg	0.0	148.5755820253794	
34.0	115.49762215311148	pulse	1.0	t		face	adult-111.jpg	0.0	149.27556611772707	
35.0	115.62249752556045	house	0.0		46	place	house-49.jpg	0.0	149.40044149017604	0.3832548867735568
35.0	116.005752412334	ISI	1.0		233	place	house-49.jpg	0.0	149.7836963769496	2.0166375328226422
35.0	116.19753953594955	pulse	1.0	t		place	house-49.jpg	0.0	149.97548350056513	
35.0	116.897506422677	pulse	1.0	t		place	house-49.jpg	0.0	150.67545038729259	
35.0	117.59748327055331	pulse	1.0	t		place	house-49.jpg	0.0	151.3754272351689	
36.0	118.02238994515665	adult	0.0		46	face	adult-79.jpg	0.0	151.80033390977223	0.38330499436870014
36.0	118.29748154999106	pulse	0.0	t		face	adult-79.jpg	0.0	152.07542551460665	
36.0	118.40569493952535	ISI	1.0		594	face	adult-79.jpg	0.0	152.18363890414093	5.016599197493633
36.0	118.99746383122101	pulse	1.0	t		face	adult-79.jpg	0.0	152.7754077958366	
36.0	119.69744007539111	pulse	1.0	t		face	adult-79.jpg	0.0	153.4753840400067	
36.0	120.39742507329765	pulse	1.0	t		face	adult-79.jpg	0.0	154.17536903791324	
36.0	121.09739920449692	pulse	1.0	t		face	adult-79.jpg	0.0	154.8753431691125	
36.0	121.79745030820732	pulse	1.0	t		face	adult-79.jpg	0.0	155.5753942728229	
36.0	122.49742051531757	pulse	1.0	t		face	adult-79.jpg	0.0	156.27536447993316	
36.0	123.19741577622563	pulse	1.0	t		face	adult-79.jpg	0.0	156.9753597408412	
37.0	123.42229413701898	number	0.0		46	character	number-143.jpg	0.0	157.20023810163457	0.3832639423631008
37.0	123.80555807938208	ISI	1.0		354	character	number-143.jpg	0.0	157.58350204399767	3.0166061401123443
37.0	123.89733617759339	pulse	1.0	t		character	number-143.jpg	0.0	157.67528014220898	
37.0	124.59730819582182	pulse	1.0	t		character	number-143.jpg	0.0	158.3752521604374	
37.0	125.29729017519867	pulse	1.0	t		character	number-143.jpg	0.0	159.07523413981426	
37.0	125.99728090831195	pulse	1.0	t		character	number-143.jpg	0.0	159.77522487292754	
37.0	126.69725353024614	pulse	1.0	t		character	number-143.jpg	0.0	160.47519749486173	
38.0	126.82216421949443	adult	0.0		46	face	adult-143.jpg	0.0	160.60010818411	0.38330439066294275
38.0	127.20546861015737	ISI	1.0		709	face	adult-143.jpg	0.0	160.98341257477296	6.0165436565444
38.0	127.3972424522417	pulse	1.0	t		face	adult-143.jpg	0.0	161.1751864168573	
38.0	128.097215376029	pulse	1.0	t		face	adult-143.jpg	0.0	161.8751593406446	
38.0	128.79719312946418	pulse	1.0	t		face	adult-143.jpg	0.0	162.57513709407976	
38.0	129.4972460442923	pulse	1.0	t		face	adult-143.jpg	0.0	163.27519000890788	
38.0	130.19719934763543	pulse	1.0	t		face	adult-143.jpg	0.0	163.97514331225102	
38.0	130.89721090860485	pulse	1.0	t		face	adult-143.jpg	0.0	164.67515487322044	
38.0	131.5971931898348	pulse	1.0	t		face	adult-143.jpg	0.0	165.37513715445039	
38.0	132.29716671732785	pulse	1.0	t		face	adult-143.jpg	0.0	166.07511068194344	
38.0	132.9971553374703	pulse	1.0	t		face	adult-143.jpg	0.0	166.7750993020859	
39.0	133.22201226670177	number	0.0		46	character	number-105.jpg	0.0	166.99995623131736	0.38328567577809736
39.0	133.60529794247987	ISI	1.0		473	character	number-105.jpg	0.0	167.38324190709545	4.016577464078637
39.0	133.69707573883807	pulse	1.0	t		character	number-105.jpg	0.0	167.47501970345365	
39.0	134.3970480589196	pulse	1.0	t		character	number-105.jpg	0.0	168.1749920235352	
39.0	135.09702551050168	pulse	1.0	t		character	number-105.jpg	0.0	168.87496947511727	
39.0	135.79700899914315	pulse	1.0	t		character	number-105.jpg	0.0	169.57495296375873	
39.0	136.49699067666688	pulse	1.0	t		character	number-105.jpg	0.0	170.27493464128247	
39.0	137.1969639023073	pulse	1.0	t		character	number-105.jpg	0.0	170.97490786692288	
40.0	137.6218754065585	limb	0.0		46	body	limb-98.jpg	0.0	171.3998193711741	0.3832895998666572
40.0	137.89695886136224	pulse	0.0	t		body	limb-98.jpg	0.0	171.67490282597782	
40.0	138.00516500642516	ISI	1.0		354	body	limb-98.jpg	0.0	171.78310897104075	3.0166538328840034
40.0	138.59695532968271	pulse	1.0	t		body	limb-98.jpg	0.0	172.3748992942983	
40.0	139.2969973778031	pulse	1.0	t		body	limb-98.jpg	0.0	173.0749413424187	
40.0	139.99697603679715	pulse	1.0	t		body	limb-98.jpg	0.0	173.77492000141274	
40.0	140.69694956429066	pulse	1.0	t		body	limb-98.jpg	0.0	174.47489352890625	
41.0	141.02181883930916	house	0.0		46	place	house-27.jpg	0.0	174.79976280392475	0.3832720923933266
41.0	141.3968645323048	pulse	0.0	t		place	house-27.jpg	0.0	175.17480849692038	
41.0	141.4050909317025	ISI	1.0		354	place	house-27.jpg	0.0	175.18303489631808	3.016603423435754
41.0	142.0968407764749	pulse	1.0	t		place	house-27.jpg	0.0	175.87478474109048	
41.0	142.79682486882257	pulse	1.0	t		place	house-27.jpg	0.0	176.57476883343816	
41.0	143.4967959814917	pulse	1.0	t		place	house-27.jpg	0.0	177.27473994610727	
41.0	144.19678852572315	pulse	1.0	t		place	house-27.jpg	0.0	177.97473249033874	
42.0	144.42169435513824	car	0.0		46	object	car-94.jpg	0.0	178.19963831975383	0.38330559807491227
42.0	144.80499995321316	ISI	1.0		233	object	car-94.jpg	0.0	178.58294391782874	2.016629986498174
42.0	144.8967771458656	pulse	1.0	t		object	car-94.jpg	0.0	178.6747211104812	
42.0	145.59675821968358	pulse	1.0	t		object	car-94.jpg	0.0	179.37470218429917	
42.0	146.29673416200058	pulse	1.0	t		object	car-94.jpg	0.0	180.07467812661616	
43.0	146.82162993971133	adult	0.0		46	face	adult-34.jpg	0.0	180.59957390432692	0.3833372926383163
43.0	146.9967140284066	pulse	0.0	t		face	adult-34.jpg	0.0	180.77465799302217	
43.0	147.20496723234965	ISI	1.0		473	face	adult-34.jpg	0.0	180.98291119696523	4.024924302817453
43.0	147.69675456726236	pulse	1.0	t		face	adult-34.jpg	0.0	181.47469853187795	
43.0	148.3967365466392	pulse	1.0	t		face	adult-34.jpg	0.0	182.1746805112548	
43.0	149.0967309019884	pulse	1.0	t		face	adult-34.jpg	0.0	182.87467486660398	
43.0	149.79670956098198	pulse	1.0	t		face	adult-34.jpg	0.0	183.57465352559757	
43.0	150.49669818112488	pulse	1.0	t		face	adult-34.jpg	0.0	184.27464214574047	
43.0	151.19667170861794	pulse	1.0	t		face	adult-34.jpg	0.0	184.97461567323353	
44.0	151.2298915351671	number	0.0		45	character	number-134.jpg	0.0	185.0078354997827	0.3749572500710201
44.0	151.60484878523812	ISI	1.0		473	character	number-134.jpg	0.0	185.3827927498537	4.016572634431213
44.0	151.89665912134842	pulse	1.0	t		character	number-134.jpg	0.0	185.674603085964	
44.0	152.5966335544008	pulse	1.0	t		character	number-134.jpg	0.0	186.37457751901638	
44.0	153.29663394680938	pulse	1.0	t		character	number-134.jpg	0.0	187.07457791142497	
44.0	153.99659147609464	pulse	1.0	t		character	number-134.jpg	0.0	187.77453544071022	
44.0	154.69657617214807	pulse	1.0	t		character	number-134.jpg	0.0	188.47452013676366	
44.0	155.3965515107593	pulse	1.0	t		character	number-134.jpg	0.0	189.1744954753749	
45.0	155.62142141966933	house	0.0		46	place	house-76.jpg	0.0	189.39936538428492	0.38327903501203764
45.0	156.00470045468137	ISI	1.0		234	place	house-76.jpg	0.0	189.78264441929696	2.0166239494383262
45.0	156.09647794918692	pulse	1.0	t		place	house-76.jpg	0.0	189.8744219138025	
45.0	156.79644121367846	pulse	1.0	t		place	house-76.jpg	0.0	190.57438517829405	
45.0	157.49643104123288	pulse	1.0	t		place	house-76.jpg	0.0	191.27437500584847	
46.0	158.0213244041197	number	0.0		46	character	number-33.jpg	0.0	191.79926836873528	0.38329684433847433
46.0	158.19641935952268	pulse	0.0	t		character	number-33.jpg	0.0	191.97436332413827	
46.0	158.40462124845817	ISI	1.0		233	character	number-33.jpg	0.0	192.18256521307376	2.016648097677262
46.0	158.89640194260528	pulse	1.0	t		character	number-33.jpg	0.0	192.67434590722087	
46.0	159.5963769793634	pulse	1.0	t		character	number-33.jpg	0.0	193.374320943979	
46.0	160.296359562446	pulse	1.0	t		character	number-33.jpg	0.0	194.0743035270616	
47.0	160.42126934613543	number	0.0		46	character	number-22.jpg	0.0	194.19921331075102	0.3833025795447611
47.0	160.8045719256802	ISI	1.0		473	character	number-22.jpg	0.0	194.58251589029578	4.016606140112344
47.0	160.99634637147074	pulse	1.0	t		character	number-22.jpg	0.0	194.77429033608632	
47.0	161.69637876029583	pulse	1.0	t		character	number-22.jpg	0.0	195.47432272491142	
47.0	162.3963595322607	pulse	1.0	t		character	number-22.jpg	0.0	196.1743034968763	
47.0	163.09635328390414	pulse	1.0	t		character	number-22.jpg	0.0	196.87429724851972	
47.0	163.79632318916128	pulse	1.0	t		character	number-22.jpg	0.0	197.57426715377687	
47.0	164.49628886847722	pulse	1.0	t		character	number-22.jpg	0.0	198.2742328330928	
48.0	164.82117806579254	adult	0.0		46	face	adult-77.jpg	0.0	198.59912203040813	0.3832805442771132
48.0	165.1962611885583	pulse	0.0	t		face	adult-77.jpg	0.0	198.9742051531739	
48.0	165.20445861006965	ISI	1.0		233	face	adult-77.jpg	0.0	198.98240257468524	2.0166287790862043
48.0	165.896210869666	pulse	1.0	t		face	adult-77.jpg	0.0	199.67415483428158	
48.0	166.59619133977776	pulse	1.0	t		face	adult-77.jpg	0.0	200.37413530439335	
49.0	167.22108738915585	house	0.0		46	place	house-80.jpg	0.0	200.99903135377144	0.3833028813983219
49.0	167.29617211174264	pulse	0.0	t		place	house-80.jpg	0.0	201.07411607635822	
49.0	167.60439027055418	ISI	1.0		233	place	house-80.jpg	0.0	201.38233423516976	2.016630590203931
49.0	167.99616043003198	pulse	1.0	t		place	house-80.jpg	0.0	201.77410439464757	
49.0	168.69613305196617	pulse	1.0	t		place	house-80.jpg	0.0	202.47407701658176	
49.0	169.39610718316544	pulse	1.0	t		place	house-80.jpg	0.0	203.17405114778103	
50.0	169.6210208607581	limb	0.0		46	body	limb-59.jpg	0.0	203.3989648253737	0.3832729979526448
50.0	170.00429385871075	ISI	1.0		473	body	limb-59.jpg	0.0	203.78223782332634	4.016631193910143
50.0	170.09610697186827	pulse	1.0	t		body	limb-59.jpg	0.0	203.87405093648385	
50.0	170.79607959380246	pulse	1.0	t		body	limb-59.jpg	0.0	204.57402355841805	
50.0	171.49612375489414	pulse	1.0	t		body	limb-59.jpg	0.0	205.27406771950973	
50.0	172.19610513056523	pulse	1.0	t		body	limb-59.jpg	0.0	205.97404909518082	
50.0	172.89609405256078	pulse	1.0	t		body	limb-59.jpg	0.0	206.67403801717637	
50.0	173.59607482452566	pulse	1.0	t		body	limb-59.jpg	0.0	207.37401878914125	
51.0	174.0209250526209	number	0.0		46	character	number-98.jpg	0.0	207.79886901723648	0.3832877887484756
51.0	174.29598254806797	pulse	0.0	t		character	number-98.jpg	0.0	208.07392651268356	
51.0	174.40421284136937	ISI	1.0		353	character	number-98.jpg	0.0	208.18215680598496	3.0166043289946174
51.0	174.99597690341716	pulse	1.0	t		character	number-98.jpg	0.0	208.77392086803275	
51.0	175.69595012905756	pulse	1.0	t		character	number-98.jpg	0.0	209.47389409367315	
51.0	176.395934825111	pulse	1.0	t		character	number-98.jpg	0.0	210.1738787897266	
51.0	177.09589929701497	pulse	1.0	t		character	number-98.jpg	0.0	210.87384326163055	
52.0	177.420817170364	house	0.0		46	place	house-103.jpg	0.0	211.19876113497958	0.38328175168908274
52.0	177.79589184124598	pulse	0.0	t		place	house-103.jpg	0.0	211.57383580586156	
52.0	177.80409892205307	ISI	1.0		231	place	house-103.jpg	0.0	211.58204288666866	2.016653229177791
52.0	178.49587683915252	pulse	1.0	t		place	house-103.jpg	0.0	212.2738208037681	
52.0	179.19585610185277	pulse	1.0	t		place	house-103.jpg	0.0	212.97380006646836	
53.0	179.82075215123086	limb	0.0		46	body	limb-142.jpg	0.0	213.59869611584645	0.3833354815205894
53.0	179.89584381643635	pulse	0.0	t		body	limb-142.jpg	0.0	213.67378778105194	
53.0	180.20408763275145	ISI	1.0		233	body	limb-142.jpg	0.0	213.98203159736704	2.0166221383205993
53.0	180.59588978864576	pulse	1.0	t		body	limb-142.jpg	0.0	214.37383375326135	
53.0	181.29585426054928	pulse	1.0	t		body	limb-142.jpg	0.0	215.07379822516486	
53.0	181.9958474084865	pulse	1.0	t		body	limb-142.jpg	0.0	215.77379137310209	
54.0	182.22070977107205	car	0.0		46	object	car-119.jpg	0.0	215.99865373568764	0.3832832609537036
54.0	182.60399303202576	ISI	1.0		234	object	car-119.jpg	0.0	216.38193699664134	2.016633005028325
54.0	182.69577263950214	pulse	1.0	t		object	car-119.jpg	0.0	216.47371660411773	
54.0	183.39574254475974	pulse	1.0	t		object	car-119.jpg	0.0	217.17368650937533	
54.0	184.0957227130184	pulse	1.0	t		object	car-119.jpg	0.0	217.873666677634	
55.0	184.62062603705408	car	0.0		46	object	car-100.jpg	0.0	218.39857000166967	0.38330499436870014
55.0	184.79571223872017	pulse	0.0	t		object	car-100.jpg	0.0	218.57365620333576	
55.0	185.00393103142278	ISI	1.0		835	object	car-100.jpg	0.0	218.78187499603837	7.016514678658041
55.0	185.49569542550898	pulse	1.0	t		object	car-100.jpg	0.0	219.27363939012457	
55.0	186.19566472706038	pulse	1.0	t		object	car-100.jpg	0.0	219.97360869167596	
55.0	186.89564700828987	pulse	1.0	t		object	car-100.jpg	0.0	220.67359097290546	
55.0	187.59562959137293	pulse	1.0	t		object	car-100.jpg	0.0	221.37357355598851	
55.0	188.2956800913771	pulse	1.0	t		object	car-100.jpg	0.0	222.0736240559927	
55.0	188.99566720225448	pulse	1.0	t		object	car-100.jpg	0.0	222.77361116687007	
55.0	189.6956443519839	pulse	1.0	t		object	car-100.jpg	0.0	223.4735883165995	
55.0	190.39562874618423	pulse	1.0	t		object	car-100.jpg	0.0	224.17357271079982	
55.0	191.09560106626577	pulse	1.0	t		object	car-100.jpg	0.0	224.87354503088136	
55.0	191.79558998826133	pulse	1.0	t		object	car-100.jpg	0.0	225.57353395287691	
56.0	192.02044571008082	house	0.0		46	place	house-11.jpg	0.0	225.7983896746964	0.3832856757776426
56.0	192.40373138585846	ISI	1.0		233	place	house-11.jpg	0.0	226.18167535047405	2.016616403113858
56.0	192.49550797480515	pulse	1.0	t		place	house-11.jpg	0.0	226.27345193942074	
56.0	193.1954833134164	pulse	1.0	t		place	house-11.jpg	0.0	226.97342727803198	
56.0	193.89545714276255	pulse	1.0	t		place	house-11.jpg	0.0	227.67340110737814	
57.0	194.42034778897232	house	0.0		46	place	house-5.jpg	0.0	228.1982917535879	0.38332129443006124
57.0	194.59544817772894	pulse	0.0	t		place	house-5.jpg	0.0	228.37339214234453	
57.0	194.80366908340238	ISI	1.0		592	place	house-5.jpg	0.0	228.58161304801797	5.016585614109317
57.0	195.29543468490056	pulse	1.0	t		place	house-5.jpg	0.0	229.07337864951614	
57.0	195.99540338274574	pulse	1.0	t		place	house-5.jpg	0.0	229.77334734736132	
57.0	196.6953874750934	pulse	1.0	t		place	house-5.jpg	0.0	230.473331439709	
57.0	197.3953652285286	pulse	1.0	t		place	house-5.jpg	0.0	231.17330919314418	
57.0	198.09543414156497	pulse	1.0	t		place	house-5.jpg	0.0	231.87337810618055	
57.0	198.79537355967113	pulse	1.0	t		place	house-5.jpg	0.0	232.57331752428672	
57.0	199.49538451693434	pulse	1.0	t		place	house-5.jpg	0.0	233.27332848154992	
58.0	199.8202546975117	house	0.0		46	place	house-139.jpg	0.0	233.5981986621273	0.3832711868349179
58.0	200.1952988812427	pulse	0.0	t		place	house-139.jpg	0.0	233.9732428458583	
58.0	200.20352588434662	ISI	1.0		230	place	house-139.jpg	0.0	233.9814698489622	2.0166296846450678
58.0	200.89527059761758	pulse	1.0	t		place	house-139.jpg	0.0	234.67321456223317	
58.0	201.59525951961314	pulse	1.0	t		place	house-139.jpg	0.0	235.37320348422872	
59.0	202.2201555689917	number	0.0		46	character	number-48.jpg	0.0	235.99809953360727	0.38330499436870014
59.0	202.295245423079	pulse	0.0	t		character	number-48.jpg	0.0	236.07318938769458	
59.0	202.6034605633604	ISI	1.0		473	character	number-48.jpg	0.0	236.38140452797597	4.01661036605401
59.0	202.9952283080147	pulse	1.0	t		character	number-48.jpg	0.0	236.7731722726303	
59.0	203.69520032624268	pulse	1.0	t		character	number-48.jpg	0.0	237.47314429085827	
59.0	204.39518109820756	pulse	1.0	t		character	number-48.jpg	0.0	238.17312506282315	
59.0	205.09516730352652	pulse	1.0	t		character	number-48.jpg	0.0	238.8731112681421	
59.0	205.79514234028466	pulse	1.0	t		character	number-48.jpg	0.0	239.57308630490024	
59.0	206.49519948105444	pulse	1.0	t		character	number-48.jpg	0.0	240.27314344567003	
60.0	206.6200709294144	house	0.0		46	place	house-6.jpg	0.0	240.39801489402998	0.3832576034506019
60.0	207.003328532865	ISI	1.0		233	place	house-6.jpg	0.0	240.7812724974806	2.016643871735141
60.0	207.19511746759872	pulse	1.0	t		place	house-6.jpg	0.0	240.9730614322143	
60.0	207.89511393591874	pulse	1.0	t		place	house-6.jpg	0.0	241.67305790053433	
60.0	208.59507870967536	pulse	1.0	t		place	house-6.jpg	0.0	242.37302267429095	
61.0	209.01997240460014	adult	0.0		46	face	adult-22.jpg	0.0	242.79791636921573	0.38330559807491227
61.0	209.29505767052206	pulse	0.0	t		face	adult-22.jpg	0.0	243.07300163513764	
61.0	209.40327800267505	ISI	1.0		236	face	adult-22.jpg	0.0	243.18122196729064	2.024949356615707
61.0	209.99504417769367	pulse	1.0	t		face	adult-22.jpg	0.0	243.77298814230926	
61.0	210.6950059329206	pulse	1.0	t		face	adult-22.jpg	0.0	244.47294989753618	
61.0	211.3949821770907	pulse	1.0	t		face	adult-22.jpg	0.0	245.17292614170628	
62.0	211.42822735929076	adult	0.0		45	face	adult-22.jpg	1.0	245.20617132390635	0.37498592610427295
62.0	211.80321328539503	ISI	1.0		472	face	adult-22.jpg	1.0	245.58115725001062	4.0165910474634074
62.0	211.86136013143914	response	1.0	b		face	adult-22.jpg	1.0	245.63930409605473	
62.0	212.09496989167428	pulse	1.0	t		face	adult-22.jpg	1.0	245.87291385628987	
62.0	212.7950264287383	pulse	1.0	t		face	adult-22.jpg	1.0	246.5729703933539	
62.0	213.49501595443962	pulse	1.0	t		face	adult-22.jpg	1.0	247.2729599190552	
62.0	214.19498585969723	pulse	1.0	t		face	adult-22.jpg	1.0	247.9729298243128	
62.0	214.89495244457157	pulse	1.0	t		face	adult-22.jpg	1.0	248.67289640918716	
62.0	215.5949458943619	pulse	1.0	t		face	adult-22.jpg	1.0	249.3728898589775	
63.0	215.81980433285844	adult	0.0		46	face	adult-121.jpg	1.0	249.59774829747403	0.38329654248536826
63.0	216.2031008753438	ISI	1.0		234	face	adult-121.jpg	1.0	249.9810448399594	2.0166272698211287
63.0	216.2948687105536	pulse	1.0	t		face	adult-121.jpg	1.0	250.0728126751692	
63.0	216.99484555842992	pulse	1.0	t		face	adult-121.jpg	1.0	250.7727895230455	
63.0	217.6948296507776	pulse	1.0	t		face	adult-121.jpg	1.0	251.47277361539318	
64.0	218.21972814516494	limb	0.0		46	body	limb-76.jpg	0.0	251.99767210978052	0.3833040888098367
64.0	218.39482310056746	pulse	0.0	t		body	limb-76.jpg	0.0	252.17276706518305	
64.0	218.60303223397477	ISI	1.0		353	body	limb-76.jpg	0.0	252.38097619859036	3.01658501040356
64.0	219.0947987410318	pulse	1.0	t		body	limb-76.jpg	0.0	252.8727427056474	
64.0	219.79477196667222	pulse	1.0	t		body	limb-76.jpg	0.0	253.5727159312878	
64.0	220.49475575716679	pulse	1.0	t		body	limb-76.jpg	0.0	254.27269972178237	
64.0	221.19473109577802	pulse	1.0	t		body	limb-76.jpg	0.0	254.9726750603936	
65.0	221.61961724437833	limb	0.0		46	body	limb-118.jpg	0.0	255.39756120899392	0.3833493667575567
65.0	221.8947529197485	pulse	0.0	t		body	limb-118.jpg	0.0	255.6726968843641	
65.0	222.0029666111359	ISI	1.0		359	body	limb-118.jpg	0.0	255.78091057575148	2.999965890612657
65.0	222.59477323445435	pulse	1.0	t		body	limb-118.jpg	0.0	256.37271719906994	
65.0	223.29475008233067	pulse	1.0	t		body	limb-118.jpg	0.0	257.07269404694625	
65.0	223.99472994873668	pulse	1.0	t		body	limb-118.jpg	0.0	257.77267391335226	
65.0	224.69471222996617	pulse	1.0	t		body	limb-118.jpg	0.0	258.47265619458176	
66.0	225.00293250174855	baseline	0.0		708		baseline	0.0	258.78087646636413	5.899842161074503
66.0	225.39469843528468	pulse	0.0	t			baseline	0.0	259.17264239990027	
66.0	226.09466502015948	pulse	0.0	t			baseline	0.0	259.87260898477507	
66.0	226.79465092362489	pulse	0.0	t			baseline	0.0	260.5725948882405	
66.0	227.49463924191468	pulse	0.0	t			baseline	0.0	261.27258320653027	
66.0	228.19461759905562	pulse	0.0	t			baseline	0.0	261.9725615636712	
66.0	228.89459716360852	pulse	0.0	t			baseline	0.0	262.6725411282241	
66.0	229.59458306707393	pulse	0.0	t			baseline	0.0	263.3725270316895	
66.0	230.29456897053979	pulse	0.0	t			baseline	0.0	264.0725129351554	
66.0	230.90277466282305	ISI	1.0		12		baseline	0.0	264.68071862743864	0.12499973587864588
66.0	230.99455064806352	pulse	1.0	t			baseline	0.0	264.7724946126791	
