trial_nr	onset	event_type	phase	response	nr_frames	trial_type	stim_name	task_probe	onset_abs	duration
0.0	0.0588194632291561	baseline	0.0		40.0		baseline	0.0	106.46204154028965	0.34138495401930413
0.0	0.40020441724846023	ISI	1.0		11.0		baseline	0.0	106.80342649430895	0.09999450621035066
1.0	0.5001989234588109	baseline	0.0		48.0		baseline	0.0	106.9034210005193	0.399980439698993
1.0	0.7003135082013614	pulse	0.0	t			baseline	0.0	107.10353558526185	
1.0	0.9001793631578039	ISI	1.0		11.0		baseline	0.0	107.3034014402183	0.09998846907910774
2.0	1.0001678322369116	baseline	0.0		48.0		baseline	0.0	107.4033899092974	0.40000156965470524
2.0	1.4001694018916169	ISI	1.0		11.0		baseline	0.0	107.80339147895211	0.09998484680181718
2.0	1.404849989376089	pulse	1.0	t			baseline	0.0	107.80807206643658	
3.0	1.500154248693434	baseline	0.0		48.0		baseline	0.0	107.90337632575392	0.40000941792459344
3.0	1.9001636666180275	ISI	1.0		11.0		baseline	0.0	108.30338574367852	0.09999812848764122
4.0	2.0001617951056687	baseline	0.0		48.0		baseline	0.0	108.40338387216616	0.3999922121001873
4.0	2.1002731197986577	pulse	0.0	t			baseline	0.0	108.50349519685915	
4.0	2.400154007205856	ISI	1.0		11.0		baseline	0.0	108.80337608426635	0.10000899532678886
5.0	2.500163002532645	baseline	0.0		48.0		baseline	0.0	108.90338507959314	0.39998647682659794
5.0	2.8002591136537376	pulse	0.0	t			baseline	0.0	109.20348119071423	
5.0	2.900149479359243	ISI	1.0		11.0		baseline	0.0	109.30337155641973	0.09999752477597212
6.0	3.000147004135215	baseline	0.0		48.0		baseline	0.0	109.4033690811957	0.3999934195271635
6.0	3.4001404236623785	ISI	1.0		11.0		baseline	0.0	109.80336250072287	0.09999903406060184
7.0	3.5001394577229803	baseline	0.0		47.0		baseline	0.0	109.90336153478347	0.3999952306658088
7.0	3.5043307357591402	pulse	0.0	t			baseline	0.0	109.90755281281963	
7.0	3.900134688388789	ISI	1.0		11.0		baseline	0.0	110.30335676544928	0.09999752477597212
8.0	4.000132213164761	baseline	0.0		48.0		baseline	0.0	110.40335429022525	0.3999913065308647
8.0	4.20024377934169	pulse	0.0	t			baseline	0.0	110.60346585640218	
8.0	4.400123519695626	ISI	1.0		11.0		baseline	0.0	110.80334559675612	0.09999692106430302
9.0	4.500120440759929	baseline	0.0		48.0		baseline	0.0	110.90334251782042	0.3999991548007529
9.0	4.900119595560682	ISI	1.0		11.0		baseline	0.0	111.30334167262117	0.09999541178331128
9.0	4.904639293512446	pulse	1.0	t			baseline	0.0	111.30786137057294	
10.0	5.000115007343993	baseline	0.0		48.0		baseline	0.0	111.40333708440448	0.3999928158118564
10.0	5.4001078231558495	ISI	1.0		11.0		baseline	0.0	111.80332990021634	0.10000175076856976
11.0	5.500109573924419	baseline	0.0		48.0		baseline	0.0	111.90333165098491	0.3999916083885182
11.0	5.600224219037045	pulse	0.0	t			baseline	0.0	112.00344629609754	
11.0	5.9001011823129375	ISI	1.0		11.0		baseline	0.0	112.30332325937343	0.10002408815125818
12.0	6.000125270464196	baseline	0.0		48.0		baseline	0.0	112.40334734752469	0.3999677617212001
12.0	6.300207496187795	pulse	0.0	t			baseline	0.0	112.70342957324829	
12.0	6.400093032185396	ISI	1.0		11.0		baseline	0.0	112.80331510924589	0.1000014489145542
13.0	6.50009448109995	baseline	0.0		48.0		baseline	0.0	112.90331655816044	0.3999907028155576
13.0	6.9000851839155075	ISI	1.0		11.0		baseline	0.0	113.303307260976	0.10000144891091622
14.0	7.000086632826424	baseline	0.0		47.0		baseline	0.0	113.40330870988691	0.3999922121038253
14.0	7.004274288585293	pulse	0.0	t			baseline	0.0	113.40749636564578	
14.0	7.400078844930249	ISI	1.0		11.0		baseline	0.0	113.80330092199074	0.09999661920664948
15.0	7.5000754641368985	baseline	0.0		48.0		baseline	0.0	113.90329754119739	0.39999704180445406
15.0	7.700185521029198	pulse	0.0	t			baseline	0.0	114.10340759808969	
15.0	7.900072505941353	ISI	1.0		11.0		baseline	0.0	114.30329458300184	0.09999752477597212
16.0	8.000070030717325	baseline	0.0		48.0		baseline	0.0	114.40329210777782	0.39999191024617176
16.0	8.400061940963496	ISI	1.0		11.0		baseline	0.0	114.80328401802399	0.10000114705326268
16.0	8.404538171573222	pulse	1.0	t			baseline	0.0	114.80776024863371	
17.0	8.50006308801676	baseline	0.0		48.0		baseline	0.0	114.90328516507725	0.3999940232424706
17.0	8.90005711125923	ISI	1.0		11.0		baseline	0.0	115.30327918831972	0.09999571363732684
18.0	9.000052824896557	baseline	0.0		48.0		baseline	0.0	115.40327490195705	0.39999643809278496
18.0	9.10017229971345	pulse	0.0	t			baseline	0.0	115.50339437677394	
18.0	9.400049262989342	ISI	1.0		11.0		baseline	0.0	115.80327134004983	0.10001533431204734
19.0	9.500064597301389	baseline	0.0		48.0		baseline	0.0	115.90328667436188	0.39997681741806446
19.0	9.800154369433585	pulse	0.0	t			baseline	0.0	116.20337644649408	
19.0	9.900041414719453	ISI	1.0		11.0		baseline	0.0	116.30326349177994	0.09999782663362566
20.0	10.000039241353079	baseline	0.0		48.0		baseline	0.0	116.40326131841357	0.3999955325234623
20.0	10.400034773876541	ISI	1.0		11.0		baseline	0.0	116.80325685093703	0.10000054334159358
21.0	10.500035317218135	baseline	0.0		47.0		baseline	0.0	116.90325739427863	0.39999160838488024
21.0	10.50425527162588	pulse	0.0	t			baseline	0.0	116.90747734868637	
21.0	10.900026925603015	ISI	1.0		11.0		baseline	0.0	117.3032490026635	0.0999981284912792
22.0	11.000025054094294	baseline	0.0		48.0		baseline	0.0	117.40324713115479	0.3999940232388326
22.0	11.20013269613628	pulse	0.0	t			baseline	0.0	117.60335477319677	
22.0	11.400019077333127	ISI	1.0		11.0		baseline	0.0	117.80324115439362	0.0999981284912792
23.0	11.500017205824406	baseline	0.0		48.0		baseline	0.0	117.9032392828849	0.3999934195271635
23.0	11.90001062535157	ISI	1.0		7.0		baseline	0.0	118.30323270241206	0.1333369757339824
23.0	11.93372679327149	pulse	1.0	t			baseline	0.0	118.33694887033198	
24.0	12.033347601085552	car	0.0		44.0	object	car-43.jpg	0.0	118.43656967814604	0.3666355553214089
24.0	12.399983156406961	ISI	1.0		6.0	object	car-43.jpg	0.0	118.80320523346745	0.11669019135297276
25.0	12.516673347759934	car	0.0		46.0	object	car-26.jpg	0.0	118.91989542482042	0.3832717747245624
25.0	12.600066951781628	pulse	0.0	t		object	car-26.jpg	0.0	119.00328902884212	
25.0	12.899945122484496	ISI	1.0		7.0	object	car-26.jpg	0.0	119.30316719954499	0.11669019135297276
26.0	13.016635313837469	car	0.0		46.0	object	car-30.jpg	0.0	119.41985739089796	0.38330467708510696
26.0	13.300051436355716	pulse	0.0	t		object	car-30.jpg	0.0	119.7032735134162	
26.0	13.399939990922576	ISI	1.0		8.0	object	car-30.jpg	0.0	119.80316206798307	0.11668415422172984
27.0	13.516624145144306	car	0.0		46.0	object	car-127.jpg	0.0	119.9198462222048	0.3833067900814058
27.0	13.899930935225711	ISI	1.0		6.0	object	car-127.jpg	0.0	120.3031530122862	0.11668023008678574
28.0	14.016611165312497	car	0.0		45.0	object	car-37.jpg	0.0	120.41983324237299	0.3833149402089475
28.0	14.00870342957569	pulse	0.0	t		object	car-37.jpg	0.0	120.41192550663618	
28.0	14.399926105521445	ISI	1.0		7.0	object	car-37.jpg	0.0	120.80314818258194	0.11668204122543102
29.0	14.516608146746876	car	0.0		46.0	object	car-89.jpg	0.0	120.91983022380737	0.38330739379671286
29.0	14.700032479766378	pulse	0.0	t		object	car-89.jpg	0.0	121.10325455682687	
29.0	14.899915540543589	ISI	1.0		8.0	object	car-89.jpg	0.0	121.30313761760408	0.11668656907204422
30.0	15.016602109615633	car	0.0		46.0	object	car-113.jpg	0.0	121.41982418667612	0.38330588451208314
30.0	15.399907994127716	ISI	1.0		8.0	object	car-113.jpg	0.0	121.8031300711882	0.11668838021432748
30.0	15.431827511929441	pulse	1.0	t		object	car-113.jpg	0.0	121.83504958898993	
31.0	15.516596374342043	car	0.0		46.0	object	car-54.jpg	0.0	121.91981845140253	0.3833028659464617
31.0	15.899899240288505	ISI	1.0		8.0	object	car-54.jpg	0.0	122.303121317349	0.11668928578365012
32.0	16.016588526072155	car	0.0		46.0	object	car-136.jpg	0.0	122.41981060313265	0.38330407337343786
32.0	16.100013221319387	pulse	0.0	t		object	car-136.jpg	0.0	122.50323529837988	
32.0	16.399892599445593	ISI	1.0		7.0	object	car-136.jpg	0.0	122.80311467650608	0.1166877764990204
33.0	16.516580375944613	car	0.0		46.0	object	car-2.jpg	0.0	122.9198024530051	0.3832926028262591
33.0	16.80000012074379	pulse	0.0	t		object	car-2.jpg	0.0	123.20322219780428	
33.0	16.899872978770873	ISI	1.0		7.0	object	car-2.jpg	0.0	123.30309505583136	0.11669683219588478
34.0	17.016569810966757	car	0.0		46.0	object	car-56.jpg	0.0	123.41979188802725	0.3833037715157843
34.0	17.39987358248254	ISI	1.0		7.0	object	car-56.jpg	0.0	123.80309565954303	0.11668566350635956
35.0	17.5165592459889	car	0.0		45.0	object	car-18.jpg	0.0	123.91978132304939	0.38328958425699966
35.0	17.508484583584504	pulse	0.0	t		object	car-18.jpg	0.0	123.911706660645	
35.0	17.8998488302459	ISI	1.0		8.0	object	car-18.jpg	0.0	124.30307090730639	0.11671554730492062
36.0	18.01656437755082	body	0.0		46.0	body	body-127.jpg	0.0	124.41978645461131	0.38329350839194376
36.0	18.19996878803431	pulse	0.0	t		body	body-127.jpg	0.0	124.6031908650948	
36.0	18.399857885942765	ISI	1.0		7.0	body	body-127.jpg	0.0	124.80307996300326	0.11669290806094068
37.0	18.516550794003706	body	0.0		46.0	body	body-113.jpg	0.0	124.9197728710642	0.38333667387996684
37.0	18.899887467883673	ISI	1.0		8.0	body	body-113.jpg	0.0	125.30310954494416	0.1166904932106263
37.0	18.93176563133966	pulse	1.0	t		body	body-113.jpg	0.0	125.33498770840015	
38.0	19.0165779610943	body	0.0		46.0	body	body-60.jpg	0.0	125.41980003815479	0.38326785058598034
38.0	19.39984581168028	ISI	1.0		8.0	body	body-60.jpg	0.0	125.80306788874077	0.11669683219952276
39.0	19.516542643879802	body	0.0		46.0	body	body-123.jpg	0.0	125.9197647209403	0.38329863995386404
39.0	19.599964622415428	pulse	0.0	t		body	body-123.jpg	0.0	126.00318669947592	
39.0	19.899841283833666	ISI	1.0		7.0	body	body-123.jpg	0.0	126.30306336089416	0.11668475793339894
40.0	20.016526041767065	body	0.0		46.0	body	body-78.jpg	0.0	126.41974811882756	0.3833061863697367
40.0	20.299949710701185	pulse	0.0	t		body	body-78.jpg	0.0	126.70317178776168	
40.0	20.399832228136802	ISI	1.0		8.0	body	body-78.jpg	0.0	126.80305430519729	0.11668536164870602
41.0	20.516517589785508	body	0.0		46.0	body	body-45.jpg	0.0	126.919739666846	0.3833061863697367
41.0	20.899823776155245	ISI	1.0		8.0	body	body-45.jpg	0.0	127.30304585321574	0.11668113565610838
42.0	21.016504911811353	body	0.0		45.0	body	body-45.jpg	1.0	127.41972698887184	0.383311317928019
42.0	21.00806258814191	pulse	0.0	t		body	body-45.jpg	1.0	127.4112846652024	
42.0	21.399816229739372	ISI	1.0		7.0	body	body-45.jpg	1.0	127.80303830679986	0.11668838021432748
43.0	21.5165046099537	body	0.0		46.0	body	body-5.jpg	0.0	127.91972668701419	0.3833031678041152
43.0	21.533263081255427	response	0.0	b		body	body-5.jpg	0.0	127.93648515831592	
43.0	21.699921698414983	pulse	0.0	t		body	body-5.jpg	0.0	128.10314377547547	
43.0	21.899807777757815	ISI	1.0		7.0	body	body-5.jpg	0.0	128.3030298548183	0.11668928578365012
44.0	22.016497063541465	body	0.0		46.0	body	body-91.jpg	0.0	128.41971914060196	0.38330528080041404
44.0	22.39980234434188	ISI	1.0		7.0	body	body-91.jpg	0.0	128.80302442140237	0.11668656907204422
44.0	22.432100993955828	pulse	1.0	t		body	body-91.jpg	0.0	128.83532307101632	
45.0	22.516488913413923	body	0.0		46.0	body	body-39.jpg	0.0	128.9197109904744	0.3833055826580676
45.0	22.89979449607199	ISI	1.0		7.0	body	body-39.jpg	0.0	129.30301657313248	0.11668355050642276
46.0	23.016478046578413	body	0.0		46.0	body	body-61.jpg	0.0	129.4197001236389	0.3833095067930117
46.0	23.099906967818242	pulse	0.0	t		body	body-61.jpg	0.0	129.50312904487873	
46.0	23.399787553371425	ISI	1.0		8.0	body	body-61.jpg	0.0	129.80300963043192	0.11668656907204422
47.0	23.51647412244347	body	0.0		46.0	body	body-1.jpg	0.0	129.91969619950396	0.3833037715157843
47.0	23.799891150534677	pulse	0.0	t		body	body-1.jpg	0.0	130.20311322759517	
47.0	23.899777893959254	ISI	1.0		7.0	body	body-1.jpg	0.0	130.30299997101974	0.11666845768195344
48.0	24.016446351641207	word	0.0		46.0	character	word-23.jpg	0.0	130.4196684287017	0.38332429776346544
48.0	24.399770649404672	ISI	1.0		6.0	character	word-23.jpg	0.0	130.80299272646516	0.11668053194443928
49.0	24.51645118134911	word	0.0		45.0	character	word-104.jpg	0.0	130.9196732584096	0.3833158457746322
49.0	24.508244607637607	pulse	0.0	t		character	word-104.jpg	0.0	130.9114666846981	
49.0	24.899767027123744	ISI	1.0		7.0	character	word-104.jpg	0.0	131.30298910418423	0.11668566350635956
50.0	25.016452690630103	word	0.0		46.0	character	word-104.jpg	1.0	131.4196747676906	0.38333486274132156
50.0	25.199904492594214	pulse	0.0	t		character	word-104.jpg	1.0	131.6031265696547	
50.0	25.399787553371425	ISI	1.0		6.0	character	word-104.jpg	1.0	131.80300963043192	0.11668988949531922
51.0	25.516477442866744	word	0.0		46.0	character	word-62.jpg	0.0	131.91969951992724	0.38327177472092444
51.0	25.574863138248475	response	0.0	b		character	word-62.jpg	0.0	131.97808521530897	
51.0	25.89974921758767	ISI	1.0		7.0	character	word-62.jpg	0.0	132.30297129464816	0.11668536164870602
51.0	25.938899708769895	pulse	1.0	t		character	word-62.jpg	0.0	132.3421217858304	
52.0	26.016434579236375	word	0.0		46.0	character	word-24.jpg	0.0	132.41965665629687	0.3833067900814058
52.0	26.39974136931778	ISI	1.0		7.0	character	word-24.jpg	0.0	132.80296344637827	0.11668626721802866
53.0	26.51642763653581	word	0.0		46.0	character	word-141.jpg	0.0	132.9196497135963	0.3833064882273902
53.0	26.59985293549471	pulse	0.0	t		character	word-141.jpg	0.0	133.0030750125552	
53.0	26.8997341247632	ISI	1.0		7.0	character	word-141.jpg	0.0	133.3029562018237	0.11668445607938338
54.0	27.016418580842583	word	0.0		46.0	character	word-129.jpg	0.0	133.41964065790307	0.3833061863660987
54.0	27.299855531462526	pulse	0.0	t		character	word-129.jpg	0.0	133.70307760852302	
54.0	27.39972476720868	ISI	1.0		8.0	character	word-129.jpg	0.0	133.80294684426917	0.11669532291489304
55.0	27.516420090123574	word	0.0		46.0	character	word-88.jpg	0.0	133.91964216718407	0.38329863995386404
55.0	27.89971873007744	ISI	1.0		8.0	character	word-88.jpg	0.0	134.30294080713793	0.11667962637511664
56.0	28.016398356452555	word	0.0		45.0	character	word-63.jpg	0.0	134.41962043351305	0.38331252535499516
56.0	28.008544653035642	pulse	0.0	t		character	word-63.jpg	0.0	134.41176673009613	
56.0	28.39971088180755	ISI	1.0		7.0	character	word-63.jpg	0.0	134.80293295886804	0.11667268367455108
57.0	28.5163835654821	word	0.0		46.0	character	word-72.jpg	0.0	134.9196056425426	0.38331976991321426
57.0	28.699820878333412	pulse	0.0	t		character	word-72.jpg	0.0	135.1030429553939	
57.0	28.899703335395316	ISI	1.0		8.0	character	word-72.jpg	0.0	135.3029254124558	0.11669230434927158
58.0	29.016395639744587	word	0.0		46.0	character	word-100.jpg	0.0	135.41961771680508	0.38330256408880814
58.0	29.399698203833395	ISI	1.0		8.0	character	word-100.jpg	0.0	135.8029202808939	0.11668626721802866
58.0	29.431353899020905	pulse	1.0	t		character	word-100.jpg	0.0	135.8345759760814	
59.0	29.516384471051424	word	0.0		46.0	character	word-137.jpg	0.0	135.91960654811191	0.3833022622347926
59.0	29.899686733286217	ISI	1.0		7.0	character	word-137.jpg	0.0	136.3029088103467	0.1166910969222954
60.0	30.016377830208512	house	0.0		46.0	place	house-85.jpg	0.0	136.419599907269	0.3833031678041152
60.0	30.099799506890122	pulse	0.0	t		place	house-85.jpg	0.0	136.5030215839506	
60.0	30.399680998012627	ISI	1.0		5.0	place	house-85.jpg	0.0	136.80290307507312	0.11668566350272158
61.0	30.51636666151535	house	0.0		46.0	place	house-139.jpg	0.0	136.91958873857584	0.3833061863697367
61.0	30.799786406314524	pulse	0.0	t		place	house-139.jpg	0.0	137.20300848337502	
61.0	30.899672847885086	ISI	1.0		6.0	place	house-139.jpg	0.0	137.30289492494558	0.11668747464500484
62.0	31.01636032253009	house	0.0		46.0	place	house-55.jpg	0.0	137.41958239959058	0.3833049789427605
62.0	31.39966530147285	ISI	1.0		7.0	place	house-55.jpg	0.0	137.80288737853334	0.11668143751376192
63.0	31.516346738986613	house	0.0		45.0	place	house-57.jpg	0.0	137.9195688160471	0.38334240914991824
63.0	31.5077447332078	pulse	0.0	t		place	house-57.jpg	0.0	137.9109668102683	
63.0	31.89968914813653	ISI	1.0		7.0	place	house-57.jpg	0.0	138.30291122519702	0.11669019135297276
64.0	32.016379339489504	house	0.0		46.0	place	house-105.jpg	0.0	138.41960141655	0.38327207658221596
64.0	32.199768053436856	pulse	0.0	t		place	house-105.jpg	0.0	138.60299013049735	
64.0	32.39965141607172	ISI	1.0		7.0	place	house-105.jpg	0.0	138.8028734931322	0.11668445607938338
65.0	32.5163358721511	house	0.0		46.0	place	house-104.jpg	0.0	138.9195579492116	0.3833107142163499
65.0	32.89964658636745	ISI	1.0		7.0	place	house-104.jpg	0.0	139.30286866342794	0.11668143751376192
65.0	32.938485863454844	pulse	1.0	t		place	house-104.jpg	0.0	139.34170794051533	
66.0	33.016328023881215	house	0.0		46.0	place	house-70.jpg	0.0	139.4195501009417	0.3833076956507284
66.0	33.39963571953194	ISI	1.0		7.0	place	house-70.jpg	0.0	139.80285779659243	0.10834838591108564
67.0	33.50798410544303	house	0.0		47.0	place	house-117.jpg	0.0	139.91120618250352	0.39164436953069526
67.0	33.59974577642424	pulse	0.0	t		place	house-117.jpg	0.0	140.00296785348473	
67.0	33.899628474973724	ISI	1.0		6.0	place	house-117.jpg	0.0	140.30285055203422	0.1083547248999821
68.0	34.007983199873706	house	0.0		47.0	place	house-123.jpg	0.0	140.4112052769342	0.3916368231184606
68.0	34.29973750555655	pulse	0.0	t		place	house-123.jpg	0.0	140.70295958261704	
68.0	34.39962002299217	ISI	1.0		5.0	place	house-123.jpg	0.0	140.80284210005266	0.1166883802106895
69.0	34.516308403202856	house	0.0		46.0	place	house-87.jpg	0.0	140.91953048026335	0.3832826415600721
69.0	34.89959104476293	ISI	1.0		5.0	place	house-87.jpg	0.0	141.30281312182342	0.1083698177280894
70.0	35.00796086249102	house	0.0		46.0	place	house-62.jpg	0.0	141.4111829395515	0.39164104910742026
70.0	35.00356009601455	pulse	0.0	t		place	house-62.jpg	0.0	141.40678217307504	
70.0	35.39960191159844	ISI	1.0		6.0	place	house-62.jpg	0.0	141.80282398865893	0.1083586490349262
71.0	35.507960560633364	house	0.0		47.0	place	house-135.jpg	0.0	141.91118263769386	0.3916374268301297
71.0	35.69971643597091	pulse	0.0	t		place	house-135.jpg	0.0	142.1029385130314	
71.0	35.899597987463494	ISI	1.0		6.0	place	house-135.jpg	0.0	142.30282006452398	0.11668355051006074
72.0	36.016281537973555	body	0.0		46.0	body	body-33.jpg	0.0	142.41950361503405	0.3833070919390593
72.0	36.399588629912614	ISI	1.0		6.0	body	body-33.jpg	0.0	142.8028107069731	0.1166877764990204
72.0	36.44561631860779	pulse	1.0	t		body	body-33.jpg	0.0	142.84883839566828	
73.0	36.516276406411635	body	0.0		46.0	body	body-119.jpg	0.0	142.91949848347213	0.38330588451208314
73.0	36.89958229092372	ISI	1.0		7.0	body	body-119.jpg	0.0	143.3028043679842	0.11672098072085646
74.0	37.016303271644574	body	0.0		46.0	body	body-52.jpg	0.0	143.41952534870506	0.383272076578578
74.0	37.099691442246694	pulse	0.0	t		body	body-52.jpg	0.0	143.50291351930719	
74.0	37.39957534822315	ISI	1.0		4.0	body	body-52.jpg	0.0	143.80279742528364	0.1166838523640763
75.0	37.51625920058723	body	0.0		46.0	body	body-96.jpg	0.0	143.91948127764772	0.38330679008504376
75.0	37.79967985095573	pulse	0.0	t		body	body-96.jpg	0.0	144.20290192801622	
75.0	37.89956599067227	ISI	1.0		7.0	body	body-96.jpg	0.0	144.30278806773276	0.11668807835667394
76.0	38.016254069028946	body	0.0		46.0	body	body-30.jpg	0.0	144.41947614608944	0.38333727759163594
76.0	38.39959134662058	ISI	1.0		7.0	body	body-30.jpg	0.0	144.80281342368107	0.11668415422172984
77.0	38.51627550084231	body	0.0		45.0	body	body-76.jpg	0.0	144.9194975779028	0.38330920493535814
77.0	38.50822106282794	pulse	0.0	t		body	body-76.jpg	0.0	144.91144313988843	
77.0	38.89958470577767	ISI	1.0		8.0	body	body-76.jpg	0.0	145.30280678283816	0.11668807835667394
78.0	39.016272784134344	body	0.0		46.0	body	body-76.jpg	1.0	145.41949486119483	0.38327117100925534
78.0	39.19966029065472	pulse	0.0	t		body	body-76.jpg	1.0	145.6028823677152	
78.0	39.3995439551436	ISI	1.0		7.0	body	body-76.jpg	1.0	145.8027660322041	0.12506338987441268
78.0	39.49131498367569	response	1.0	b		body	body-76.jpg	1.0	145.89453706073618	
79.0	39.52460734501801	body	0.0		45.0	body	body-7.jpg	0.0	145.9278294220785	0.3749287618556991
79.0	39.89953610687371	ISI	1.0		7.0	body	body-7.jpg	0.0	146.3027581839342	0.11668536164870602
79.0	39.93734695873718	pulse	1.0	t		body	body-7.jpg	0.0	146.34056903579767	
80.0	40.01622146852242	body	0.0		46.0	body	body-141.jpg	0.0	146.4194435455829	0.3833067900814058
80.0	40.39952825860382	ISI	1.0		7.0	body	body-141.jpg	0.0	146.8027503356643	0.11667419295554282
81.0	40.516202451559366	body	0.0		46.0	body	body-63.jpg	0.0	146.91942452861986	0.3833194680555607
81.0	40.5996561250322	pulse	0.0	t		body	body-63.jpg	0.0	147.0028782020927	
81.0	40.899521919614926	ISI	1.0		4.0	body	body-63.jpg	0.0	147.30274399667542	0.11668445607938338
82.0	41.01620637569431	body	0.0		46.0	body	body-57.jpg	0.0	147.4194284527548	0.3833061863697367
82.0	41.29962732792046	pulse	0.0	t		body	body-57.jpg	0.0	147.70284940498095	
82.0	41.39951256206405	ISI	1.0		7.0	body	body-57.jpg	0.0	147.80273463912454	0.1166871727873513
83.0	41.5161997348514	body	0.0		46.0	body	body-13.jpg	0.0	147.9194218119119	0.3833061863697367
83.0	41.899505921221134	ISI	1.0		7.0	body	body-13.jpg	0.0	148.30272799828163	0.11667841894450248
84.0	42.01618434016564	body	0.0		45.0	body	body-12.jpg	0.0	148.41940641722613	0.38331252535863314
84.0	42.008267548731965	pulse	0.0	t		body	body-12.jpg	0.0	148.41148962579246	
84.0	42.39949686552427	ISI	1.0		5.0	body	body-12.jpg	0.0	148.80271894258476	0.11668838021432748
85.0	42.5161852457386	body	0.0		46.0	body	body-2.jpg	0.0	148.9194073227991	0.3833043752274534
85.0	42.69960565461952	pulse	0.0	t		body	body-2.jpg	0.0	149.10282773168	
85.0	42.89948962096605	ISI	1.0		7.0	body	body-2.jpg	0.0	149.30271169802654	0.11670045447681332
86.0	43.016190075442864	body	0.0		46.0	body	body-23.jpg	0.0	149.41941215250336	0.38329350839194376
86.0	43.39948358383481	ISI	1.0		7.0	body	body-23.jpg	0.0	149.8027056608953	0.11668626721802866
86.0	43.43733458261704	pulse	1.0	t		body	body-23.jpg	0.0	149.84055665967753	
87.0	43.51616985105284	body	0.0		46.0	body	body-86.jpg	0.0	149.91939192811333	0.3833061863697367
87.0	43.89947603742257	ISI	1.0		8.0	body	body-86.jpg	0.0	150.30269811448306	0.11668868206834304
88.0	44.01616471949092	body	0.0		46.0	body	body-85.jpg	0.0	150.4193867965514	0.3833043752310914
88.0	44.09958428317623	pulse	0.0	t		body	body-85.jpg	0.0	150.50280636023672	
88.0	44.39946909472201	ISI	1.0		8.0	body	body-85.jpg	0.0	150.8026911717825	0.11668475793339894
89.0	44.51615385265541	body	0.0		46.0	body	body-85.jpg	1.0	150.9193759297159	0.3833070919390593
89.0	44.799576012308535	pulse	0.0	t		body	body-85.jpg	1.0	151.20279808936903	
89.0	44.899460944594466	ISI	1.0		7.0	body	body-85.jpg	1.0	151.30268302165496	0.1166871727873513
90.0	45.01614811738182	body	0.0		46.0	body	body-124.jpg	0.0	151.4193701944423	0.3833357683106442
90.0	45.08293387651429	response	0.0	b		body	body-124.jpg	0.0	151.48615595357478	
90.0	45.39948388569246	ISI	1.0		6.0	body	body-124.jpg	0.0	151.80270596275295	0.11668838021432748
91.0	45.51617226590679	body	0.0		45.0	body	body-27.jpg	0.0	151.91939434296728	0.3833043752274534
91.0	45.507601351353514	pulse	0.0	t		body	body-27.jpg	0.0	151.910823428414	
91.0	45.89947664113424	ISI	1.0		7.0	body	body-27.jpg	0.0	152.30269871819473	0.11669532291489304
92.0	46.016171964049136	body	0.0		46.0	body	body-10.jpg	0.0	152.41939404110963	0.3832675487319648
92.0	46.199557659430866	pulse	0.0	t		body	body-10.jpg	0.0	152.60277973649136	
92.0	46.3994395127811	ISI	1.0		5.0	body	body-10.jpg	0.0	152.8026615898416	0.11669200249161804
93.0	46.51613151527272	body	0.0		46.0	body	body-139.jpg	0.0	152.9193535923332	0.38329954552682466
93.0	46.89943106079954	ISI	1.0		7.0	body	body-139.jpg	0.0	153.30265313786003	0.11668687092969776
93.0	46.93554638448404	pulse	1.0	t		body	body-139.jpg	0.0	153.33876846154453	
94.0	47.01611793172924	body	0.0		46.0	body	body-128.jpg	0.0	153.41934000878973	0.3833031678041152
94.0	47.399421099533356	ISI	1.0		7.0	body	body-128.jpg	0.0	153.80264317659385	0.11669079506464186
95.0	47.516111894598	body	0.0		46.0	body	body-41.jpg	0.0	153.9193339716585	0.3832892824029841
95.0	47.599578246044985	pulse	0.0	t		body	body-41.jpg	0.0	154.00280032310548	
95.0	47.89940117700098	ISI	1.0		11.0	body	body-41.jpg	0.0	154.30262325406147	0.0999987322029483
96.0	47.99939990920393	baseline	0.0		48.0		baseline	0.0	154.40262198626442	0.4000076067823102
96.0	48.2995283189739	pulse	0.0	t			baseline	0.0	154.7027503960344	
96.0	48.39940751598624	ISI	1.0		11.0		baseline	0.0	154.80262959304673	0.09999903406060184
97.0	48.49940655004684	baseline	0.0		48.0		baseline	0.0	154.90262862710733	0.39999311766950996
97.0	48.89939966771635	ISI	1.0		11.0		baseline	0.0	155.30262174477684	0.0999981284912792
98.0	48.99939779620763	baseline	0.0		47.0		baseline	0.0	155.40261987326812	0.39999432509648614
98.0	49.00367751820886	pulse	0.0	t			baseline	0.0	155.40689959526935	
98.0	49.39939212130412	ISI	1.0		11.0		baseline	0.0	155.8026141983646	0.09999843034529476
99.0	49.49939055164941	baseline	0.0		48.0		baseline	0.0	155.9026126287099	0.3999934195271635
99.0	49.699498797406704	pulse	0.0	t			baseline	0.0	156.1027208744672	
99.0	49.899383971176576	ISI	1.0		11.0		baseline	0.0	156.30260604823707	0.0999987322029483
100.0	49.999382703379524	baseline	0.0		48.0		baseline	0.0	156.40260478044002	0.39999372138481704
100.0	50.39937642476434	ISI	1.0		11.0		baseline	0.0	156.80259850182483	0.0999993359146174
100.0	50.40395377731329	pulse	1.0	t			baseline	0.0	156.80717585437378	
101.0	50.49937576067896	baseline	0.0		48.0		baseline	0.0	156.90259783773945	0.3999946269541397
101.0	50.8993703876331	ISI	1.0		11.0		baseline	0.0	157.3025924646936	0.09999963777227094
102.0	50.99937002540537	baseline	0.0		48.0		baseline	0.0	157.40259210246586	0.39999432509648614
102.0	51.09954594739611	pulse	0.0	t			baseline	0.0	157.5027680244566	
102.0	51.399364350501855	ISI	1.0		11.0		baseline	0.0	157.80258642756235	0.09999510992565774
103.0	51.49935946042751	baseline	0.0		48.0		baseline	0.0	157.902581537488	0.39998708053826704
103.0	51.79945104370199	pulse	0.0	t			baseline	0.0	158.20267312076248	
103.0	51.89934654096578	ISI	1.0		11.0		baseline	0.0	158.30256861802627	0.0999908839330601
104.0	51.99933742489884	baseline	0.0		48.0		baseline	0.0	158.40255950195933	0.400068883664062
104.0	52.3994063085629	ISI	1.0		11.0		baseline	0.0	158.8026283856234	0.09999360064102802
105.0	52.49939990920393	baseline	0.0		47.0		baseline	0.0	158.90262198626442	0.4000103234939161
105.0	52.50370347787248	pulse	0.0	t			baseline	0.0	158.90692555493297	
105.0	52.899410232697846	ISI	1.0		11.0		baseline	0.0	159.30263230975834	0.09999782663362566
106.0	52.99940805933147	baseline	0.0		48.0		baseline	0.0	159.40263013639196	0.3999922121001873
106.0	53.1995175125121	pulse	0.0	t			baseline	0.0	159.6027395895726	
106.0	53.39940027143166	ISI	1.0		11.0		baseline	0.0	159.80262234849215	0.10001080646179616
107.0	53.499411077893456	baseline	0.0		48.0		baseline	0.0	159.90263315495395	0.39998406197628356
107.0	53.89939513986974	ISI	1.0		4.0		baseline	0.0	160.30261721693023	0.11664883700723294
107.0	53.957772383266274	pulse	1.0	t			baseline	0.0	160.36099446032676	
108.0	54.01604397687697	adult	0.0		46.0	face	adult-137.jpg	0.0	160.41926605393746	0.38330256408880814
108.0	54.39934654096578	ISI	1.0		7.0	face	adult-137.jpg	0.0	160.80256861802627	0.11669139877994894
109.0	54.51603793974573	adult	0.0		46.0	face	adult-77.jpg	0.0	160.91926001680622	0.38330467708510696
109.0	54.599495537353505	pulse	0.0	t		face	adult-77.jpg	0.0	161.002717614414	
109.0	54.899342616830836	ISI	1.0		6.0	face	adult-77.jpg	0.0	161.30256469389133	0.11668687093333574
110.0	55.01602948776417	adult	0.0		46.0	face	adult-30.jpg	0.0	161.41925156482466	0.38330467708510696
110.0	55.299446817709395	pulse	0.0	t		face	adult-30.jpg	0.0	161.7026688947699	
110.0	55.39933416484928	ISI	1.0		6.0	face	adult-30.jpg	0.0	161.80255624190977	0.11668868206834304
111.0	55.51602284691762	adult	0.0		46.0	face	adult-78.jpg	0.0	161.9192449239781	0.38330528080041404
111.0	55.899328127718036	ISI	1.0		4.0	face	adult-78.jpg	0.0	162.30255020477853	0.11671222688164562
112.0	56.01604035459968	adult	0.0		45.0	face	adult-82.jpg	0.0	162.41926243166017	0.3832760007135221
112.0	56.003059617876715	pulse	0.0	t		face	adult-82.jpg	0.0	162.4062816949372	
112.0	56.3993163553132	ISI	1.0		6.0	face	adult-82.jpg	0.0	162.8025384323737	0.11668958764130366
113.0	56.51600594295451	adult	0.0		46.0	face	adult-139.jpg	0.0	162.919228020015	0.3833055826544296
113.0	56.699426955550734	pulse	0.0	t		face	adult-139.jpg	0.0	163.10264903261123	
113.0	56.89931152560894	ISI	1.0		6.0	face	adult-139.jpg	0.0	163.30253360266943	0.11668958764130366
114.0	57.01600111325024	adult	0.0		46.0	face	adult-5.jpg	0.0	163.41922319031073	0.38330075295016286
114.0	57.3993018662004	ISI	1.0		6.0	face	adult-5.jpg	0.0	163.8025239432609	0.11669139877631096
114.0	57.44111020420314	pulse	1.0	t		face	adult-5.jpg	0.0	163.84433228126363	
115.0	57.515993264976714	adult	0.0		46.0	face	adult-32.jpg	0.0	163.9192153420372	0.38330014923849376
115.0	57.89929341421521	ISI	1.0		7.0	face	adult-32.jpg	0.0	164.3025154912757	0.11669079506827984
116.0	58.01598420928349	adult	0.0		46.0	face	adult-53.jpg	0.0	164.41920628634398	0.3832708691516018
116.0	58.09937902073216	pulse	0.0	t		face	adult-53.jpg	0.0	164.50260109779265	
116.0	58.39925507843509	ISI	1.0		7.0	face	adult-53.jpg	0.0	164.80247715549558	0.11666845768195344
117.0	58.51592353611704	adult	0.0		46.0	face	adult-53.jpg	1.0	164.91914561317753	0.383324599617481
117.0	58.79936380716026	pulse	0.0	t		face	adult-53.jpg	1.0	165.20258588422075	
117.0	58.899248135734524	ISI	1.0		7.0	face	adult-53.jpg	1.0	165.30247021279501	0.11668566350635956
117.0	58.94935752854508	response	1.0	b		face	adult-53.jpg	1.0	165.35257960560557	
118.0	59.015933799240884	adult	0.0		46.0	face	adult-18.jpg	0.0	165.41915587630137	0.38330528079677606
118.0	59.39923908003766	ISI	1.0		8.0	face	adult-18.jpg	0.0	165.80246115709815	0.11668807836031192
119.0	59.51592715839797	adult	0.0		45.0	face	adult-29.jpg	0.0	165.91914923545846	0.3833061863660987
119.0	59.50787755008423	pulse	0.0	t		face	adult-29.jpg	0.0	165.91109962714472	
119.0	59.89923334476407	ISI	1.0		7.0	face	adult-29.jpg	0.0	166.30245542182456	0.11668475793703692
120.0	60.01591810270111	house	0.0		46.0	place	house-47.jpg	0.0	166.4191401797616	0.3833061863697367
120.0	60.199339115297335	pulse	0.0	t		place	house-47.jpg	0.0	166.60256119235783	
120.0	60.399224289070844	ISI	1.0		4.0	place	house-47.jpg	0.0	166.80244636613133	0.1166910969222954
121.0	60.51591538599314	house	0.0		46.0	place	house-91.jpg	0.0	166.91913746305363	0.3833022622311546
121.0	60.899217648224294	ISI	1.0		7.0	place	house-91.jpg	0.0	167.30243972528478	0.1166871727873513
121.0	60.932795263994194	pulse	1.0	t		place	house-91.jpg	0.0	167.33601734105468	
122.0	61.015904821011645	house	0.0		46.0	place	house-126.jpg	0.0	167.41912689807214	0.38330346966176876
122.0	61.399208290673414	ISI	1.0		7.0	place	house-126.jpg	0.0	167.8024303677339	0.11668807835667394
123.0	61.51589636903009	house	0.0		46.0	place	house-11.jpg	0.0	167.91911844609058	0.3833073937930749
123.0	61.59932227170066	pulse	0.0	t		place	house-11.jpg	0.0	168.00254434876115	
123.0	61.89920376282316	ISI	1.0		7.0	place	house-11.jpg	0.0	168.30242583988365	0.11668415422172984
124.0	62.01588791704489	house	0.0		46.0	place	house-21.jpg	0.0	168.41910999410538	0.3833055826580676
124.0	62.29931279340599	pulse	0.0	t		place	house-21.jpg	0.0	168.70253487046648	
124.0	62.39919349970296	ISI	1.0		7.0	place	house-21.jpg	0.0	168.80241557676345	0.1166910969222954
125.0	62.515884596625256	house	0.0		46.0	place	house-21.jpg	1.0	168.91910667368575	0.38330407337343786
125.0	62.89918866999869	ISI	1.0		6.0	place	house-21.jpg	1.0	169.30241074705918	0.11667057067825226
125.0	62.943758693469135	response	1.0	b		place	house-21.jpg	1.0	169.34698077052963	
126.0	63.015859240676946	house	0.0		45.0	place	house-3.jpg	0.0	169.41908131773744	0.3833200717672298
126.0	63.00633234646375	pulse	0.0	t		place	house-3.jpg	0.0	169.40955442352424	
126.0	63.399179312444176	ISI	1.0		3.0	place	house-3.jpg	0.0	169.80240138950467	0.11668626721802866
127.0	63.515865579662204	house	0.0		46.0	place	house-65.jpg	0.0	169.9190876567227	0.38330528080041404
127.0	63.699287497827754	pulse	0.0	t		place	house-65.jpg	0.0	170.10250957488824	
127.0	63.89917086046262	ISI	1.0		4.0	place	house-65.jpg	0.0	170.3023929375231	0.11668747464500484
128.0	64.01585833510762	house	0.0		46.0	place	house-4.jpg	0.0	170.4190804121681	0.3833354664493527
128.0	64.39919380155698	ISI	1.0		6.0	place	house-4.jpg	0.0	170.80241587861747	0.11669170063760248
128.0	64.44568182147486	pulse	1.0	t		place	house-4.jpg	0.0	170.84890389853535	
129.0	64.51588550219458	house	0.0		46.0	place	house-138.jpg	0.0	170.91910757925507	0.3833028659464617
129.0	64.89918836814104	ISI	1.0		7.0	place	house-138.jpg	0.0	171.30241044520153	0.1166871727873513
130.0	65.01587554092839	house	0.0		46.0	place	house-44.jpg	0.0	171.41909761798888	0.3833061863697367
130.0	65.09930295288359	pulse	0.0	t		place	house-44.jpg	0.0	171.50252502994408	
130.0	65.39918172729813	ISI	1.0		7.0	place	house-44.jpg	0.0	171.80240380435862	0.11671464173196
131.0	65.51589636903009	house	0.0		46.0	place	house-89.jpg	0.0	171.91911844609058	0.38327781185216736
131.0	65.79928743745768	pulse	0.0	t		place	house-89.jpg	0.0	172.20250951451817	
131.0	65.89917418088226	ISI	1.0		7.0	place	house-89.jpg	0.0	172.30239625794275	0.11668777650265838
132.0	66.01586195738491	adult	0.0		46.0	face	adult-58.jpg	0.0	172.4190840344454	0.3833049789427605
132.0	66.39916693632767	ISI	1.0		5.0	face	adult-58.jpg	0.0	172.80238901338817	0.11668264493710012
133.0	66.51584958126477	adult	0.0		45.0	face	adult-135.jpg	0.0	172.91907165832527	0.3833070919390593
133.0	66.50771937725949	pulse	0.0	t		face	adult-135.jpg	0.0	172.91094145431998	
133.0	66.89915667320383	ISI	1.0		6.0	face	adult-135.jpg	0.0	173.30237875026432	0.11668928578365012
134.0	67.01584595898748	adult	0.0		46.0	face	adult-122.jpg	0.0	173.41906803604797	0.3833049789427605
134.0	67.19926516044507	pulse	0.0	t		face	adult-122.jpg	0.0	173.60248723750556	
134.0	67.39915093793024	ISI	1.0		7.0	face	adult-122.jpg	0.0	173.80237301499074	0.11668928578365012
135.0	67.5158402237139	adult	0.0		46.0	face	adult-104.jpg	0.0	173.91906230077439	0.3833022622347926
135.0	67.89914248594869	ISI	1.0		7.0	face	adult-104.jpg	0.0	174.30236456300918	0.11668958763766568
135.0	67.93548480575191	pulse	1.0	t		face	adult-104.jpg	0.0	174.3387068828124	
136.0	68.01583207358635	adult	0.0		46.0	face	adult-106.jpg	0.0	174.41905415064684	0.3833067900814058
136.0	68.39913886366776	ISI	1.0		7.0	face	adult-106.jpg	0.0	174.80236094072825	0.11668505979105248
137.0	68.51582392345881	adult	0.0		46.0	face	adult-15.jpg	0.0	174.9190460005193	0.3832947158225579
137.0	68.59925224098333	pulse	0.0	t		face	adult-15.jpg	0.0	175.00247431804382	
137.0	68.89911863928137	ISI	1.0		7.0	face	adult-15.jpg	0.0	175.30234071634186	0.1167022656154586
138.0	69.01582090489683	adult	0.0		47.0	face	adult-57.jpg	0.0	175.41904298195732	0.391632597122225
138.0	69.29922525501024	pulse	0.0	t		face	adult-57.jpg	0.0	175.70244733207073	
138.0	69.40745350201905	ISI	1.0		6.0	face	adult-57.jpg	0.0	175.81067557907954	0.10835532861528918
139.0	69.51580883063434	adult	0.0		47.0	face	adult-116.jpg	0.0	175.91903090769483	0.3916380305417988
139.0	69.90744686117614	ISI	1.0		6.0	face	adult-116.jpg	0.0	176.31066893823663	0.10834808405707008
140.0	70.01579494523321	adult	0.0		46.0	face	adult-10.jpg	0.0	176.4190170222937	0.3916431621037191
140.0	70.00623514865947	pulse	0.0	t		face	adult-10.jpg	0.0	176.40945722571996	
140.0	70.40743810733693	ISI	1.0		6.0	face	adult-10.jpg	0.0	176.81066018439742	0.10835502675763564
141.0	70.51579313409457	adult	0.0		47.0	face	adult-10.jpg	1.0	176.91901521115506	0.39163833239945234
141.0	70.69921535411413	pulse	0.0	t		face	adult-10.jpg	1.0	177.10243743117462	
141.0	70.90743146649402	ISI	1.0		6.0	face	adult-10.jpg	1.0	177.3106535435545	0.10834778219941654
142.0	71.01577924869343	adult	0.0		46.0	face	adult-23.jpg	0.0	177.41900132575392	0.3916437658153882
142.0	71.00614066756316	response	0.0	b		face	adult-23.jpg	0.0	177.40936274462365	
142.0	71.3991781050172	pulse	0.0	t		face	adult-23.jpg	0.0	177.8024001820777	
142.0	71.40742301450882	ISI	1.0		7.0	face	adult-23.jpg	0.0	177.8106450915693	0.11671977329388028
143.0	71.5241427878027	adult	0.0		46.0	face	adult-55.jpg	0.0	177.9273648648632	0.38327056729758624
143.0	71.90741335510029	ISI	1.0		7.0	face	adult-55.jpg	0.0	178.31063543216078	0.11669079506827984
144.0	72.02410415016857	adult	0.0		46.0	face	adult-13.jpg	0.0	178.42732622722906	0.38330467708510696
144.0	72.09920183094437	pulse	0.0	t		face	adult-13.jpg	0.0	178.50242390800486	
144.0	72.40740882725368	ISI	1.0		7.0	face	adult-13.jpg	0.0	178.81063090431417	0.11668958763766568
145.0	72.52409841489134	adult	0.0		46.0	face	adult-130.jpg	0.0	178.92732049195183	0.38330135666546994
145.0	72.79918088209888	pulse	0.0	t		face	adult-130.jpg	0.0	179.20240295915937	
145.0	72.90739977155681	ISI	1.0		5.0	face	adult-130.jpg	0.0	179.3106218486173	0.11669019135297276
146.0	73.02408996290978	adult	0.0		46.0	face	adult-134.jpg	0.0	179.42731203997027	0.38330256408880814
146.0	73.40739252699859	ISI	1.0		4.0	face	adult-134.jpg	0.0	179.81061460405908	0.10834929148404626
147.0	73.51574181848264	adult	0.0		46.0	face	adult-143.jpg	0.0	179.91896389554313	0.39163833239945234
147.0	73.5061590808109	pulse	0.0	t		face	adult-143.jpg	0.0	179.9093811578714	
147.0	73.90738015088209	ISI	1.0		7.0	face	adult-143.jpg	0.0	180.31060222794258	0.11669200249161804
148.0	74.02407215337371	adult	0.0		46.0	face	adult-59.jpg	0.0	180.4272942304342	0.38327720814049826
148.0	74.19916524592918	pulse	0.0	t		face	adult-59.jpg	0.0	180.60238732298967	
148.0	74.4073493615142	ISI	1.0		7.0	face	adult-59.jpg	0.0	180.8105714385747	0.1167173584435659
149.0	74.52406671995777	adult	0.0		46.0	face	adult-52.jpg	0.0	180.92728879701826	0.3832832452717412
149.0	74.89916754003934	pulse	0.0	t		face	adult-52.jpg	0.0	181.30238961709983	
149.0	74.90734996522951	ISI	1.0		6.0	face	adult-52.jpg	0.0	181.31057204229	0.1167264141367923
150.0	75.0240763793663	adult	0.0		46.0	face	adult-6.jpg	0.0	181.4272984564268	0.3832877731183544
150.0	75.40736415248466	ISI	1.0		7.0	face	adult-6.jpg	0.0	181.81058622954515	0.1166865690756822
151.0	75.52405072156034	adult	0.0		46.0	face	adult-114.jpg	0.0	181.92727279862083	0.3833055826544296
151.0	75.59914115777792	pulse	0.0	t		face	adult-114.jpg	0.0	182.0023632348384	
151.0	75.90735630421477	ISI	1.0		4.0	face	adult-114.jpg	0.0	182.31057838127526	0.11668807835667394
152.0	76.02404438257145	adult	0.0		46.0	face	adult-14.jpg	0.0	182.42726645963194	0.3833031678041152
152.0	76.29912956648695	pulse	0.0	t		face	adult-14.jpg	0.0	182.70235164354744	
152.0	76.40734755037556	ISI	1.0		7.0	face	adult-14.jpg	0.0	182.81056962743605	0.11668807835667394
153.0	76.52403562873224	adult	0.0		46.0	face	adult-107.jpg	0.0	182.92725770579273	0.38330407337343786
153.0	76.90733970210567	ISI	1.0		7.0	face	adult-107.jpg	0.0	183.31056177916616	0.12502233738268842
153.0	76.99915299055647	pulse	1.0	t		face	adult-107.jpg	0.0	183.40237506761696	
154.0	77.03236203948836	adult	0.0		45.0	face	adult-107.jpg	1.0	183.43558411654885	0.37496951248976984
154.0	77.40733155197813	ISI	1.0		7.0	face	adult-107.jpg	1.0	183.81055362903862	0.11668777650265838
155.0	77.52401932848079	adult	0.0		45.0	face	adult-93.jpg	0.0	183.92724140554128	0.3833055826544296
155.0	77.52847925883543	response	0.0	b		face	adult-93.jpg	0.0	183.93170133589592	
155.0	77.69910517647804	pulse	0.0	t		face	adult-93.jpg	0.0	184.10232725353853	
155.0	77.90732491113522	ISI	1.0		11.0	face	adult-93.jpg	0.0	184.3105469881957	0.10003555869843694
156.0	78.00736046983366	baseline	0.0		48.0		baseline	0.0	184.41058254689415	0.39999764551976114
156.0	78.39913735438677	pulse	0.0	t			baseline	0.0	184.80235943144726	
156.0	78.40735811535342	ISI	1.0		11.0		baseline	0.0	184.8105801924139	0.10004612367993104
157.0	78.50740423903335	baseline	0.0		48.0		baseline	0.0	184.91062631609384	0.39994331134221284
157.0	78.90734755037556	ISI	1.0		11.0		baseline	0.0	185.31056962743605	0.09999782663362566
158.0	79.00734537700919	baseline	0.0		48.0		baseline	0.0	185.41056745406968	0.3999934195271635
158.0	79.09912666866512	pulse	0.0	t			baseline	0.0	185.5023487457256	
158.0	79.40733879653635	ISI	1.0		11.0		baseline	0.0	185.81056087359684	0.09999903405696386
159.0	79.50733783059331	baseline	0.0		48.0		baseline	0.0	185.9105599076538	0.3999955325234623
159.0	79.79911839779379	pulse	0.0	t			baseline	0.0	186.20234047485428	
159.0	79.90733336311678	ISI	1.0		11.0		baseline	0.0	186.31055544017727	0.09999661920664948
160.0	80.00732998232343	baseline	0.0		48.0		baseline	0.0	186.41055205938392	0.3999946269541397
160.0	80.40732460927757	ISI	1.0		11.0		baseline	0.0	186.81054668633806	0.09999993962992448
160.0	80.49910529722183	pulse	1.0	t			baseline	0.0	186.90232737428232	
161.0	80.50732454890749	baseline	0.0		48.0		baseline	0.0	186.91054662596798	0.39999251395784086
161.0	80.90731706286533	ISI	1.0		11.0		baseline	0.0	187.31053913992582	0.09999692106430302
162.0	81.00731398392963	baseline	0.0		48.0		baseline	0.0	187.41053606099013	0.39999432509648614
162.0	81.19909038550759	pulse	0.0	t			baseline	0.0	187.60231246256808	
162.0	81.40730830902612	ISI	1.0		11.0		baseline	0.0	187.8105303860866	0.0999987322029483
163.0	81.50730704122907	baseline	0.0		48.0		baseline	0.0	187.91052911828956	0.3999979473737767
163.0	81.89908241649755	pulse	0.0	t			baseline	0.0	188.30230449355804	
163.0	81.90730498860285	ISI	1.0		11.0		baseline	0.0	188.31052706566334	0.09999692106430302
164.0	82.00730190966715	baseline	0.0		48.0		baseline	0.0	188.41052398672764	0.39999251395784086
164.0	82.40729442362499	ISI	1.0		11.0		baseline	0.0	188.81051650068548	0.09999692106430302
165.0	82.50729134468929	baseline	0.0		48.0		baseline	0.0	188.91051342174978	0.39999704180445406
165.0	82.59908682360037	pulse	0.0	t			baseline	0.0	189.00230890066086	
165.0	82.90728838649375	ISI	1.0		11.0		baseline	0.0	189.31051046355424	0.09999510992565774
166.0	83.0072834964194	baseline	0.0		48.0		baseline	0.0	189.4105055734799	0.39999885294309934
166.0	83.2990586302003	pulse	0.0	t			baseline	0.0	189.7022807072608	
166.0	83.4072823493625	ISI	1.0		11.0		baseline	0.0	189.810504426423	0.09999390249868156
167.0	83.50727625186119	baseline	0.0		48.0		baseline	0.0	189.91049832892168	0.3999946269541397
167.0	83.90727087881532	ISI	1.0		11.0		baseline	0.0	190.31049295587582	0.10000295819190796
167.0	83.99904945376329	pulse	1.0	t			baseline	0.0	190.40227153082378	
168.0	84.00727383700723	baseline	0.0		48.0		baseline	0.0	190.41049591406772	0.3999888916805503
168.0	84.40726272868778	ISI	1.0		11.0		baseline	0.0	190.81048480574827	0.09999963777227094
169.0	84.50726236646005	baseline	0.0		48.0		baseline	0.0	190.91048444352055	0.3999946269541397
169.0	84.69903906989566	pulse	0.0	t			baseline	0.0	191.10226114695615	
169.0	84.9072569934142	ISI	1.0		11.0		baseline	0.0	191.31047907047468	0.09999601549498038
170.0	85.00725300890917	baseline	0.0		48.0		baseline	0.0	191.41047508596967	0.39999704180445406
170.0	85.39908090721292	pulse	0.0	t			baseline	0.0	191.8023029842734	
170.0	85.40725005071363	ISI	1.0		11.0		baseline	0.0	191.81047212777412	0.09999993962992448
171.0	85.50724999034355	baseline	0.0		48.0		baseline	0.0	191.91047206740404	0.3999907028155576
171.0	85.90724069315911	ISI	1.0		11.0		baseline	0.0	192.3104627702196	0.0999975247796101
172.0	86.00723821793872	baseline	0.0		48.0		baseline	0.0	192.4104602949992	0.39999824923143024
172.0	86.09900985018248	pulse	0.0	t			baseline	0.0	192.50223192724297	
172.0	86.40723646717015	ISI	1.0		11.0		baseline	0.0	192.81045854423064	0.0999954117796733
173.0	86.50723187894982	baseline	0.0		48.0		baseline	0.0	192.91045395601031	0.3999949288117932
173.0	86.79901123872332	pulse	0.0	t			baseline	0.0	193.20223331578381	
173.0	86.90722680776162	ISI	1.0		11.0		baseline	0.0	193.3104488848221	0.09999692106066504
174.0	87.00722372882228	baseline	0.0		48.0		baseline	0.0	193.41044580588277	0.39998255269165384
174.0	87.40720628151394	ISI	1.0		11.0		baseline	0.0	193.81042835857443	0.10001141017710324
174.0	87.49900025114766	pulse	1.0	t			baseline	0.0	193.90222232820815	
175.0	87.50721769169104	baseline	0.0		48.0		baseline	0.0	193.91043976875153	0.3999928158154944
175.0	87.90721050750653	ISI	1.0		11.0		baseline	0.0	194.31043258456702	0.10001593802735442
176.0	88.00722644553389	baseline	0.0		48.0		baseline	0.0	194.41044852259438	0.39997711927208
176.0	88.19898503757577	pulse	0.0	t			baseline	0.0	194.60220711463626	
176.0	88.40720356480597	ISI	1.0		11.0		baseline	0.0	194.81042564186646	0.0999993359146174
177.0	88.50720290072059	baseline	0.0		48.0		baseline	0.0	194.91042497778108	0.39999583438111586
177.0	88.89897525742344	pulse	0.0	t			baseline	0.0	195.30219733448394	
177.0	88.9071987351017	ISI	1.0		11.0		baseline	0.0	195.3104208121622	0.09999661920664948
178.0	89.00719535430835	baseline	0.0		48.0		baseline	0.0	195.41041743136884	0.3999798359836859
178.0	89.40717519029204	ISI	1.0		11.0		baseline	0.0	195.81039726735253	0.10001231574642588
179.0	89.50718750603846	baseline	0.0		48.0		baseline	0.0	195.91040958309895	0.3999922121001873
179.0	89.59896426984778	pulse	0.0	t			baseline	0.0	196.00218634690827	
179.0	89.90717971813865	ISI	1.0		7.0		baseline	0.0	196.31040179519914	0.11664944072254002
180.0	90.02382915886119	body	0.0		46.0	body	body-42.jpg	0.0	196.42705123592168	0.383311317928019
180.0	90.29892219104659	pulse	0.0	t		body	body-42.jpg	0.0	196.70214426810708	
180.0	90.40714047678921	ISI	1.0		4.0	body	body-42.jpg	0.0	196.8103625538497	0.11670800088904798
181.0	90.52384847767826	body	0.0		46.0	body	body-17.jpg	0.0	196.92707055473875	0.38324702248792164
181.0	90.90709550016618	ISI	1.0		7.0	body	body-17.jpg	0.0	197.31031757722667	0.11668626721802866
181.0	90.99887105654852	pulse	1.0	t		body	body-17.jpg	0.0	197.40209313360901	
182.0	91.02378176738421	body	0.0		46.0	body	body-132.jpg	0.0	197.4270038444447	0.3832781137098209
182.0	91.40705988109403	ISI	1.0		7.0	body	body-132.jpg	0.0	197.81028195815452	0.11671584915893618
183.0	91.52377573025296	body	0.0		46.0	body	body-87.jpg	0.0	197.92699780731346	0.3832956213882426
183.0	91.69886308753485	pulse	0.0	t		body	body-87.jpg	0.0	198.10208516459534	
183.0	91.9070713516412	ISI	1.0		7.0	body	body-87.jpg	0.0	198.3102934287017	0.1166944173455704
184.0	92.02376576898678	body	0.0		46.0	body	body-62.jpg	0.0	198.42698784604727	0.3833070919390593
184.0	92.39884968510523	pulse	0.0	t		body	body-62.jpg	0.0	198.80207176216572	
184.0	92.40707286092584	ISI	1.0		6.0	body	body-62.jpg	0.0	198.81029493798633	0.11668536164870602
185.0	92.52375822257454	body	0.0		46.0	body	body-46.jpg	0.0	198.92698029963503	0.3833076956507284
185.0	92.90706591822527	ISI	1.0		6.0	body	body-46.jpg	0.0	199.31028799528576	0.1166838523640763
186.0	93.02374977058935	body	0.0		46.0	body	body-24.jpg	0.0	199.42697184764984	0.3833064882273902
186.0	93.09884443279952	pulse	0.0	t		body	body-24.jpg	0.0	199.50206650986001	
186.0	93.40705625881674	ISI	1.0		6.0	body	body-24.jpg	0.0	199.81027833587723	0.11668868206834304
187.0	93.52374494088508	body	0.0		46.0	body	body-129.jpg	0.0	199.92696701794557	0.3833076956507284
187.0	93.79883133222756	pulse	0.0	t		body	body-129.jpg	0.0	200.20205340928806	
187.0	93.90705263653581	ISI	1.0		6.0	body	body-129.jpg	0.0	200.3102747135963	0.1166904932106263
188.0	94.02374312974644	body	0.0		46.0	body	body-144.jpg	0.0	200.42696520680693	0.3832992436691711
188.0	94.4070423734156	ISI	1.0		7.0	body	body-144.jpg	0.0	200.8102644504761	0.11668687092969776
188.0	94.4988197409366	pulse	1.0	t		body	body-144.jpg	0.0	200.9020418179971	
189.0	94.5237292443453	body	0.0		46.0	body	body-130.jpg	0.0	200.9269513214058	0.3833037715157843
189.0	94.90703301586109	ISI	1.0		7.0	body	body-130.jpg	0.0	201.31025509292158	0.11668747464500484
190.0	95.0237204905061	body	0.0		46.0	body	body-37.jpg	0.0	201.42694256756658	0.3833070919390593
190.0	95.19881418677687	pulse	0.0	t		body	body-37.jpg	0.0	201.60203626383736	
190.0	95.40702758244515	ISI	1.0		4.0	body	body-37.jpg	0.0	201.81024965950564	0.11668415422172984
191.0	95.52371173666688	body	0.0		46.0	body	body-94.jpg	0.0	201.92693381372737	0.38326090788905276
191.0	95.89879806763565	pulse	0.0	t		body	body-94.jpg	0.0	202.30202014469614	
191.0	95.90697264455594	ISI	1.0		6.0	body	body-94.jpg	0.0	202.31019472161643	0.1167342624066805
192.0	96.02370690696262	car	0.0		46.0	object	car-144.jpg	0.0	202.4269289840231	0.38332158105185954
192.0	96.40702848801448	ISI	1.0		6.0	object	car-144.jpg	0.0	202.81025056507497	0.11666966510892962
193.0	96.5236981531234	car	0.0		46.0	object	car-73.jpg	0.0	202.9269202301839	0.3833375794492895
193.0	96.59881786942424	pulse	0.0	t		object	car-73.jpg	0.0	203.00203994648473	
193.0	96.9070357325727	ISI	1.0		7.0	object	car-73.jpg	0.0	203.31025780963319	0.11668868206834304
194.0	97.02372441464104	car	0.0		46.0	object	car-72.jpg	0.0	203.42694649170153	0.3833016585194855
194.0	97.29881442826081	pulse	0.0	t		object	car-72.jpg	0.0	203.7020365053213	
194.0	97.40702607316052	ISI	1.0		7.0	object	car-72.jpg	0.0	203.810248150221	0.11669532291489304
195.0	97.52372139607542	car	0.0		46.0	object	car-72.jpg	1.0	203.9269434731359	0.383298639957502
195.0	97.90702003603292	ISI	1.0		7.0	object	car-72.jpg	1.0	204.3102421130934	0.12502233738268842
195.0	97.98217356026726	response	1.0	b		object	car-72.jpg	1.0	204.38539563732775	
195.0	97.99880796853176	pulse	1.0	t		object	car-72.jpg	1.0	204.40203004559226	
196.0	98.0320423734156	car	0.0		45.0	object	car-32.jpg	0.0	204.4352644504761	0.3749692106321163
196.0	98.40701158404772	ISI	1.0		7.0	object	car-32.jpg	0.0	204.8102336611082	0.11669019135297276
197.0	98.5237017754007	car	0.0		46.0	object	car-77.jpg	0.0	204.9269238524612	0.3832714728669089
197.0	98.6987583433147	pulse	0.0	t		object	car-77.jpg	0.0	205.10198042037518	
197.0	98.9069732482676	ISI	1.0		5.0	object	car-77.jpg	0.0	205.3101953253281	0.11668626721802866
198.0	99.02365951548563	car	0.0		46.0	object	car-83.jpg	0.0	205.42688159254612	0.3833070919390593
198.0	99.39874554460039	pulse	0.0	t		object	car-83.jpg	0.0	205.80196762166088	
198.0	99.40696660742469	ISI	1.0		7.0	object	car-83.jpg	0.0	205.81018868448518	0.11668626721802866
199.0	99.52365287464272	car	0.0		46.0	object	car-36.jpg	0.0	205.9268749517032	0.3833067900814058
199.0	99.90695966472413	ISI	1.0		7.0	object	car-36.jpg	0.0	206.31018174178462	0.1167101138853468
200.0	100.02366977860947	car	0.0		46.0	object	car-90.jpg	0.0	206.42689185566996	0.38328173598711146
200.0	100.09874783871055	pulse	0.0	t		object	car-90.jpg	0.0	206.50196991577104	
200.0	100.40695151459659	ISI	1.0		6.0	object	car-90.jpg	0.0	206.81017359165708	0.11668566350635956
201.0	100.52363717810294	car	0.0		46.0	object	car-141.jpg	0.0	206.92685925516344	0.38330588451208314
201.0	100.79872145644913	pulse	0.0	t		object	car-141.jpg	0.0	207.20194353350962	
201.0	100.90694306261503	ISI	1.0		5.0	object	car-141.jpg	0.0	207.31016513967552	0.11668898392599658
202.0	101.02363204654102	car	0.0		46.0	object	car-6.jpg	0.0	207.42685412360152	0.38330407337343786
202.0	101.40693611991446	ISI	1.0		7.0	object	car-6.jpg	0.0	207.81015819697495	0.11668747464136686
202.0	101.49871258186613	pulse	1.0	t		object	car-6.jpg	0.0	207.90193465892662	
203.0	101.52362359455583	car	0.0		46.0	object	car-97.jpg	0.0	207.92684567161632	0.38330467708874494
203.0	101.90692827164457	ISI	1.0		7.0	object	car-97.jpg	0.0	208.31015034870506	0.11668626721802866
204.0	102.0236145388626	house	0.0		46.0	place	house-140.jpg	0.0	208.4268366159231	0.38330588451208314
204.0	102.19870612213344	pulse	0.0	t		place	house-140.jpg	0.0	208.60192819919394	
204.0	102.40692042337469	ISI	1.0		6.0	place	house-140.jpg	0.0	208.81014250043518	0.11668566350272158
205.0	102.52360608687741	house	0.0		46.0	place	house-14.jpg	0.0	208.9268281639379	0.3833095067930117
205.0	102.8986727971751	pulse	0.0	t		place	house-14.jpg	0.0	209.3018948742356	
205.0	102.90691559367042	ISI	1.0		7.0	place	house-14.jpg	0.0	209.3101376707309	0.11667358924023574
206.0	103.02358918291065	house	0.0		46.0	place	house-14.jpg	1.0	209.42681125997115	0.38331856248987606
206.0	103.39867973987202	response	0.0	b		place	house-14.jpg	1.0	209.8019018169325	
206.0	103.40690774540053	ISI	1.0		7.0	place	house-14.jpg	1.0	209.81012982246102	0.11670890645837062
207.0	103.5236166518589	house	0.0		46.0	place	house-144.jpg	0.0	209.9268387289194	0.38328233969878056
207.0	103.59865728174555	pulse	0.0	t		place	house-144.jpg	0.0	210.00187935880604	
207.0	103.90689899155768	ISI	1.0		7.0	place	house-144.jpg	0.0	210.31012106861817	0.11668415422536782
208.0	104.02358314578305	house	0.0		46.0	place	house-90.jpg	0.0	210.42680522284354	0.383307997504744
208.0	104.29867104640653	pulse	0.0	t		place	house-90.jpg	0.0	210.70189312346702	
208.0	104.4068911432878	ISI	1.0		7.0	place	house-90.jpg	0.0	210.81011322034828	0.11668687093333574
209.0	104.52357801422113	house	0.0		46.0	place	house-51.jpg	0.0	210.92680009128162	0.3833357683070062
209.0	104.90691378252814	ISI	1.0		7.0	place	house-51.jpg	0.0	211.31013585958863	0.12502203552867286
209.0	104.99873099511387	pulse	1.0	t		place	house-51.jpg	0.0	211.40195307217436	
210.0	105.03193581805681	house	0.0		45.0	place	house-49.jpg	0.0	211.4351578951173	0.3749704180590925
210.0	105.4069062361159	ISI	1.0		6.0	place	house-49.jpg	0.0	211.8101283131764	0.11668747464500484
211.0	105.5235937107609	house	0.0		46.0	place	house-59.jpg	0.0	211.9268157878214	0.3832735858632077
211.0	105.69865148610188	pulse	0.0	t		place	house-59.jpg	0.0	212.10187356316237	
211.0	105.90686729662411	ISI	1.0		7.0	place	house-59.jpg	0.0	212.3100893736846	0.1166877764990204
212.0	106.02355507312313	house	0.0		46.0	place	house-29.jpg	0.0	212.42677715018363	0.3833055826544296
212.0	106.39863929109924	pulse	0.0	t		place	house-29.jpg	0.0	212.80186136815973	
212.0	106.40686065577756	ISI	1.0		5.0	place	house-29.jpg	0.0	212.81008273283805	0.11668536164870602
213.0	106.52354601742627	house	0.0		46.0	place	house-56.jpg	0.0	212.92676809448676	0.38330588451208314
213.0	106.90685190193835	ISI	1.0		6.0	place	house-56.jpg	0.0	213.31007397899884	0.11668868207198102
214.0	107.02354058401033	house	0.0		46.0	place	house-38.jpg	0.0	213.42676266107082	0.3833034696581308
214.0	107.09863132208557	pulse	0.0	t		place	house-38.jpg	0.0	213.50185339914606	
214.0	107.40684405366846	ISI	1.0		7.0	place	house-38.jpg	0.0	213.81006613072896	0.11668505979105248
215.0	107.52352911345952	house	0.0		46.0	place	house-133.jpg	0.0	213.92675119052	0.3833110160740034
215.0	107.798615504802	pulse	0.0	t		place	house-133.jpg	0.0	214.2018375818625	
215.0	107.90684012953352	ISI	1.0		11.0	place	house-133.jpg	0.0	214.310062206594	0.09999963777227094
216.0	108.00683976730579	baseline	0.0		48.0		baseline	0.0	214.41006184436628	0.3999692710058298
216.0	108.38192519270524	response	0.0	b			baseline	0.0	214.78514726976573	
216.0	108.40680903831162	ISI	1.0		11.0		baseline	0.0	214.8100311153721	0.0999987322029483
216.0	108.49860512093801	pulse	1.0	t			baseline	0.0	214.9018271979985	
217.0	108.50680777051457	baseline	0.0		48.0		baseline	0.0	214.91002984757506	0.4000039845050196
217.0	108.90681175501959	ISI	1.0		11.0		baseline	0.0	215.31003383208008	0.09999993962992448
218.0	109.00681169464951	baseline	0.0		48.0		baseline	0.0	215.41003377171	0.40000428636267316
218.0	109.19860077420162	pulse	0.0	t			baseline	0.0	215.6018228512621	
218.0	109.40681598101219	ISI	1.0		11.0		baseline	0.0	215.81003805807268	0.09999692106066504
219.0	109.50681290207285	baseline	0.0		48.0		baseline	0.0	215.91003497913334	0.3999961362387694
219.0	109.89856292139302	pulse	0.0	t			baseline	0.0	216.3017849984535	
219.0	109.90680903831162	ISI	1.0		11.0		baseline	0.0	216.3100311153721	0.0999960154913424
220.0	110.00680505380296	baseline	0.0		48.0		baseline	0.0	216.41002713086345	0.3999946269541397
220.0	110.4067996807571	ISI	1.0		11.0		baseline	0.0	216.8100217578176	0.10004340697196312
221.0	110.50684308772907	baseline	0.0		48.0		baseline	0.0	216.91006516478956	0.3999484429041331
221.0	110.59857457305407	pulse	0.0	t			baseline	0.0	217.00179665011456	
221.0	110.9067915306332	ISI	1.0		11.0		baseline	0.0	217.3100136076937	0.09999873219931033
222.0	111.00679026283251	baseline	0.0		48.0		baseline	0.0	217.410012339893	0.39999523066944676
222.0	111.298567811471	pulse	0.0	t			baseline	0.0	217.7017898885315	
222.0	111.40678549350196	ISI	1.0		11.0		baseline	0.0	217.81000757056245	0.09999782662998769
223.0	111.50678332013194	baseline	0.0		48.0		baseline	0.0	217.91000539719244	0.4000646576714644
223.0	111.90684797780341	ISI	1.0		11.0		baseline	0.0	218.3100700548639	0.0999987322029483
223.0	111.99862413790106	pulse	1.0	t			baseline	0.0	218.40184621496155	
224.0	112.00684671000636	baseline	0.0		48.0		baseline	0.0	218.41006878706685	0.39999040096154204
224.0	112.4068371109679	ISI	1.0		11.0		baseline	0.0	218.8100591880284	0.10000144891091622
225.0	112.50683855987882	baseline	0.0		48.0		baseline	0.0	218.9100606369393	0.3999922121038253
225.0	112.69861677259905	pulse	0.0	t			baseline	0.0	219.10183884965954	
225.0	112.90683077198264	ISI	1.0		11.0		baseline	0.0	219.31005284904313	0.09999903405696386
226.0	113.0068298060396	baseline	0.0		48.0		baseline	0.0	219.4100518831001	0.3999928158154944
226.0	113.39860125717314	pulse	0.0	t			baseline	0.0	219.80182333423363	
226.0	113.4068226218551	ISI	1.0		11.0		baseline	0.0	219.8100446989156	0.09999903406060184
227.0	113.5068216559157	baseline	0.0		48.0		baseline	0.0	219.9100437329762	0.39999492880815524
227.0	113.90681658472386	ISI	1.0		4.0		baseline	0.0	220.31003866178435	0.11665155371520086
228.0	114.02346813843906	house	0.0		46.0	place	house-27.jpg	0.0	220.42669021549955	0.3832696617282636
228.0	114.09852325744578	pulse	0.0	t		place	house-27.jpg	0.0	220.50174533450627	
228.0	114.40673780016732	ISI	1.0		7.0	place	house-27.jpg	0.0	220.8099598772278	0.11668596536037512
229.0	114.5234237655277	house	0.0		46.0	place	house-13.jpg	0.0	220.9266458425882	0.3833067900814058
229.0	114.79850713830456	pulse	0.0	t		place	house-13.jpg	0.0	221.20172921536505	
229.0	114.9067305556091	ISI	1.0		8.0	place	house-13.jpg	0.0	221.3099526326696	0.11668807836031192
230.0	115.02341863396941	house	0.0		46.0	place	house-129.jpg	0.0	221.4266407110299	0.3833043752274534
230.0	115.40672300919687	ISI	1.0		7.0	place	house-129.jpg	0.0	221.80994508625736	0.1250196206747205
230.0	115.49849826372156	pulse	1.0	t		place	house-129.jpg	0.0	221.90172034078205	
231.0	115.53174262987159	house	0.0		45.0	place	house-23.jpg	0.0	221.93496470693208	0.37497222919773776
231.0	115.90671485906933	ISI	1.0		8.0	place	house-23.jpg	0.0	222.30993693612982	0.11668475793703692
232.0	116.02339961700636	house	0.0		46.0	place	house-69.jpg	0.0	222.42662169406685	0.38330860122005106
232.0	116.19848818171522	pulse	0.0	t		place	house-69.jpg	0.0	222.6017102587757	
232.0	116.40670821822641	ISI	1.0		8.0	place	house-69.jpg	0.0	222.8099302952869	0.11668868207198102
233.0	116.5233969002984	house	0.0		46.0	place	house-81.jpg	0.0	222.92661897735888	0.3833055826544296
233.0	116.89847538299728	pulse	0.0	t		place	house-81.jpg	0.0	223.30169746005777	
233.0	116.90670248295282	ISI	1.0		7.0	place	house-81.jpg	0.0	223.30992456001331	0.1166832486524072
234.0	117.02338573160523	house	0.0		46.0	place	house-7.jpg	0.0	223.42660780866572	0.3833055826544296
234.0	117.40669131425966	ISI	1.0		8.0	place	house-7.jpg	0.0	223.80991339132015	0.1166871727873513
235.0	117.52337848704701	house	0.0		46.0	place	house-32.jpg	0.0	223.9266005641075	0.3833070919390593
235.0	117.59854438740149	pulse	0.0	t		place	house-32.jpg	0.0	224.00176646446198	
235.0	117.90668557898607	ISI	1.0		7.0	place	house-32.jpg	0.0	224.30990765604656	0.11668807835667394
236.0	118.02337365734274	house	0.0		46.0	place	house-116.jpg	0.0	224.42659573440324	0.3833055826580676
236.0	118.29845823754658	pulse	0.0	t		place	house-116.jpg	0.0	224.70168031460707	
236.0	118.40667924000081	ISI	1.0		6.0	place	house-116.jpg	0.0	224.8099013170613	0.1166838523640763
237.0	118.52336309236489	house	0.0		46.0	place	house-95.jpg	0.0	224.92658516942538	0.3833067900814058
237.0	118.9066698824463	ISI	1.0		7.0	place	house-95.jpg	0.0	225.30989195950679	0.12504376919969218
237.0	118.99844815553661	pulse	1.0	t		place	house-95.jpg	0.0	225.4016702325971	
238.0	119.03171365164599	house	0.0		45.0	place	house-103.jpg	0.0	225.43493572870648	0.3749517029536946
238.0	119.40666535459968	ISI	1.0		7.0	place	house-103.jpg	0.0	225.80988743166017	0.11668204122543102
239.0	119.52334739582511	house	0.0		46.0	place	house-8.jpg	0.0	225.9265694728856	0.3833101105046808
239.0	119.69840909530103	pulse	0.0	t		place	house-8.jpg	0.0	226.10163117236152	
239.0	119.9066575063298	ISI	1.0		8.0	place	house-8.jpg	0.0	226.30987958339028	0.11668656907204422
240.0	120.02334407540184	word	0.0		46.0	character	word-66.jpg	0.0	226.42656615246233	0.3833363720223133
240.0	120.39845696974953	pulse	0.0	t		character	word-66.jpg	0.0	226.80167904681002	
240.0	120.40668044742415	ISI	1.0		6.0	character	word-66.jpg	0.0	226.80990252448464	0.11668747464500484
241.0	120.52336792206916	word	0.0		46.0	character	word-20.jpg	0.0	226.92658999912965	0.38327268029388506
241.0	120.90664060236304	ISI	1.0		7.0	character	word-20.jpg	0.0	227.30986267942353	0.11668505979105248
242.0	121.0233256621541	word	0.0		46.0	character	word-27.jpg	0.0	227.42654773921458	0.38330467708510696
242.0	121.09851812588386	pulse	0.0	t		character	word-27.jpg	0.0	227.50174020294435	
242.0	121.4066303392392	ISI	1.0		7.0	character	word-27.jpg	0.0	227.8098524162997	0.11668838021432748
243.0	121.52331871945353	word	0.0		46.0	character	word-106.jpg	0.0	227.92654079651402	0.38330528080041404
243.0	121.79840058294576	pulse	0.0	t		character	word-106.jpg	0.0	228.20162266000625	
243.0	121.90662400025394	ISI	1.0		6.0	character	word-106.jpg	0.0	228.30984607731443	0.11668807835667394
244.0	122.02331207861062	word	0.0		46.0	character	word-134.jpg	0.0	228.4265341556711	0.3833043752274534
244.0	122.40661645383807	ISI	1.0		7.0	character	word-134.jpg	0.0	228.80983853089856	0.11667509852850344
244.0	122.49839110465109	pulse	1.0	t		character	word-134.jpg	0.0	228.90161318171158	
245.0	122.52329155236657	word	0.0		46.0	character	word-134.jpg	1.0	228.92651362942706	0.3833173550592619
245.0	122.90660890742583	ISI	1.0		6.0	character	word-134.jpg	1.0	229.30983098448633	0.1083547248999821
246.0	123.01496363232582	word	0.0		47.0	character	word-112.jpg	0.0	229.4181857093863	0.3916353138338309
246.0	123.19004797104208	response	0.0	b		character	word-112.jpg	0.0	229.59327004810257	
246.0	123.19836532610498	pulse	0.0	t		character	word-112.jpg	0.0	229.60158740316547	
246.0	123.40659894615965	ISI	1.0		6.0	character	word-112.jpg	0.0	229.80982102322014	0.10835653603862738
247.0	123.51495548219827	word	0.0		47.0	character	word-89.jpg	0.0	229.91817755925877	0.3916401435380976
247.0	123.89836731835749	pulse	0.0	t		character	word-89.jpg	0.0	230.30158939541798	
247.0	123.90659562573637	ISI	1.0		5.0	character	word-89.jpg	0.0	230.30981770279686	0.1083495933416998
248.0	124.01494521907807	word	0.0		47.0	character	word-56.jpg	0.0	230.41816729613856	0.3916407472497667
248.0	124.40658596632784	ISI	1.0		6.0	character	word-56.jpg	0.0	230.80980804338833	0.10835261190368328
249.0	124.51493857823152	word	0.0		47.0	character	word-103.jpg	0.0	230.918160655292	0.3916395398264285
249.0	124.59837987558785	pulse	0.0	t		character	word-103.jpg	0.0	231.00160195264834	
249.0	124.90657811805795	ISI	1.0		6.0	character	word-103.jpg	0.0	231.30980019511844	0.10835532861528918
250.0	125.01493344667324	word	0.0		47.0	character	word-78.jpg	0.0	231.41815552373373	0.39161146716651274
250.0	125.29835288961476	pulse	0.0	t		character	word-78.jpg	0.0	231.70157496667525	
250.0	125.40654491383975	ISI	1.0		6.0	character	word-78.jpg	0.0	231.80976699090024	0.11671343430498382
251.0	125.52325834814474	word	0.0		46.0	character	word-49.jpg	0.0	231.92648042520523	0.3832947158225579
251.0	125.9065530639673	ISI	1.0		7.0	character	word-49.jpg	0.0	232.30977514102779	0.11669773776520742
251.0	125.99834099646614	pulse	1.0	t		character	word-49.jpg	0.0	232.40156307352663	
252.0	126.0232508017325	adult	0.0		46.0	face	adult-97.jpg	0.0	232.426472878793	0.38330467708510696
252.0	126.40655547881761	ISI	1.0		7.0	face	adult-97.jpg	0.0	232.8097775558781	0.11668747464500484
253.0	126.52324295346261	adult	0.0		46.0	face	adult-97.jpg	1.0	232.9264650305231	0.38336233168593026
253.0	126.69845769420499	pulse	0.0	t		face	adult-97.jpg	1.0	233.10167977126548	
253.0	126.90660528514854	ISI	1.0		7.0	face	adult-97.jpg	1.0	233.30982736220903	0.11666785396664636
253.0	126.94381634806996	response	1.0	b		face	adult-97.jpg	1.0	233.34703842513045	
254.0	127.02327313911519	adult	0.0		46.0	face	adult-95.jpg	0.0	233.42649521617568	0.38327328400555416
254.0	127.39840233371433	pulse	0.0	t		face	adult-95.jpg	0.0	233.80162441077482	
254.0	127.40654642312074	ISI	1.0		7.0	face	adult-95.jpg	0.0	233.80976850018124	0.11668958764130366
255.0	127.52323601076205	adult	0.0		46.0	face	adult-11.jpg	0.0	233.92645808782254	0.38329803624219494
255.0	127.90653404700424	ISI	1.0		7.0	face	adult-11.jpg	0.0	234.30975612406473	0.11668505979105248
256.0	128.0232191067953	adult	0.0		46.0	face	adult-138.jpg	0.0	234.4264411838558	0.38330588451208314
256.0	128.09832010799437	pulse	0.0	t		face	adult-138.jpg	0.0	234.50154218505486	
256.0	128.40652499130738	ISI	1.0		7.0	face	adult-138.jpg	0.0	234.80974706836787	0.11668626721802866
257.0	128.5232112585254	adult	0.0		46.0	face	adult-125.jpg	0.0	234.9264333355859	0.3833055826544296
257.0	128.79829885729487	pulse	0.0	t		face	adult-125.jpg	0.0	235.20152093435536	
257.0	128.90651684117984	ISI	1.0		7.0	face	adult-125.jpg	0.0	235.30973891824033	0.11668838021432748
258.0	129.02320522139416	adult	0.0		46.0	face	adult-131.jpg	0.0	235.42642729845466	0.3833043752310914
258.0	129.40650959662526	ISI	1.0		8.0	face	adult-131.jpg	0.0	235.80973167368575	0.12501992253237404
258.0	129.4982887752849	pulse	1.0	t		face	adult-131.jpg	0.0	235.90151085234538	
259.0	129.53152951915763	adult	0.0		45.0	face	adult-136.jpg	0.0	235.93475159621812	0.3749716254824307
259.0	129.90650114464006	ISI	1.0		8.0	face	adult-136.jpg	0.0	236.30972322170055	0.11668838021432748
260.0	130.0231895248544	adult	0.0		46.0	face	adult-76.jpg	0.0	236.42641160191488	0.3833055826580676
260.0	130.19827718399392	pulse	0.0	t		face	adult-76.jpg	0.0	236.6014992610544	
260.0	130.40649510751246	ISI	1.0		8.0	face	adult-76.jpg	0.0	236.80971718457295	0.11668566350272158
261.0	130.52318077101518	adult	0.0		46.0	face	adult-111.jpg	0.0	236.92640284807567	0.38330799750838196
261.0	130.89826559270296	pulse	0.0	t		face	adult-111.jpg	0.0	237.30148766976345	
261.0	130.90648876852356	ISI	1.0		8.0	face	adult-111.jpg	0.0	237.30971084558405	0.11666875953960698
262.0	131.02315752806317	adult	0.0		46.0	face	adult-80.jpg	0.0	237.42637960512366	0.3833239959021739
262.0	131.40648152396534	ISI	1.0		8.0	face	adult-80.jpg	0.0	237.80970360102583	0.11668415422172984
263.0	131.52316567818707	adult	0.0		46.0	face	adult-68.jpg	0.0	237.92638775524756	0.3833070919390593
263.0	131.59825973668558	pulse	0.0	t		face	adult-68.jpg	0.0	238.00148181374607	
263.0	131.90647277012613	ISI	1.0		7.0	face	adult-68.jpg	0.0	238.30969484718662	0.11669743591119186
264.0	132.02317020603732	body	0.0		46.0	body	body-105.jpg	0.0	238.4263922830978	0.383291999110952
264.0	132.29824693796763	pulse	0.0	t		body	body-105.jpg	0.0	238.70146901502812	
264.0	132.40646220514827	ISI	1.0		8.0	body	body-105.jpg	0.0	238.80968428220876	0.11668898392599658
265.0	132.52315118907427	body	0.0		46.0	body	body-115.jpg	0.0	238.92637326613476	0.3833043752310914
265.0	132.90645556430536	ISI	1.0		6.0	body	body-115.jpg	0.0	239.30967764136585	0.12502173367101932
265.0	132.9983126219522	pulse	1.0	t		body	body-115.jpg	0.0	239.4015346990127	
266.0	133.03147729797638	body	0.0		45.0	body	body-99.jpg	0.0	239.43469937503687	0.37500301856562146
266.0	133.406480316542	ISI	1.0		7.0	body	body-99.jpg	0.0	239.8097023936025	0.11668536164506804
267.0	133.52316567818707	body	0.0		46.0	body	body-54.jpg	0.0	239.92638775524756	0.38327449143253034
267.0	133.6982222461047	pulse	0.0	t		body	body-54.jpg	0.0	240.1014443231652	
267.0	133.9064401696196	ISI	1.0		6.0	body	body-54.jpg	0.0	240.3096622466801	0.11668838021432748
268.0	134.02312854983393	body	0.0		46.0	body	body-22.jpg	0.0	240.42635062689442	0.38330467708510696
268.0	134.39821156038306	pulse	0.0	t		body	body-22.jpg	0.0	240.80143363744355	
268.0	134.40643322691903	ISI	1.0		7.0	body	body-22.jpg	0.0	240.80965530397953	0.11668626721802866
269.0	134.52311949413706	body	0.0		46.0	body	body-104.jpg	0.0	240.92634157119755	0.3833064882273902
269.0	134.90642598236445	ISI	1.0		7.0	body	body-104.jpg	0.0	241.30964805942494	0.11668596536037512
270.0	135.02311194772483	body	0.0		46.0	body	body-79.jpg	0.0	241.42633402478532	0.3833055826544296
270.0	135.0982041950847	pulse	0.0	t		body	body-79.jpg	0.0	241.50142627214518	
270.0	135.40641753037926	ISI	1.0		7.0	body	body-79.jpg	0.0	241.80963960743975	0.11667509852850344
271.0	135.52309262890776	body	0.0		46.0	body	body-77.jpg	0.0	241.92631470596825	0.38331705320160836
271.0	135.79819290564774	pulse	0.0	t		body	body-77.jpg	0.0	242.20141498270823	
271.0	135.90640968210937	ISI	1.0		7.0	body	body-77.jpg	0.0	242.30963175916986	0.1166859653640131
272.0	136.02309564747338	body	0.0		46.0	body	body-49.jpg	0.0	242.42631772453387	0.3833073937930749
272.0	136.40640304126646	ISI	1.0		7.0	body	body-49.jpg	0.0	242.80962511832695	0.12502173367101932
272.0	136.49819429418858	pulse	1.0	t		body	body-49.jpg	0.0	242.90141637124907	
273.0	136.53142477493748	body	0.0		45.0	body	body-118.jpg	0.0	242.93464685199797	0.37497162548606866
273.0	136.90639640042355	ISI	1.0		6.0	body	body-118.jpg	0.0	243.30961847748404	0.11668687092969776
274.0	137.02308327135324	body	0.0		46.0	body	body-36.jpg	0.0	243.42630534841373	0.3833043752310914
274.0	137.19816066736894	pulse	0.0	t		body	body-36.jpg	0.0	243.60138274442943	
274.0	137.40638764658434	ISI	1.0		7.0	body	body-36.jpg	0.0	243.80960972364483	0.11668747464136686
275.0	137.5230751212257	body	0.0		46.0	body	body-29.jpg	0.0	243.9262971982862	0.3833064882273902
275.0	137.89815994291348	pulse	0.0	t		body	body-29.jpg	0.0	244.30138201997397	
275.0	137.9063816094531	ISI	1.0		7.0	body	body-29.jpg	0.0	244.30960368651358	0.11671977329388028
276.0	138.02310138274697	adult	0.0		46.0	face	adult-128.jpg	0.0	244.42632345980746	0.3832696617282636
276.0	138.40637104447524	ISI	1.0		7.0	face	adult-128.jpg	0.0	244.80959312153573	0.1166877764990204
277.0	138.52305882097426	adult	0.0		46.0	face	adult-128.jpg	1.0	244.92628089803475	0.38330648822375224
277.0	138.5981525776151	pulse	0.0	t		face	adult-128.jpg	1.0	245.0013746546756	
277.0	138.906365309198	ISI	1.0		7.0	face	adult-128.jpg	1.0	245.3095873862585	0.12501931882070494
277.0	138.99821059444002	response	1.0	b		face	adult-128.jpg	1.0	245.40143267150052	
278.0	139.0313846280187	adult	0.0		45.0	face	adult-109.jpg	0.0	245.4346067050792	0.37497283290940686
278.0	139.29811804522615	pulse	0.0	t		face	adult-109.jpg	0.0	245.70134012228664	
278.0	139.40635746092812	ISI	1.0		7.0	face	adult-109.jpg	0.0	245.8095795379886	0.11668807835667394
279.0	139.5230455392848	adult	0.0		46.0	face	adult-72.jpg	0.0	245.92626761634529	0.3833363720223133
279.0	139.9063819113071	ISI	1.0		7.0	face	adult-72.jpg	0.0	246.3096039883676	0.12502324295564904
279.0	139.9981988220352	pulse	1.0	t		face	adult-72.jpg	0.0	246.40142089909568	
280.0	140.03140515426276	adult	0.0		45.0	face	adult-127.jpg	0.0	246.43462723132325	0.3749692106321163
280.0	140.40637436489487	ISI	1.0		7.0	face	adult-127.jpg	0.0	246.80959644195536	0.11668747464500484
281.0	140.52306183953988	adult	0.0		46.0	face	adult-47.jpg	0.0	246.92628391660037	0.38327268029388506
281.0	140.6981199167385	pulse	0.0	t		face	adult-47.jpg	0.0	247.101341993799	
281.0	140.90633451983376	ISI	1.0		6.0	face	adult-47.jpg	0.0	247.30955659689425	0.1166871727873513
282.0	141.0230216926211	adult	0.0		46.0	face	adult-50.jpg	0.0	247.4262437696816	0.3833089030777046
282.0	141.3981044013126	pulse	0.0	t		face	adult-50.jpg	0.0	247.80132647837308	
282.0	141.40633059569882	ISI	1.0		7.0	face	adult-50.jpg	0.0	247.8095526727593	0.11669713405353832
283.0	141.52302772975236	adult	0.0		46.0	face	adult-28.jpg	0.0	247.92624980681285	0.38329471581891994
283.0	141.90632244557128	ISI	1.0		7.0	face	adult-28.jpg	0.0	248.30954452263177	0.11668294679475366
284.0	142.02300539236603	adult	0.0		46.0	face	adult-89.jpg	0.0	248.42622746942652	0.38329682881521876
284.0	142.09809613044126	pulse	0.0	t		face	adult-89.jpg	0.0	248.50131820750175	
284.0	142.40630222118125	ISI	1.0		7.0	face	adult-89.jpg	0.0	248.80952429824174	0.1166977377688454
285.0	142.5229999589501	adult	0.0		46.0	face	adult-96.jpg	0.0	248.92622203601059	0.38329411210725084
285.0	142.79808544471962	pulse	0.0	t		face	adult-96.jpg	0.0	249.2013075217801	
285.0	142.90629407105735	ISI	1.0		7.0	face	adult-96.jpg	0.0	249.30951614811784	0.11669532291125506
286.0	143.0229893939686	adult	0.0		46.0	face	adult-121.jpg	0.0	249.4262114710291	0.3833061863697367
286.0	143.40629558033834	ISI	1.0		7.0	face	adult-121.jpg	0.0	249.80951765739883	0.12502112995935022
286.0	143.49809256853405	pulse	1.0	t		face	adult-121.jpg	0.0	249.90131464559454	
287.0	143.5313167102977	adult	0.0		45.0	face	adult-85.jpg	0.0	249.93453878735818	0.37497162548606866
287.0	143.90628833578376	ISI	1.0		7.0	face	adult-85.jpg	0.0	250.30951041284425	0.11668656907204422
288.0	144.0229749048558	car	0.0		46.0	object	car-16.jpg	0.0	250.4261969819163	0.3833067900814058
288.0	144.19806920483825	pulse	0.0	t		object	car-16.jpg	0.0	250.60129128189874	
288.0	144.4062816949372	ISI	1.0		8.0	object	car-16.jpg	0.0	250.8095037719977	0.11668626721802866
289.0	144.52296796215523	car	0.0		46.0	object	car-14.jpg	0.0	250.92619003921573	0.3833067900814058
289.0	144.89805157641604	pulse	0.0	t		object	car-14.jpg	0.0	251.30127365347653	
289.0	144.90627475223664	ISI	1.0		7.0	object	car-14.jpg	0.0	251.30949682929713	0.11668687093333574
290.0	145.02296162316998	car	0.0		46.0	object	car-40.jpg	0.0	251.42618370023047	0.38330316780047724
290.0	145.40626479097045	ISI	1.0		7.0	object	car-40.jpg	0.0	251.80948686803094	0.11668687093333574
291.0	145.5229516619038	car	0.0		46.0	object	car-8.jpg	0.0	251.92617373896428	0.3833076956507284
291.0	145.59804451297532	pulse	0.0	t		object	car-8.jpg	0.0	252.0012665900358	
291.0	145.90625935755452	ISI	1.0		7.0	object	car-8.jpg	0.0	252.309481434615	0.11668596536037512
292.0	146.0229453229149	car	0.0		46.0	object	car-137.jpg	0.0	252.42616739997538	0.38330588451208314
292.0	146.29803563839232	pulse	0.0	t		object	car-137.jpg	0.0	252.7012577154528	
292.0	146.40625120742698	ISI	1.0		6.0	object	car-137.jpg	0.0	252.80947328448747	0.1166865690756822
293.0	146.52293777650266	car	0.0		46.0	object	car-57.jpg	0.0	252.92615985356315	0.3833363720223133
293.0	146.90627414852497	ISI	1.0		7.0	object	car-57.jpg	0.0	253.30949622558546	0.12502203552867286
293.0	146.9980913611107	pulse	1.0	t		object	car-57.jpg	0.0	253.4013134381712	
294.0	147.03129618405364	car	0.0		45.0	object	car-98.jpg	0.0	253.43451826111414	0.3749719273400842
294.0	147.40626811139373	ISI	1.0		7.0	object	car-98.jpg	0.0	253.80949018845422	0.11668868207198102
295.0	147.5229567934657	car	0.0		46.0	object	car-58.jpg	0.0	253.9261788705262	0.38330316780047724
295.0	147.6980420377513	pulse	0.0	t		object	car-58.jpg	0.0	254.10126411481178	
295.0	147.9062599612662	ISI	1.0		6.0	object	car-58.jpg	0.0	254.30948203832668	0.11668807835667394
296.0	148.02294803962286	car	0.0		46.0	object	car-121.jpg	0.0	254.42617011668335	0.3833055826580676
296.0	148.39803678544558	pulse	0.0	t		object	car-121.jpg	0.0	254.80125886250607	
296.0	148.40625362228093	ISI	1.0		7.0	object	car-121.jpg	0.0	254.80947569934142	0.11668988949531922
297.0	148.52294351177625	car	0.0		46.0	object	car-74.jpg	0.0	254.92616558883674	0.3832992436691711
297.0	148.90624275544542	ISI	1.0		6.0	object	car-74.jpg	0.0	255.3094648325059	0.11669200249161804
298.0	149.02293475793704	car	0.0		46.0	object	car-13.jpg	0.0	255.42615683499753	0.3833004510925093
298.0	149.0980242885853	pulse	0.0	t		object	car-13.jpg	0.0	255.50124636564578	
298.0	149.40623520902955	ISI	1.0		5.0	object	car-13.jpg	0.0	255.80945728609004	0.1166904932106263
299.0	149.52292570224017	car	0.0		46.0	object	car-86.jpg	0.0	255.92614777930066	0.3833049789427605
299.0	149.7980093768747	pulse	0.0	t		object	car-86.jpg	0.0	256.2012314539352	
299.0	149.90623068118293	ISI	1.0		6.0	object	car-86.jpg	0.0	256.3094527582434	0.11668596536037512
300.0	150.0229166465433	car	0.0		46.0	object	car-68.jpg	0.0	256.4261387236038	0.3833064882273902
300.0	150.4062231347707	ISI	1.0		6.0	object	car-68.jpg	0.0	256.8094452118312	0.11668415422172984
300.0	150.4980367250755	pulse	1.0	t		object	car-68.jpg	0.0	256.901258802136	
301.0	150.52290728899243	car	0.0		46.0	object	car-22.jpg	0.0	256.9261293660529	0.38327660442882916
301.0	150.90618389342126	ISI	1.0		6.0	object	car-22.jpg	0.0	257.30940597048175	0.11670981202769326
302.0	151.02289370544895	car	0.0		46.0	object	car-142.jpg	0.0	257.42611578250944	0.3832781137098209
302.0	151.1979605364868	pulse	0.0	t		object	car-142.jpg	0.0	257.6011826135473	
302.0	151.40617181915877	ISI	1.0		4.0	object	car-142.jpg	0.0	257.80939389621926	0.11668928578365012
303.0	151.52286110494242	car	0.0		46.0	object	car-24.jpg	0.0	257.9260831820029	0.38330860122005106
303.0	151.89794562477255	pulse	0.0	t		object	car-24.jpg	0.0	258.30116770183304	
303.0	151.90616970616247	ISI	1.0		6.0	object	car-24.jpg	0.0	258.30939178322296	0.11668626721802866
304.0	152.0228559733805	car	0.0		46.0	object	car-51.jpg	0.0	258.426078050441	0.38330256408880814
304.0	152.4061585374693	ISI	1.0		7.0	object	car-51.jpg	0.0	258.8093806145298	0.11668928578365012
305.0	152.52284782325296	car	0.0		46.0	object	car-119.jpg	0.0	258.92606990031345	0.3833022622347926
305.0	152.59795244672932	pulse	0.0	t		object	car-119.jpg	0.0	259.0011745237898	
305.0	152.90615008548775	ISI	1.0		7.0	object	car-119.jpg	0.0	259.30937216254824	0.11668807835667394
306.0	153.02283816384443	car	0.0		46.0	object	car-131.jpg	0.0	259.4260602409049	0.38330860122005106
306.0	153.2979317997415	pulse	0.0	t		object	car-131.jpg	0.0	259.701153876802	
306.0	153.40614676506448	ISI	1.0		7.0	object	car-131.jpg	0.0	259.80936884212497	0.11668173937141546
307.0	153.5228285044359	car	0.0		46.0	object	car-88.jpg	0.0	259.9260505814964	0.38330980864702724
307.0	153.90613831308292	ISI	1.0		7.0	object	car-88.jpg	0.0	260.3093603901434	0.12501931881706696
307.0	153.99791900102719	pulse	1.0	t		object	car-88.jpg	0.0	260.4011410780877	
308.0	154.0311576319	car	0.0		45.0	object	car-88.jpg	1.0	260.4343797089605	0.374970719916746
308.0	154.40612835181673	ISI	1.0		7.0	object	car-88.jpg	1.0	260.8093504288772	0.11669592662656214
309.0	154.5228242784433	car	0.0		46.0	object	car-112.jpg	0.0	260.9260463555038	0.38329562139188056
309.0	154.68957435813354	response	0.0	b		object	car-112.jpg	0.0	261.09279643519403	
309.0	154.69788477049224	pulse	0.0	t		object	car-112.jpg	0.0	261.1011068475527	
309.0	154.90611989983518	ISI	1.0		7.0	object	car-112.jpg	0.0	261.30934197689567	0.11669019135297276
310.0	155.02281009118815	car	0.0		46.0	object	car-12.jpg	0.0	261.42603216824864	0.3833049789391225
310.0	155.397889781314	pulse	0.0	t		object	car-12.jpg	0.0	261.8011118583745	
310.0	155.40611507012727	ISI	1.0		7.0	object	car-12.jpg	0.0	261.80933714718776	0.11668536164870602
311.0	155.52280043177598	car	0.0		46.0	object	car-1.jpg	0.0	261.92602250883647	0.3833067900814058
311.0	155.90610722185738	ISI	1.0		7.0	object	car-1.jpg	0.0	262.3093292989179	0.11668536164870602
312.0	156.0227925835061	word	0.0		46.0	character	word-17.jpg	0.0	262.4260146605666	0.3833064882273902
312.0	156.0978845290083	pulse	0.0	t		character	word-17.jpg	0.0	262.5011066060688	
312.0	156.40609907173348	ISI	1.0		6.0	character	word-17.jpg	0.0	262.80932114879397	0.11668536164870602
313.0	156.52278443338218	word	0.0		46.0	character	word-26.jpg	0.0	262.9260065104427	0.3833387868726277
313.0	156.7979031233699	pulse	0.0	t		character	word-26.jpg	0.0	263.2011252004304	
313.0	156.9061232202548	ISI	1.0		7.0	character	word-26.jpg	0.0	263.3093452973153	0.11671252873566118
314.0	157.02283574899047	word	0.0		46.0	character	word-81.jpg	0.0	263.42605782605096	0.3832796229944506
314.0	157.40611537198492	ISI	1.0		7.0	character	word-81.jpg	0.0	263.8093374490454	0.1250229410979955
314.0	157.49792835857806	pulse	1.0	t		character	word-81.jpg	0.0	263.90115043563856	
315.0	157.53113831308292	word	0.0		45.0	character	word-4.jpg	0.0	263.9343603901434	0.37496951248976984
315.0	157.9061078255727	ISI	1.0		6.0	character	word-4.jpg	0.0	264.3093299026332	0.11668928578365012
316.0	158.02279711135634	word	0.0		46.0	character	word-60.jpg	0.0	264.42601918841683	0.3832708691516018
316.0	158.1978560941243	pulse	0.0	t		character	word-60.jpg	0.0	264.6010781711848	
316.0	158.40606798050794	ISI	1.0		6.0	character	word-60.jpg	0.0	264.80929005756843	0.11668566350635956
317.0	158.5227536440143	word	0.0		46.0	character	word-43.jpg	0.0	264.9259757210748	0.3833089030777046
317.0	158.89783484342115	pulse	0.0	t		character	word-43.jpg	0.0	265.30105692048164	
317.0	158.906062547092	ISI	1.0		6.0	character	word-43.jpg	0.0	265.3092846241525	0.11668294679475366
318.0	159.02274549388676	word	0.0		46.0	character	word-21.jpg	0.0	265.42596757094725	0.38329169725693646
318.0	159.4060371911437	ISI	1.0		6.0	character	word-21.jpg	0.0	265.8092592682042	0.11670196375780506
319.0	159.5227391549015	word	0.0		46.0	character	word-115.jpg	0.0	265.925961231962	0.3832959232458961
319.0	159.5978289874074	pulse	0.0	t		character	word-115.jpg	0.0	266.0010510644679	
319.0	159.9060350781474	ISI	1.0		7.0	character	word-115.jpg	0.0	266.3092571552079	0.11669532291125506
320.0	160.02273040105865	word	0.0		46.0	character	word-122.jpg	0.0	266.42595247811914	0.38330799750838196
320.0	160.29782313139003	pulse	0.0	t		character	word-122.jpg	0.0	266.7010452084505	
320.0	160.40603839856703	ISI	1.0		7.0	character	word-122.jpg	0.0	266.8092604756275	0.11671101945466944
321.0	160.5227494180217	word	0.0		46.0	character	word-28.jpg	0.0	266.9259714950822	0.38328113227544236
321.0	160.90603055029715	ISI	1.0		6.0	character	word-28.jpg	0.0	267.30925262735764	0.11668687093333574
321.0	160.99780580482184	pulse	1.0	t		character	word-28.jpg	0.0	267.4010278818823	
322.0	161.02271742123048	word	0.0		46.0	character	word-9.jpg	0.0	267.425939498291	0.3833043752274534
322.0	161.40602179645794	ISI	1.0		7.0	character	word-9.jpg	0.0	267.8092438735184	0.11668747464500484
323.0	161.52270927110294	word	0.0		46.0	character	word-64.jpg	0.0	267.92593134816343	0.3833061863697367
323.0	161.6978002506621	pulse	0.0	t		character	word-64.jpg	0.0	268.1010223277226	
323.0	161.90601545747268	ISI	1.0		6.0	character	word-64.jpg	0.0	268.30923753453317	0.11668566350272158
324.0	162.0227011209754	body	0.0		46.0	body	body-71.jpg	0.0	268.4259231980359	0.3833064882273902
324.0	162.39778654637485	pulse	0.0	t		body	body-71.jpg	0.0	268.80100862343534	
324.0	162.4060076092028	ISI	1.0		6.0	body	body-71.jpg	0.0	268.8092296862633	0.11668626721802866
325.0	162.52269387642082	body	0.0		46.0	body	body-117.jpg	0.0	268.9259159534813	0.3833055826544296
325.0	162.90599945907525	ISI	1.0		6.0	body	body-117.jpg	0.0	269.30922153613574	0.11668505979105248
326.0	163.0226845188663	body	0.0		46.0	body	body-88.jpg	0.0	269.4259065959268	0.3833076956507284
326.0	163.09778340706907	pulse	0.0	t		body	body-88.jpg	0.0	269.50100548412956	
326.0	163.40599221451703	ISI	1.0		6.0	body	body-88.jpg	0.0	269.8092142915775	0.11668566350635956
327.0	163.5226778780234	body	0.0		46.0	body	body-11.jpg	0.0	269.9258999550839	0.38330467708510696
327.0	163.79776577864686	pulse	0.0	t		body	body-11.jpg	0.0	270.20098785570735	
327.0	163.9059825551085	ISI	1.0		6.0	body	body-11.jpg	0.0	270.309204632169	0.11667630595184164
328.0	164.02265886106034	body	0.0		46.0	body	body-15.jpg	0.0	270.4258809381208	0.38334723885782296
328.0	164.40600609991816	ISI	1.0		6.0	body	body-15.jpg	0.0	270.80922817697865	0.12502445037898724
328.0	164.49782633106952	pulse	1.0	t		body	body-15.jpg	0.0	270.90104840813	
329.0	164.53103055029715	body	0.0		45.0	body	body-84.jpg	0.0	270.93425262735764	0.374974040340021
329.0	164.90600459063717	ISI	1.0		7.0	body	body-84.jpg	0.0	271.30922666769766	0.11668566350272158
330.0	165.0226902541399	body	0.0		46.0	body	body-136.jpg	0.0	271.4259123312004	0.38330407337343786
330.0	165.19777881884875	pulse	0.0	t		body	body-136.jpg	0.0	271.60100089590924	
330.0	165.40599432751333	ISI	1.0		7.0	body	body-136.jpg	0.0	271.8092164045738	0.11668747464500484
331.0	165.52268180215833	body	0.0		46.0	body	body-136.jpg	1.0	271.9259038792188	0.38330528079677606
331.0	165.8977639071345	pulse	0.0	t		body	body-136.jpg	1.0	272.300985984195	
331.0	165.9059870829551	ISI	1.0		7.0	body	body-136.jpg	1.0	272.3092091600156	0.11668807836031192
332.0	166.02267516131542	body	0.0		46.0	body	body-83.jpg	0.0	272.4258972383759	0.3833028659464617
332.0	166.1560915253176	response	0.0	b		body	body-83.jpg	0.0	272.5593136023781	
332.0	166.40597802726188	ISI	1.0		7.0	body	body-83.jpg	0.0	272.8092001043224	0.11671675472825882
333.0	166.52269478199014	body	0.0		46.0	body	body-47.jpg	0.0	272.92591685905063	0.38327328400555416
333.0	166.59775322141286	pulse	0.0	t		body	body-47.jpg	0.0	273.00097529847335	
333.0	166.9059680659957	ISI	1.0		7.0	body	body-47.jpg	0.0	273.3091901430562	0.11669139877631096
334.0	167.022659464772	body	0.0		46.0	body	body-14.jpg	0.0	273.4258815418325	0.3833037715194223
334.0	167.2977458561145	pulse	0.0	t		body	body-14.jpg	0.0	273.700967933175	
334.0	167.40596323629143	ISI	1.0		4.0	body	body-14.jpg	0.0	273.8091853133519	0.11669049320698832
335.0	167.52265372949842	body	0.0		46.0	body	body-55.jpg	0.0	273.9258758065589	0.3833016585231235
335.0	167.90595538802154	ISI	1.0		7.0	body	body-55.jpg	0.0	274.30917746508203	0.12502203552503488
335.0	167.99776777089937	pulse	1.0	t		body	body-55.jpg	0.0	274.40098984795986	
336.0	168.03097742354657	house	0.0		45.0	place	house-78.jpg	0.0	274.43419950060706	0.3749692106321163
336.0	168.4059466341787	ISI	1.0		7.0	place	house-78.jpg	0.0	274.8091687112392	0.11669079506827984
337.0	168.52263742924697	house	0.0		46.0	place	house-71.jpg	0.0	274.92585950630746	0.3833028659464617
337.0	168.6977250883865	pulse	0.0	t		place	house-71.jpg	0.0	275.100947165447	
337.0	168.90594029519343	ISI	1.0		7.0	place	house-71.jpg	0.0	275.3091623722539	0.11668838021432748
338.0	169.02262867540776	house	0.0		46.0	place	house-71.jpg	1.0	275.42585075246825	0.38330860122005106
338.0	169.39771108224159	pulse	0.0	t		place	house-71.jpg	1.0	275.8009331593021	
338.0	169.4059372766278	ISI	1.0		7.0	place	house-71.jpg	1.0	275.8091593536883	0.11668445607938338
339.0	169.5226217327072	house	0.0		46.0	place	house-128.jpg	0.0	275.9258438097677	0.3833022622311546
339.0	169.72270371694322	response	0.0	b		place	house-128.jpg	0.0	276.1259257940037	
339.0	169.90592399493835	ISI	1.0		7.0	place	house-128.jpg	0.0	276.30914607199884	0.11672279185950174
340.0	170.02264678679785	house	0.0		46.0	place	house-94.jpg	0.0	276.42586886385834	0.3832690580165945
340.0	170.09768892597276	pulse	0.0	t		place	house-94.jpg	0.0	276.50091100303325	
340.0	170.40591584481444	ISI	1.0		5.0	place	house-94.jpg	0.0	276.80913792187494	0.11669622848421568
341.0	170.52261207329866	house	0.0		46.0	place	house-130.jpg	0.0	276.92583415035915	0.3833022622311546
341.0	170.7977063129074	pulse	0.0	t		place	house-130.jpg	0.0	277.2009283899679	
341.0	170.90591433552981	ISI	1.0		7.0	place	house-130.jpg	0.0	277.3091364125903	0.1167650517745642
342.0	171.02267938730438	house	0.0		46.0	place	house-84.jpg	0.0	277.42590146436487	0.3831893678907363
342.0	171.40586875519512	ISI	1.0		4.0	place	house-84.jpg	0.0	277.8090908322556	0.11670317118114326
342.0	171.4976461227161	pulse	1.0	t		place	house-84.jpg	0.0	277.9008681997766	
343.0	171.52257192637626	house	0.0		46.0	place	house-26.jpg	0.0	277.92579400343675	0.383291999110952
343.0	171.9058639254872	ISI	1.0		7.0	place	house-26.jpg	0.0	278.3090860025477	0.11668234308308456
344.0	172.0225462685703	house	0.0		46.0	place	house-79.jpg	0.0	278.4257683456308	0.38330980864702724
344.0	172.19763754999076	pulse	0.0	t		place	house-79.jpg	0.0	278.60085962705125	
344.0	172.40585607721732	ISI	1.0		7.0	place	house-79.jpg	0.0	278.8090781542778	0.116682041229069
345.0	172.5225381184464	house	0.0		46.0	place	house-12.jpg	0.0	278.9257601955069	0.3832865656913782
345.0	172.8976283735501	pulse	0.0	t		place	house-12.jpg	0.0	279.3008504506106	
345.0	172.90582468413777	ISI	1.0		7.0	place	house-12.jpg	0.0	279.30904676119826	0.11670920831602416
346.0	173.0225338924538	house	0.0		46.0	place	house-98.jpg	0.0	279.4257559695143	0.3833061863697367
346.0	173.40584007882353	ISI	1.0		6.0	place	house-98.jpg	0.0	279.809062155884	0.11669683219588478
347.0	173.52253691101942	house	0.0		46.0	place	house-37.jpg	0.0	279.9257589880799	0.3832956213882426
347.0	173.59761829154013	pulse	0.0	t		place	house-37.jpg	0.0	280.0008403686006	
347.0	173.90583253240766	ISI	1.0		7.0	place	house-37.jpg	0.0	280.30905460946815	0.11668566350635956
348.0	174.02251819591402	house	0.0		46.0	place	house-114.jpg	0.0	280.4257402729745	0.38330588451208314
348.0	174.29760760582212	pulse	0.0	t		place	house-114.jpg	0.0	280.7008296828826	
348.0	174.4058240804261	ISI	1.0		7.0	place	house-114.jpg	0.0	280.8090461574866	0.11668626721802866
349.0	174.52251034764413	house	0.0		46.0	place	house-19.jpg	0.0	280.9257324247046	0.38330467708510696
349.0	174.90581502472924	ISI	1.0		6.0	place	house-19.jpg	0.0	281.3090371017897	0.11668807835667394
349.0	174.99759269410788	pulse	1.0	t		place	house-19.jpg	0.0	281.40081477116837	
350.0	175.0225031030859	house	0.0		46.0	place	house-34.jpg	0.0	281.4257251801464	0.3833061863697367
350.0	175.40580928945565	ISI	1.0		7.0	place	house-34.jpg	0.0	281.80903136651614	0.11668475793339894
351.0	175.52249404738905	house	0.0		46.0	place	house-113.jpg	0.0	281.92571612444954	0.3833095067930117
351.0	175.6975847250942	pulse	0.0	t		place	house-113.jpg	0.0	282.1008068021547	
351.0	175.90580355418206	ISI	1.0		6.0	place	house-113.jpg	0.0	282.30902563124255	0.11670498232342652
352.0	176.02250853650548	house	0.0		46.0	place	house-60.jpg	0.0	282.425730613566	0.38326664316264214
352.0	176.3975722282339	pulse	0.0	t		place	house-60.jpg	0.0	282.8007943052944	
352.0	176.40577517966813	ISI	1.0		7.0	place	house-60.jpg	0.0	282.8089972567286	0.11670498232342652
353.0	176.52248016199155	house	0.0		46.0	place	house-112.jpg	0.0	282.92570223905204	0.3833049789391225
353.0	176.90578514093067	ISI	1.0		7.0	place	house-112.jpg	0.0	283.30900721799117	0.1166977377688454
354.0	177.02248287869952	house	0.0		46.0	place	house-35.jpg	0.0	283.42570495576	0.3833273163254489
354.0	177.09760108571936	pulse	0.0	t		place	house-35.jpg	0.0	283.50082316277985	
354.0	177.40581019502497	ISI	1.0		7.0	place	house-35.jpg	0.0	283.80903227208546	0.11668868207198102
355.0	177.52249887709695	house	0.0		46.0	place	house-36.jpg	0.0	283.92572095415744	0.38330316780047724
355.0	177.7975831554395	pulse	0.0	t		place	house-36.jpg	0.0	284.2008052325	
355.0	177.90580204489743	ISI	1.0		7.0	place	house-36.jpg	0.0	284.3090241219579	0.11668747464500484
356.0	178.02248951954243	house	0.0		46.0	place	house-83.jpg	0.0	284.4257115966029	0.3833043752310914
356.0	178.40579389477352	ISI	1.0		6.0	place	house-83.jpg	0.0	284.809015971834	0.12502384666368016
356.0	178.49762378532978	pulse	1.0	t		place	house-83.jpg	0.0	284.90084586239027	
357.0	178.5308177414372	house	0.0		45.0	place	house-75.jpg	0.0	284.9340398184977	0.374970719916746
357.0	178.90578846135395	ISI	1.0		6.0	place	house-75.jpg	0.0	285.30901053841444	0.11668838021432748
358.0	179.02247684156828	house	0.0		46.0	place	house-115.jpg	0.0	285.42569891862877	0.38330135666546994
358.0	179.19757566939734	pulse	0.0	t		place	house-115.jpg	0.0	285.60079774645783	
358.0	179.40577819823375	ISI	1.0		7.0	place	house-115.jpg	0.0	285.80900027529424	0.11671766029758146
359.0	179.52249585853133	house	0.0		46.0	place	house-134.jpg	0.0	285.9257179355918	0.3832766044251912
359.0	179.89755140013222	pulse	0.0	t		place	house-134.jpg	0.0	286.3007734771927	
359.0	179.90577246295652	ISI	1.0		7.0	place	house-134.jpg	0.0	286.308994540017	0.1166898894989572
360.0	180.02246235245548	car	0.0		46.0	object	car-118.jpg	0.0	286.42568442951597	0.38330075295016286
360.0	180.40576310540564	ISI	1.0		7.0	object	car-118.jpg	0.0	286.80898518246613	0.11669411548791686
361.0	180.52245722089356	car	0.0		46.0	object	car-99.jpg	0.0	286.92567929795405	0.3832663413049886
361.0	180.5975069064807	pulse	0.0	t		object	car-99.jpg	0.0	287.0007289835412	
361.0	180.90572356219855	ISI	1.0		6.0	object	car-99.jpg	0.0	287.30894563925904	0.11668475793339894
362.0	181.02240832013194	car	0.0		46.0	object	car-15.jpg	0.0	287.42563039719244	0.38330920493535814
362.0	181.29749561704375	pulse	0.0	t		object	car-15.jpg	0.0	287.70071769410424	
362.0	181.4057175250673	ISI	1.0		6.0	object	car-15.jpg	0.0	287.8089396021278	0.11668807835667394
363.0	181.52240560342398	car	0.0		46.0	object	car-78.jpg	0.0	287.92562768048447	0.38330467708510696
363.0	181.90571028050908	ISI	1.0		6.0	object	car-78.jpg	0.0	288.3089323575696	0.1166859653640131
363.0	181.99748613874908	pulse	1.0	t		object	car-78.jpg	0.0	288.4007082158096	
364.0	182.0223962458731	car	0.0		46.0	object	car-85.jpg	0.0	288.4256183229336	0.38330528079677606
364.0	182.40570152666987	ISI	1.0		7.0	object	car-85.jpg	0.0	288.80892360373036	0.1166859653640131
365.0	182.5223874920339	car	0.0		46.0	object	car-9.jpg	0.0	288.9256095690944	0.38330648822375224
365.0	182.69747726416608	pulse	0.0	t		object	car-9.jpg	0.0	289.1006993412266	
365.0	182.90569398025764	ISI	1.0		6.0	object	car-9.jpg	0.0	289.30891605731813	0.1166944173455704
366.0	183.0223883976032	car	0.0		46.0	object	car-114.jpg	0.0	289.4256104746637	0.38329924366553314
366.0	183.39746355987882	pulse	0.0	t		object	car-114.jpg	0.0	289.8006856369393	
366.0	183.40568764126874	ISI	1.0		7.0	object	car-114.jpg	0.0	289.80890971832923	0.11668415422536782
367.0	183.5223717954941	car	0.0		46.0	object	car-5.jpg	0.0	289.9255938725546	0.3833061863660987
367.0	183.9056779818602	ISI	1.0		7.0	object	car-5.jpg	0.0	290.3089000589207	0.11668807835667394
368.0	184.02236606021688	car	0.0		46.0	object	car-129.jpg	0.0	290.4255881372774	0.3833043752310914
368.0	184.0974543834418	pulse	0.0	t		object	car-129.jpg	0.0	290.5006764605023	
368.0	184.40567043544797	ISI	1.0		7.0	object	car-129.jpg	0.0	290.80889251250846	0.11668626721802866
369.0	184.522356702666	car	0.0		46.0	object	car-129.jpg	1.0	290.9255787797265	0.38330588451208314
369.0	184.79744369772015	pulse	0.0	t		object	car-129.jpg	1.0	291.20066577478065	
369.0	184.90566258717809	ISI	1.0		6.0	object	car-129.jpg	1.0	291.3088846642386	0.10835381933065946
369.0	184.98910569567306	response	1.0	b		object	car-129.jpg	1.0	291.39232777273355	
370.0	185.01401640650874	car	0.0		47.0	object	car-75.jpg	0.0	291.41723848356924	0.3916398416804441
370.0	185.4056562481892	ISI	1.0		7.0	object	car-75.jpg	0.0	291.8088783252497	0.1166871727873513
370.0	185.4974351249948	pulse	1.0	t		object	car-75.jpg	0.0	291.9006572020553	
371.0	185.52234342097654	car	0.0		46.0	object	car-130.jpg	0.0	291.92556549803703	0.3833064882273902
371.0	185.90564990920393	ISI	1.0		7.0	object	car-130.jpg	0.0	292.3088719862644	0.1166832486524072
372.0	186.02233315785634	adult	0.0		46.0	face	adult-42.jpg	0.0	292.4255552349168	0.3833076956507284
372.0	186.1974232318462	pulse	0.0	t		face	adult-42.jpg	0.0	292.6006453089067	
372.0	186.40564085350707	ISI	1.0		6.0	face	adult-42.jpg	0.0	292.80886293056756	0.1166910969222954
373.0	186.52233195042936	adult	0.0		46.0	face	adult-113.jpg	0.0	292.92555402748985	0.3833342590260145
373.0	186.89744152435378	pulse	0.0	t		face	adult-113.jpg	0.0	293.30066360141427	
373.0	186.90566620945538	ISI	1.0		6.0	face	adult-113.jpg	0.0	293.30888828651587	0.11668807835667394
374.0	187.02235428781205	adult	0.0		46.0	face	adult-81.jpg	0.0	293.42557636487254	0.38330407337343786
374.0	187.4056583611855	ISI	1.0		7.0	face	adult-81.jpg	0.0	293.808880438246	0.1166714762475749
375.0	187.52232983743306	adult	0.0		46.0	face	adult-81.jpg	1.0	293.92555191449355	0.3833200717708678
375.0	187.59761255626654	pulse	0.0	t		face	adult-81.jpg	1.0	294.00083463332703	
375.0	187.90564990920393	ISI	1.0		6.0	face	adult-81.jpg	1.0	294.3088719862644	0.11668988949531922
375.0	187.95271870110082	response	1.0	b		face	adult-81.jpg	1.0	294.3559407781613	
376.0	188.02233979869925	adult	0.0		46.0	face	adult-126.jpg	0.0	294.42556187575974	0.38336414282457554
376.0	188.29758255172783	pulse	0.0	t		face	adult-126.jpg	0.0	294.7008046287883	
376.0	188.40570394152383	ISI	1.0		7.0	face	adult-126.jpg	0.0	294.8089260185843	0.11662408477059216
377.0	188.52232802629442	adult	0.0		46.0	face	adult-105.jpg	0.0	294.9255501033549	0.38327660442882916
377.0	188.90560463072325	ISI	1.0		7.0	face	adult-105.jpg	0.0	295.30882670778374	0.11670920831238618
377.0	188.99737626297065	pulse	1.0	t		face	adult-105.jpg	0.0	295.40059834003114	
378.0	189.02231383903563	adult	0.0		46.0	face	adult-100.jpg	0.0	295.4255359160961	0.3832832452717412
378.0	189.40559708430737	ISI	1.0		6.0	face	adult-100.jpg	0.0	295.80881916136786	0.116682041229069
379.0	189.52227912553644	adult	0.0		46.0	face	adult-90.jpg	0.0	295.92550120259693	0.3833076956507284
379.0	189.69736950138395	pulse	0.0	t		face	adult-90.jpg	0.0	296.10059157844444	
379.0	189.90558682118717	ISI	1.0		7.0	face	adult-90.jpg	0.0	296.30880889824766	0.1166917006339645
380.0	190.02227852182114	adult	0.0		46.0	face	adult-133.jpg	0.0	296.4255005988816	0.3833028659464617
380.0	190.3973609286586	pulse	0.0	t		face	adult-133.jpg	0.0	296.8005830057191	
380.0	190.4055813877676	ISI	1.0		7.0	face	adult-133.jpg	0.0	296.8088034648281	0.11668536164870602
381.0	190.5222667494163	adult	0.0		46.0	face	adult-84.jpg	0.0	296.9254888264768	0.3833055826580676
381.0	190.90557233207437	ISI	1.0		7.0	face	adult-84.jpg	0.0	297.30879440913486	0.11668656907204422
382.0	191.02225890114642	adult	0.0		46.0	face	adult-69.jpg	0.0	297.4254809782069	0.3833067900814058
382.0	191.09745045930686	pulse	0.0	t		face	adult-69.jpg	0.0	297.50067253636735	
382.0	191.40556569122782	ISI	1.0		7.0	face	adult-69.jpg	0.0	297.8087877682883	0.11668505979105248
383.0	191.52225075101887	adult	0.0		46.0	face	adult-103.jpg	0.0	297.92547282807936	0.38330739379671286
383.0	191.79733834978833	pulse	0.0	t		face	adult-103.jpg	0.0	298.2005604268488	
383.0	191.9055581448156	ISI	1.0		7.0	face	adult-103.jpg	0.0	298.3087802218761	0.11668475793339894
384.0	192.02224290274899	word	0.0		46.0	character	word-92.jpg	0.0	298.4254649798095	0.3833055826580676
384.0	192.40554848540705	ISI	1.0		7.0	character	word-92.jpg	0.0	298.80877056246754	0.11667690966351074
384.0	192.49732585292804	pulse	1.0	t		character	word-92.jpg	0.0	298.90054792998853	
385.0	192.52222539507056	word	0.0		46.0	character	word-70.jpg	0.0	298.92544747213105	0.38331584577827016
385.0	192.90554124084883	ISI	1.0		7.0	character	word-70.jpg	0.0	299.3087633179093	0.11668747464500484
386.0	193.02222871549384	word	0.0		46.0	character	word-16.jpg	0.0	299.42545079255433	0.38330135666183196
386.0	193.19731637463337	pulse	0.0	t		character	word-16.jpg	0.0	299.60053845169386	
386.0	193.40553007215567	ISI	1.0		6.0	character	word-16.jpg	0.0	299.80875214921616	0.11669170063760248
387.0	193.52222177279327	word	0.0		46.0	character	word-133.jpg	0.0	299.92544384985376	0.3833049789427605
387.0	193.89730176477678	pulse	0.0	t		character	word-133.jpg	0.0	300.3005238418373	
387.0	193.90552675173603	ISI	1.0		7.0	character	word-133.jpg	0.0	300.3087488287965	0.11668626721802866
388.0	194.02221301895406	word	0.0		46.0	character	word-42.jpg	0.0	300.42543509601455	0.38330799750838196
388.0	194.40552101646244	ISI	1.0		6.0	character	word-42.jpg	0.0	300.80874309352293	0.11668505979105248
389.0	194.5222060762535	word	0.0		46.0	character	word-59.jpg	0.0	300.925428153314	0.3833357683106442
389.0	194.597346318802	pulse	0.0	t		character	word-59.jpg	0.0	301.0005683958625	
389.0	194.90554184456414	ISI	1.0		7.0	character	word-59.jpg	0.0	301.30876392162463	0.11668868206834304
390.0	195.02223052663248	word	0.0		46.0	character	word-144.jpg	0.0	301.425452603693	0.3833034696581308
