trial_nr	onset	event_type	phase	response	nr_frames	face_age	face_sex	face_eth	attractiveness	expression	face_id	sub_id	ses	run	trial_type	catch	rating_type	onset_abs	duration
-1.0	0.05731048239249503	fix	0.0		714													20.78602627600776	5.966288058072678
-1.0	0.7071261084165599	pulse	0.0	t														21.435841902031825	
-1.0	1.4072723880963167	pulse	0.0	t														22.135988181711582	
-1.0	2.1071026239806088	pulse	0.0	t														22.835818417595874	
-1.0	2.8070979753902066	pulse	0.0	t														23.535813769005472	
-1.0	3.507097552788764	pulse	0.0	t														24.23581334640403	
-1.0	4.207063020399801	pulse	0.0	t														24.935778814015066	
-1.0	4.907058069955383	pulse	0.0	t														25.63577386357065	
-1.0	5.6070422526718176	pulse	0.0	t														26.335758046287083	
0.0	6.023598540465173	face	0.0		144	24.0	female	east_asian	2.9076800636689217	smiling	034	sub-09	1.0	4.0	034_smiling	0.0		26.752314334080438	1.2333263503860508
0.0	6.307049376486248	pulse	0.0	t		24.0	female	east_asian	2.9076800636689217	smiling	034	sub-09	1.0	4.0	034_smiling	0.0		27.035765170101513	
0.0	7.0070353703413275	pulse	0.0	t		24.0	female	east_asian	2.9076800636689217	smiling	034	sub-09	1.0	4.0	034_smiling	0.0		27.735751163956593	
0.0	7.256924890851224	fix	1.0		445	24.0	female	east_asian	2.9076800636689217	smiling	034	sub-09	1.0	4.0	034_smiling	0.0		27.98564068446649	3.7582606060277612
0.0	7.707027401331288	pulse	1.0	t		24.0	female	east_asian	2.9076800636689217	smiling	034	sub-09	1.0	4.0	034_smiling	0.0		28.435743194946554	
0.0	8.40700192463919	pulse	1.0	t		24.0	female	east_asian	2.9076800636689217	smiling	034	sub-09	1.0	4.0	034_smiling	0.0		29.135717718254455	
0.0	9.10699818161811	pulse	1.0	t		24.0	female	east_asian	2.9076800636689217	smiling	034	sub-09	1.0	4.0	034_smiling	0.0		29.835713975233375	
0.0	9.806993533027708	pulse	1.0	t		24.0	female	east_asian	2.9076800636689217	smiling	034	sub-09	1.0	4.0	034_smiling	0.0		30.535709326642973	
0.0	10.506975904605497	pulse	1.0	t		24.0	female	east_asian	2.9076800636689217	smiling	034	sub-09	1.0	4.0	034_smiling	0.0		31.235691698220762	
1.0	11.015185496878985	face	0.0		146	26.0	female	white	4.854755272582572	smiling	027	sub-09	1.0	4.0	027_smiling	0.0		31.74390129049425	1.2416603075580497
1.0	11.206977896858007	pulse	0.0	t		26.0	female	white	4.854755272582572	smiling	027	sub-09	1.0	4.0	027_smiling	0.0		31.935693690473272	
1.0	11.906945779322996	pulse	0.0	t		26.0	female	white	4.854755272582572	smiling	027	sub-09	1.0	4.0	027_smiling	0.0		32.63566157293826	
1.0	12.256845804437035	fix	1.0		446	26.0	female	white	4.854755272582572	smiling	027	sub-09	1.0	4.0	027_smiling	0.0		32.9855615980523	3.758247324341937
1.0	12.60695531798774	pulse	1.0	t		26.0	female	white	4.854755272582572	smiling	027	sub-09	1.0	4.0	027_smiling	0.0		33.335671111603006	
1.0	13.30692621901835	pulse	1.0	t		26.0	female	white	4.854755272582572	smiling	027	sub-09	1.0	4.0	027_smiling	0.0		34.035642012633616	
1.0	14.00692458899357	pulse	1.0	t		26.0	female	white	4.854755272582572	smiling	027	sub-09	1.0	4.0	027_smiling	0.0		34.735640382608835	
1.0	14.706896999305172	pulse	1.0	t		26.0	female	white	4.854755272582572	smiling	027	sub-09	1.0	4.0	027_smiling	0.0		35.43561279292044	
1.0	15.406902010123304	pulse	1.0	t		26.0	female	white	4.854755272582572	smiling	027	sub-09	1.0	4.0	027_smiling	0.0		36.13561780373857	
2.0	16.01509312877897	face	0.0		146	27.0	male	black	3.5523278949462798	neutral	042	sub-09	1.0	4.0	042_neutral	0.0		36.74380892239424	1.241678117094125
2.0	16.107071230901056	pulse	0.0	t		27.0	male	black	3.5523278949462798	neutral	042	sub-09	1.0	4.0	042_neutral	0.0		36.83578702451632	
2.0	16.80688546838428	pulse	0.0	t		27.0	male	black	3.5523278949462798	neutral	042	sub-09	1.0	4.0	042_neutral	0.0		37.535601261999545	
2.0	17.256771245873097	fix	1.0		445	27.0	male	black	3.5523278949462798	neutral	042	sub-09	1.0	4.0	042_neutral	0.0		37.98548703948836	3.7582430983493396
2.0	17.50686874553503	pulse	1.0	t		27.0	male	black	3.5523278949462798	neutral	042	sub-09	1.0	4.0	042_neutral	0.0		38.235584539150295	
2.0	18.206845381835592	pulse	1.0	t		27.0	male	black	3.5523278949462798	neutral	042	sub-09	1.0	4.0	042_neutral	0.0		38.93556117545086	
2.0	18.906857033500273	pulse	1.0	t		27.0	male	black	3.5523278949462798	neutral	042	sub-09	1.0	4.0	042_neutral	0.0		39.63557282711554	
2.0	19.606827934530884	pulse	1.0	t		27.0	male	black	3.5523278949462798	neutral	042	sub-09	1.0	4.0	042_neutral	0.0		40.33554372814615	
2.0	20.30683173792204	pulse	1.0	t		27.0	male	black	3.5523278949462798	neutral	042	sub-09	1.0	4.0	042_neutral	0.0		41.035547531537304	
3.0	21.015014344222436	face	0.0		146	19.0	male	white	3.2522881018702745	smiling	018	sub-09	1.0	4.0	018_smiling	1.0	trustworthiness	41.7437301378377	1.2416805319444393
3.0	21.007642101983947	pulse	0.0	t		19.0	male	white	3.2522881018702745	smiling	018	sub-09	1.0	4.0	018_smiling	1.0	trustworthiness	41.73635789559921	
3.0	21.70681700732166	pulse	0.0	t		19.0	male	white	3.2522881018702745	smiling	018	sub-09	1.0	4.0	018_smiling	1.0	trustworthiness	42.435532800936926	
3.0	22.256694876166875	fix	1.0		177	19.0	male	white	3.2522881018702745	smiling	018	sub-09	1.0	4.0	018_smiling	1.0	trustworthiness	42.98541066978214	1.50834120172658
3.0	22.4068039067497	pulse	1.0	t		19.0	male	white	3.2522881018702745	smiling	018	sub-09	1.0	4.0	018_smiling	1.0	trustworthiness	43.135519700364966	
3.0	23.106778731915256	pulse	1.0	t		19.0	male	white	3.2522881018702745	smiling	018	sub-09	1.0	4.0	018_smiling	1.0	trustworthiness	43.83549452553052	
3.0	23.765036077893456	rating	2.0		293	19.0	male	white	3.2522881018702745	smiling	018	sub-09	1.0	4.0	018_smiling	1.0	trustworthiness	44.49375187150872	2.4915845415634976
3.0	23.801490386475052	pulse	2.0	t		19.0	male	white	3.2522881018702745	smiling	018	sub-09	1.0	4.0	018_smiling	1.0	trustworthiness	44.53020618009032	
3.0	24.501469135771913	pulse	2.0	t		19.0	male	white	3.2522881018702745	smiling	018	sub-09	1.0	4.0	018_smiling	1.0	trustworthiness	45.23018492938718	
3.0	25.2015601757048	pulse	2.0	t		19.0	male	white	3.2522881018702745	smiling	018	sub-09	1.0	4.0	018_smiling	1.0	trustworthiness	45.930275969320064	
3.0	25.331727355929615	response	2.0	b		19.0	male	white	3.2522881018702745	smiling	018	sub-09	1.0	4.0	018_smiling	1.0	trustworthiness	46.06044314954488	
3.0	25.906728442612803	pulse	2.0	t		19.0	male	white	3.2522881018702745	smiling	018	sub-09	1.0	4.0	018_smiling	1.0	trustworthiness	46.63544423622807	
3.0	26.256620619456953	fix	3.0		444	19.0	male	white	3.2522881018702745	smiling	018	sub-09	1.0	4.0	018_smiling	1.0	trustworthiness	46.98533641307222	3.7582756988595065
3.0	26.606726812588022	pulse	3.0	t		19.0	male	white	3.2522881018702745	smiling	018	sub-09	1.0	4.0	018_smiling	1.0	trustworthiness	47.33544260620329	
3.0	27.306700128472585	pulse	3.0	t		19.0	male	white	3.2522881018702745	smiling	018	sub-09	1.0	4.0	018_smiling	1.0	trustworthiness	48.03541592208785	
3.0	28.00671630798024	pulse	3.0	t		19.0	male	white	3.2522881018702745	smiling	018	sub-09	1.0	4.0	018_smiling	1.0	trustworthiness	48.73543210159551	
3.0	28.70670894268187	pulse	3.0	t		19.0	male	white	3.2522881018702745	smiling	018	sub-09	1.0	4.0	018_smiling	1.0	trustworthiness	49.435424736297136	
3.0	29.406671995442593	pulse	3.0	t		19.0	male	white	3.2522881018702745	smiling	018	sub-09	1.0	4.0	018_smiling	1.0	trustworthiness	50.13538778905786	
4.0	30.01489631831646	face	0.0		146	24.0	female	east_asian	4.409868682849185	neutral	030	sub-09	1.0	4.0	030_neutral	0.0		50.743612111931725	1.241662722408364
4.0	30.106686665669258	pulse	0.0	t		24.0	female	east_asian	4.409868682849185	neutral	030	sub-09	1.0	4.0	030_neutral	0.0		50.83540245928452	
4.0	30.806671150243346	pulse	0.0	t		24.0	female	east_asian	4.409868682849185	neutral	030	sub-09	1.0	4.0	030_neutral	0.0		51.53538694385861	
4.0	31.256559040724824	fix	1.0		445	24.0	female	east_asian	4.409868682849185	neutral	030	sub-09	1.0	4.0	030_neutral	0.0		51.98527483434009	3.7582563800388016
4.0	31.506664388656645	pulse	1.0	t		24.0	female	east_asian	4.409868682849185	neutral	030	sub-09	1.0	4.0	030_neutral	0.0		52.23538018227191	
4.0	32.20664374166881	pulse	1.0	t		24.0	female	east_asian	4.409868682849185	neutral	030	sub-09	1.0	4.0	030_neutral	0.0		52.93535953528408	
4.0	32.906639998647734	pulse	1.0	t		24.0	female	east_asian	4.409868682849185	neutral	030	sub-09	1.0	4.0	030_neutral	0.0		53.635355792263	
4.0	33.60661814423656	pulse	1.0	t		24.0	female	east_asian	4.409868682849185	neutral	030	sub-09	1.0	4.0	030_neutral	0.0		54.33533393785183	
4.0	34.30660896779591	pulse	1.0	t		24.0	female	east_asian	4.409868682849185	neutral	030	sub-09	1.0	4.0	030_neutral	0.0		55.035324761411175	
5.0	35.014815420763625	face	0.0		147	24.0	female	black	3.0955033824114606	smiling	099	sub-09	1.0	4.0	099_smiling	0.0		55.74353121437889	1.241665439116332
5.0	35.0082274018132	pulse	0.0	t		24.0	female	black	3.0955033824114606	smiling	099	sub-09	1.0	4.0	099_smiling	0.0		55.736943195428466	
5.0	35.70658548335632	pulse	0.0	t		24.0	female	black	3.0955033824114606	smiling	099	sub-09	1.0	4.0	099_smiling	0.0		56.435301276971586	
5.0	36.25648085987996	fix	1.0		444	24.0	female	black	3.0955033824114606	smiling	099	sub-09	1.0	4.0	099_smiling	0.0		56.98519665349522	3.766581885229243
5.0	36.40659381459773	pulse	1.0	t		24.0	female	black	3.0955033824114606	smiling	099	sub-09	1.0	4.0	099_smiling	0.0		57.13530960821299	
5.0	37.10656863976328	pulse	1.0	t		24.0	female	black	3.0955033824114606	smiling	099	sub-09	1.0	4.0	099_smiling	0.0		57.83528443337855	
5.0	37.806560067037935	pulse	1.0	t		24.0	female	black	3.0955033824114606	smiling	099	sub-09	1.0	4.0	099_smiling	0.0		58.5352758606532	
5.0	38.50657020941799	pulse	1.0	t		24.0	female	black	3.0955033824114606	smiling	099	sub-09	1.0	4.0	099_smiling	0.0		59.23528600303325	
5.0	39.2065305454671	pulse	1.0	t		24.0	female	black	3.0955033824114606	smiling	099	sub-09	1.0	4.0	099_smiling	0.0		59.93524633908237	
5.0	39.90652076531478	pulse	1.0	t		24.0	female	black	3.0955033824114606	smiling	099	sub-09	1.0	4.0	099_smiling	0.0		60.635236558930046	
6.0	40.0230627451092	face	0.0		146	31.0	female	white	2.1822522881018704	neutral	102	sub-09	1.0	4.0	102_neutral	0.0		60.751778538724466	1.2333423487798427
6.0	40.6065149092974	pulse	0.0	t		31.0	female	white	2.1822522881018704	neutral	102	sub-09	1.0	4.0	102_neutral	0.0		61.33523070291267	
6.0	41.25640509388904	fix	1.0		445	31.0	female	white	2.1822522881018704	neutral	102	sub-09	1.0	4.0	102_neutral	0.0		61.98512088750431	3.76659607248439
6.0	41.30650935513768	pulse	1.0	t		31.0	female	white	2.1822522881018704	neutral	102	sub-09	1.0	4.0	102_neutral	0.0		62.03522514875294	
6.0	42.00650138612764	pulse	1.0	t		31.0	female	white	2.1822522881018704	neutral	102	sub-09	1.0	4.0	102_neutral	0.0		62.735217179742904	
6.0	42.706492813398654	pulse	1.0	t		31.0	female	white	2.1822522881018704	neutral	102	sub-09	1.0	4.0	102_neutral	0.0		63.43520860701392	
6.0	43.40647126084514	pulse	1.0	t		31.0	female	white	2.1822522881018704	neutral	102	sub-09	1.0	4.0	102_neutral	0.0		64.1351870544604	
6.0	44.10646600853943	pulse	1.0	t		31.0	female	white	2.1822522881018704	neutral	102	sub-09	1.0	4.0	102_neutral	0.0		64.8351818021547	
6.0	44.80646166180668	pulse	1.0	t		31.0	female	white	2.1822522881018704	neutral	102	sub-09	1.0	4.0	102_neutral	0.0		65.53517745542194	
7.0	45.02300116637343	face	0.0		145	19.0	male	white	2.243931555909272	smiling	130	sub-09	1.0	4.0	130_smiling	0.0		65.7517169599887	1.2333278596706805
7.0	45.50645188165436	pulse	0.0	t		19.0	male	white	2.243931555909272	smiling	130	sub-09	1.0	4.0	130_smiling	0.0		66.23516767526962	
7.0	46.2064282161009	pulse	0.0	t		19.0	male	white	2.243931555909272	smiling	130	sub-09	1.0	4.0	130_smiling	0.0		66.93514400971617	
7.0	46.256329026044114	fix	1.0		445	19.0	male	white	2.243931555909272	smiling	130	sub-09	1.0	4.0	130_smiling	0.0		66.98504481965938	3.7665957706267363
7.0	46.90642507679149	pulse	1.0	t		19.0	male	white	2.243931555909272	smiling	130	sub-09	1.0	4.0	130_smiling	0.0		67.63514087040676	
7.0	47.606415598496824	pulse	1.0	t		19.0	male	white	2.243931555909272	smiling	130	sub-09	1.0	4.0	130_smiling	0.0		68.33513139211209	
7.0	48.30639646079362	pulse	1.0	t		19.0	male	white	2.243931555909272	smiling	130	sub-09	1.0	4.0	130_smiling	0.0		69.03511225440889	
7.0	49.00638154907938	pulse	1.0	t		19.0	male	white	2.243931555909272	smiling	130	sub-09	1.0	4.0	130_smiling	0.0		69.73509734269464	
7.0	49.70639108774776	pulse	1.0	t		19.0	male	white	2.243931555909272	smiling	130	sub-09	1.0	4.0	130_smiling	0.0		70.43510688136303	
8.0	50.02292479667085	face	0.0		145	28.0	male	white	3.9076800636689217	smiling	033	sub-09	1.0	4.0	033_smiling	0.0		70.75164059028612	1.233312163127266
8.0	50.40639096700397	pulse	0.0	t		28.0	male	white	3.9076800636689217	smiling	033	sub-09	1.0	4.0	033_smiling	0.0		71.13510676061924	
8.0	51.10635734018433	pulse	0.0	t		28.0	male	white	3.9076800636689217	smiling	033	sub-09	1.0	4.0	033_smiling	0.0		71.8350731337996	
8.0	51.256236959798116	fix	1.0		445	28.0	male	white	3.9076800636689217	smiling	033	sub-09	1.0	4.0	033_smiling	0.0		71.98495275341338	3.758349351854122
8.0	51.80650573286039	pulse	1.0	t		28.0	male	white	3.9076800636689217	smiling	033	sub-09	1.0	4.0	033_smiling	0.0		72.53522152647565	
8.0	52.506342005872284	pulse	1.0	t		28.0	male	white	3.9076800636689217	smiling	033	sub-09	1.0	4.0	033_smiling	0.0		73.23505779948755	
8.0	53.206327999731	pulse	1.0	t		28.0	male	white	3.9076800636689217	smiling	033	sub-09	1.0	4.0	033_smiling	0.0		73.93504379334627	
8.0	53.90631821957868	pulse	1.0	t		28.0	male	white	3.9076800636689217	smiling	033	sub-09	1.0	4.0	033_smiling	0.0		74.63503401319394	
8.0	54.60630511900308	pulse	1.0	t		28.0	male	white	3.9076800636689217	smiling	033	sub-09	1.0	4.0	033_smiling	0.0		75.33502091261835	
9.0	55.01458631165224	face	0.0		146	34.0	male	white	2.651014723438122	neutral	121	sub-09	1.0	4.0	121_neutral	1.0	attractiveness	75.7433021052675	1.2415745802973106
9.0	55.306303187124286	pulse	0.0	t		34.0	male	white	2.651014723438122	neutral	121	sub-09	1.0	4.0	121_neutral	1.0	attractiveness	76.03501898073955	
9.0	56.006273182581936	pulse	0.0	t		34.0	male	white	2.651014723438122	neutral	121	sub-09	1.0	4.0	121_neutral	1.0	attractiveness	76.7349889761972	
9.0	56.25616089194955	fix	1.0		177	34.0	male	white	2.651014723438122	neutral	121	sub-09	1.0	4.0	121_neutral	1.0	attractiveness	76.98487668556481	1.4999954721533868
9.0	56.70628121196569	pulse	1.0	t		34.0	male	white	2.651014723438122	neutral	121	sub-09	1.0	4.0	121_neutral	1.0	attractiveness	77.43499700558095	
9.0	57.40625513156192	pulse	1.0	t		34.0	male	white	2.651014723438122	neutral	121	sub-09	1.0	4.0	121_neutral	1.0	attractiveness	78.13497092517719	
9.0	57.756156364102935	rating	2.0		294	34.0	male	white	2.651014723438122	neutral	121	sub-09	1.0	4.0	121_neutral	1.0	attractiveness	78.4848721577182	2.4999432509721373
9.0	58.10097161582598	pulse	2.0	t		34.0	male	white	2.651014723438122	neutral	121	sub-09	1.0	4.0	121_neutral	1.0	attractiveness	78.82968740944125	
9.0	58.800951874407474	pulse	2.0	t		34.0	male	white	2.651014723438122	neutral	121	sub-09	1.0	4.0	121_neutral	1.0	attractiveness	79.52966766802274	
9.0	58.92593708343702	response	2.0	w		34.0	male	white	2.651014723438122	neutral	121	sub-09	1.0	4.0	121_neutral	1.0	attractiveness	79.65465287705229	
9.0	59.50622790410125	pulse	2.0	t		34.0	male	white	2.651014723438122	neutral	121	sub-09	1.0	4.0	121_neutral	1.0	attractiveness	80.23494369771652	
9.0	60.206213596102316	pulse	2.0	t		34.0	male	white	2.651014723438122	neutral	121	sub-09	1.0	4.0	121_neutral	1.0	attractiveness	80.93492938971758	
9.0	60.25609961507507	fix	3.0		444	34.0	male	white	2.651014723438122	neutral	121	sub-09	1.0	4.0	121_neutral	1.0	attractiveness	80.98481540869034	3.7583535778430814
9.0	60.90620532523462	pulse	3.0	t		34.0	male	white	2.651014723438122	neutral	121	sub-09	1.0	4.0	121_neutral	1.0	attractiveness	81.63492111884989	
9.0	61.60619826179027	pulse	3.0	t		34.0	male	white	2.651014723438122	neutral	121	sub-09	1.0	4.0	121_neutral	1.0	attractiveness	82.33491405540553	
9.0	62.306185463072325	pulse	3.0	t		34.0	male	white	2.651014723438122	neutral	121	sub-09	1.0	4.0	121_neutral	1.0	attractiveness	83.03490125668759	
9.0	63.00618232376655	pulse	3.0	t		34.0	male	white	2.651014723438122	neutral	121	sub-09	1.0	4.0	121_neutral	1.0	attractiveness	83.73489811738182	
9.0	63.70616529905601	pulse	3.0	t		34.0	male	white	2.651014723438122	neutral	121	sub-09	1.0	4.0	121_neutral	1.0	attractiveness	84.43488109267128	
10.0	64.01445319291815	face	0.0		146	54.0	female	white	2.286908077994429	neutral	136	sub-09	1.0	4.0	136_neutral	0.0		84.74316898653342	1.2415860508481273
10.0	64.40616336717358	pulse	0.0	t		54.0	female	white	2.286908077994429	neutral	136	sub-09	1.0	4.0	136_neutral	0.0		85.13487916078884	
10.0	65.10614664432069	pulse	0.0	t		54.0	female	white	2.286908077994429	neutral	136	sub-09	1.0	4.0	136_neutral	0.0		85.83486243793595	
10.0	65.25603924376628	fix	1.0		445	54.0	female	white	2.286908077994429	neutral	136	sub-09	1.0	4.0	136_neutral	0.0		85.98475503738155	3.758338485018612
10.0	65.80613022332545	pulse	1.0	t		54.0	female	white	2.286908077994429	neutral	136	sub-09	1.0	4.0	136_neutral	0.0		86.53484601694072	
10.0	66.50610897262595	pulse	1.0	t		54.0	female	white	2.286908077994429	neutral	136	sub-09	1.0	4.0	136_neutral	0.0		87.23482476624122	
10.0	67.20611156859377	pulse	1.0	t		54.0	female	white	2.286908077994429	neutral	136	sub-09	1.0	4.0	136_neutral	0.0		87.93482736220903	
10.0	67.90609665687953	pulse	1.0	t		54.0	female	white	2.286908077994429	neutral	136	sub-09	1.0	4.0	136_neutral	0.0		88.63481245049479	
10.0	68.60609653613574	pulse	1.0	t		54.0	female	white	2.286908077994429	neutral	136	sub-09	1.0	4.0	136_neutral	0.0		89.334812329751	
11.0	69.0143777287849	face	0.0		146	31.0	female	east_asian	3.395941106247513	smiling	087	sub-09	1.0	4.0	087_smiling	0.0		89.74309352240016	1.2415733728703344
11.0	69.30608886897971	pulse	0.0	t		31.0	female	east_asian	3.395941106247513	smiling	087	sub-09	1.0	4.0	087_smiling	0.0		90.03480466259498	
11.0	70.00606550528391	pulse	0.0	t		31.0	female	east_asian	3.395941106247513	smiling	087	sub-09	1.0	4.0	087_smiling	0.0		90.73478129889918	
11.0	70.25595110165523	fix	1.0		445	31.0	female	east_asian	3.395941106247513	smiling	087	sub-09	1.0	4.0	087_smiling	0.0		90.9846668952705	3.7666090523161984
11.0	70.70605813998554	pulse	1.0	t		31.0	female	east_asian	3.395941106247513	smiling	087	sub-09	1.0	4.0	087_smiling	0.0		91.43477393360081	
11.0	71.40603356886277	pulse	1.0	t		31.0	female	east_asian	3.395941106247513	smiling	087	sub-09	1.0	4.0	087_smiling	0.0		92.13474936247803	
11.0	72.10602741098774	pulse	1.0	t		31.0	female	east_asian	3.395941106247513	smiling	087	sub-09	1.0	4.0	087_smiling	0.0		92.834743204603	
11.0	72.80602276239733	pulse	1.0	t		31.0	female	east_asian	3.395941106247513	smiling	087	sub-09	1.0	4.0	087_smiling	0.0		93.5347385560126	
11.0	73.50603622520066	pulse	1.0	t		31.0	female	east_asian	3.395941106247513	smiling	087	sub-09	1.0	4.0	087_smiling	0.0		94.23475201881593	
12.0	74.02256015397143	face	0.0		145	31.0	male	west_asian	1.9538400318344609	neutral	070	sub-09	1.0	4.0	070_neutral	0.0		94.75127594758669	1.233312163127266
12.0	74.20601527635517	pulse	0.0	t		31.0	male	west_asian	1.9538400318344609	neutral	070	sub-09	1.0	4.0	070_neutral	0.0		94.93473106997044	
12.0	74.90599372379802	pulse	0.0	t		31.0	male	west_asian	1.9538400318344609	neutral	070	sub-09	1.0	4.0	070_neutral	0.0		95.63470951741328	
12.0	75.25587231709869	fix	1.0		445	31.0	male	west_asian	1.9538400318344609	neutral	070	sub-09	1.0	4.0	070_neutral	0.0		95.98458811071396	3.766609957885521
12.0	75.6059824343647	pulse	1.0	t		31.0	male	west_asian	1.9538400318344609	neutral	070	sub-09	1.0	4.0	070_neutral	0.0		96.33469822797997	
12.0	76.3059605799499	pulse	1.0	t		31.0	male	west_asian	1.9538400318344609	neutral	070	sub-09	1.0	4.0	070_neutral	0.0		97.03467637356516	
12.0	77.00595562950548	pulse	1.0	t		31.0	male	west_asian	1.9538400318344609	neutral	070	sub-09	1.0	4.0	070_neutral	0.0		97.73467142312074	
12.0	77.70595852732731	pulse	1.0	t		31.0	male	west_asian	1.9538400318344609	neutral	070	sub-09	1.0	4.0	070_neutral	0.0		98.43467432094258	
12.0	78.40593606920083	pulse	1.0	t		31.0	male	west_asian	1.9538400318344609	neutral	070	sub-09	1.0	4.0	070_neutral	0.0		99.1346518628161	
13.0	79.02248227498421	face	0.0		145	37.0	male	white	3.898925586947871	smiling	101	sub-09	1.0	4.0	101_smiling	1.0	attractiveness	99.75119806859948	1.2333266522437043
13.0	79.10593926888032	pulse	0.0	t		37.0	male	white	3.898925586947871	smiling	101	sub-09	1.0	4.0	101_smiling	1.0	attractiveness	99.83465506249559	
13.0	79.80591620704217	pulse	0.0	t		37.0	male	white	3.898925586947871	smiling	101	sub-09	1.0	4.0	101_smiling	1.0	attractiveness	100.53463200065744	
13.0	80.25580892722792	fix	1.0		177	37.0	male	white	3.898925586947871	smiling	101	sub-09	1.0	4.0	101_smiling	1.0	attractiveness	100.98452472084318	1.499983397890901
13.0	80.50592212342963	pulse	1.0	t		37.0	male	white	3.898925586947871	smiling	101	sub-09	1.0	4.0	101_smiling	1.0	attractiveness	101.23463791704489	
13.0	81.20588396876337	pulse	1.0	t		37.0	male	white	3.898925586947871	smiling	101	sub-09	1.0	4.0	101_smiling	1.0	attractiveness	101.93459976237864	
13.0	81.75579232511882	rating	2.0		294	37.0	male	white	3.898925586947871	smiling	101	sub-09	1.0	4.0	101_smiling	1.0	attractiveness	102.48450811873408	2.4999577400812996
13.0	81.90060286787775	pulse	2.0	t		37.0	male	white	3.898925586947871	smiling	101	sub-09	1.0	4.0	101_smiling	1.0	attractiveness	102.62931866149302	
13.0	82.60070386907682	pulse	2.0	t		37.0	male	white	3.898925586947871	smiling	101	sub-09	1.0	4.0	101_smiling	1.0	attractiveness	103.32941966269209	
13.0	82.95586585736964	response	2.0	b		37.0	male	white	3.898925586947871	smiling	101	sub-09	1.0	4.0	101_smiling	1.0	attractiveness	103.68458165098491	
13.0	83.30585160974078	pulse	2.0	t		37.0	male	white	3.898925586947871	smiling	101	sub-09	1.0	4.0	101_smiling	1.0	attractiveness	104.03456740335605	
13.0	84.00585692241657	pulse	2.0	t		37.0	male	white	3.898925586947871	smiling	101	sub-09	1.0	4.0	101_smiling	1.0	attractiveness	104.73457271603183	
13.0	84.25575006520012	fix	3.0		444	37.0	male	white	3.898925586947871	smiling	101	sub-09	1.0	4.0	101_smiling	1.0	attractiveness	104.98446585881538	3.758265435739304
13.0	84.70584382184097	pulse	3.0	t		37.0	male	white	3.898925586947871	smiling	101	sub-09	1.0	4.0	101_smiling	1.0	attractiveness	105.43455961545624	
13.0	85.40582830641506	pulse	3.0	t		37.0	male	white	3.898925586947871	smiling	101	sub-09	1.0	4.0	101_smiling	1.0	attractiveness	106.13454410003033	
13.0	86.10582878938658	pulse	3.0	t		37.0	male	white	3.898925586947871	smiling	101	sub-09	1.0	4.0	101_smiling	1.0	attractiveness	106.83454458300184	
13.0	86.80581417952999	pulse	3.0	t		37.0	male	white	3.898925586947871	smiling	101	sub-09	1.0	4.0	101_smiling	1.0	attractiveness	107.53452997314525	
13.0	87.50581315321688	pulse	3.0	t		37.0	male	white	3.898925586947871	smiling	101	sub-09	1.0	4.0	101_smiling	1.0	attractiveness	108.23452894683214	
14.0	88.01401550093942	face	0.0		146	32.0	male	white	2.389176283326701	smiling	092	sub-09	1.0	4.0	092_smiling	0.0		108.74273129455469	1.2416473277226032
14.0	88.20580337306819	pulse	0.0	t		32.0	male	white	2.389176283326701	smiling	092	sub-09	1.0	4.0	092_smiling	0.0		108.93451916668346	
14.0	88.90577548152214	pulse	0.0	t		32.0	male	white	2.389176283326701	smiling	092	sub-09	1.0	4.0	092_smiling	0.0		109.6344912751374	
14.0	89.25566282866203	fix	1.0		445	32.0	male	white	2.389176283326701	smiling	092	sub-09	1.0	4.0	092_smiling	0.0		109.98437862227729	3.7666108634548436
14.0	89.60577958677095	pulse	1.0	t		32.0	male	white	2.389176283326701	smiling	092	sub-09	1.0	4.0	092_smiling	0.0		110.33449538038622	
14.0	90.30576407134504	pulse	1.0	t		32.0	male	white	2.389176283326701	smiling	092	sub-09	1.0	4.0	092_smiling	0.0		111.0344798649603	
14.0	91.00575036705777	pulse	1.0	t		32.0	male	white	2.389176283326701	smiling	092	sub-09	1.0	4.0	092_smiling	0.0		111.73446616067304	
14.0	91.70573937948211	pulse	1.0	t		32.0	male	white	2.389176283326701	smiling	092	sub-09	1.0	4.0	092_smiling	0.0		112.43445517309738	
14.0	92.40572386405256	pulse	1.0	t		32.0	male	white	2.389176283326701	smiling	092	sub-09	1.0	4.0	092_smiling	0.0		113.13443965766783	
15.0	93.02227369211687	face	0.0		145	30.0	female	black	2.7345801830481498	neutral	062	sub-09	1.0	4.0	062_neutral	0.0		113.75098948573213	1.2333245392474055
15.0	93.10573551571724	pulse	0.0	t		30.0	female	black	2.7345801830481498	neutral	062	sub-09	1.0	4.0	062_neutral	0.0		113.83445130933251	
15.0	93.80571215202144	pulse	0.0	t		30.0	female	black	2.7345801830481498	neutral	062	sub-09	1.0	4.0	062_neutral	0.0		114.53442794563671	
15.0	94.25559823136427	fix	1.0		445	30.0	female	black	2.7345801830481498	neutral	062	sub-09	1.0	4.0	062_neutral	0.0		114.98431402497954	3.766580677798629
15.0	94.50571323870463	pulse	1.0	t		30.0	female	black	2.7345801830481498	neutral	062	sub-09	1.0	4.0	062_neutral	0.0		115.2344290323199	
15.0	95.20569228985914	pulse	1.0	t		30.0	female	black	2.7345801830481498	neutral	062	sub-09	1.0	4.0	062_neutral	0.0		115.93440808347441	
15.0	95.90567858557188	pulse	1.0	t		30.0	female	black	2.7345801830481498	neutral	062	sub-09	1.0	4.0	062_neutral	0.0		116.63439437918714	
15.0	96.60566639056924	pulse	1.0	t		30.0	female	black	2.7345801830481498	neutral	062	sub-09	1.0	4.0	062_neutral	0.0		117.3343821841845	
15.0	97.30564755472005	pulse	1.0	t		30.0	female	black	2.7345801830481498	neutral	062	sub-09	1.0	4.0	062_neutral	0.0		118.03436334833532	
16.0	98.0221789091629	face	0.0		146	26.0	male	white	2.7966573816155993	neutral	117	sub-09	1.0	4.0	117_neutral	0.0		118.75089470277817	1.2333296708093258
16.0	98.00840278046235	pulse	0.0	t		26.0	male	white	2.7966573816155993	neutral	117	sub-09	1.0	4.0	117_neutral	0.0		118.73711857407761	
16.0	98.7056427853895	pulse	0.0	t		26.0	male	white	2.7966573816155993	neutral	117	sub-09	1.0	4.0	117_neutral	0.0		119.43435857900477	
16.0	99.25550857997223	fix	1.0		443	26.0	male	white	2.7966573816155993	neutral	117	sub-09	1.0	4.0	117_neutral	0.0		119.9842243735875	3.7666096560278675
16.0	99.4056188179784	pulse	1.0	t		26.0	male	white	2.7966573816155993	neutral	117	sub-09	1.0	4.0	117_neutral	0.0		120.13433461159366	
16.0	100.10560179327149	pulse	1.0	t		26.0	male	white	2.7966573816155993	neutral	117	sub-09	1.0	4.0	117_neutral	0.0		120.83431758688675	
16.0	100.80559080569219	pulse	1.0	t		26.0	male	white	2.7966573816155993	neutral	117	sub-09	1.0	4.0	117_neutral	0.0		121.53430659930746	
16.0	101.5055906849484	pulse	1.0	t		26.0	male	white	2.7966573816155993	neutral	117	sub-09	1.0	4.0	117_neutral	0.0		122.23430647856367	
16.0	102.20557637694947	pulse	1.0	t		26.0	male	white	2.7966573816155993	neutral	117	sub-09	1.0	4.0	117_neutral	0.0		122.93429217056473	
16.0	102.90557203021672	pulse	1.0	t		26.0	male	white	2.7966573816155993	neutral	117	sub-09	1.0	4.0	117_neutral	0.0		123.63428782383198	
17.0	103.0221182360001	face	0.0		146	19.0	male	white	2.243931555909272	neutral	130	sub-09	1.0	4.0	130_neutral	0.0		123.75083402961536	1.2333284633823496
17.0	103.60556707976866	pulse	0.0	t		19.0	male	white	2.243931555909272	neutral	130	sub-09	1.0	4.0	130_neutral	0.0		124.33428287338393	
17.0	104.25544669938245	fix	1.0		444	19.0	male	white	2.243931555909272	neutral	130	sub-09	1.0	4.0	130_neutral	0.0		124.98416249299771	3.7665821870832588
17.0	104.30554884763478	pulse	1.0	t		19.0	male	white	2.243931555909272	neutral	130	sub-09	1.0	4.0	130_neutral	0.0		125.03426464125005	
17.0	105.00553333220887	pulse	1.0	t		19.0	male	white	2.243931555909272	neutral	130	sub-09	1.0	4.0	130_neutral	0.0		125.73424912582414	
17.0	105.70551811863697	pulse	1.0	t		19.0	male	white	2.243931555909272	neutral	130	sub-09	1.0	4.0	130_neutral	0.0		126.43423391225224	
17.0	106.40551739418152	pulse	1.0	t		19.0	male	white	2.243931555909272	neutral	130	sub-09	1.0	4.0	130_neutral	0.0		127.13423318779678	
17.0	107.10550006761696	pulse	1.0	t		19.0	male	white	2.243931555909272	neutral	130	sub-09	1.0	4.0	130_neutral	0.0		127.83421586123222	
17.0	107.80548787261068	pulse	1.0	t		19.0	male	white	2.243931555909272	neutral	130	sub-09	1.0	4.0	130_neutral	0.0		128.53420366622595	
18.0	108.0220288864657	face	0.0		145	28.0	female	white	5.676880222841227	neutral	124	sub-09	1.0	4.0	124_neutral	0.0		128.75074468008097	1.2333429524951498
18.0	108.5054946945711	pulse	0.0	t		28.0	female	white	5.676880222841227	neutral	124	sub-09	1.0	4.0	124_neutral	0.0		129.23421048818636	
18.0	109.20547374572561	pulse	0.0	t		28.0	female	white	5.676880222841227	neutral	124	sub-09	1.0	4.0	124_neutral	0.0		129.93418953934088	
18.0	109.25537183896085	fix	1.0		445	28.0	female	white	5.676880222841227	neutral	124	sub-09	1.0	4.0	124_neutral	0.0		129.98408763257612	3.75836504839026
18.0	109.90546185258063	pulse	1.0	t		28.0	female	white	5.676880222841227	neutral	124	sub-09	1.0	4.0	124_neutral	0.0		130.6341776461959	
18.0	110.6054433185891	pulse	1.0	t		28.0	female	white	5.676880222841227	neutral	124	sub-09	1.0	4.0	124_neutral	0.0		131.33415911220436	
18.0	111.30542418088226	pulse	1.0	t		28.0	female	white	5.676880222841227	neutral	124	sub-09	1.0	4.0	124_neutral	0.0		132.03413997449752	
18.0	112.00542738056174	pulse	1.0	t		28.0	female	white	5.676880222841227	neutral	124	sub-09	1.0	4.0	124_neutral	0.0		132.734143174177	
18.0	112.7054151855591	pulse	1.0	t		28.0	female	white	5.676880222841227	neutral	124	sub-09	1.0	4.0	124_neutral	0.0		133.43413097917437	
19.0	113.01373688735112	face	0.0		146	20.0	female	white	3.9502586549940313	smiling	091	sub-09	1.0	4.0	091_smiling	1.0	dominance	133.74245268096638	1.2415431872213958
19.0	113.40540812211475	pulse	0.0	t		20.0	female	white	3.9502586549940313	smiling	091	sub-09	1.0	4.0	091_smiling	1.0	dominance	134.13412391573002	
19.0	114.10539592711211	pulse	0.0	t		20.0	female	white	3.9502586549940313	smiling	091	sub-09	1.0	4.0	091_smiling	1.0	dominance	134.83411172072738	
19.0	114.25528007457251	fix	1.0		177	20.0	female	white	3.9502586549940313	smiling	091	sub-09	1.0	4.0	091_smiling	1.0	dominance	134.98399586818778	1.4999957740074024
19.0	114.80538795809844	pulse	1.0	t		20.0	female	white	3.9502586549940313	smiling	091	sub-09	1.0	4.0	091_smiling	1.0	dominance	135.5341037517137	
19.0	115.50537485752284	pulse	1.0	t		20.0	female	white	3.9502586549940313	smiling	091	sub-09	1.0	4.0	091_smiling	1.0	dominance	136.2340906511381	
19.0	115.75527584857991	rating	2.0		295	20.0	female	white	3.9502586549940313	smiling	091	sub-09	1.0	4.0	091_smiling	1.0	dominance	136.48399164219518	2.4999583437966066
19.0	116.20008590837097	pulse	2.0	t		20.0	female	white	3.9502586549940313	smiling	091	sub-09	1.0	4.0	091_smiling	1.0	dominance	136.92880170198623	
19.0	116.90018630585473	pulse	2.0	t		20.0	female	white	3.9502586549940313	smiling	091	sub-09	1.0	4.0	091_smiling	1.0	dominance	137.62890209947	
19.0	116.97200099491965	response	2.0	n		20.0	female	white	3.9502586549940313	smiling	091	sub-09	1.0	4.0	091_smiling	1.0	dominance	137.70071678853492	
19.0	117.60533797065727	pulse	2.0	t		20.0	female	white	3.9502586549940313	smiling	091	sub-09	1.0	4.0	091_smiling	1.0	dominance	138.33405376427254	
19.0	118.25523419237652	fix	3.0		443	20.0	female	white	3.9502586549940313	smiling	091	sub-09	1.0	4.0	091_smiling	1.0	dominance	138.98394998599179	3.758316751347593
19.0	118.30533543505953	pulse	3.0	t		20.0	female	white	3.9502586549940313	smiling	091	sub-09	1.0	4.0	091_smiling	1.0	dominance	139.0340512286748	
19.0	119.0053190140643	pulse	3.0	t		20.0	female	white	3.9502586549940313	smiling	091	sub-09	1.0	4.0	091_smiling	1.0	dominance	139.73403480767956	
19.0	119.7053122524776	pulse	3.0	t		20.0	female	white	3.9502586549940313	smiling	091	sub-09	1.0	4.0	091_smiling	1.0	dominance	140.43402804609286	
19.0	120.40530911317182	pulse	3.0	t		20.0	female	white	3.9502586549940313	smiling	091	sub-09	1.0	4.0	091_smiling	1.0	dominance	141.1340249067871	
19.0	121.1053720804448	pulse	3.0	t		20.0	female	white	3.9502586549940313	smiling	091	sub-09	1.0	4.0	091_smiling	1.0	dominance	141.83408787406006	
19.0	121.80537678940527	pulse	3.0	t		20.0	female	white	3.9502586549940313	smiling	091	sub-09	1.0	4.0	091_smiling	1.0	dominance	142.53409258302054	
20.0	122.01355094372411	face	0.0		146	20.0	female	white	3.9502586549940313	neutral	091	sub-09	1.0	4.0	091_neutral	0.0		142.74226673733938	1.2416086900884693
20.0	122.50528218756881	pulse	0.0	t		20.0	female	white	3.9502586549940313	neutral	091	sub-09	1.0	4.0	091_neutral	0.0		143.23399798118407	
20.0	123.20527391669748	pulse	0.0	t		20.0	female	white	3.9502586549940313	neutral	091	sub-09	1.0	4.0	091_neutral	0.0		143.93398971031274	
20.0	123.25515963381258	fix	1.0		1185	20.0	female	white	3.9502586549940313	neutral	091	sub-09	1.0	4.0	091_neutral	0.0		143.98387542742785	10.008162804511812
20.0	123.90526081612552	pulse	1.0	t		20.0	female	white	3.9502586549940313	neutral	091	sub-09	1.0	4.0	091_neutral	0.0		144.63397660974078	
20.0	124.60524409327263	pulse	1.0	t		20.0	female	white	3.9502586549940313	neutral	091	sub-09	1.0	4.0	091_neutral	0.0		145.3339598868879	
20.0	125.30522284257313	pulse	1.0	t		20.0	female	white	3.9502586549940313	neutral	091	sub-09	1.0	4.0	091_neutral	0.0		146.0339386361884	
20.0	126.00521940140607	pulse	1.0	t		20.0	female	white	3.9502586549940313	neutral	091	sub-09	1.0	4.0	091_neutral	0.0		146.73393519502133	
20.0	126.70521324353467	pulse	1.0	t		20.0	female	white	3.9502586549940313	neutral	091	sub-09	1.0	4.0	091_neutral	0.0		147.43392903714994	
20.0	127.40518987983887	pulse	1.0	t		20.0	female	white	3.9502586549940313	neutral	091	sub-09	1.0	4.0	091_neutral	0.0		148.13390567345414	
20.0	128.10519217394904	pulse	1.0	t		20.0	female	white	3.9502586549940313	neutral	091	sub-09	1.0	4.0	091_neutral	0.0		148.8339079675643	
20.0	128.80518058265807	pulse	1.0	t		20.0	female	white	3.9502586549940313	neutral	091	sub-09	1.0	4.0	091_neutral	0.0		149.53389637627333	
20.0	129.50516295423586	pulse	1.0	t		20.0	female	white	3.9502586549940313	neutral	091	sub-09	1.0	4.0	091_neutral	0.0		150.23387874785112	
20.0	130.20514743880995	pulse	1.0	t		20.0	female	white	3.9502586549940313	neutral	091	sub-09	1.0	4.0	091_neutral	0.0		150.9338632324252	
20.0	130.9051340363767	pulse	1.0	t		20.0	female	white	3.9502586549940313	neutral	091	sub-09	1.0	4.0	091_neutral	0.0		151.63384982999196	
20.0	131.60512304880103	pulse	1.0	t		20.0	female	white	3.9502586549940313	neutral	091	sub-09	1.0	4.0	091_neutral	0.0		152.3338388424163	
20.0	132.30510874079846	pulse	1.0	t		20.0	female	white	3.9502586549940313	neutral	091	sub-09	1.0	4.0	091_neutral	0.0		153.03382453441372	
20.0	133.005107714489	pulse	1.0	t		20.0	female	white	3.9502586549940313	neutral	091	sub-09	1.0	4.0	091_neutral	0.0		153.73382350810425	
21.0	133.2633224383244	face	0.0		146	31.0	female	east_asian	3.395941106247513	neutral	087	sub-09	1.0	4.0	087_neutral	0.0		153.99203823193966	1.2416678539702843
21.0	133.70510246218328	pulse	0.0	t		31.0	female	east_asian	3.395941106247513	neutral	087	sub-09	1.0	4.0	087_neutral	0.0		154.43381825579854	
21.0	134.40509328574626	pulse	0.0	t		31.0	female	east_asian	3.395941106247513	neutral	087	sub-09	1.0	4.0	087_neutral	0.0		155.13380907936153	
21.0	134.50499029229468	fix	1.0		444	31.0	female	east_asian	3.395941106247513	neutral	087	sub-09	1.0	4.0	087_neutral	0.0		155.23370608590994	3.758258794892754
21.0	135.10509225943315	pulse	1.0	t		31.0	female	east_asian	3.395941106247513	neutral	087	sub-09	1.0	4.0	087_neutral	0.0		155.83380805304841	
21.0	135.80507131058766	pulse	1.0	t		31.0	female	east_asian	3.395941106247513	neutral	087	sub-09	1.0	4.0	087_neutral	0.0		156.53378710420293	
21.0	136.50506485085862	pulse	1.0	t		31.0	female	east_asian	3.395941106247513	neutral	087	sub-09	1.0	4.0	087_neutral	0.0		157.23378064447388	
21.0	137.2050390723125	pulse	1.0	t		31.0	female	east_asian	3.395941106247513	neutral	087	sub-09	1.0	4.0	087_neutral	0.0		157.93375486592777	
21.0	137.90508543747637	pulse	1.0	t		31.0	female	east_asian	3.395941106247513	neutral	087	sub-09	1.0	4.0	087_neutral	0.0		158.63380123109164	
22.0	138.26324908718743	face	0.0		146	31.0	female	west_asian	2.364902506963788	smiling	006	sub-09	1.0	4.0	006_smiling	0.0		158.9919648808027	1.2416491388612485
22.0	138.60503037884337	pulse	0.0	t		31.0	female	west_asian	2.364902506963788	smiling	006	sub-09	1.0	4.0	006_smiling	0.0		159.33374617245863	
22.0	139.30500127987398	pulse	0.0	t		31.0	female	west_asian	2.364902506963788	smiling	006	sub-09	1.0	4.0	006_smiling	0.0		160.03371707348924	
22.0	139.50489822604868	fix	1.0		444	31.0	female	west_asian	2.364902506963788	smiling	006	sub-09	1.0	4.0	006_smiling	0.0		160.23361401966395	3.7582597004620766
22.0	140.00501595010064	pulse	1.0	t		31.0	female	west_asian	2.364902506963788	smiling	006	sub-09	1.0	4.0	006_smiling	0.0		160.7337317437159	
22.0	140.7050016421017	pulse	1.0	t		31.0	female	west_asian	2.364902506963788	smiling	006	sub-09	1.0	4.0	006_smiling	0.0		161.43371743571697	
22.0	141.40498733409913	pulse	1.0	t		31.0	female	west_asian	2.364902506963788	smiling	006	sub-09	1.0	4.0	006_smiling	0.0		162.1337031277144	
22.0	142.10497242238853	pulse	1.0	t		31.0	female	west_asian	2.364902506963788	smiling	006	sub-09	1.0	4.0	006_smiling	0.0		162.8336882160038	
22.0	142.80495690696262	pulse	1.0	t		31.0	female	west_asian	2.364902506963788	smiling	006	sub-09	1.0	4.0	006_smiling	0.0		163.53367270057788	
23.0	143.26315792651076	face	0.0		146	21.0	male	black	2.969757262236371	neutral	137	sub-09	1.0	4.0	137_neutral	0.0		163.99187372012602	1.2416639298353402
23.0	143.5049516546569	pulse	0.0	t		21.0	male	black	2.969757262236371	neutral	137	sub-09	1.0	4.0	137_neutral	0.0		164.23366744827217	
23.0	144.2049491190628	pulse	0.0	t		21.0	male	black	2.969757262236371	neutral	137	sub-09	1.0	4.0	137_neutral	0.0		164.93366491267807	
23.0	144.5048218563461	fix	1.0		444	21.0	male	black	2.969757262236371	neutral	137	sub-09	1.0	4.0	137_neutral	0.0		165.23353764996136	3.758337277591636
23.0	144.90493118878294	pulse	1.0	t		21.0	male	black	2.969757262236371	neutral	137	sub-09	1.0	4.0	137_neutral	0.0		165.6336469823982	
23.0	145.60491054179874	pulse	1.0	t		21.0	male	black	2.969757262236371	neutral	137	sub-09	1.0	4.0	137_neutral	0.0		166.333626335414	
23.0	146.30490921362798	pulse	1.0	t		21.0	male	black	2.969757262236371	neutral	137	sub-09	1.0	4.0	137_neutral	0.0		167.03362500724324	
23.0	147.0049009427603	pulse	1.0	t		21.0	male	black	2.969757262236371	neutral	137	sub-09	1.0	4.0	137_neutral	0.0		167.73361673637555	
23.0	147.7048950867429	pulse	1.0	t		21.0	male	black	2.969757262236371	neutral	137	sub-09	1.0	4.0	137_neutral	0.0		168.43361088035817	
24.0	148.26315913393773	face	0.0		146	34.0	male	white	2.651014723438122	smiling	121	sub-09	1.0	4.0	121_smiling	0.0		168.991874927553	1.2415999362492585
24.0	148.40487564718205	pulse	0.0	t		34.0	male	white	2.651014723438122	smiling	121	sub-09	1.0	4.0	121_smiling	0.0		169.13359144079732	
24.0	149.10487552643826	pulse	0.0	t		34.0	male	white	2.651014723438122	smiling	121	sub-09	1.0	4.0	121_smiling	0.0		169.83359132005353	
24.0	149.504759070187	fix	1.0		444	34.0	male	white	2.651014723438122	smiling	121	sub-09	1.0	4.0	121_smiling	0.0		170.23347486380226	3.76659607248439
24.0	149.8048684629939	pulse	1.0	t		34.0	male	white	2.651014723438122	smiling	121	sub-09	1.0	4.0	121_smiling	0.0		170.53358425660917	
24.0	150.50485687170294	pulse	1.0	t		34.0	male	white	2.651014723438122	smiling	121	sub-09	1.0	4.0	121_smiling	0.0		171.2335726653182	
24.0	151.2048238485986	pulse	1.0	t		34.0	male	white	2.651014723438122	smiling	121	sub-09	1.0	4.0	121_smiling	0.0		171.93353964221387	
24.0	151.9048192000082	pulse	1.0	t		34.0	male	white	2.651014723438122	smiling	121	sub-09	1.0	4.0	121_smiling	0.0		172.63353499362347	
24.0	152.60480760871724	pulse	1.0	t		34.0	male	white	2.651014723438122	smiling	121	sub-09	1.0	4.0	121_smiling	0.0		173.3335234023325	
25.0	153.27135514267138	face	0.0		145	24.0	male	white	3.1153999204138483	neutral	012	sub-09	1.0	4.0	012_neutral	0.0		174.00007093628665	1.2333284633787116
25.0	153.30481292139302	pulse	0.0	t		24.0	male	white	3.1153999204138483	neutral	012	sub-09	1.0	4.0	012_neutral	0.0		174.0335287150083	
25.0	154.00480283938305	pulse	0.0	t		24.0	male	white	3.1153999204138483	neutral	012	sub-09	1.0	4.0	012_neutral	0.0		174.7335186329983	
25.0	154.5046836060501	fix	1.0		443	24.0	male	white	3.1153999204138483	neutral	012	sub-09	1.0	4.0	012_neutral	0.0		175.23339939966536	3.7665797722329444
25.0	154.70479396480368	pulse	1.0	t		24.0	male	white	3.1153999204138483	neutral	012	sub-09	1.0	4.0	012_neutral	0.0		175.43350975841895	
25.0	155.40477482709684	pulse	1.0	t		24.0	male	white	3.1153999204138483	neutral	012	sub-09	1.0	4.0	012_neutral	0.0		176.1334906207121	
25.0	156.1047626320942	pulse	1.0	t		24.0	male	white	3.1153999204138483	neutral	012	sub-09	1.0	4.0	012_neutral	0.0		176.83347842570947	
25.0	156.8047579835038	pulse	1.0	t		24.0	male	white	3.1153999204138483	neutral	012	sub-09	1.0	4.0	012_neutral	0.0		177.53347377711907	
25.0	157.50474367550123	pulse	1.0	t		24.0	male	white	3.1153999204138483	neutral	012	sub-09	1.0	4.0	012_neutral	0.0		178.2334594691165	
25.0	158.20471759509746	pulse	1.0	t		24.0	male	white	3.1153999204138483	neutral	012	sub-09	1.0	4.0	012_neutral	0.0		178.93343338871273	
26.0	158.27126337828304	face	0.0		146	24.0	female	black	3.0955033824114606	neutral	099	sub-09	1.0	4.0	099_neutral	0.0		178.9999791718983	1.233344763633795
26.0	158.9047313597548	pulse	0.0	t		24.0	female	black	3.0955033824114606	neutral	099	sub-09	1.0	4.0	099_neutral	0.0		179.63344715337007	
26.0	159.50460814191683	fix	1.0		443	24.0	female	black	3.0955033824114606	neutral	099	sub-09	1.0	4.0	099_neutral	0.0		180.2333239355321	3.7665803759446135
26.0	159.6047520671127	pulse	1.0	t		24.0	female	black	3.0955033824114606	neutral	099	sub-09	1.0	4.0	099_neutral	0.0		180.33346786072798	
26.0	160.30470274375693	pulse	1.0	t		24.0	female	black	3.0955033824114606	neutral	099	sub-09	1.0	4.0	099_neutral	0.0		181.0334185373722	
26.0	161.00468662461572	pulse	1.0	t		24.0	female	black	3.0955033824114606	neutral	099	sub-09	1.0	4.0	099_neutral	0.0		181.73340241823098	
26.0	161.70468288159464	pulse	1.0	t		24.0	female	black	3.0955033824114606	neutral	099	sub-09	1.0	4.0	099_neutral	0.0		182.4333986752099	
26.0	162.40466555503008	pulse	1.0	t		24.0	female	black	3.0955033824114606	neutral	099	sub-09	1.0	4.0	099_neutral	0.0		183.13338134864534	
26.0	163.10465064331584	pulse	1.0	t		24.0	female	black	3.0955033824114606	neutral	099	sub-09	1.0	4.0	099_neutral	0.0		183.8333664369311	
27.0	163.27118851786145	face	0.0		146	20.0	male	black	3.1070433744528456	neutral	082	sub-09	1.0	4.0	082_neutral	0.0		183.9999043114767	1.233330878232664
27.0	163.8046426743058	pulse	0.0	t		20.0	male	black	3.1070433744528456	neutral	082	sub-09	1.0	4.0	082_neutral	0.0		184.53335846792106	
27.0	164.5045193960941	fix	1.0		444	20.0	male	black	3.1070433744528456	neutral	082	sub-09	1.0	4.0	082_neutral	0.0		185.23323518970938	3.7665930539187684
27.0	164.51208663765647	pulse	1.0	t		20.0	male	black	3.1070433744528456	neutral	082	sub-09	1.0	4.0	082_neutral	0.0		185.24080243127173	
27.0	165.20461798243923	pulse	1.0	t		20.0	male	black	3.1070433744528456	neutral	082	sub-09	1.0	4.0	082_neutral	0.0		185.9333337760545	
27.0	165.90460669300592	pulse	1.0	t		20.0	male	black	3.1070433744528456	neutral	082	sub-09	1.0	4.0	082_neutral	0.0		186.63332248662118	
27.0	166.60458936644136	pulse	1.0	t		20.0	male	black	3.1070433744528456	neutral	082	sub-09	1.0	4.0	082_neutral	0.0		187.33330516005663	
27.0	167.30457686958107	pulse	1.0	t		20.0	male	black	3.1070433744528456	neutral	082	sub-09	1.0	4.0	082_neutral	0.0		188.03329266319633	
27.0	168.00457825811827	pulse	1.0	t		20.0	male	black	3.1070433744528456	neutral	082	sub-09	1.0	4.0	082_neutral	0.0		188.73329405173354	
28.0	168.27111245001288	face	0.0		145	54.0	female	white	2.286908077994429	smiling	136	sub-09	1.0	4.0	136_smiling	0.0		188.99982824362814	1.2333293689516722
28.0	168.70458145779776	pulse	0.0	t		54.0	female	white	2.286908077994429	smiling	136	sub-09	1.0	4.0	136_smiling	0.0		189.43329725141302	
28.0	169.40454420870083	pulse	0.0	t		54.0	female	white	2.286908077994429	smiling	136	sub-09	1.0	4.0	136_smiling	0.0		190.1332600023161	
28.0	169.50444181896455	fix	1.0		444	54.0	female	white	2.286908077994429	smiling	136	sub-09	1.0	4.0	136_smiling	0.0		190.23315761257982	3.7666141838744807
28.0	170.10456008635447	pulse	1.0	t		54.0	female	white	2.286908077994429	smiling	136	sub-09	1.0	4.0	136_smiling	0.0		190.83327587996973	
28.0	170.8045406467936	pulse	1.0	t		54.0	female	white	2.286908077994429	smiling	136	sub-09	1.0	4.0	136_smiling	0.0		191.53325644040888	
28.0	171.50453871491118	pulse	1.0	t		54.0	female	white	2.286908077994429	smiling	136	sub-09	1.0	4.0	136_smiling	0.0		192.23325450852644	
28.0	172.2045168605	pulse	1.0	t		54.0	female	white	2.286908077994429	smiling	136	sub-09	1.0	4.0	136_smiling	0.0		192.93323265411527	
28.0	172.9045137211906	pulse	1.0	t		54.0	female	white	2.286908077994429	smiling	136	sub-09	1.0	4.0	136_smiling	0.0		193.63322951480586	
29.0	173.27105600283903	face	0.0		145	19.0	female	white	4.298846000795861	smiling	100	sub-09	1.0	4.0	100_smiling	0.0		193.9997717964543	1.233324841105059
29.0	173.60450665774988	pulse	0.0	t		19.0	female	white	4.298846000795861	smiling	100	sub-09	1.0	4.0	100_smiling	0.0		194.33322245136515	
29.0	174.3044814829118	pulse	0.0	t		19.0	female	white	4.298846000795861	smiling	100	sub-09	1.0	4.0	100_smiling	0.0		195.03319727652706	
29.0	174.5043808439441	fix	1.0		444	19.0	female	white	4.298846000795861	smiling	100	sub-09	1.0	4.0	100_smiling	0.0		195.23309663755936	3.7582657375933195
29.0	175.00448438073727	pulse	1.0	t		19.0	female	white	4.298846000795861	smiling	100	sub-09	1.0	4.0	100_smiling	0.0		195.73320017435253	
29.0	175.70446584674573	pulse	1.0	t		19.0	female	white	4.298846000795861	smiling	100	sub-09	1.0	4.0	100_smiling	0.0		196.433181640361	
29.0	176.40444912389285	pulse	1.0	t		19.0	female	white	4.298846000795861	smiling	100	sub-09	1.0	4.0	100_smiling	0.0		197.1331649175081	
29.0	177.10444447530244	pulse	1.0	t		19.0	female	white	4.298846000795861	smiling	100	sub-09	1.0	4.0	100_smiling	0.0		197.8331602689177	
29.0	177.8044352988618	pulse	1.0	t		19.0	female	white	4.298846000795861	smiling	100	sub-09	1.0	4.0	100_smiling	0.0		198.53315109247706	
30.0	178.2626465815374	face	0.0		146	22.0	male	black	2.767608436132113	smiling	044	sub-09	1.0	4.0	044_smiling	0.0		198.99136237515268	1.2416446110146353
30.0	178.50443004655972	pulse	0.0	t		22.0	male	black	2.767608436132113	smiling	044	sub-09	1.0	4.0	044_smiling	0.0		199.23314584017498	
30.0	179.20441211627985	pulse	0.0	t		22.0	male	black	2.767608436132113	smiling	044	sub-09	1.0	4.0	044_smiling	0.0		199.93312790989512	
30.0	179.50429119255205	fix	1.0		444	22.0	male	black	2.767608436132113	smiling	044	sub-09	1.0	4.0	044_smiling	0.0		200.2330069861673	3.766596676196059
30.0	179.90441380667835	pulse	1.0	t		22.0	male	black	2.767608436132113	smiling	044	sub-09	1.0	4.0	044_smiling	0.0		200.6331296002936	
30.0	180.60438470770532	pulse	1.0	t		22.0	male	black	2.767608436132113	smiling	044	sub-09	1.0	4.0	044_smiling	0.0		201.3331005013206	
30.0	181.30438096468424	pulse	1.0	t		22.0	male	black	2.767608436132113	smiling	044	sub-09	1.0	4.0	044_smiling	0.0		202.0330967582995	
30.0	182.00436544925833	pulse	1.0	t		22.0	male	black	2.767608436132113	smiling	044	sub-09	1.0	4.0	044_smiling	0.0		202.7330812428736	
30.0	182.70435385796736	pulse	1.0	t		22.0	male	black	2.767608436132113	smiling	044	sub-09	1.0	4.0	044_smiling	0.0		203.43306965158263	
31.0	183.2708878687481	face	0.0		145	25.0	female	west_asian	2.6756864305610826	smiling	064	sub-09	1.0	4.0	064_smiling	0.0		203.99960366236337	1.2333284633823496
31.0	183.40434468153035	pulse	0.0	t		25.0	female	west_asian	2.6756864305610826	smiling	064	sub-09	1.0	4.0	064_smiling	0.0		204.1330604751456	
31.0	184.10433852365531	pulse	0.0	t		25.0	female	west_asian	2.6756864305610826	smiling	064	sub-09	1.0	4.0	064_smiling	0.0		204.83305431727058	
31.0	184.50421633213045	fix	1.0		444	25.0	female	west_asian	2.6756864305610826	smiling	064	sub-09	1.0	4.0	064_smiling	0.0		205.23293212574572	3.766592752061115
31.0	184.80432753607965	pulse	1.0	t		25.0	female	west_asian	2.6756864305610826	smiling	064	sub-09	1.0	4.0	064_smiling	0.0		205.53304332969492	
31.0	185.50430417238385	pulse	1.0	t		25.0	female	west_asian	2.6756864305610826	smiling	064	sub-09	1.0	4.0	064_smiling	0.0		206.23301996599912	
31.0	186.20430857948668	pulse	1.0	t		25.0	female	west_asian	2.6756864305610826	smiling	064	sub-09	1.0	4.0	064_smiling	0.0		206.93302437310194	
31.0	186.90429547891472	pulse	1.0	t		25.0	female	west_asian	2.6756864305610826	smiling	064	sub-09	1.0	4.0	064_smiling	0.0		207.63301127252998	
31.0	187.6042944526016	pulse	1.0	t		25.0	female	west_asian	2.6756864305610826	smiling	064	sub-09	1.0	4.0	064_smiling	0.0		208.33301024621687	
32.0	188.27080908419157	face	0.0		145	22.0	female	west_asian	3.8205332272184642	neutral	066	sub-09	1.0	4.0	066_neutral	0.0		208.99952487780683	1.233344159922126
32.0	188.30427259819044	pulse	0.0	t		22.0	female	west_asian	3.8205332272184642	neutral	066	sub-09	1.0	4.0	066_neutral	0.0		209.0329883918057	
32.0	189.00427096816202	pulse	0.0	t		22.0	female	west_asian	3.8205332272184642	neutral	066	sub-09	1.0	4.0	066_neutral	0.0		209.73298676177728	
32.0	189.5041532441137	fix	1.0		443	22.0	female	west_asian	3.8205332272184642	neutral	066	sub-09	1.0	4.0	066_neutral	0.0		210.23286903772896	3.76659607248439
32.0	189.70426239543667	pulse	1.0	t		22.0	female	west_asian	3.8205332272184642	neutral	066	sub-09	1.0	4.0	066_neutral	0.0		210.43297818905194	
32.0	190.40424537072977	pulse	1.0	t		22.0	female	west_asian	3.8205332272184642	neutral	066	sub-09	1.0	4.0	066_neutral	0.0		211.13296116434503	
32.0	191.10423196830016	pulse	1.0	t		22.0	female	west_asian	3.8205332272184642	neutral	066	sub-09	1.0	4.0	066_neutral	0.0		211.83294776191542	
32.0	191.80422399928648	pulse	1.0	t		22.0	female	west_asian	3.8205332272184642	neutral	066	sub-09	1.0	4.0	066_neutral	0.0		212.53293979290174	
32.0	192.5042139172765	pulse	1.0	t		22.0	female	west_asian	3.8205332272184642	neutral	066	sub-09	1.0	4.0	066_neutral	0.0		213.23292971089177	
32.0	193.2042035334125	pulse	1.0	t		22.0	female	west_asian	3.8205332272184642	neutral	066	sub-09	1.0	4.0	066_neutral	0.0		213.93291932702778	
33.0	193.27074931659808	face	0.0		146	19.0	male	white	3.2522881018702745	neutral	018	sub-09	1.0	4.0	018_neutral	1.0	trustworthiness	213.99946511021335	1.233314879835234
33.0	193.90419737553748	pulse	0.0	t		19.0	male	white	3.2522881018702745	neutral	018	sub-09	1.0	4.0	018_neutral	1.0	trustworthiness	214.63291316915274	
33.0	194.50406419643332	fix	1.0		177	19.0	male	white	3.2522881018702745	neutral	018	sub-09	1.0	4.0	018_neutral	1.0	trustworthiness	215.23277999004858	1.4999776626173116
33.0	194.6041770304073	pulse	1.0	t		19.0	male	white	3.2522881018702745	neutral	018	sub-09	1.0	4.0	018_neutral	1.0	trustworthiness	215.33289282402257	
33.0	195.3041615149814	pulse	1.0	t		19.0	male	white	3.2522881018702745	neutral	018	sub-09	1.0	4.0	018_neutral	1.0	trustworthiness	216.03287730859665	
33.0	196.00404185905063	rating	2.0		294	19.0	male	white	3.2522881018702745	neutral	018	sub-09	1.0	4.0	018_neutral	1.0	trustworthiness	216.7327576526659	2.4999743421940366
33.0	195.99916778152328	pulse	2.0	t		19.0	male	white	3.2522881018702745	neutral	018	sub-09	1.0	4.0	018_neutral	1.0	trustworthiness	216.72788357513855	
33.0	196.69887093580473	pulse	2.0	t		19.0	male	white	3.2522881018702745	neutral	018	sub-09	1.0	4.0	018_neutral	1.0	trustworthiness	217.42758672942	
33.0	197.3988460628243	pulse	2.0	t		19.0	male	white	3.2522881018702745	neutral	018	sub-09	1.0	4.0	018_neutral	1.0	trustworthiness	218.12756185643957	
33.0	197.88746848617666	response	2.0	w		19.0	male	white	3.2522881018702745	neutral	018	sub-09	1.0	4.0	018_neutral	1.0	trustworthiness	218.61618427979192	
33.0	198.09881877499356	pulse	2.0	t		19.0	male	white	3.2522881018702745	neutral	018	sub-09	1.0	4.0	018_neutral	1.0	trustworthiness	218.82753456860883	
33.0	198.50401620124467	fix	3.0		444	19.0	male	white	3.2522881018702745	neutral	018	sub-09	1.0	4.0	018_neutral	1.0	trustworthiness	219.23273199485993	3.7665809796562826
33.0	198.80412529219757	pulse	3.0	t		19.0	male	white	3.2522881018702745	neutral	018	sub-09	1.0	4.0	018_neutral	1.0	trustworthiness	219.53284108581283	
33.0	199.5041058526367	pulse	3.0	t		19.0	male	white	3.2522881018702745	neutral	018	sub-09	1.0	4.0	018_neutral	1.0	trustworthiness	220.23282164625198	
33.0	200.20409546877272	pulse	3.0	t		19.0	male	white	3.2522881018702745	neutral	018	sub-09	1.0	4.0	018_neutral	1.0	trustworthiness	220.932811262388	
33.0	200.90408236819712	pulse	3.0	t		19.0	male	white	3.2522881018702745	neutral	018	sub-09	1.0	4.0	018_neutral	1.0	trustworthiness	221.6327981618124	
33.0	201.60406745648652	pulse	3.0	t		19.0	male	white	3.2522881018702745	neutral	018	sub-09	1.0	4.0	018_neutral	1.0	trustworthiness	222.33278325010178	
34.0	202.27059718090095	face	0.0		145	24.0	male	white	3.1153999204138483	smiling	012	sub-09	1.0	4.0	012_smiling	0.0		222.99931297451622	1.2333302745209949
34.0	202.3040658264581	pulse	0.0	t		24.0	male	white	3.1153999204138483	smiling	012	sub-09	1.0	4.0	012_smiling	0.0		223.03278162007337	
34.0	203.00404427390458	pulse	0.0	t		24.0	male	white	3.1153999204138483	smiling	012	sub-09	1.0	4.0	012_smiling	0.0		223.73276006751985	
34.0	203.50392745542194	fix	1.0		443	24.0	male	white	3.1153999204138483	smiling	012	sub-09	1.0	4.0	012_smiling	0.0		224.2326432490372	3.758341805441887
34.0	203.70405320885766	pulse	1.0	t		24.0	male	white	3.1153999204138483	smiling	012	sub-09	1.0	4.0	012_smiling	0.0		224.43276900247292	
34.0	204.40402773216556	pulse	1.0	t		24.0	male	white	3.1153999204138483	smiling	012	sub-09	1.0	4.0	012_smiling	0.0		225.13274352578082	
34.0	205.1040285169911	pulse	1.0	t		24.0	male	white	3.1153999204138483	smiling	012	sub-09	1.0	4.0	012_smiling	0.0		225.83274431060636	
34.0	205.8040117941382	pulse	1.0	t		24.0	male	white	3.1153999204138483	smiling	012	sub-09	1.0	4.0	012_smiling	0.0		226.53272758775347	
34.0	206.5039983917086	pulse	1.0	t		24.0	male	white	3.1153999204138483	smiling	012	sub-09	1.0	4.0	012_smiling	0.0		227.23271418532386	
34.0	207.20398529113663	pulse	1.0	t		24.0	male	white	3.1153999204138483	smiling	012	sub-09	1.0	4.0	012_smiling	0.0		227.9327010847519	
35.0	207.26226926086383	face	0.0		147	36.0	female	white	2.7548746518105847	neutral	011	sub-09	1.0	4.0	011_neutral	0.0		227.9909850544791	1.241584239705844
35.0	207.90397309613036	pulse	0.0	t		36.0	female	white	2.7548746518105847	neutral	011	sub-09	1.0	4.0	011_neutral	0.0		228.63268888974562	
35.0	208.50385350056968	fix	1.0		443	36.0	female	white	2.7548746518105847	neutral	011	sub-09	1.0	4.0	011_neutral	0.0		229.23256929418494	3.7665915446377767
35.0	208.60396422154736	pulse	1.0	t		36.0	female	white	2.7548746518105847	neutral	011	sub-09	1.0	4.0	011_neutral	0.0		229.33268001516262	
35.0	209.3039390467129	pulse	1.0	t		36.0	female	white	2.7548746518105847	neutral	011	sub-09	1.0	4.0	011_neutral	0.0		230.03265484032818	
35.0	210.00393892597276	pulse	1.0	t		36.0	female	white	2.7548746518105847	neutral	011	sub-09	1.0	4.0	011_neutral	0.0		230.73265471958803	
35.0	210.70392280683154	pulse	1.0	t		36.0	female	white	2.7548746518105847	neutral	011	sub-09	1.0	4.0	011_neutral	0.0		231.4326386004468	
35.0	211.40390366912834	pulse	1.0	t		36.0	female	white	2.7548746518105847	neutral	011	sub-09	1.0	4.0	011_neutral	0.0		232.1326194627436	
35.0	212.10390052981893	pulse	1.0	t		36.0	female	white	2.7548746518105847	neutral	011	sub-09	1.0	4.0	011_neutral	0.0		232.8326163234342	
36.0	212.27044504520745	face	0.0		146	22.0	male	black	2.767608436132113	neutral	044	sub-09	1.0	4.0	044_neutral	0.0		232.99916083882272	1.2333459710607713
36.0	212.80389678679785	pulse	0.0	t		22.0	male	black	2.767608436132113	neutral	044	sub-09	1.0	4.0	044_neutral	0.0		233.53261258041312	
36.0	213.50379101626822	fix	1.0		444	22.0	male	black	2.767608436132113	neutral	044	sub-09	1.0	4.0	044_neutral	0.0		234.2325068098835	3.766582790794928
36.0	213.51122785580446	pulse	1.0	t		22.0	male	black	2.767608436132113	neutral	044	sub-09	1.0	4.0	044_neutral	0.0		234.23994364941973	
36.0	214.20389081004032	pulse	1.0	t		22.0	male	black	2.767608436132113	neutral	044	sub-09	1.0	4.0	044_neutral	0.0		234.93260660365559	
36.0	214.90386744634452	pulse	1.0	t		22.0	male	black	2.767608436132113	neutral	044	sub-09	1.0	4.0	044_neutral	0.0		235.63258323995979	
36.0	215.60384619564138	pulse	1.0	t		22.0	male	black	2.767608436132113	neutral	044	sub-09	1.0	4.0	044_neutral	0.0		236.33256198925665	
36.0	216.30383098207312	pulse	1.0	t		22.0	male	black	2.767608436132113	neutral	044	sub-09	1.0	4.0	044_neutral	0.0		237.0325467756884	
36.0	217.00382512605574	pulse	1.0	t		22.0	male	black	2.767608436132113	neutral	044	sub-09	1.0	4.0	044_neutral	0.0		237.732540919671	
37.0	217.27037380706315	face	0.0		145	27.0	female	white	4.181058495821727	smiling	039	sub-09	1.0	4.0	039_smiling	0.0		237.99908960067842	1.233324841105059
37.0	217.70382923130455	pulse	0.0	t		27.0	female	white	4.181058495821727	smiling	039	sub-09	1.0	4.0	039_smiling	0.0		238.43254502491982	
37.0	218.4038221678602	pulse	0.0	t		27.0	female	white	4.181058495821727	smiling	039	sub-09	1.0	4.0	039_smiling	0.0		239.13253796147546	
37.0	218.5036986481682	fix	1.0		444	27.0	female	white	4.181058495821727	smiling	039	sub-09	1.0	4.0	039_smiling	0.0		239.23241444178348	3.7666123727358354
37.0	219.10380906728824	pulse	1.0	t		27.0	female	white	4.181058495821727	smiling	039	sub-09	1.0	4.0	039_smiling	0.0		239.8325248609035	
37.0	219.80380321127086	pulse	1.0	t		27.0	female	white	4.181058495821727	smiling	039	sub-09	1.0	4.0	039_smiling	0.0		240.53251900488613	
37.0	220.50377320673215	pulse	1.0	t		27.0	female	white	4.181058495821727	smiling	039	sub-09	1.0	4.0	039_smiling	0.0		241.2324890003474	
37.0	221.2037582950179	pulse	1.0	t		27.0	female	white	4.181058495821727	smiling	039	sub-09	1.0	4.0	039_smiling	0.0		241.93247408863317	
37.0	221.9037681355403	pulse	1.0	t		27.0	female	white	4.181058495821727	smiling	039	sub-09	1.0	4.0	039_smiling	0.0		242.63248392915557	
38.0	222.27031102090405	face	0.0		145	27.0	male	black	3.5523278949462798	smiling	042	sub-09	1.0	4.0	042_smiling	0.0		242.9990268145193	1.2333130686965887
38.0	222.60375382754137	pulse	0.0	t		27.0	male	black	3.5523278949462798	smiling	042	sub-09	1.0	4.0	042_smiling	0.0		243.33246962115663	
38.0	223.30373106755724	pulse	0.0	t		27.0	male	black	3.5523278949462798	smiling	042	sub-09	1.0	4.0	042_smiling	0.0		244.0324468611725	
38.0	223.50362408960063	fix	1.0		444	27.0	male	black	3.5523278949462798	smiling	042	sub-09	1.0	4.0	042_smiling	0.0		244.2323398832159	3.7583547852736956
38.0	224.00374241736426	pulse	1.0	t		27.0	male	black	3.5523278949462798	smiling	042	sub-09	1.0	4.0	042_smiling	0.0		244.73245821097953	
38.0	224.70372780750768	pulse	1.0	t		27.0	male	black	3.5523278949462798	smiling	042	sub-09	1.0	4.0	042_smiling	0.0		245.43244360112294	
38.0	225.40371712178603	pulse	1.0	t		27.0	male	black	3.5523278949462798	smiling	042	sub-09	1.0	4.0	042_smiling	0.0		246.1324329154013	
38.0	226.10369617294418	pulse	1.0	t		27.0	male	black	3.5523278949462798	smiling	042	sub-09	1.0	4.0	042_smiling	0.0		246.83241196655945	
38.0	226.80367794080666	pulse	1.0	t		27.0	male	black	3.5523278949462798	smiling	042	sub-09	1.0	4.0	042_smiling	0.0		247.53239373442193	
39.0	227.26197887487433	face	0.0		146	47.0	male	east_asian	2.171110226820533	smiling	024	sub-09	1.0	4.0	024_smiling	0.0		247.9906946684896	1.2415688450237212
39.0	227.50367872563584	pulse	0.0	t		47.0	male	east_asian	2.171110226820533	smiling	024	sub-09	1.0	4.0	024_smiling	0.0		248.2323945192511	
39.0	228.2036493248088	pulse	0.0	t		47.0	male	east_asian	2.171110226820533	smiling	024	sub-09	1.0	4.0	024_smiling	0.0		248.93236511842406	
39.0	228.50354771989805	fix	1.0		444	47.0	male	east_asian	2.171110226820533	smiling	024	sub-09	1.0	4.0	024_smiling	0.0		249.23226351351332	3.749958041938953
39.0	228.9036549393386	pulse	1.0	t		47.0	male	east_asian	2.171110226820533	smiling	024	sub-09	1.0	4.0	024_smiling	0.0		249.63237073295386	
39.0	229.60363519792372	pulse	1.0	t		47.0	male	east_asian	2.171110226820533	smiling	024	sub-09	1.0	4.0	024_smiling	0.0		250.332350991539	
39.0	230.30364171802285	pulse	1.0	t		47.0	male	east_asian	2.171110226820533	smiling	024	sub-09	1.0	4.0	024_smiling	0.0		251.0323575116381	
39.0	231.00362771188156	pulse	1.0	t		47.0	male	east_asian	2.171110226820533	smiling	024	sub-09	1.0	4.0	024_smiling	0.0		251.73234350549683	
39.0	231.70362306328752	pulse	1.0	t		47.0	male	east_asian	2.171110226820533	smiling	024	sub-09	1.0	4.0	024_smiling	0.0		252.4323388569028	
40.0	232.253505761837	fix	0.0		720													252.98222155545227	5.999909141184617
40.0	232.40361298128119	pulse	0.0	t														253.13232877489645	
40.0	233.10358871201606	pulse	0.0	t														253.83230450563133	
40.0	233.80359191169555	pulse	0.0	t														254.5323077053108	
40.0	234.50357669812365	pulse	0.0	t														255.23229249173892	
40.0	235.2035687291136	pulse	0.0	t														255.93228452272888	
40.0	235.90354355427553	pulse	0.0	t														256.6322593478908	
40.0	236.60355037623594	pulse	0.0	t														257.3322661698512	
40.0	237.30351856055495	pulse	0.0	t														258.0322343541702	
40.0	238.00351723238782	pulse	0.0	t														258.7322330260031	
