trial_nr	onset	event_type	phase	response	nr_frames	face_age	face_sex	face_eth	attractiveness	expression	face_id	sub_id	ses	run	trial_type	catch	rating_type	onset_abs	duration
-1.0	0.05681534853283665	fix	0.0		714													20.047886286595713	5.966173039249952
-1.0	0.7066328794498986	pulse	0.0	t														20.697703817512775	
-1.0	1.406592733233083	pulse	0.0	t														21.39766367129596	
-1.0	2.106577036967792	pulse	0.0	t														22.097647975030668	
-1.0	2.806545342586105	pulse	0.0	t														22.79761628064898	
-1.0	3.506567377728061	pulse	0.0	t														23.497638315790937	
-1.0	4.206513044502572	pulse	0.0	t														24.197583982565448	
-1.0	4.906483764930272	pulse	0.0	t														24.897554702993148	
-1.0	5.606457202020465	pulse	0.0	t														25.59752814008334	
0.0	6.022988387782789	face	0.0		144	25.0	female	black	3.858336649423	smiling	126	sub-07	1.0	6.0	126_smiling	0.0		26.014059325845665	1.233317133982382
0.0	6.306444222416758	pulse	0.0	t		25.0	female	black	3.858336649423	smiling	126	sub-07	1.0	6.0	126_smiling	0.0		26.297515160479634	
0.0	7.006413433588932	pulse	0.0	t		25.0	female	black	3.858336649423	smiling	126	sub-07	1.0	6.0	126_smiling	0.0		26.997484371651808	
0.0	7.256305521765171	fix	1.0		444	25.0	female	black	3.858336649423	smiling	126	sub-07	1.0	6.0	126_smiling	0.0		27.247376459828047	3.7581908846959777
0.0	7.706387776232077	pulse	1.0	t		25.0	female	black	3.858336649423	smiling	126	sub-07	1.0	6.0	126_smiling	0.0		27.697458714294953	
0.0	8.406361213321361	pulse	1.0	t		25.0	female	black	3.858336649423	smiling	126	sub-07	1.0	6.0	126_smiling	0.0		28.397432151384237	
0.0	9.106333744857693	pulse	1.0	t		25.0	female	black	3.858336649423	smiling	126	sub-07	1.0	6.0	126_smiling	0.0		29.09740468292057	
0.0	9.806319557848838	pulse	1.0	t		25.0	female	black	3.858336649423	smiling	126	sub-07	1.0	6.0	126_smiling	0.0		29.797390495911714	
0.0	10.506291485681686	pulse	1.0	t		25.0	female	black	3.858336649423	smiling	126	sub-07	1.0	6.0	126_smiling	0.0		30.497362423744562	
1.0	11.014496406461149	face	0.0		146	31.0	female	west_asian	2.364902506963788	neutral	006	sub-07	1.0	6.0	006_neutral	0.0		31.005567344524025	1.241637361940775
1.0	11.206286354210533	pulse	0.0	t		31.0	female	west_asian	2.364902506963788	neutral	006	sub-07	1.0	6.0	006_neutral	0.0		31.19735729227341	
1.0	11.906303861583183	pulse	0.0	t		31.0	female	west_asian	2.364902506963788	neutral	006	sub-07	1.0	6.0	006_neutral	0.0		31.89737479964606	
1.0	12.256133768401924	fix	1.0		444	31.0	female	west_asian	2.364902506963788	neutral	006	sub-07	1.0	6.0	006_neutral	0.0		32.2472047064648	3.758187262480533
1.0	12.60623232283615	pulse	1.0	t		31.0	female	west_asian	2.364902506963788	neutral	006	sub-07	1.0	6.0	006_neutral	0.0		32.597303260899025	
1.0	13.306216928422145	pulse	1.0	t		31.0	female	west_asian	2.364902506963788	neutral	006	sub-07	1.0	6.0	006_neutral	0.0		33.29728786648502	
1.0	14.006196100685884	pulse	1.0	t		31.0	female	west_asian	2.364902506963788	neutral	006	sub-07	1.0	6.0	006_neutral	0.0		33.99726703874876	
1.0	14.706162897047761	pulse	1.0	t		31.0	female	west_asian	2.364902506963788	neutral	006	sub-07	1.0	6.0	006_neutral	0.0		34.69723383511064	
1.0	15.406145691526945	pulse	1.0	t		31.0	female	west_asian	2.364902506963788	neutral	006	sub-07	1.0	6.0	006_neutral	0.0		35.39721662958982	
2.0	16.014321030882456	face	0.0		146	37.0	male	white	3.898925586947871	neutral	101	sub-07	1.0	6.0	101_neutral	0.0		36.00539196894533	1.241656680421329
2.0	16.10612637304621	pulse	0.0	t		37.0	male	white	3.898925586947871	neutral	101	sub-07	1.0	6.0	101_neutral	0.0		36.097197311109085	
2.0	16.80607807684555	pulse	0.0	t		37.0	male	white	3.898925586947871	neutral	101	sub-07	1.0	6.0	101_neutral	0.0		36.79714901490843	
2.0	17.255977711303785	fix	1.0		444	37.0	male	white	3.898925586947871	neutral	101	sub-07	1.0	6.0	101_neutral	0.0		37.24704864936666	3.758187262480533
2.0	17.506082604614676	pulse	1.0	t		37.0	male	white	3.898925586947871	neutral	101	sub-07	1.0	6.0	101_neutral	0.0		37.49715354267755	
2.0	18.20604879727398	pulse	1.0	t		37.0	male	white	3.898925586947871	neutral	101	sub-07	1.0	6.0	101_neutral	0.0		38.197119735336855	
2.0	18.906027063983856	pulse	1.0	t		37.0	male	white	3.898925586947871	neutral	101	sub-07	1.0	6.0	101_neutral	0.0		38.89709800204673	
2.0	19.60600170847829	pulse	1.0	t		37.0	male	white	3.898925586947871	neutral	101	sub-07	1.0	6.0	101_neutral	0.0		39.597072646541164	
2.0	20.30598782332072	pulse	1.0	t		37.0	male	white	3.898925586947871	neutral	101	sub-07	1.0	6.0	101_neutral	0.0		40.297058761383596	
3.0	21.014164973784318	face	0.0		147	21.0	male	black	2.969757262236371	neutral	137	sub-07	1.0	6.0	137_neutral	0.0		41.005235911847194	1.241635248982675
3.0	21.00677203287796	pulse	0.0	t		21.0	male	black	2.969757262236371	neutral	137	sub-07	1.0	6.0	137_neutral	0.0		40.99784297094084	
3.0	21.705941941930178	pulse	0.0	t		21.0	male	black	2.969757262236371	neutral	137	sub-07	1.0	6.0	137_neutral	0.0		41.69701287999305	
3.0	22.255800222766993	fix	1.0		443	21.0	male	black	2.969757262236371	neutral	137	sub-07	1.0	6.0	137_neutral	0.0		42.24687116082987	3.7581917902489295
3.0	22.405931678988054	pulse	1.0	t		21.0	male	black	2.969757262236371	neutral	137	sub-07	1.0	6.0	137_neutral	0.0		42.39700261705093	
3.0	23.10589153277124	pulse	1.0	t		21.0	male	black	2.969757262236371	neutral	137	sub-07	1.0	6.0	137_neutral	0.0		43.096962470834114	
3.0	23.805873119844364	pulse	1.0	t		21.0	male	black	2.969757262236371	neutral	137	sub-07	1.0	6.0	137_neutral	0.0		43.79694405790724	
3.0	24.50590662533341	pulse	1.0	t		21.0	male	black	2.969757262236371	neutral	137	sub-07	1.0	6.0	137_neutral	0.0		44.496977563396285	
3.0	25.20583146437093	pulse	1.0	t		21.0	male	black	2.969757262236371	neutral	137	sub-07	1.0	6.0	137_neutral	0.0		45.19690240243381	
3.0	25.905800675543105	pulse	1.0	t		21.0	male	black	2.969757262236371	neutral	137	sub-07	1.0	6.0	137_neutral	0.0		45.89687161360598	
4.0	26.013992013015923	face	0.0		147	47.0	male	east_asian	2.171110226820533	neutral	024	sub-07	1.0	6.0	024_neutral	0.0		46.0050629510788	1.2416554730161806
4.0	26.605780753360705	pulse	0.0	t		47.0	male	east_asian	2.171110226820533	neutral	024	sub-07	1.0	6.0	024_neutral	0.0		46.59685169142358	
4.0	27.255647486032103	fix	1.0		443	47.0	male	east_asian	2.171110226820533	neutral	024	sub-07	1.0	6.0	024_neutral	0.0		47.24671842409498	3.7581987328285322
4.0	27.306048495423056	pulse	1.0	t		47.0	male	east_asian	2.171110226820533	neutral	024	sub-07	1.0	6.0	024_neutral	0.0		47.29711943348593	
4.0	28.00571947755634	pulse	1.0	t		47.0	male	east_asian	2.171110226820533	neutral	024	sub-07	1.0	6.0	024_neutral	0.0		47.996790415619216	
4.0	28.705704988696198	pulse	1.0	t		47.0	male	east_asian	2.171110226820533	neutral	024	sub-07	1.0	6.0	024_neutral	0.0		48.696775926759074	
4.0	29.40567752023162	pulse	1.0	t		47.0	male	east_asian	2.171110226820533	neutral	024	sub-07	1.0	6.0	024_neutral	0.0		49.396748458294496	
4.0	30.105666653586923	pulse	1.0	t		47.0	male	east_asian	2.171110226820533	neutral	024	sub-07	1.0	6.0	024_neutral	0.0		50.0967375916498	
4.0	30.80566574803288	pulse	1.0	t		47.0	male	east_asian	2.171110226820533	neutral	024	sub-07	1.0	6.0	024_neutral	0.0		50.796736686095755	
5.0	31.013846218860635	face	0.0		146	22.0	female	west_asian	3.8205332272184642	neutral	066	sub-07	1.0	6.0	066_neutral	0.0		51.00491715692351	1.241637060089488
5.0	31.505613829617687	pulse	0.0	t		22.0	female	west_asian	3.8205332272184642	neutral	066	sub-07	1.0	6.0	066_neutral	0.0		51.49668476768056	
5.0	32.20559752964982	pulse	0.0	t		22.0	female	west_asian	3.8205332272184642	neutral	066	sub-07	1.0	6.0	066_neutral	0.0		52.1966684677127	
5.0	32.25548327895012	fix	1.0		444	22.0	female	west_asian	3.8205332272184642	neutral	066	sub-07	1.0	6.0	066_neutral	0.0		52.246554217013	3.758194506910513
5.0	32.90556975933396	pulse	1.0	t		22.0	female	west_asian	3.8205332272184642	neutral	066	sub-07	1.0	6.0	066_neutral	0.0		52.89664069739683	
5.0	33.605545913085734	pulse	1.0	t		22.0	female	west_asian	3.8205332272184642	neutral	066	sub-07	1.0	6.0	066_neutral	0.0		53.59661685114861	
5.0	34.305519652026305	pulse	1.0	t		22.0	female	west_asian	3.8205332272184642	neutral	066	sub-07	1.0	6.0	066_neutral	0.0		54.29659059008918	
5.0	35.00549097615749	pulse	1.0	t		22.0	female	west_asian	3.8205332272184642	neutral	066	sub-07	1.0	6.0	066_neutral	0.0		54.996561914220365	
5.0	35.70546592250321	pulse	1.0	t		22.0	female	west_asian	3.8205332272184642	neutral	066	sub-07	1.0	6.0	066_neutral	0.0		55.696536860566084	
6.0	36.01367778586064	face	0.0		146	26.0	male	white	2.7966573816155993	neutral	117	sub-07	1.0	6.0	117_neutral	0.0		56.00474872392351	1.2416430971152295
6.0	36.40545928177562	pulse	0.0	t		26.0	male	white	2.7966573816155993	neutral	117	sub-07	1.0	6.0	117_neutral	0.0		56.396530219838496	
6.0	37.105431511459756	pulse	0.0	t		26.0	male	white	2.7966573816155993	neutral	117	sub-07	1.0	6.0	117_neutral	0.0		57.09650244952263	
6.0	37.255320882975866	fix	1.0		444	26.0	male	white	2.7966573816155993	neutral	117	sub-07	1.0	6.0	117_neutral	0.0		57.24639182103874	3.7665102070996
6.0	37.8054197392612	pulse	1.0	t		26.0	male	white	2.7966573816155993	neutral	117	sub-07	1.0	6.0	117_neutral	0.0		57.79649067732407	
6.0	38.5053949874582	pulse	1.0	t		26.0	male	white	2.7966573816155993	neutral	117	sub-07	1.0	6.0	117_neutral	0.0		58.49646592552108	
6.0	39.2053635949278	pulse	1.0	t		26.0	male	white	2.7966573816155993	neutral	117	sub-07	1.0	6.0	117_neutral	0.0		59.19643453299068	
6.0	39.905337333869284	pulse	1.0	t		26.0	male	white	2.7966573816155993	neutral	117	sub-07	1.0	6.0	117_neutral	0.0		59.89640827193216	
6.0	40.60531710983469	pulse	1.0	t		26.0	male	white	2.7966573816155993	neutral	117	sub-07	1.0	6.0	117_neutral	0.0		60.59638804789756	
7.0	41.021831090075466	face	0.0		145	19.0	male	white	2.243931555909272	smiling	130	sub-07	1.0	6.0	130_smiling	0.0		61.01290202813834	1.2333252839671331
7.0	41.305304432082266	pulse	0.0	t		19.0	male	white	2.243931555909272	smiling	130	sub-07	1.0	6.0	130_smiling	0.0		61.29637537014514	
7.0	42.0052769636186	pulse	0.0	t		19.0	male	white	2.243931555909272	smiling	130	sub-07	1.0	6.0	130_smiling	0.0		61.996347901681474	
7.0	42.2551563740426	fix	1.0		444	19.0	male	white	2.243931555909272	smiling	130	sub-07	1.0	6.0	130_smiling	0.0		62.246227312105475	3.758212919837206
7.0	42.70524345812919	pulse	1.0	t		19.0	male	white	2.243931555909272	smiling	130	sub-07	1.0	6.0	130_smiling	0.0		62.696314396192065	
7.0	43.405230176674195	pulse	1.0	t		19.0	male	white	2.243931555909272	smiling	130	sub-07	1.0	6.0	130_smiling	0.0		63.39630111473707	
7.0	44.105203010060904	pulse	1.0	t		19.0	male	white	2.243931555909272	smiling	130	sub-07	1.0	6.0	130_smiling	0.0		64.09627394812378	
7.0	44.80517735270496	pulse	1.0	t		19.0	male	white	2.243931555909272	smiling	130	sub-07	1.0	6.0	130_smiling	0.0		64.79624829076783	
7.0	45.5051335842727	pulse	1.0	t		19.0	male	white	2.243931555909272	smiling	130	sub-07	1.0	6.0	130_smiling	0.0		65.49620452233557	
8.0	46.013369293879805	face	0.0		146	22.0	female	white	4.614007162753682	smiling	009	sub-07	1.0	6.0	009_smiling	0.0		66.00444023194268	1.2416252878902014
8.0	46.205147167579526	pulse	0.0	t		22.0	female	white	4.614007162753682	smiling	009	sub-07	1.0	6.0	009_smiling	0.0		66.1962181056424	
8.0	46.9051139639414	pulse	0.0	t		22.0	female	white	4.614007162753682	smiling	009	sub-07	1.0	6.0	009_smiling	0.0		66.89618490200428	
8.0	47.254994581770006	fix	1.0		444	22.0	female	white	4.614007162753682	smiling	009	sub-07	1.0	6.0	009_smiling	0.0		67.24606551983288	3.7665307329862117
8.0	47.605091626948706	pulse	1.0	t		22.0	female	white	4.614007162753682	smiling	009	sub-07	1.0	6.0	009_smiling	0.0		67.59616256501158	
8.0	48.30506627144314	pulse	1.0	t		22.0	female	white	4.614007162753682	smiling	009	sub-07	1.0	6.0	009_smiling	0.0		68.29613720950601	
8.0	49.0050357844666	pulse	1.0	t		22.0	female	white	4.614007162753682	smiling	009	sub-07	1.0	6.0	009_smiling	0.0		68.99610672252948	
8.0	49.705012240068754	pulse	1.0	t		22.0	female	white	4.614007162753682	smiling	009	sub-07	1.0	6.0	009_smiling	0.0		69.69608317813163	
8.0	50.405011636366	pulse	1.0	t		22.0	female	white	4.614007162753682	smiling	009	sub-07	1.0	6.0	009_smiling	0.0		70.39608257442887	
9.0	51.02152531475622	face	0.0		145	25.0	female	west_asian	2.6756864305610826	neutral	064	sub-07	1.0	6.0	064_neutral	0.0		71.0125962528191	1.2333032488249955
9.0	51.10498084753817	pulse	0.0	t		25.0	female	west_asian	2.6756864305610826	neutral	064	sub-07	1.0	6.0	064_neutral	0.0		71.09605178560105	
9.0	51.80494583279324	pulse	0.0	t		25.0	female	west_asian	2.6756864305610826	neutral	064	sub-07	1.0	6.0	064_neutral	0.0		71.79601677085611	
9.0	52.25482856358121	fix	1.0		444	25.0	female	west_asian	2.6756864305610826	neutral	064	sub-07	1.0	6.0	064_neutral	0.0		72.24589950164409	3.7665222811501735
9.0	52.504920779138956	pulse	1.0	t		25.0	female	west_asian	2.6756864305610826	neutral	064	sub-07	1.0	6.0	064_neutral	0.0		72.49599171720183	
9.0	53.204904177319804	pulse	1.0	t		25.0	female	west_asian	2.6756864305610826	neutral	064	sub-07	1.0	6.0	064_neutral	0.0		73.19597511538268	
9.0	53.90487851996295	pulse	1.0	t		25.0	female	west_asian	2.6756864305610826	neutral	064	sub-07	1.0	6.0	064_neutral	0.0		73.89594945802583	
9.0	54.60485225890443	pulse	1.0	t		25.0	female	west_asian	2.6756864305610826	neutral	064	sub-07	1.0	6.0	064_neutral	0.0		74.5959231969673	
9.0	55.304838977449435	pulse	1.0	t		25.0	female	west_asian	2.6756864305610826	neutral	064	sub-07	1.0	6.0	064_neutral	0.0		75.29590991551231	
10.0	56.02135084473139	face	0.0		145	30.0	female	black	2.7345801830481498	smiling	062	sub-07	1.0	6.0	062_smiling	1.0	attractiveness	76.01242178279426	1.2333150210233725
10.0	56.00753209433515	pulse	0.0	t		30.0	female	black	2.7345801830481498	smiling	062	sub-07	1.0	6.0	062_smiling	1.0	attractiveness	75.99860303239802	
10.0	56.70478162571089	pulse	0.0	t		30.0	female	black	2.7345801830481498	smiling	062	sub-07	1.0	6.0	062_smiling	1.0	attractiveness	76.69585256377377	
10.0	57.25466586575476	fix	1.0		177	30.0	female	black	2.7345801830481498	smiling	062	sub-07	1.0	6.0	062_smiling	1.0	attractiveness	77.24573680381764	1.508294872453007
10.0	57.40477317387558	pulse	1.0	t		30.0	female	black	2.7345801830481498	smiling	062	sub-07	1.0	6.0	062_smiling	1.0	attractiveness	77.39584411193846	
10.0	58.10475747761029	pulse	1.0	t		30.0	female	black	2.7345801830481498	smiling	062	sub-07	1.0	6.0	062_smiling	1.0	attractiveness	78.09582841567317	
10.0	58.76296073820777	rating	2.0		293	30.0	female	black	2.7345801830481498	smiling	062	sub-07	1.0	6.0	062_smiling	1.0	attractiveness	78.75403167627064	2.4915717092935665
10.0	58.799504963943946	pulse	2.0	t		30.0	female	black	2.7345801830481498	smiling	062	sub-07	1.0	6.0	062_smiling	1.0	attractiveness	78.79057590200682	
10.0	59.499480815843526	pulse	2.0	t		30.0	female	black	2.7345801830481498	smiling	062	sub-07	1.0	6.0	062_smiling	1.0	attractiveness	79.4905517539064	
10.0	60.199463006620135	pulse	2.0	t		30.0	female	black	2.7345801830481498	smiling	062	sub-07	1.0	6.0	062_smiling	1.0	attractiveness	80.19053394468301	
10.0	60.43276323693226	response	2.0	e		30.0	female	black	2.7345801830481498	smiling	062	sub-07	1.0	6.0	062_smiling	1.0	attractiveness	80.42383417499514	
10.0	60.904638850068295	pulse	2.0	t		30.0	female	black	2.7345801830481498	smiling	062	sub-07	1.0	6.0	062_smiling	1.0	attractiveness	80.89570978813117	
10.0	61.25453244750133	fix	3.0		444	30.0	female	black	2.7345801830481498	smiling	062	sub-07	1.0	6.0	062_smiling	1.0	attractiveness	81.24560338556421	3.7665274126211443
10.0	61.60466299816835	pulse	3.0	t		30.0	female	black	2.7345801830481498	smiling	062	sub-07	1.0	6.0	062_smiling	1.0	attractiveness	81.59573393623123	
10.0	62.30460866494286	pulse	3.0	t		30.0	female	black	2.7345801830481498	smiling	062	sub-07	1.0	6.0	062_smiling	1.0	attractiveness	82.29567960300574	
10.0	63.00457214094058	pulse	3.0	t		30.0	female	black	2.7345801830481498	smiling	062	sub-07	1.0	6.0	062_smiling	1.0	attractiveness	82.99564307900346	
10.0	63.704566405766855	pulse	3.0	t		30.0	female	black	2.7345801830481498	smiling	062	sub-07	1.0	6.0	062_smiling	1.0	attractiveness	83.69563734382973	
10.0	64.40454346507158	pulse	3.0	t		30.0	female	black	2.7345801830481498	smiling	062	sub-07	1.0	6.0	062_smiling	1.0	attractiveness	84.39561440313446	
11.0	65.02105986012248	face	0.0		145	27.0	female	white	3.504576203740549	neutral	144	sub-07	1.0	6.0	144_neutral	0.0		85.01213079818535	1.233299022907886
11.0	65.10454406877398	pulse	0.0	t		27.0	female	white	3.504576203740549	neutral	144	sub-07	1.0	6.0	144_neutral	0.0		85.09561500683685	
11.0	65.80449486701946	pulse	0.0	t		27.0	female	white	3.504576203740549	neutral	144	sub-07	1.0	6.0	144_neutral	0.0		85.79556580508233	
11.0	66.25435888303036	fix	1.0		444	27.0	female	white	3.504576203740549	neutral	144	sub-07	1.0	6.0	144_neutral	0.0		86.24542982109324	3.766525903364709
11.0	66.50447464298577	pulse	1.0	t		27.0	female	white	3.504576203740549	neutral	144	sub-07	1.0	6.0	144_neutral	0.0		86.49554558104865	
11.0	67.20445049488535	pulse	1.0	t		27.0	female	white	3.504576203740549	neutral	144	sub-07	1.0	6.0	144_neutral	0.0		87.19552143294823	
11.0	67.90441638569428	pulse	1.0	t		27.0	female	white	3.504576203740549	neutral	144	sub-07	1.0	6.0	144_neutral	0.0		87.89548732375715	
11.0	68.60439767091611	pulse	1.0	t		27.0	female	white	3.504576203740549	neutral	144	sub-07	1.0	6.0	144_neutral	0.0		88.59546860897899	
11.0	69.30438137094825	pulse	1.0	t		27.0	female	white	3.504576203740549	neutral	144	sub-07	1.0	6.0	144_neutral	0.0		89.29545230901113	
12.0	70.02088478639507	face	0.0		146	24.0	female	east_asian	4.409868682849185	neutral	030	sub-07	1.0	6.0	030_neutral	0.0		90.01195572445795	1.2333201524952528
12.0	70.00704218974988	pulse	0.0	t		24.0	female	east_asian	4.409868682849185	neutral	030	sub-07	1.0	6.0	030_neutral	0.0		89.99811312781276	
12.0	70.70433760251672	pulse	0.0	t		24.0	female	east_asian	4.409868682849185	neutral	030	sub-07	1.0	6.0	030_neutral	0.0		90.69540854057959	
12.0	71.25420493889033	fix	1.0		443	24.0	female	east_asian	4.409868682849185	neutral	030	sub-07	1.0	6.0	030_neutral	0.0		91.2452758769532	3.7583336603393036
12.0	71.4043040970273	pulse	1.0	t		24.0	female	east_asian	4.409868682849185	neutral	030	sub-07	1.0	6.0	030_neutral	0.0		91.39537503509018	
12.0	72.10428840076202	pulse	1.0	t		24.0	female	east_asian	4.409868682849185	neutral	030	sub-07	1.0	6.0	030_neutral	0.0		92.09535933882489	
12.0	72.80426455451288	pulse	1.0	t		24.0	female	east_asian	4.409868682849185	neutral	030	sub-07	1.0	6.0	030_neutral	0.0		92.79533549257576	
12.0	73.50424251937147	pulse	1.0	t		24.0	female	east_asian	4.409868682849185	neutral	030	sub-07	1.0	6.0	030_neutral	0.0		93.49531345743435	
12.0	74.20422048423006	pulse	1.0	t		24.0	female	east_asian	4.409868682849185	neutral	030	sub-07	1.0	6.0	030_neutral	0.0		94.19529142229294	
12.0	74.90419905279123	pulse	1.0	t		24.0	female	east_asian	4.409868682849185	neutral	030	sub-07	1.0	6.0	030_neutral	0.0		94.8952699908541	
13.0	75.01253859922963	face	0.0		147	54.0	female	white	2.286908077994429	neutral	136	sub-07	1.0	6.0	136_neutral	1.0	dominance	95.0036095372925	1.2415015288761424
13.0	75.60417399913695	pulse	0.0	t		54.0	female	white	2.286908077994429	neutral	136	sub-07	1.0	6.0	136_neutral	1.0	dominance	95.59524493719982	
13.0	76.25404012810577	fix	1.0		176	54.0	female	white	2.286908077994429	neutral	136	sub-07	1.0	6.0	136_neutral	1.0	dominance	96.24511106616865	1.499957137122692
13.0	76.30415075659039	pulse	1.0	t		54.0	female	white	2.286908077994429	neutral	136	sub-07	1.0	6.0	136_neutral	1.0	dominance	96.29522169465326	
13.0	77.00411574184545	pulse	1.0	t		54.0	female	white	2.286908077994429	neutral	136	sub-07	1.0	6.0	136_neutral	1.0	dominance	96.99518667990833	
13.0	77.70409491410828	pulse	1.0	t		54.0	female	white	2.286908077994429	neutral	136	sub-07	1.0	6.0	136_neutral	1.0	dominance	97.69516585217116	
13.0	77.75399726522846	rating	2.0		295	54.0	female	white	2.286908077994429	neutral	136	sub-07	1.0	6.0	136_neutral	1.0	dominance	97.74506820329134	2.4999157835000005
13.0	78.39886020966605	pulse	2.0	t		54.0	female	white	2.286908077994429	neutral	136	sub-07	1.0	6.0	136_neutral	1.0	dominance	98.38993114772893	
13.0	79.09885115412908	pulse	2.0	t		54.0	female	white	2.286908077994429	neutral	136	sub-07	1.0	6.0	136_neutral	1.0	dominance	99.08992209219196	
13.0	79.32071514599102	response	2.0	g		54.0	female	white	2.286908077994429	neutral	136	sub-07	1.0	6.0	136_neutral	1.0	dominance	99.31178608405389	
13.0	79.80403092164306	pulse	2.0	t		54.0	female	white	2.286908077994429	neutral	136	sub-07	1.0	6.0	136_neutral	1.0	dominance	99.79510185970594	
13.0	80.25391304872846	fix	3.0		444	54.0	female	white	2.286908077994429	neutral	136	sub-07	1.0	6.0	136_neutral	1.0	dominance	100.24498398679134	3.766520168191164
13.0	80.50401854574102	pulse	3.0	t		54.0	female	white	2.286908077994429	neutral	136	sub-07	1.0	6.0	136_neutral	1.0	dominance	100.4950894838039	
13.0	81.20399107727735	pulse	3.0	t		54.0	female	white	2.286908077994429	neutral	136	sub-07	1.0	6.0	136_neutral	1.0	dominance	101.19506201534023	
13.0	81.90396813658208	pulse	3.0	t		54.0	female	white	2.286908077994429	neutral	136	sub-07	1.0	6.0	136_neutral	1.0	dominance	101.89503907464496	
13.0	82.60393795145683	pulse	3.0	t		54.0	female	white	2.286908077994429	neutral	136	sub-07	1.0	6.0	136_neutral	1.0	dominance	102.5950088895197	
13.0	83.30392587740607	pulse	3.0	t		54.0	female	white	2.286908077994429	neutral	136	sub-07	1.0	6.0	136_neutral	1.0	dominance	103.29499681546895	
14.0	84.02043321691963	face	0.0		146	19.0	male	white	3.2522881018702745	smiling	018	sub-07	1.0	6.0	018_smiling	0.0		104.0115041549825	1.2332957025437281
14.0	84.00685111790608	pulse	0.0	t		19.0	male	white	3.2522881018702745	smiling	018	sub-07	1.0	6.0	018_smiling	0.0		103.99792205596896	
14.0	84.70387607194971	pulse	0.0	t		19.0	male	white	3.2522881018702745	smiling	018	sub-07	1.0	6.0	018_smiling	0.0		104.69494701001258	
14.0	85.25372891946336	fix	1.0		443	19.0	male	white	3.2522881018702745	smiling	018	sub-07	1.0	6.0	018_smiling	0.0		105.24479985752623	3.7582123161346317
14.0	85.40385614976731	pulse	1.0	t		19.0	male	white	3.2522881018702745	smiling	018	sub-07	1.0	6.0	018_smiling	0.0		105.39492708783018	
14.0	86.10381268318633	pulse	1.0	t		19.0	male	white	3.2522881018702745	smiling	018	sub-07	1.0	6.0	018_smiling	0.0		106.09488362124921	
14.0	86.80379336470651	pulse	1.0	t		19.0	male	white	3.2522881018702745	smiling	018	sub-07	1.0	6.0	018_smiling	0.0		106.79486430276938	
14.0	87.5037894406396	pulse	1.0	t		19.0	male	white	3.2522881018702745	smiling	018	sub-07	1.0	6.0	018_smiling	0.0		107.49486037870247	
14.0	88.20375684070405	pulse	1.0	t		19.0	male	white	3.2522881018702745	smiling	018	sub-07	1.0	6.0	018_smiling	0.0		108.19482777876692	
14.0	88.90373057964553	pulse	1.0	t		19.0	male	white	3.2522881018702745	smiling	018	sub-07	1.0	6.0	018_smiling	0.0		108.8948015177084	
15.0	89.01194123559799	face	0.0		147	19.0	female	white	4.298846000795861	neutral	100	sub-07	1.0	6.0	100_neutral	1.0	dominance	109.00301217366086	1.2416400786023587
15.0	89.60371729819053	pulse	0.0	t		19.0	female	white	4.298846000795861	neutral	100	sub-07	1.0	6.0	100_neutral	1.0	dominance	109.59478823625341	
15.0	90.25358131420035	fix	1.0		176	19.0	female	white	4.298846000795861	neutral	100	sub-07	1.0	6.0	100_neutral	1.0	dominance	110.24465225226322	1.4999414408566736
15.0	90.3036910371311	pulse	1.0	t		19.0	female	white	4.298846000795861	neutral	100	sub-07	1.0	6.0	100_neutral	1.0	dominance	110.29476197519398	
15.0	91.0036641723691	pulse	1.0	t		19.0	female	white	4.298846000795861	neutral	100	sub-07	1.0	6.0	100_neutral	1.0	dominance	110.99473511043198	
15.0	91.70364062797216	pulse	1.0	t		19.0	female	white	4.298846000795861	neutral	100	sub-07	1.0	6.0	100_neutral	1.0	dominance	111.69471156603504	
15.0	91.75352275505702	rating	2.0		295	19.0	female	white	4.298846000795861	neutral	100	sub-07	1.0	6.0	100_neutral	1.0	dominance	111.7445936931199	2.499911859434178
15.0	92.39839113281778	pulse	2.0	t		19.0	female	white	4.298846000795861	neutral	100	sub-07	1.0	6.0	100_neutral	1.0	dominance	112.38946207088065	
15.0	93.09835732547708	pulse	2.0	t		19.0	female	white	4.298846000795861	neutral	100	sub-07	1.0	6.0	100_neutral	1.0	dominance	113.08942826353996	
15.0	93.21499778139332	response	2.0	w		19.0	female	white	4.298846000795861	neutral	100	sub-07	1.0	6.0	100_neutral	1.0	dominance	113.2060687194562	
15.0	93.80357240958801	pulse	2.0	t		19.0	female	white	4.298846000795861	neutral	100	sub-07	1.0	6.0	100_neutral	1.0	dominance	113.79464334765089	
15.0	94.2534346144912	fix	3.0		444	19.0	female	white	4.298846000795861	neutral	100	sub-07	1.0	6.0	100_neutral	1.0	dominance	114.24450555255407	3.76652469596047
15.0	94.5035367911405	pulse	3.0	t		19.0	female	white	4.298846000795861	neutral	100	sub-07	1.0	6.0	100_neutral	1.0	dominance	114.49460772920338	
15.0	95.20352501894195	pulse	3.0	t		19.0	female	white	4.298846000795861	neutral	100	sub-07	1.0	6.0	100_neutral	1.0	dominance	115.19459595700482	
15.0	95.90349785232866	pulse	3.0	t		19.0	female	white	4.298846000795861	neutral	100	sub-07	1.0	6.0	100_neutral	1.0	dominance	115.89456879039153	
15.0	96.60347732644368	pulse	3.0	t		19.0	female	white	4.298846000795861	neutral	100	sub-07	1.0	6.0	100_neutral	1.0	dominance	116.59454826450656	
15.0	97.30345438574841	pulse	3.0	t		19.0	female	white	4.298846000795861	neutral	100	sub-07	1.0	6.0	100_neutral	1.0	dominance	117.29452532381129	
16.0	98.01995931045167	face	0.0		146	31.0	female	white	2.1822522881018704	neutral	102	sub-07	1.0	6.0	102_neutral	0.0		118.01103024851454	1.2333273969252332
16.0	98.00650881858473	pulse	0.0	t		31.0	female	white	2.1822522881018704	neutral	102	sub-07	1.0	6.0	102_neutral	0.0		117.99757975664761	
16.0	98.70340850435787	pulse	0.0	t		31.0	female	white	2.1822522881018704	neutral	102	sub-07	1.0	6.0	102_neutral	0.0		118.69447944242074	
16.0	99.2532867073769	fix	1.0		443	31.0	female	white	2.1822522881018704	neutral	102	sub-07	1.0	6.0	102_neutral	0.0		119.24435764543978	3.7582723845343935
16.0	99.4033967321584	pulse	1.0	t		31.0	female	white	2.1822522881018704	neutral	102	sub-07	1.0	6.0	102_neutral	0.0		119.39446767022127	
16.0	100.10335809519802	pulse	1.0	t		31.0	female	white	2.1822522881018704	neutral	102	sub-07	1.0	6.0	102_neutral	0.0		120.0944290332609	
16.0	100.80335477483459	pulse	1.0	t		31.0	female	white	2.1822522881018704	neutral	102	sub-07	1.0	6.0	102_neutral	0.0		120.79442571289746	
16.0	101.50331372306391	pulse	1.0	t		31.0	female	white	2.1822522881018704	neutral	102	sub-07	1.0	6.0	102_neutral	0.0		121.49438466112679	
16.0	102.20328202868222	pulse	1.0	t		31.0	female	white	2.1822522881018704	neutral	102	sub-07	1.0	6.0	102_neutral	0.0		122.1943529667451	
16.0	102.90327025648367	pulse	1.0	t		31.0	female	white	2.1822522881018704	neutral	102	sub-07	1.0	6.0	102_neutral	0.0		122.89434119454654	
17.0	103.0115590919113	face	0.0		147	23.0	male	white	2.6275368085953046	neutral	141	sub-07	1.0	6.0	141_neutral	0.0		123.00263002997417	1.2415631065323396
17.0	103.60325606947481	pulse	0.0	t		23.0	male	white	2.6275368085953046	neutral	141	sub-07	1.0	6.0	141_neutral	0.0		123.59432700753769	
17.0	104.25312219844363	fix	1.0		443	23.0	male	white	2.6275368085953046	neutral	141	sub-07	1.0	6.0	141_neutral	0.0		124.24419313650651	3.766529827431441
17.0	104.30323735469665	pulse	1.0	t		23.0	male	white	2.6275368085953046	neutral	141	sub-07	1.0	6.0	141_neutral	0.0		124.29430829275952	
17.0	105.00319720847983	pulse	1.0	t		23.0	male	white	2.6275368085953046	neutral	141	sub-07	1.0	6.0	141_neutral	0.0		124.99426814654271	
17.0	105.70318121036325	pulse	1.0	t		23.0	male	white	2.6275368085953046	neutral	141	sub-07	1.0	6.0	141_neutral	0.0		125.69425214842613	
17.0	106.40317819185111	pulse	1.0	t		23.0	male	white	2.6275368085953046	neutral	141	sub-07	1.0	6.0	141_neutral	0.0		126.39424912991399	
17.0	107.10312687713758	pulse	1.0	t		23.0	male	white	2.6275368085953046	neutral	141	sub-07	1.0	6.0	141_neutral	0.0		127.09419781520046	
17.0	107.80311148272358	pulse	1.0	t		23.0	male	white	2.6275368085953046	neutral	141	sub-07	1.0	6.0	141_neutral	0.0		127.79418242078646	
18.0	108.01965202587508	face	0.0		145	25.0	female	black	3.858336649423	neutral	126	sub-07	1.0	6.0	126_neutral	0.0		128.01072296393795	1.2333059654865792
18.0	108.50309940867373	pulse	0.0	t		25.0	female	black	3.858336649423	neutral	126	sub-07	1.0	6.0	126_neutral	0.0		128.4941703467366	
18.0	109.20307224206135	pulse	0.0	t		25.0	female	black	3.858336649423	neutral	126	sub-07	1.0	6.0	126_neutral	0.0		129.19414318012423	
18.0	109.25295799136165	fix	1.0		444	25.0	female	black	3.858336649423	neutral	126	sub-07	1.0	6.0	126_neutral	0.0		129.24402892942453	3.766529525580154
18.0	109.90305594209349	pulse	1.0	t		25.0	female	black	3.858336649423	neutral	126	sub-07	1.0	6.0	126_neutral	0.0		129.89412688015636	
18.0	110.6030197199425	pulse	1.0	t		25.0	female	black	3.858336649423	neutral	126	sub-07	1.0	6.0	126_neutral	0.0		130.59409065800537	
18.0	111.30298923296596	pulse	1.0	t		25.0	female	black	3.858336649423	neutral	126	sub-07	1.0	6.0	126_neutral	0.0		131.29406017102883	
18.0	112.00297806446997	pulse	1.0	t		25.0	female	black	3.858336649423	neutral	126	sub-07	1.0	6.0	126_neutral	0.0		131.99404900253285	
18.0	112.70297021633723	pulse	1.0	t		25.0	female	black	3.858336649423	neutral	126	sub-07	1.0	6.0	126_neutral	0.0		132.6940411544001	
19.0	113.01948751694181	face	0.0		145	22.0	male	black	2.767608436132113	smiling	044	sub-07	1.0	6.0	044_smiling	0.0		133.01055845500468	1.2333059654865792
19.0	113.40292463679816	pulse	0.0	t		22.0	male	black	2.767608436132113	smiling	044	sub-07	1.0	6.0	044_smiling	0.0		133.39399557486104	
19.0	114.1029107516406	pulse	0.0	t		22.0	male	black	2.767608436132113	smiling	044	sub-07	1.0	6.0	044_smiling	0.0		134.09398168970347	
19.0	114.25279348242839	fix	1.0		444	22.0	male	black	2.767608436132113	smiling	044	sub-07	1.0	6.0	044_smiling	0.0		134.24386442049126	3.7582569901205716
19.0	114.80286668135705	pulse	1.0	t		22.0	male	black	2.767608436132113	smiling	044	sub-07	1.0	6.0	044_smiling	0.0		134.79393761941992	
19.0	115.50286185173718	pulse	1.0	t		22.0	male	black	2.767608436132113	smiling	044	sub-07	1.0	6.0	044_smiling	0.0		135.49393278980006	
19.0	116.20287000172084	pulse	1.0	t		22.0	male	black	2.767608436132113	smiling	044	sub-07	1.0	6.0	044_smiling	0.0		136.19394093978372	
19.0	116.90282019626375	pulse	1.0	t		22.0	male	black	2.767608436132113	smiling	044	sub-07	1.0	6.0	044_smiling	0.0		136.89389113432662	
19.0	117.60279091669236	pulse	1.0	t		22.0	male	black	2.767608436132113	smiling	044	sub-07	1.0	6.0	044_smiling	0.0		137.59386185475523	
20.0	118.01105047254896	face	0.0		146	47.0	male	east_asian	2.171110226820533	smiling	024	sub-07	1.0	6.0	024_smiling	1.0	trustworthiness	138.00212141061184	1.2415875564838643
20.0	118.30277099450996	pulse	0.0	t		47.0	male	east_asian	2.171110226820533	smiling	024	sub-07	1.0	6.0	024_smiling	1.0	trustworthiness	138.29384193257283	
20.0	119.00273990383084	pulse	0.0	t		47.0	male	east_asian	2.171110226820533	smiling	024	sub-07	1.0	6.0	024_smiling	1.0	trustworthiness	138.99381084189372	
20.0	119.25263802903282	fix	1.0		177	47.0	male	east_asian	2.171110226820533	smiling	024	sub-07	1.0	6.0	024_smiling	1.0	trustworthiness	139.2437089670957	1.499945063071209
20.0	119.70272269830912	pulse	1.0	t		47.0	male	east_asian	2.171110226820533	smiling	024	sub-07	1.0	6.0	024_smiling	1.0	trustworthiness	139.693793636372	
20.0	120.4027006631677	pulse	1.0	t		47.0	male	east_asian	2.171110226820533	smiling	024	sub-07	1.0	6.0	024_smiling	1.0	trustworthiness	140.39377160123058	
20.0	120.75258309210403	rating	2.0		294	47.0	male	east_asian	2.171110226820533	smiling	024	sub-07	1.0	6.0	024_smiling	1.0	trustworthiness	140.7436540301669	2.499915179798336
20.0	121.0974403013688	pulse	2.0	t		47.0	male	east_asian	2.171110226820533	smiling	024	sub-07	1.0	6.0	024_smiling	1.0	trustworthiness	141.08851123943168	
20.0	121.79741283290423	pulse	2.0	t		47.0	male	east_asian	2.171110226820533	smiling	024	sub-07	1.0	6.0	024_smiling	1.0	trustworthiness	141.7884837709671	
20.0	122.44741419123511	response	2.0	b		47.0	male	east_asian	2.171110226820533	smiling	024	sub-07	1.0	6.0	024_smiling	1.0	trustworthiness	142.438485129298	
20.0	122.49738385518413	pulse	2.0	t		47.0	male	east_asian	2.171110226820533	smiling	024	sub-07	1.0	6.0	024_smiling	1.0	trustworthiness	142.488454793247	
20.0	123.20260407076603	pulse	2.0	t		47.0	male	east_asian	2.171110226820533	smiling	024	sub-07	1.0	6.0	024_smiling	1.0	trustworthiness	143.1936750088289	
20.0	123.25249827190237	fix	3.0		1185	47.0	male	east_asian	2.171110226820533	smiling	024	sub-07	1.0	6.0	024_smiling	1.0	trustworthiness	143.24356920996524	10.016326832463164
20.0	123.9025892800546	pulse	3.0	t		47.0	male	east_asian	2.171110226820533	smiling	024	sub-07	1.0	6.0	024_smiling	1.0	trustworthiness	143.89366021811747	
20.0	124.60258897820404	pulse	3.0	t		47.0	male	east_asian	2.171110226820533	smiling	024	sub-07	1.0	6.0	024_smiling	1.0	trustworthiness	144.59365991626692	
20.0	125.30253826719309	pulse	3.0	t		47.0	male	east_asian	2.171110226820533	smiling	024	sub-07	1.0	6.0	024_smiling	1.0	trustworthiness	145.29360920525596	
20.0	126.00251593020039	pulse	3.0	t		47.0	male	east_asian	2.171110226820533	smiling	024	sub-07	1.0	6.0	024_smiling	1.0	trustworthiness	145.99358686826326	
20.0	126.70248815988452	pulse	3.0	t		47.0	male	east_asian	2.171110226820533	smiling	024	sub-07	1.0	6.0	024_smiling	1.0	trustworthiness	146.6935590979474	
20.0	127.40246672844569	pulse	3.0	t		47.0	male	east_asian	2.171110226820533	smiling	024	sub-07	1.0	6.0	024_smiling	1.0	trustworthiness	147.39353766650856	
20.0	128.10245435254456	pulse	3.0	t		47.0	male	east_asian	2.171110226820533	smiling	024	sub-07	1.0	6.0	024_smiling	1.0	trustworthiness	148.09352529060743	
20.0	128.802421752609	pulse	3.0	t		47.0	male	east_asian	2.171110226820533	smiling	024	sub-07	1.0	6.0	024_smiling	1.0	trustworthiness	148.79349269067188	
20.0	129.5024021322779	pulse	3.0	t		47.0	male	east_asian	2.171110226820533	smiling	024	sub-07	1.0	6.0	024_smiling	1.0	trustworthiness	149.49347307034077	
20.0	130.20236983419363	pulse	3.0	t		47.0	male	east_asian	2.171110226820533	smiling	024	sub-07	1.0	6.0	024_smiling	1.0	trustworthiness	150.1934407722565	
20.0	130.90234327128292	pulse	3.0	t		47.0	male	east_asian	2.171110226820533	smiling	024	sub-07	1.0	6.0	024_smiling	1.0	trustworthiness	150.8934142093458	
20.0	131.60233844166305	pulse	3.0	t		47.0	male	east_asian	2.171110226820533	smiling	024	sub-07	1.0	6.0	024_smiling	1.0	trustworthiness	151.59340937972593	
20.0	132.30229376767784	pulse	3.0	t		47.0	male	east_asian	2.171110226820533	smiling	024	sub-07	1.0	6.0	024_smiling	1.0	trustworthiness	152.29336470574071	
20.0	133.00228169362708	pulse	3.0	t		47.0	male	east_asian	2.171110226820533	smiling	024	sub-07	1.0	6.0	024_smiling	1.0	trustworthiness	152.99335263168996	
21.0	133.26882510436553	face	0.0		145	31.0	female	east_asian	3.395941106247513	smiling	087	sub-07	1.0	6.0	087_smiling	0.0		153.2598960424284	1.2333056636352921
21.0	133.70227233623882	pulse	0.0	t		31.0	female	east_asian	3.395941106247513	smiling	087	sub-07	1.0	6.0	087_smiling	0.0		153.6933432743017	
21.0	134.4022436603691	pulse	0.0	t		31.0	female	east_asian	3.395941106247513	smiling	087	sub-07	1.0	6.0	087_smiling	0.0		154.39331459843197	
21.0	134.50213076800082	fix	1.0		444	31.0	female	east_asian	3.395941106247513	smiling	087	sub-07	1.0	6.0	087_smiling	0.0		154.4932017060637	3.766519866339877
21.0	135.1022143807977	pulse	1.0	t		31.0	female	east_asian	3.395941106247513	smiling	087	sub-07	1.0	6.0	087_smiling	0.0		155.09328531886058	
21.0	135.80219113825115	pulse	1.0	t		31.0	female	east_asian	3.395941106247513	smiling	087	sub-07	1.0	6.0	087_smiling	0.0		155.79326207631402	
21.0	136.50217181977132	pulse	1.0	t		31.0	female	east_asian	3.395941106247513	smiling	087	sub-07	1.0	6.0	087_smiling	0.0		156.4932427578342	
21.0	137.20214133279478	pulse	1.0	t		31.0	female	east_asian	3.395941106247513	smiling	087	sub-07	1.0	6.0	087_smiling	0.0		157.19321227085766	
21.0	137.90212473097563	pulse	1.0	t		31.0	female	east_asian	3.395941106247513	smiling	087	sub-07	1.0	6.0	087_smiling	0.0		157.8931956690385	
22.0	138.2686506343407	face	0.0		145	19.0	male	white	3.2522881018702745	neutral	018	sub-07	1.0	6.0	018_neutral	0.0		158.25972157240358	1.2333159265781433
22.0	138.6021032995368	pulse	0.0	t		19.0	male	white	3.2522881018702745	neutral	018	sub-07	1.0	6.0	018_neutral	0.0		158.59317423759967	
22.0	139.30208881067665	pulse	0.0	t		19.0	male	white	3.2522881018702745	neutral	018	sub-07	1.0	6.0	018_neutral	0.0		159.29315974873953	
22.0	139.50196656091885	fix	1.0		444	19.0	male	white	3.2522881018702745	neutral	018	sub-07	1.0	6.0	018_neutral	0.0		159.49303749898172	3.766532544092115
22.0	140.00209092363548	pulse	1.0	t		19.0	male	white	3.2522881018702745	neutral	018	sub-07	1.0	6.0	018_neutral	0.0		159.99316186169835	
22.0	140.70203296819454	pulse	1.0	t		19.0	male	white	3.2522881018702745	neutral	018	sub-07	1.0	6.0	018_neutral	0.0		160.69310390625742	
22.0	141.40201576267282	pulse	1.0	t		19.0	male	white	3.2522881018702745	neutral	018	sub-07	1.0	6.0	018_neutral	0.0		161.3930867007357	
22.0	142.10197984237402	pulse	1.0	t		19.0	male	white	3.2522881018702745	neutral	018	sub-07	1.0	6.0	018_neutral	0.0		162.0930507804369	
22.0	142.80195901463685	pulse	1.0	t		19.0	male	white	3.2522881018702745	neutral	018	sub-07	1.0	6.0	018_neutral	0.0		162.79302995269973	
23.0	143.26849910501096	face	0.0		145	31.0	male	west_asian	1.9538400318344609	neutral	070	sub-07	1.0	6.0	070_neutral	0.0		163.25957004307384	1.2333101914045983
23.0	143.50194120541346	pulse	0.0	t		31.0	male	west_asian	1.9538400318344609	neutral	070	sub-07	1.0	6.0	070_neutral	0.0		163.49301214347634	
23.0	144.20191886842076	pulse	0.0	t		31.0	male	west_asian	1.9538400318344609	neutral	070	sub-07	1.0	6.0	070_neutral	0.0		164.19298980648364	
23.0	144.50180929641556	fix	1.0		444	31.0	male	west_asian	1.9538400318344609	neutral	070	sub-07	1.0	6.0	070_neutral	0.0		164.49288023447843	3.7665068867363516
23.0	144.90187177962525	pulse	1.0	t		31.0	male	west_asian	1.9538400318344609	neutral	070	sub-07	1.0	6.0	070_neutral	0.0		164.89294271768813	
23.0	145.60186996851735	pulse	1.0	t		31.0	male	west_asian	1.9538400318344609	neutral	070	sub-07	1.0	6.0	070_neutral	0.0		165.59294090658022	
23.0	146.3018512537392	pulse	1.0	t		31.0	male	west_asian	1.9538400318344609	neutral	070	sub-07	1.0	6.0	070_neutral	0.0		166.29292219180206	
23.0	147.0018334445158	pulse	1.0	t		31.0	male	west_asian	1.9538400318344609	neutral	070	sub-07	1.0	6.0	070_neutral	0.0		166.99290438257867	
23.0	147.70179360015027	pulse	1.0	t		31.0	male	west_asian	1.9538400318344609	neutral	070	sub-07	1.0	6.0	070_neutral	0.0		167.69286453821314	
24.0	148.2683161831519	face	0.0		145	24.0	male	white	3.1153999204138483	neutral	012	sub-07	1.0	6.0	012_neutral	0.0		168.2593871212148	1.2333304154371945
24.0	148.4017842427611	pulse	0.0	t		24.0	male	white	3.1153999204138483	neutral	012	sub-07	1.0	6.0	012_neutral	0.0		168.39285518082397	
24.0	149.10175617059485	pulse	0.0	t		24.0	male	white	3.1153999204138483	neutral	012	sub-07	1.0	6.0	012_neutral	0.0		169.09282710865773	
24.0	149.5016465985891	fix	1.0		444	24.0	male	white	3.1153999204138483	neutral	012	sub-07	1.0	6.0	012_neutral	0.0		169.49271753665198	3.766524997811757
24.0	149.8017350410073	pulse	1.0	t		24.0	male	white	3.1153999204138483	neutral	012	sub-07	1.0	6.0	012_neutral	0.0		169.79280597907018	
24.0	150.5017199484446	pulse	1.0	t		24.0	male	white	3.1153999204138483	neutral	012	sub-07	1.0	6.0	012_neutral	0.0		170.49279088650746	
24.0	151.20169127257486	pulse	1.0	t		24.0	male	white	3.1153999204138483	neutral	012	sub-07	1.0	6.0	012_neutral	0.0		171.19276221063774	
24.0	151.90166652077187	pulse	1.0	t		24.0	male	white	3.1153999204138483	neutral	012	sub-07	1.0	6.0	012_neutral	0.0		171.89273745883474	
24.0	152.60164237267236	pulse	1.0	t		24.0	male	white	3.1153999204138483	neutral	012	sub-07	1.0	6.0	012_neutral	0.0		172.59271331073523	
25.0	153.26817159640086	face	0.0		145	40.0	male	black	2.408674890569041	smiling	061	sub-07	1.0	6.0	061_smiling	0.0		173.25924253446374	1.2332905710727573
25.0	153.3016302986216	pulse	0.0	t		40.0	male	black	2.408674890569041	smiling	061	sub-07	1.0	6.0	061_smiling	0.0		173.29270123668448	
25.0	154.00160464126566	pulse	0.0	t		40.0	male	black	2.408674890569041	smiling	061	sub-07	1.0	6.0	061_smiling	0.0		173.99267557932853	
25.0	154.50146216747362	fix	1.0		443	40.0	male	black	2.408674890569041	smiling	061	sub-07	1.0	6.0	061_smiling	0.0		174.4925331055365	3.766544919993976
25.0	154.7015720413301	pulse	1.0	t		40.0	male	black	2.408674890569041	smiling	061	sub-07	1.0	6.0	061_smiling	0.0		174.69264297939299	
25.0	155.40165837078803	pulse	1.0	t		40.0	male	black	2.408674890569041	smiling	061	sub-07	1.0	6.0	061_smiling	0.0		175.3927293088509	
25.0	156.101527669196	pulse	1.0	t		40.0	male	black	2.408674890569041	smiling	061	sub-07	1.0	6.0	061_smiling	0.0		176.09259860725888	
25.0	156.80150925626913	pulse	1.0	t		40.0	male	black	2.408674890569041	smiling	061	sub-07	1.0	6.0	061_smiling	0.0		176.792580194332	
25.0	157.50149023963968	pulse	1.0	t		40.0	male	black	2.408674890569041	smiling	061	sub-07	1.0	6.0	061_smiling	0.0		177.49256117770256	
25.0	158.20145703600247	pulse	1.0	t		40.0	male	black	2.408674890569041	smiling	061	sub-07	1.0	6.0	061_smiling	0.0		178.19252797406534	
26.0	158.2680070874676	face	0.0		146	28.0	male	east_asian	1.5563072025467568	smiling	005	sub-07	1.0	6.0	005_smiling	0.0		178.25907802553047	1.2333044562301438
26.0	158.90146216747326	pulse	0.0	t		28.0	male	east_asian	1.5563072025467568	smiling	005	sub-07	1.0	6.0	005_smiling	0.0		178.89253310553613	
26.0	159.50131154369774	fix	1.0		443	28.0	male	east_asian	1.5563072025467568	smiling	005	sub-07	1.0	6.0	005_smiling	0.0		179.49238248176061	3.7665316385391634
26.0	159.6014208138513	pulse	1.0	t		28.0	male	east_asian	1.5563072025467568	smiling	005	sub-07	1.0	6.0	005_smiling	0.0		179.59249175191417	
26.0	160.30138579910636	pulse	1.0	t		28.0	male	east_asian	1.5563072025467568	smiling	005	sub-07	1.0	6.0	005_smiling	0.0		180.29245673716923	
26.0	161.00136346211366	pulse	1.0	t		28.0	male	east_asian	1.5563072025467568	smiling	005	sub-07	1.0	6.0	005_smiling	0.0		180.99243440017653	
26.0	161.70136165100575	pulse	1.0	t		28.0	male	east_asian	1.5563072025467568	smiling	005	sub-07	1.0	6.0	005_smiling	0.0		181.69243258906863	
26.0	162.4013181844257	pulse	1.0	t		28.0	male	east_asian	1.5563072025467568	smiling	005	sub-07	1.0	6.0	005_smiling	0.0		182.39238912248857	
26.0	163.1012934326227	pulse	1.0	t		28.0	male	east_asian	1.5563072025467568	smiling	005	sub-07	1.0	6.0	005_smiling	0.0		183.09236437068557	
27.0	163.2678431822369	face	0.0		146	22.0	female	white	4.614007162753682	neutral	009	sub-07	1.0	6.0	009_neutral	0.0		183.25891412029978	1.2332923821804798
27.0	163.8012735104403	pulse	0.0	t		22.0	female	white	4.614007162753682	neutral	009	sub-07	1.0	6.0	009_neutral	0.0		183.79234444850317	
27.0	164.50113556441738	fix	1.0		444	22.0	female	white	4.614007162753682	neutral	009	sub-07	1.0	6.0	009_neutral	0.0		184.49220650248026	3.7665428070349662
27.0	164.50873255677106	pulse	1.0	t		22.0	female	white	4.614007162753682	neutral	009	sub-07	1.0	6.0	009_neutral	0.0		184.49980349483394	
27.0	165.20123879754556	pulse	1.0	t		22.0	female	white	4.614007162753682	neutral	009	sub-07	1.0	6.0	009_neutral	0.0		185.19230973560843	
27.0	165.9012016698416	pulse	1.0	t		22.0	female	white	4.614007162753682	neutral	009	sub-07	1.0	6.0	009_neutral	0.0		185.8922726079045	
27.0	166.6011841624686	pulse	1.0	t		22.0	female	white	4.614007162753682	neutral	009	sub-07	1.0	6.0	009_neutral	0.0		186.59225510053147	
27.0	167.3011980476267	pulse	1.0	t		22.0	female	white	4.614007162753682	neutral	009	sub-07	1.0	6.0	009_neutral	0.0		187.2922689856896	
27.0	168.00113858292934	pulse	1.0	t		22.0	female	white	4.614007162753682	neutral	009	sub-07	1.0	6.0	009_neutral	0.0		187.99220952099222	
28.0	168.26767837145235	face	0.0		145	40.0	male	white	1.868682849184242	smiling	172	sub-07	1.0	6.0	172_smiling	0.0		188.25874930951522	1.2333059654865792
28.0	168.7011240940692	pulse	0.0	t		40.0	male	white	1.868682849184242	smiling	172	sub-07	1.0	6.0	172_smiling	0.0		188.69219503213208	
28.0	169.40108907932427	pulse	0.0	t		40.0	male	white	1.868682849184242	smiling	172	sub-07	1.0	6.0	172_smiling	0.0		189.39216001738714	
28.0	169.50098433693893	fix	1.0		444	40.0	male	white	1.868682849184242	smiling	172	sub-07	1.0	6.0	172_smiling	0.0		189.4920552750018	3.7665192626373027
28.0	170.10107670342222	pulse	1.0	t		40.0	male	white	1.868682849184242	smiling	172	sub-07	1.0	6.0	172_smiling	0.0		190.0921476414851	
28.0	170.80105406457824	pulse	1.0	t		40.0	male	white	1.868682849184242	smiling	172	sub-07	1.0	6.0	172_smiling	0.0		190.79212500264111	
28.0	171.5010190498333	pulse	1.0	t		40.0	male	white	1.868682849184242	smiling	172	sub-07	1.0	6.0	172_smiling	0.0		191.49208998789618	
28.0	172.20099339247645	pulse	1.0	t		40.0	male	white	1.868682849184242	smiling	172	sub-07	1.0	6.0	172_smiling	0.0		192.19206433053932	
28.0	172.90098222398046	pulse	1.0	t		40.0	male	white	1.868682849184242	smiling	172	sub-07	1.0	6.0	172_smiling	0.0		192.89205316204334	
29.0	173.26750359957623	face	0.0		145	23.0	male	white	2.6275368085953046	smiling	141	sub-07	1.0	6.0	141_smiling	0.0		193.2585745376391	1.2333144173217079
29.0	173.6009568684749	pulse	0.0	t		23.0	male	white	2.6275368085953046	smiling	141	sub-07	1.0	6.0	141_smiling	0.0		193.59202780653777	
29.0	174.30094087035832	pulse	0.0	t		23.0	male	white	2.6275368085953046	smiling	141	sub-07	1.0	6.0	141_smiling	0.0		194.2920118084212	
29.0	174.50081801689794	fix	1.0		444	23.0	male	white	2.6275368085953046	smiling	141	sub-07	1.0	6.0	141_smiling	0.0		194.4918889549608	3.766533147795599
29.0	175.0009191370682	pulse	1.0	t		23.0	male	white	2.6275368085953046	smiling	141	sub-07	1.0	6.0	141_smiling	0.0		194.99199007513107	
29.0	175.70088804638908	pulse	1.0	t		23.0	male	white	2.6275368085953046	smiling	141	sub-07	1.0	6.0	141_smiling	0.0		195.69195898445196	
29.0	176.40085997422193	pulse	1.0	t		23.0	male	white	2.6275368085953046	smiling	141	sub-07	1.0	6.0	141_smiling	0.0		196.3919309122848	
29.0	177.10085091868496	pulse	1.0	t		23.0	male	white	2.6275368085953046	smiling	141	sub-07	1.0	6.0	141_smiling	0.0		197.09192185674783	
29.0	177.80083099650165	pulse	1.0	t		23.0	male	white	2.6275368085953046	smiling	141	sub-07	1.0	6.0	141_smiling	0.0		197.79190193456452	
30.0	178.26735116469354	face	0.0		145	31.0	male	west_asian	1.9538400318344609	smiling	070	sub-07	1.0	6.0	070_smiling	0.0		198.2584221027564	1.233301437717273
30.0	178.50080594284827	pulse	0.0	t		31.0	male	west_asian	1.9538400318344609	smiling	070	sub-07	1.0	6.0	070_smiling	0.0		198.49187688091115	
30.0	179.20075945775443	pulse	0.0	t		31.0	male	west_asian	1.9538400318344609	smiling	070	sub-07	1.0	6.0	070_smiling	0.0		199.1918303958173	
30.0	179.5006526024108	fix	1.0		444	31.0	male	west_asian	1.9538400318344609	smiling	070	sub-07	1.0	6.0	070_smiling	0.0		199.49172354047369	3.766534657052034
30.0	179.90074406334043	pulse	1.0	t		31.0	male	west_asian	1.9538400318344609	smiling	070	sub-07	1.0	6.0	070_smiling	0.0		199.8918150014033	
30.0	180.60071991524092	pulse	1.0	t		31.0	male	west_asian	1.9538400318344609	smiling	070	sub-07	1.0	6.0	070_smiling	0.0		200.5917908533038	
30.0	181.30070603008244	pulse	1.0	t		31.0	male	west_asian	1.9538400318344609	smiling	070	sub-07	1.0	6.0	070_smiling	0.0		201.2917769681453	
30.0	182.00068550419746	pulse	1.0	t		31.0	male	west_asian	1.9538400318344609	smiling	070	sub-07	1.0	6.0	070_smiling	0.0		201.99175644226034	
30.0	182.70066860052702	pulse	1.0	t		31.0	male	west_asian	1.9538400318344609	smiling	070	sub-07	1.0	6.0	070_smiling	0.0		202.6917395385899	
31.0	183.26718725946284	face	0.0		145	22.0	female	west_asian	3.8205332272184642	smiling	066	sub-07	1.0	6.0	066_smiling	0.0		203.25825819752572	1.233305059932718
31.0	183.40064626353433	pulse	0.0	t		22.0	female	west_asian	3.8205332272184642	smiling	066	sub-07	1.0	6.0	066_smiling	0.0		203.3917172015972	
31.0	184.10061487100393	pulse	0.0	t		22.0	female	west_asian	3.8205332272184642	smiling	066	sub-07	1.0	6.0	066_smiling	0.0		204.0916858090668	
31.0	184.50049231939556	fix	1.0		444	22.0	female	west_asian	3.8205332272184642	smiling	066	sub-07	1.0	6.0	066_smiling	0.0		204.49156325745844	3.7665316385391634
31.0	184.80058559143254	pulse	1.0	t		22.0	female	west_asian	3.8205332272184642	smiling	066	sub-07	1.0	6.0	066_smiling	0.0		204.7916565294954	
31.0	185.50057019701853	pulse	1.0	t		22.0	female	west_asian	3.8205332272184642	smiling	066	sub-07	1.0	6.0	066_smiling	0.0		205.4916411350814	
31.0	186.200532465612	pulse	1.0	t		22.0	female	west_asian	3.8205332272184642	smiling	066	sub-07	1.0	6.0	066_smiling	0.0		206.1916034036749	
31.0	186.9005125434296	pulse	1.0	t		22.0	female	west_asian	3.8205332272184642	smiling	066	sub-07	1.0	6.0	066_smiling	0.0		206.8915834814925	
31.0	187.6004974508669	pulse	1.0	t		22.0	female	west_asian	3.8205332272184642	smiling	066	sub-07	1.0	6.0	066_smiling	0.0		207.59156838892977	
32.0	188.26702395793473	face	0.0		145	31.0	female	white	2.1822522881018704	smiling	102	sub-07	1.0	6.0	102_smiling	1.0	attractiveness	208.2580948959976	1.2332923821795703
32.0	188.3004820564529	pulse	0.0	t		31.0	female	white	2.1822522881018704	smiling	102	sub-07	1.0	6.0	102_smiling	1.0	attractiveness	208.29155299451577	
32.0	189.00048718792368	pulse	0.0	t		31.0	female	white	2.1822522881018704	smiling	102	sub-07	1.0	6.0	102_smiling	1.0	attractiveness	208.99155812598656	
32.0	189.5003163401143	fix	1.0		177	31.0	female	white	2.1822522881018704	smiling	102	sub-07	1.0	6.0	102_smiling	1.0	attractiveness	209.49138727817717	1.4999731352381787
32.0	189.70043768431788	pulse	1.0	t		31.0	female	white	2.1822522881018704	smiling	102	sub-07	1.0	6.0	102_smiling	1.0	attractiveness	209.69150862238075	
32.0	190.40040961215163	pulse	1.0	t		31.0	female	white	2.1822522881018704	smiling	102	sub-07	1.0	6.0	102_smiling	1.0	attractiveness	210.3914805502145	
32.0	191.00028947535247	rating	2.0		294	31.0	female	white	2.1822522881018704	smiling	102	sub-07	1.0	6.0	102_smiling	1.0	attractiveness	210.99136041341535	2.499896766871643
32.0	191.0952702927052	pulse	2.0	t		31.0	female	white	2.1822522881018704	smiling	102	sub-07	1.0	6.0	102_smiling	1.0	attractiveness	211.08634123076808	
32.0	191.79517219104764	pulse	2.0	t		31.0	female	white	2.1822522881018704	smiling	102	sub-07	1.0	6.0	102_smiling	1.0	attractiveness	211.78624312911052	
32.0	192.3920196565541	response	2.0	e		31.0	female	white	2.1822522881018704	smiling	102	sub-07	1.0	6.0	102_smiling	1.0	attractiveness	212.383090594617	
32.0	192.49509220046548	pulse	2.0	t		31.0	female	white	2.1822522881018704	smiling	102	sub-07	1.0	6.0	102_smiling	1.0	attractiveness	212.48616313852835	
32.0	193.2003124160483	pulse	2.0	t		31.0	female	white	2.1822522881018704	smiling	102	sub-07	1.0	6.0	102_smiling	1.0	attractiveness	213.19138335411117	
32.0	193.50018624222412	fix	3.0		444	31.0	female	white	2.1822522881018704	smiling	102	sub-07	1.0	6.0	102_smiling	1.0	attractiveness	213.491257180287	3.7665443162914016
32.0	193.90028675869144	pulse	3.0	t		31.0	female	white	2.1822522881018704	smiling	102	sub-07	1.0	6.0	102_smiling	1.0	attractiveness	213.8913576967543	
32.0	194.60027076057486	pulse	3.0	t		31.0	female	white	2.1822522881018704	smiling	102	sub-07	1.0	6.0	102_smiling	1.0	attractiveness	214.59134169863773	
32.0	195.30024691432573	pulse	3.0	t		31.0	female	white	2.1822522881018704	smiling	102	sub-07	1.0	6.0	102_smiling	1.0	attractiveness	215.2913178523886	
32.0	196.0002070699602	pulse	3.0	t		31.0	female	white	2.1822522881018704	smiling	102	sub-07	1.0	6.0	102_smiling	1.0	attractiveness	215.99127800802307	
32.0	196.70020797551388	pulse	3.0	t		31.0	female	white	2.1822522881018704	smiling	102	sub-07	1.0	6.0	102_smiling	1.0	attractiveness	216.69127891357675	
33.0	197.26673055851552	face	0.0		145	26.0	female	white	4.854755272582572	smiling	027	sub-07	1.0	6.0	027_smiling	0.0		217.2578014965784	1.2332917784779056
33.0	197.40018563852118	pulse	0.0	t		26.0	female	white	4.854755272582572	smiling	027	sub-07	1.0	6.0	027_smiling	0.0		217.39125657658406	
33.0	198.1001491145198	pulse	0.0	t		26.0	female	white	4.854755272582572	smiling	027	sub-07	1.0	6.0	027_smiling	0.0		218.09122005258268	
33.0	198.50002233699342	fix	1.0		444	26.0	female	white	4.854755272582572	smiling	027	sub-07	1.0	6.0	027_smiling	0.0		218.4910932750563	3.758207486514948
33.0	198.8001364367674	pulse	1.0	t		26.0	female	white	4.854755272582572	smiling	027	sub-07	1.0	6.0	027_smiling	0.0		218.79120737483026	
33.0	199.50012919233723	pulse	1.0	t		26.0	female	white	4.854755272582572	smiling	027	sub-07	1.0	6.0	027_smiling	0.0		219.4912001304001	
33.0	200.20007485911174	pulse	1.0	t		26.0	female	white	4.854755272582572	smiling	027	sub-07	1.0	6.0	027_smiling	0.0		220.1911457971746	
33.0	200.90004920175488	pulse	1.0	t		26.0	female	white	4.854755272582572	smiling	027	sub-07	1.0	6.0	027_smiling	0.0		220.89112013981776	
33.0	201.6000446739863	pulse	1.0	t		26.0	female	white	4.854755272582572	smiling	027	sub-07	1.0	6.0	027_smiling	0.0		221.59111561204918	
34.0	202.25822982350837	face	0.0		146	20.0	male	black	3.1070433744528456	neutral	082	sub-07	1.0	6.0	082_neutral	0.0		222.24930076157125	1.2416280045517851
34.0	202.30002354439785	pulse	0.0	t		20.0	male	black	3.1070433744528456	neutral	082	sub-07	1.0	6.0	082_neutral	0.0		222.29109448246072	
34.0	202.99998460558618	pulse	0.0	t		20.0	male	black	3.1070433744528456	neutral	082	sub-07	1.0	6.0	082_neutral	0.0		222.99105554364905	
34.0	203.49985782806016	fix	1.0		443	20.0	male	black	3.1070433744528456	neutral	082	sub-07	1.0	6.0	082_neutral	0.0		223.49092876612303	3.7665340533485505
34.0	203.6999779648586	pulse	1.0	t		20.0	male	black	3.1070433744528456	neutral	082	sub-07	1.0	6.0	082_neutral	0.0		223.69104890292147	
34.0	204.3999444593701	pulse	1.0	t		20.0	male	black	3.1070433744528456	neutral	082	sub-07	1.0	6.0	082_neutral	0.0		224.39101539743297	
34.0	205.0999381204938	pulse	1.0	t		20.0	male	black	3.1070433744528456	neutral	082	sub-07	1.0	6.0	082_neutral	0.0		225.09100905855666	
34.0	205.7998904279957	pulse	1.0	t		20.0	male	black	3.1070433744528456	neutral	082	sub-07	1.0	6.0	082_neutral	0.0		225.79096136605858	
34.0	206.4998816743091	pulse	1.0	t		20.0	male	black	3.1070433744528456	neutral	082	sub-07	1.0	6.0	082_neutral	0.0		226.49095261237198	
34.0	207.1998593373164	pulse	1.0	t		20.0	male	black	3.1070433744528456	neutral	082	sub-07	1.0	6.0	082_neutral	0.0		227.1909302753793	
35.0	207.2663918814087	face	0.0		146	19.0	female	white	4.298846000795861	smiling	100	sub-07	1.0	6.0	100_smiling	0.0		227.25746281947158	1.2333156247268562
35.0	207.8998394151331	pulse	0.0	t		19.0	female	white	4.298846000795861	smiling	100	sub-07	1.0	6.0	100_smiling	0.0		227.89091035319598	
35.0	208.49970750613556	fix	1.0		443	19.0	female	white	4.298846000795861	smiling	100	sub-07	1.0	6.0	100_smiling	0.0		228.49077844419844	3.766530129282728
35.0	208.5998080226027	pulse	1.0	t		19.0	female	white	4.298846000795861	smiling	100	sub-07	1.0	6.0	100_smiling	0.0		228.59087896066558	
35.0	209.29979534485028	pulse	1.0	t		19.0	female	white	4.298846000795861	smiling	100	sub-07	1.0	6.0	100_smiling	0.0		229.29086628291316	
35.0	209.99976878193957	pulse	1.0	t		19.0	female	white	4.298846000795861	smiling	100	sub-07	1.0	6.0	100_smiling	0.0		229.99083972000244	
35.0	210.6997346727485	pulse	1.0	t		19.0	female	white	4.298846000795861	smiling	100	sub-07	1.0	6.0	100_smiling	0.0		230.69080561081137	
35.0	211.39972259869865	pulse	1.0	t		19.0	female	white	4.298846000795861	smiling	100	sub-07	1.0	6.0	100_smiling	0.0		231.39079353676152	
35.0	212.0997014691102	pulse	1.0	t		19.0	female	white	4.298846000795861	smiling	100	sub-07	1.0	6.0	100_smiling	0.0		232.09077240717306	
36.0	212.2662376354183	face	0.0		146	20.0	female	white	3.9502586549940313	smiling	091	sub-07	1.0	6.0	091_smiling	0.0		232.25730857348117	1.233299324759173
36.0	212.79965558771983	pulse	0.0	t		20.0	female	white	3.9502586549940313	smiling	091	sub-07	1.0	6.0	091_smiling	0.0		232.7907265257827	
36.0	213.49953696017747	fix	1.0		444	20.0	female	white	3.9502586549940313	smiling	091	sub-07	1.0	6.0	091_smiling	0.0		233.49060789824034	3.758343017727384
36.0	213.507062111933	pulse	1.0	t		20.0	female	white	3.9502586549940313	smiling	091	sub-07	1.0	6.0	091_smiling	0.0		233.4981330499959	
36.0	214.1996317414705	pulse	1.0	t		20.0	female	white	3.9502586549940313	smiling	091	sub-07	1.0	6.0	091_smiling	0.0		234.1907026795334	
36.0	214.89960940447781	pulse	1.0	t		20.0	female	white	3.9502586549940313	smiling	091	sub-07	1.0	6.0	091_smiling	0.0		234.8906803425407	
36.0	215.59959944338698	pulse	1.0	t		20.0	female	white	3.9502586549940313	smiling	091	sub-07	1.0	6.0	091_smiling	0.0		235.59067038144985	
36.0	216.29955778791373	pulse	1.0	t		20.0	female	white	3.9502586549940313	smiling	091	sub-07	1.0	6.0	091_smiling	0.0		236.2906287259766	
36.0	216.99953907313557	pulse	1.0	t		20.0	female	white	3.9502586549940313	smiling	091	sub-07	1.0	6.0	091_smiling	0.0		236.99061001119844	
37.0	217.25787997790485	face	0.0		146	36.0	female	white	2.7548746518105847	smiling	011	sub-07	1.0	6.0	011_smiling	0.0		237.24895091596773	1.2414985103641811
37.0	217.6995185472506	pulse	0.0	t		36.0	female	white	2.7548746518105847	smiling	011	sub-07	1.0	6.0	011_smiling	0.0		237.69058948531347	
37.0	218.39948806027405	pulse	0.0	t		36.0	female	white	2.7548746518105847	smiling	011	sub-07	1.0	6.0	011_smiling	0.0		238.39055899833693	
37.0	218.49937848826903	fix	1.0		444	36.0	female	white	2.7548746518105847	smiling	011	sub-07	1.0	6.0	011_smiling	0.0		238.4904494263319	3.766510810802174
37.0	219.09946994919846	pulse	1.0	t		36.0	female	white	2.7548746518105847	smiling	011	sub-07	1.0	6.0	011_smiling	0.0		239.09054088726134	
37.0	219.79944549924767	pulse	1.0	t		36.0	female	white	2.7548746518105847	smiling	011	sub-07	1.0	6.0	011_smiling	0.0		239.79051643731054	
37.0	220.49942376595664	pulse	1.0	t		36.0	female	white	2.7548746518105847	smiling	011	sub-07	1.0	6.0	011_smiling	0.0		240.4904947040195	
37.0	221.1994020326665	pulse	1.0	t		36.0	female	white	2.7548746518105847	smiling	011	sub-07	1.0	6.0	011_smiling	0.0		241.1904729707294	
37.0	221.8993938826825	pulse	1.0	t		36.0	female	white	2.7548746518105847	smiling	011	sub-07	1.0	6.0	011_smiling	0.0		241.89046482074536	
38.0	222.2658892990712	face	0.0		145	28.0	male	east_asian	1.5563072025467568	neutral	005	sub-07	1.0	6.0	005_neutral	0.0		242.25696023713408	1.2333252839671331
38.0	222.599360377194	pulse	0.0	t		28.0	male	east_asian	1.5563072025467568	neutral	005	sub-07	1.0	6.0	005_neutral	0.0		242.59043131525686	
38.0	223.29933049392002	pulse	0.0	t		28.0	male	east_asian	1.5563072025467568	neutral	005	sub-07	1.0	6.0	005_neutral	0.0		243.2904014319829	
38.0	223.49921458303834	fix	1.0		445	28.0	male	east_asian	1.5563072025467568	neutral	005	sub-07	1.0	6.0	005_neutral	0.0		243.4902855211012	3.7748648461010816
38.0	223.99931268469572	pulse	1.0	t		28.0	male	east_asian	1.5563072025467568	neutral	005	sub-07	1.0	6.0	005_neutral	0.0		243.9903836227586	
38.0	224.6992773680986	pulse	1.0	t		28.0	male	east_asian	1.5563072025467568	neutral	005	sub-07	1.0	6.0	005_neutral	0.0		244.69034830616147	
38.0	225.3992640866436	pulse	1.0	t		28.0	male	east_asian	1.5563072025467568	neutral	005	sub-07	1.0	6.0	005_neutral	0.0		245.39033502470647	
38.0	226.09923812743637	pulse	1.0	t		28.0	male	east_asian	1.5563072025467568	neutral	005	sub-07	1.0	6.0	005_neutral	0.0		246.09030906549924	
38.0	226.79920401824438	pulse	1.0	t		28.0	male	east_asian	1.5563072025467568	neutral	005	sub-07	1.0	6.0	005_neutral	0.0		246.79027495630726	
39.0	227.27407942913942	face	0.0		145	26.0	male	white	2.7966573816155993	smiling	117	sub-07	1.0	6.0	117_smiling	0.0		247.2651503672023	1.2333026451224214
39.0	227.4991970756655	pulse	0.0	t		26.0	male	white	2.7966573816155993	smiling	117	sub-07	1.0	6.0	117_smiling	0.0		247.49026801372838	
39.0	228.19916447572996	pulse	0.0	t		26.0	male	white	2.7966573816155993	smiling	117	sub-07	1.0	6.0	117_smiling	0.0		248.19023541379283	
39.0	228.50738207426184	fix	1.0		444	26.0	male	white	2.7966573816155993	smiling	117	sub-07	1.0	6.0	117_smiling	0.0		248.49845301232472	3.74988152338301
39.0	228.89914425169627	pulse	1.0	t		26.0	male	white	2.7966573816155993	smiling	117	sub-07	1.0	6.0	117_smiling	0.0		248.89021518975915	
39.0	229.59910229437173	pulse	1.0	t		26.0	male	white	2.7966573816155993	smiling	117	sub-07	1.0	6.0	117_smiling	0.0		249.5901732324346	
39.0	230.29909293698256	pulse	1.0	t		26.0	male	white	2.7966573816155993	smiling	117	sub-07	1.0	6.0	117_smiling	0.0		250.29016387504544	
39.0	230.99907603331303	pulse	1.0	t		26.0	male	white	2.7966573816155993	smiling	117	sub-07	1.0	6.0	117_smiling	0.0		250.9901469713759	
39.0	231.6990521870639	pulse	1.0	t		26.0	male	white	2.7966573816155993	smiling	117	sub-07	1.0	6.0	117_smiling	0.0		251.69012312512677	
40.0	232.25726359764485	fix	0.0		720													252.24833453570773	5.9997920244859415
40.0	232.39902381304546	pulse	0.0	t														252.39009475110834	
40.0	233.09899211866377	pulse	0.0	t														253.09006305672665	
40.0	233.79898336497808	pulse	0.0	t														253.79005430304096	
40.0	234.49894804838095	pulse	0.0	t														254.49001898644383	
40.0	235.1989408039508	pulse	0.0	t														255.19001174201367	
40.0	235.89891424104098	pulse	0.0	t														255.88998517910386	
40.0	236.59888979108928	pulse	0.0	t														256.58996072915215	
40.0	237.29887530222913	pulse	0.0	t														257.289946240292	
40.0	237.998842098591	pulse	0.0	t														257.9899130366539	
