trial_nr	onset	event_type	phase	response	nr_frames	rating_type	face_id	repetition	session	rating	onset_abs	duration
0.0	0.008516278519891785	cue	0.0		479						18.998889167938614	3.9921200350636354
0.0	4.000636313583527	fix	1.0		120						22.99100920300225	1.0251558183454108
0.0	5.025792131928938	face	0.0		146	attractiveness	141	1.0	1		24.01616502134766	1.275355949229379
0.0	6.301148081158317	rating	1.0		132	attractiveness	141	1.0	1		25.29152097057704	1.1082243228756852
0.0	7.409372404034002	fix	2.0		59	attractiveness	141	1.0	1	-0.8199999999999998	26.399745293452725	0.517104398894844
1.0	7.926476802928846	face	0.0		147	attractiveness	121	1.0	1		26.91684969234757	1.2331232009355517
1.0	9.159600003864398	rating	1.0		93	attractiveness	121	1.0	1		28.14997289328312	0.7834091798195004
1.0	9.943009183683898	fix	2.0		60	attractiveness	121	1.0	1	-0.040000000000000036	28.93338207310262	0.5167663195716159
2.0	10.459775503255514	face	0.0		147	attractiveness	102	1.0	1		29.450148392674237	1.233451620849337
2.0	11.693227124104851	rating	1.0		98	attractiveness	102	1.0	1		30.683600013523574	0.825104623475454
2.0	12.518331747580305	fix	2.0		60	attractiveness	102	1.0	1	-1.48	31.508704636999028	0.516743982188018
3.0	13.035075729768323	face	0.0		147	attractiveness	030	1.0	1		32.025448619187046	1.233456148697769
3.0	14.268531878466092	rating	1.0		79	attractiveness	030	1.0	1		33.258904767884815	0.6667911321792417
3.0	14.935323010645334	fix	2.0		60	attractiveness	030	1.0	1	0.6799999999999997	33.925695900064056	0.5167198336648653
4.0	15.4520428443102	face	0.0		147	attractiveness	137	1.0	1		34.44241573372892	1.233455243127537
4.0	16.685498087437736	rating	1.0		310	attractiveness	137	1.0	1		35.67587097685646	2.5919959116545215
4.0	19.277493999092258	fix	2.0		60	attractiveness	137	1.0	1	0.0	38.26786688851098	0.5167388506270072
5.0	19.794232849719265	face	0.0		147	attractiveness	091	1.0	1		38.78460573913799	1.233449205996294
5.0	21.02768205571556	rating	1.0		100	attractiveness	091	1.0	1		40.01805494513428	0.8417637839775125
5.0	21.86944583969307	fix	2.0		60	attractiveness	091	1.0	1	0.9000000000000004	40.859818729111794	0.5167524341704848
6.0	22.386198273863556	face	0.0		147	attractiveness	092	1.0	1		41.37657116328228	1.23346852481518
6.0	23.619666798678736	rating	1.0		191	attractiveness	092	1.0	1		42.61003968809746	1.600190109248615
6.0	25.21985690792735	fix	2.0		60	attractiveness	092	1.0	1	0.16999999999999993	44.210229797346074	0.5167533397407169
7.0	25.736610247668068	face	0.0		147	attractiveness	006	1.0	1		44.72698313708679	1.2334579598355049
7.0	26.970068207503573	rating	1.0		87	attractiveness	006	1.0	1		45.960441096922295	0.7334156999213519
7.0	27.703483907424925	fix	2.0		60	attractiveness	006	1.0	1	0.3700000000000001	46.69385679684365	0.5167657158581278
8.0	28.220249623283053	face	0.0		147	attractiveness	061	1.0	1		47.210622512701775	1.2334443762920273
8.0	29.45369399957508	rating	1.0		70	attractiveness	061	1.0	1		48.4440668889938	0.591743861446048
8.0	30.045437861021128	fix	2.0		60	attractiveness	061	1.0	1	-0.41999999999999993	49.03581075043985	0.5167566601621729
9.0	30.5621945211833	face	0.0		147	attractiveness	136	1.0	1		49.55256741060202	1.2334984086128316
9.0	31.795692929796132	rating	1.0		126	attractiveness	136	1.0	1		50.786065819214855	1.0584170884603736
9.0	32.854110018256506	fix	2.0		60	attractiveness	136	1.0	1	-3.07	51.84448290767523	0.5167599805845384
10.0	33.370869998841044	face	0.0		147	attractiveness	124	1.0	1		52.36124288825977	1.233451620849337
10.0	34.60432161969038	rating	1.0		115	attractiveness	124	1.0	1		53.594694509109104	0.9667803860866115
10.0	35.57110200577699	fix	2.0		60	attractiveness	124	1.0	1	3.29	54.561474895195715	0.5167859402463364
11.0	36.08788794602333	face	0.0		147	attractiveness	027	1.0	1		55.07826083544205	1.2334235481912401
11.0	37.32131149421457	rating	1.0		239	attractiveness	027	1.0	1		56.31168438363329	2.000244201939495
11.0	39.321555696154064	fix	2.0		60	attractiveness	027	1.0	1	1.1900000000000004	58.31192858557279	0.5167566601630824
12.0	39.83831235631715	face	0.0		147	attractiveness	064	1.0	1		58.82868524573587	1.233444980004606
12.0	41.07175733632175	rating	1.0		88	attractiveness	064	1.0	1		60.062130225740475	0.7417587127874867
12.0	41.81351604910924	fix	2.0		60	attractiveness	064	1.0	1	-0.41999999999999993	60.80388893852796	0.5167545471667836
13.0	42.33027059627602	face	0.0		147	attractiveness	044	1.0	1		61.320643485694745	1.233452828274494
13.0	43.56372342455052	rating	1.0		59	attractiveness	044	1.0	1		62.55409631396924	0.5000621824474365
13.0	44.06378560699795	fix	2.0		61	attractiveness	044	1.0	1	0.71	63.054158496416676	0.5168300113009536
14.0	44.58061561829891	face	0.0		147	attractiveness	126	1.0	1		63.57098850771763	1.2333824957022443
14.0	45.81399811400115	rating	1.0		80	attractiveness	126	1.0	1		64.80437100341987	0.6750755848770496
14.0	46.4890736988782	fix	2.0		60	attractiveness	126	1.0	1	0.8099999999999996	65.47944658829692	0.5167762808378029
15.0	47.005849979716004	face	0.0		147	attractiveness	066	1.0	1		65.99622286913473	1.233436226165395
15.0	48.2392862058814	rating	1.0		123	attractiveness	066	1.0	1		67.22965909530012	1.033455363869507
15.0	49.272741569750906	fix	2.0		60	attractiveness	066	1.0	1	1.5099999999999998	68.26311445916963	0.5167602824412825
16.0	49.78950185219219	face	0.0		147	attractiveness	117	1.0	1		68.77987474161091	1.233458563548993
16.0	51.02296041574118	rating	1.0		185	attractiveness	117	1.0	1		70.0133333051599	1.5501785179567378
16.0	52.57313893369792	fix	2.0		60	attractiveness	117	1.0	1	0.33999999999999986	71.56351182311664	0.5167651121464587
17.0	53.08990404584438	face	0.0		147	attractiveness	012	1.0	1		72.0802769352631	1.2334501115656167
17.0	54.323354157409995	rating	1.0		54	attractiveness	012	1.0	1		73.31372704682872	0.45838967988765944
17.0	54.781743837297654	fix	2.0		60	attractiveness	012	1.0	1	0.71	73.77211672671638	0.5167868458165685
18.0	55.29853068311422	face	0.0		147	attractiveness	009	1.0	1		74.28890357253294	1.233439244730107
18.0	56.53196992784433	rating	1.0		103	attractiveness	009	1.0	1		75.52234281726305	0.8667626369224308
18.0	57.39873256476676	fix	2.0		60	attractiveness	009	1.0	1	1.4400000000000004	76.38910545418548	0.5167485100364502
19.0	57.91548107480321	face	0.0		147	attractiveness	034	1.0	1		76.90585396422193	1.2334612802578704
19.0	59.14894235506108	rating	1.0		62	attractiveness	034	1.0	1		78.1393152444798	0.5250697892315657
19.0	59.67401214429265	fix	2.0		60	attractiveness	034	1.0	1	-0.31000000000000005	78.66438503371137	0.5167457933275728
20.0	60.19075793762022	face	0.0		147	attractiveness	100	1.0	1		79.18113082703894	1.2334600728318037
20.0	61.42421801045202	rating	1.0		69	attractiveness	100	1.0	1		80.41459089987075	0.5833960188747369
20.0	62.00761402932676	fix	2.0		60	attractiveness	100	1.0	1	0.3799999999999999	80.99798691874548	0.5167575657314956
21.0	62.524371595058255	face	0.0		147	attractiveness	087	1.0	1		81.51474448447698	1.233459469119225
21.0	63.75783106417748	rating	1.0		104	attractiveness	087	1.0	1		82.7482039535962	0.8750908588181119
21.0	64.63292192299559	fix	2.0		60	attractiveness	087	1.0	1	1.1500000000000004	83.62329481241431	0.5167678288544266
22.0	65.14968975185002	face	0.0		147	attractiveness	172	1.0	1		84.14006264126874	1.2334510171358488
22.0	66.38314076898587	rating	1.0		94	attractiveness	172	1.0	1		85.37351365840459	0.7917826801967749
22.0	67.17492344918264	fix	2.0		60	attractiveness	172	1.0	1	-1.9300000000000002	86.16529633860137	0.5167463970401514
23.0	67.6916698462228	face	0.0		147	attractiveness	099	1.0	1		86.68204273564152	1.2334407540129178
23.0	68.92511060023571	rating	1.0		103	attractiveness	099	1.0	1		87.91548348965443	0.8667885965851383
23.0	69.79189919682085	fix	2.0		61	attractiveness	099	1.0	1	-0.31000000000000005	88.78227208623957	0.525081863493142
24.0	70.31698106031399	face	0.0		146	attractiveness	033	1.0	1		89.30735394973271	1.2251140414000474
24.0	71.54209510171404	rating	1.0		69	attractiveness	033	1.0	1		90.53246799113276	0.5834014522924917
24.0	72.12549655400653	fix	2.0		60	attractiveness	033	1.0	1	1.2300000000000004	91.11586944342525	0.5167741678415041
25.0	72.64227072184804	face	0.0		147	attractiveness	101	1.0	1		91.63264361126676	1.2334371317347177
25.0	73.87570785358275	rating	1.0		87	attractiveness	101	1.0	1		92.86608074300148	0.733432905743939
25.0	74.60914075932669	fix	2.0		60	attractiveness	101	1.0	1	1.9900000000000002	93.59951364874541	0.5167385487702632
26.0	75.12587930809696	face	0.0		147	attractiveness	024	1.0	1		94.11625219751568	1.2334652043928145
26.0	76.35934451248977	rating	1.0		78	attractiveness	024	1.0	1		95.34971740190849	0.65841280209861
26.0	77.01775731458838	fix	2.0		60	attractiveness	024	1.0	1	-0.3999999999999999	96.0081302040071	0.5167654140022933
27.0	77.53452272859067	face	0.0		147	attractiveness	082	1.0	1		96.5248956180094	1.233449205996294
27.0	78.76797193458697	rating	1.0		90	attractiveness	082	1.0	1		97.75834482400569	0.7584142510095262
27.0	79.5263861855965	fix	2.0		60	attractiveness	082	1.0	1	0.7000000000000002	98.51675907501522	0.5167645084320611
28.0	80.04315069402855	face	0.0		147	attractiveness	070	1.0	1		99.03352358344728	1.2334618839713585
28.0	81.27661257799991	rating	1.0		161	attractiveness	070	1.0	1		100.26698546741864	1.3501481511893871
28.0	82.6267607291893	fix	2.0		60	attractiveness	070	1.0	1	-1.5499999999999998	101.61713361860802	0.5168134091918546
29.0	83.14357413838115	face	0.0		147	attractiveness	011	1.0	1		102.13394702779988	1.2333933625368445
29.0	84.376967500918	rating	1.0		91	attractiveness	011	1.0	1		103.36734039033672	0.7667527360281383
29.0	85.14372023694614	fix	2.0		60	attractiveness	011	1.0	1	-0.69	104.13409312636486	0.516773564128016
30.0	85.66049380107415	face	0.0		147	attractiveness	042	1.0	1		104.65086669049288	1.233449507853038
30.0	86.89394330892719	rating	1.0		65	attractiveness	042	1.0	1		105.88431619834591	0.550062001333572
30.0	87.44400531026076	fix	2.0		61	attractiveness	042	1.0	1	0.7800000000000002	106.43437819967949	0.5251072194423614
31.0	87.96911252970312	face	0.0		146	attractiveness	005	1.0	1		106.95948541912185	1.2250998541430818
31.0	89.1942123838462	rating	1.0		134	attractiveness	005	1.0	1		108.18458527326493	1.1251331187331743
31.0	90.31934550257938	fix	2.0		60	attractiveness	005	1.0	1	-2.76	109.3097183919981	0.5167696399939814
32.0	90.83611514257336	face	0.0		147	attractiveness	018	1.0	1		109.82648803199208	1.233455243127537
32.0	92.0695703857009	rating	1.0		73	attractiveness	018	1.0	1		111.05994327511962	0.6167366772597234
32.0	92.68630706296062	fix	2.0		60	attractiveness	018	1.0	1	1.42	111.67667995237935	0.5167560564495943
33.0	93.20306311941022	face	0.0		147	attractiveness	130	1.0	1		112.19343600882894	1.2334627895406811
33.0	94.4365259089509	rating	1.0		80	attractiveness	130	1.0	1		113.42689879836962	0.6750677366071614
33.0	95.11159364555806	fix	2.0		60	attractiveness	130	1.0	1	-2.08	114.10196653497678	0.5167563583063384
34.0	95.6283500038644	face	0.0		147	attractiveness	038	1.0	1		114.61872289328312	1.23351712371732
34.0	96.86186712758172	rating	1.0		157	attractiveness	038	1.0	1		115.85224001700044	1.316763723605618
34.0	98.17863085118734	fix	2.0		60	attractiveness	038	1.0	1	-2.6799999999999997	117.16900374060606	0.516753641597461
35.0	98.6953844927848	face	0.0		147	attractiveness	039	1.0	1		117.68575738220352	1.2334525264186595
35.0	99.92883701920346	rating	1.0		78	attractiveness	039	1.0	1		118.91920990862218	0.6584224615071435
35.0	100.5872594807106	fix	2.0		60	attractiveness	039	1.0	1	3.0	119.57763237012932	0.5167611880106051
36.0	101.1040206687212	face	0.0		147	attractiveness	036	1.0	1		120.09439355813993	1.233445583718094
36.0	102.3374662524393	rating	1.0		90	attractiveness	036	1.0	1		121.32783914185802	0.7584468515160552
36.0	103.09591310395535	fix	2.0		60	attractiveness	036	1.0	1	0.9400000000000004	122.08628599337408	0.5167445859005966
37.0	103.61265768985595	face	0.0		147	attractiveness	144	1.0	1		122.60303057927467	1.2334510171358488
37.0	104.8461087069918	rating	1.0		99	attractiveness	144	1.0	1		123.83648159641052	0.8334186581150789
37.0	105.67952736510688	fix	2.0		60	attractiveness	144	1.0	1	1.1900000000000004	124.6699002545256	0.5167684325679147
38.0	106.1962957976748	face	0.0		147	attractiveness	062	1.0	1		125.18666868709352	1.233449205996294
38.0	107.42974500367109	rating	1.0		326	attractiveness	062	1.0	1		126.42011789308981	2.725314172284925
38.0	110.15505917595601	fix	2.0		60	attractiveness	062	1.0	1	-0.94	129.14543206537473	0.5167817142555577
39.0	110.67184089021157	face	0.0		147	attractiveness	043	1.0	1		129.6622137796303	1.233445885574838
39.0	111.90528677578641	rating	1.0		44	attractiveness	043	1.0	1		130.89565966520513	0.3750431654843851
39.0	112.2803299412708	fix	2.0		60	attractiveness	043	1.0	1	0.1900000000000004	131.27070283068952	0.5000630880167591
40.0	112.78039302928755	cue	0.0		480						131.77076591870627	4.000468783204269
40.0	116.78086181249182	fix	1.0		120						135.77123470191054	1.0168203518924201
40.0	117.79768216438424	face	0.0		147	dominance	011	1.0	1		136.78805505380296	1.2334661099630466
40.0	119.03114827434729	rating	1.0		93	dominance	011	1.0	1		138.021521163766	0.7834206503675887
40.0	119.81456892471488	fix	2.0		60	dominance	011	1.0	1	-1.12	138.8049418141336	0.5167681307111707
41.0	120.33133705542605	face	0.0		147	dominance	030	1.0	1		139.32170994484477	1.2334353205960724
41.0	121.56477237602212	rating	1.0		129	dominance	030	1.0	1		140.55514526544084	1.0834705774395843
41.0	122.6482429534617	fix	2.0		60	dominance	030	1.0	1	-0.2799999999999998	141.63861584288043	0.5167681307111707
42.0	123.16501108417287	face	0.0		147	dominance	018	1.0	1		142.1553839735916	1.2334377354472963
42.0	124.39844881962017	rating	1.0		117	dominance	018	1.0	1		143.3888217090389	0.983455846841025
42.0	125.3819046664612	fix	2.0		60	dominance	018	1.0	1	-1.94	144.37227755587992	0.5167542453100396
43.0	125.89865891177124	face	0.0		147	dominance	012	1.0	1		144.88903180118996	1.233445885574838
43.0	127.13210479734607	rating	1.0		71	dominance	012	1.0	1		146.1224776867648	0.6000769130459958
43.0	127.73218171039207	fix	2.0		60	dominance	012	1.0	1	1.0899999999999999	146.7225545998108	0.5167563583063384
44.0	128.2489380686984	face	0.0		147	dominance	034	1.0	1		147.23931095811713	1.2334534319879822
44.0	129.4823915006864	rating	1.0		240	dominance	034	1.0	1		148.4727643901051	2.0085745368314747
44.0	131.49096603751786	fix	2.0		60	dominance	034	1.0	1	0.25	150.4813389269366	0.5167657158581278
45.0	132.007731753376	face	0.0		147	dominance	121	1.0	1		150.99810464279471	1.2334395465877606
45.0	133.24117129996375	rating	1.0		94	dominance	121	1.0	1		152.23154418938248	0.7917790579176653
45.0	134.03295035788142	fix	2.0		60	dominance	121	1.0	1	2.12	153.02332324730014	0.5167466988968954
46.0	134.5496970567783	face	0.0		147	dominance	064	1.0	1		153.54006994619704	1.2334446781487713
46.0	135.78314173492709	rating	1.0		84	dominance	064	1.0	1		154.7735146243458	0.7084180544015908
46.0	136.49155978932868	fix	2.0		60	dominance	064	1.0	1	-0.9199999999999999	155.4819326787474	0.5167636028627385
47.0	137.00832339219141	face	0.0		147	dominance	099	1.0	1		155.99869628161014	1.2334525264186595
47.0	138.24177591861007	rating	1.0		83	dominance	099	1.0	1		157.2321488080288	0.7000801730964668
47.0	138.94185609170654	fix	2.0		60	dominance	099	1.0	1	-1.3599999999999999	157.93222898112526	0.516753641597461
48.0	139.458609733304	face	0.0		147	dominance	087	1.0	1		158.44898262272272	1.2334540357014703
48.0	140.69206376900547	rating	1.0		69	dominance	087	1.0	1		159.6824366584242	0.5834135265531586
48.0	141.27547729555863	fix	2.0		60	dominance	087	1.0	1	0.71	160.26585018497735	0.5167518304588157
49.0	141.79222912601745	face	0.0		147	dominance	101	1.0	1		160.78260201543617	1.233458563548993
49.0	143.02568768956644	rating	1.0		111	dominance	101	1.0	1		162.01606057898516	0.933442444409593
49.0	143.95913013397603	fix	2.0		60	dominance	101	1.0	1	2.5999999999999996	162.94950302339475	0.5167596787287039
50.0	144.47588981270474	face	0.0		147	dominance	036	1.0	1		163.46626270212346	1.233452828274494
50.0	145.70934264097923	rating	1.0		65	dominance	036	1.0	1		164.69971553039795	0.5500577753418838
50.0	146.2594004163211	fix	2.0		60	dominance	036	1.0	1	-1.46	165.24977330573984	0.5167590750152158
51.0	146.77615949133633	face	0.0		147	dominance	062	1.0	1		165.76653238075505	1.2334522245619155
51.0	148.00961171589825	rating	1.0		188	dominance	062	1.0	1		166.99998460531697	1.5751945767242432
51.0	149.5848062926225	fix	2.0		60	dominance	062	1.0	1	0.4800000000000004	168.5751791820412	0.516753641597461
52.0	150.10155993421995	face	0.0		147	dominance	136	1.0	1		169.09193282363867	1.2334597709750597
52.0	151.335019705195	rating	1.0		121	dominance	136	1.0	1		170.32539259461373	1.0167823179690458
52.0	152.35180202316405	fix	2.0		60	dominance	136	1.0	1	2.59	171.34217491258278	0.5167590750143063
53.0	152.86856109817836	face	0.0		147	dominance	024	1.0	1		171.85893398759708	1.2334470930009047
53.0	154.10200819117927	rating	1.0		92	dominance	024	1.0	1		173.092381080598	0.7751066157297828
53.0	154.87711480690905	fix	2.0		59	dominance	024	1.0	1	-0.69	173.86748769632777	0.5167430766177858
54.0	155.39385788352683	face	0.0		147	dominance	042	1.0	1		174.38423077294556	1.233454941270793
54.0	156.62731282479763	rating	1.0		93	dominance	042	1.0	1		175.61768571421635	0.7834378561910853
54.0	157.4107506809887	fix	2.0		60	dominance	042	1.0	1	0.40000000000000036	176.40112357040744	0.516757565732405
55.0	157.92750824672112	face	0.0		147	dominance	100	1.0	1		176.91788113613984	1.2334501115665262
55.0	159.16095835828764	rating	1.0		71	dominance	100	1.0	1		178.15133124770637	0.6000681592058754
55.0	159.76102651749352	fix	2.0		60	dominance	100	1.0	1	-1.2200000000000002	178.75139940691224	0.5167626972934158
56.0	160.27778921478694	face	0.0		147	dominance	172	1.0	1		179.26816210420566	1.233445885574838
56.0	161.51123510036177	rating	1.0		206	dominance	172	1.0	1		180.5016079897805	1.725206711357714
56.0	163.2364418117195	fix	2.0		60	dominance	172	1.0	1	1.5599999999999996	182.2268147011382	0.5167590750143063
57.0	163.7532008867338	face	0.0		147	dominance	137	1.0	1		182.74357377615252	1.2334525264186595
57.0	164.98665341315245	rating	1.0		105	dominance	137	1.0	1		183.97702630257118	0.8834414180983003
57.0	165.87009483125075	fix	2.0		59	dominance	137	1.0	1	0.5700000000000003	184.86046772066948	0.5167614898673492
58.0	166.3868563211181	face	0.0		147	dominance	130	1.0	1		185.37722921053683	1.2334543375573048
58.0	167.6203106586754	rating	1.0		89	dominance	130	1.0	1		186.61068354809413	0.7500781808439569
58.0	168.37038883951936	fix	2.0		60	dominance	130	1.0	1	2.08	187.3607617289381	0.5167654140022933
59.0	168.88715425352166	face	0.0		147	dominance	117	1.0	1		187.87752714294038	1.2334510171358488
59.0	170.1206052706575	rating	1.0		332	dominance	117	1.0	1		189.11097816007623	2.77533934712028
59.0	172.8959446177778	fix	2.0		60	dominance	117	1.0	1	1.1799999999999997	191.8863175071965	0.516747604466218
60.0	173.412692222244	face	0.0		147	dominance	033	1.0	1		192.40306511166273	1.2334534319879822
60.0	174.646145654232	rating	1.0		73	dominance	033	1.0	1		193.6365185436507	0.6167393939686008
60.0	175.2628850482006	fix	2.0		60	dominance	033	1.0	1	1.8899999999999997	194.2532579376193	0.5167524341713943
61.0	175.77963748237198	face	0.0		147	dominance	044	1.0	1		194.7700103717907	1.2334661099630466
61.0	177.01310359233503	rating	1.0		69	dominance	044	1.0	1		196.00347648175375	0.5834023578618144
61.0	177.59650595019684	fix	2.0		60	dominance	044	1.0	1	-0.96	196.58687883961557	0.5167575657314956
62.0	178.11326351592834	face	0.0		147	dominance	126	1.0	1		197.10363640534706	1.2334443762920273
62.0	179.34670789222037	rating	1.0		85	dominance	126	1.0	1		198.3370807816391	0.7167508041466135
62.0	180.06345869636698	fix	2.0		60	dominance	126	1.0	1	-0.9700000000000002	199.0538315857857	0.5167617917231837
63.0	180.58022048809016	face	0.0		147	dominance	124	1.0	1		199.57059337750889	1.2334576579796703
63.0	181.81367814606983	rating	1.0		67	dominance	124	1.0	1		200.80405103548856	0.5667302175297664
63.0	182.3804083635996	fix	2.0		60	dominance	124	1.0	1	1.1900000000000004	201.37078125301832	0.516750321176005
64.0	182.8971586847756	face	0.0		147	dominance	082	1.0	1		201.88753157419433	1.2334630913974252
64.0	184.13062177617303	rating	1.0		527	dominance	082	1.0	1		203.12099466559175	4.400534044587403
64.0	188.53115582076043	fix	2.0		60	dominance	082	1.0	1	-0.73	207.52152871017915	0.5167445859015061
65.0	189.04790040666194	face	0.0		147	dominance	005	1.0	1		208.03827329608066	1.2334609784011263
65.0	190.28136138506306	rating	1.0		299	dominance	005	1.0	1		209.2717342744818	2.500289782276923
65.0	192.78165116734	fix	2.0		60	dominance	005	1.0	1	-2.8600000000000003	211.7720240567587	0.5167566601630824
66.0	193.29840782750307	face	0.0		147	dominance	009	1.0	1		212.2887807169218	1.2334561486968596
66.0	194.53186397619993	rating	1.0		103	dominance	009	1.0	1		213.52223686561865	0.8667756167533298
66.0	195.39863959295326	fix	2.0		60	dominance	009	1.0	1	-1.8900000000000001	214.38901248237198	0.5167521323146502
67.0	195.9153917252679	face	0.0		147	dominance	102	1.0	1		214.90576461468663	1.2334564505526942
67.0	197.1488481758206	rating	1.0		76	dominance	102	1.0	1		216.13922106523933	0.6417506230318395
67.0	197.79059879885244	fix	2.0		60	dominance	102	1.0	1	-1.0	216.78097168827117	0.5167554527370157
68.0	198.30735425158946	face	0.0		147	dominance	061	1.0	1		217.29772714100818	1.2334476967134833
68.0	199.54080194830294	rating	1.0		66	dominance	061	1.0	1		218.53117483772166	0.5583938455074531
68.0	200.0991957938104	fix	2.0		60	dominance	061	1.0	1	0.40000000000000036	219.08956868322912	0.5167645084329706
69.0	200.61596030224337	face	0.0		147	dominance	144	1.0	1		219.6063331916621	1.2334564505536036
69.0	201.84941675279697	rating	1.0		80	dominance	144	1.0	1		220.8397896422157	0.6750770941598603
69.0	202.52449384695683	fix	2.0		60	dominance	144	1.0	1	-1.35	221.51486673637555	0.5167542453100396
70.0	203.04124809226687	face	0.0		147	dominance	092	1.0	1		222.0316209816856	1.233451620849337
70.0	204.2746997131162	rating	1.0		55	dominance	092	1.0	1		223.26507260253493	0.466724542627162
70.0	204.74142425574337	fix	2.0		60	dominance	092	1.0	1	-0.009999999999999787	223.7317971451621	0.5167521323137407
71.0	205.2581763880571	face	0.0		147	dominance	027	1.0	1		224.24854927747583	1.2334624876848466
71.0	206.49163887574196	rating	1.0		59	dominance	027	1.0	1		225.48201176516068	0.5000636917293377
71.0	206.9917025674713	fix	2.0		60	dominance	027	1.0	1	-1.2200000000000002	225.98207545689002	0.5167418691926287
72.0	207.50844443666392	face	0.0		147	dominance	141	1.0	1		226.49881732608264	1.2334555449833715
72.0	208.7418999816473	rating	1.0		67	dominance	141	1.0	1		227.73227287106602	0.5667383676563986
72.0	209.3086383493037	fix	2.0		60	dominance	141	1.0	1	1.25	228.29901123872241	0.5167651121464587
73.0	209.82540346145015	face	0.0		147	dominance	039	1.0	1		228.81577635086887	1.2334507152791048
73.0	211.05885417672926	rating	1.0		74	dominance	039	1.0	1		230.04922706614798	0.6250688232903485
73.0	211.6839230000196	fix	2.0		60	dominance	039	1.0	1	-2.49	230.67429588943833	0.5167636028627385
74.0	212.20068660288234	face	0.0		147	dominance	091	1.0	1		231.19105949230106	1.233452224562825
74.0	213.43413882744517	rating	1.0		145	dominance	091	1.0	1		232.4245117168639	1.2168045346088547
74.0	214.65094336205402	fix	2.0		60	dominance	091	1.0	1	-0.7599999999999998	233.64131625147274	0.5167744696991576
75.0	215.16771783175318	face	0.0		147	dominance	038	1.0	1		234.1580907211719	1.233435924308651
75.0	216.40115375606183	rating	1.0		87	dominance	038	1.0	1		235.39152664548055	0.7334443762920273
75.0	217.13459813235386	fix	2.0		60	dominance	038	1.0	1	1.42	236.12497102177258	0.5167430766177858
76.0	217.65134120897164	face	0.0		147	dominance	043	1.0	1		236.64171409839037	1.2334443762920273
76.0	218.88478558526367	rating	1.0		83	dominance	043	1.0	1		237.8751584746824	0.7000834935188323
76.0	219.5848690787825	fix	2.0		60	dominance	043	1.0	1	0.7400000000000002	238.57524196820123	0.516770545563304
77.0	220.1016396243458	face	0.0		147	dominance	066	1.0	1		239.09201251376453	1.2334392447310165
77.0	221.33507886907682	rating	1.0		106	dominance	066	1.0	1		240.32545175849555	0.8917768845503815
77.0	222.2268557536272	fix	2.0		60	dominance	066	1.0	1	2.8600000000000003	241.21722864304593	0.5167666214283599
78.0	222.74362237505557	face	0.0		147	dominance	070	1.0	1		241.7339952644743	1.2334513189925929
78.0	223.97707369404816	rating	1.0		128	dominance	070	1.0	1		242.96744658346688	1.075121225586372
78.0	225.05219491963453	fix	2.0		60	dominance	070	1.0	1	3.1500000000000004	244.04256780905325	0.516760584297117
79.0	225.56895550393165	face	0.0		147	dominance	006	1.0	1		244.55932839335037	1.2334567524103477
79.0	226.802412256342	rating	1.0		296	dominance	006	1.0	1		245.79278514576072	2.4752815717793055
79.0	229.2776938281213	fix	2.0		60	dominance	006	1.0	1	-0.6200000000000001	248.26806671754002	0.5000606731637163
80.0	229.77775450128502	cue	0.0		480						248.76812739070374	4.000484177888211
80.0	233.77823867917323	fix	1.0		120						252.76861156859195	1.0168146166179213
80.0	234.79505329579115	face	0.0		147	trustworthiness	126	1.0	1		253.78542618520987	1.2334594691183156
80.0	236.02851276490946	rating	1.0		108	trustworthiness	126	1.0	1		255.0188856543282	0.9084441951781628
80.0	236.93695696008763	fix	2.0		60	trustworthiness	126	1.0	1	1.2199999999999998	255.92732984950635	0.5167554527370157
81.0	237.45371241282464	face	0.0		147	trustworthiness	172	1.0	1		256.44408530224337	1.2334431688650511
81.0	238.6871555816897	rating	1.0		375	trustworthiness	172	1.0	1		257.6775284711084	3.133713390839148
81.0	241.82086897252884	fix	2.0		60	trustworthiness	172	1.0	1	-0.8700000000000001	260.81124186194756	0.5167524341713943
82.0	242.33762140670024	face	0.0		147	trustworthiness	137	1.0	1		261.32799429611896	1.2334573561229263
82.0	243.57107876282316	rating	1.0		77	trustworthiness	137	1.0	1		262.5614516522419	0.650078543071686
82.0	244.22115730589485	fix	2.0		61	trustworthiness	137	1.0	1	0.33999999999999986	263.21153019531357	0.5250866931974087
83.0	244.74624399909226	face	0.0		146	trustworthiness	117	1.0	1		263.736616888511	1.225127021231856
83.0	245.9713710203241	rating	1.0		161	trustworthiness	117	1.0	1		264.96174390974284	1.3501587161672433
83.0	247.32152973649136	fix	2.0		60	trustworthiness	117	1.0	1	-1.0499999999999998	266.3119026259101	0.5167578675891491
84.0	247.8382876040805	face	0.0		147	trustworthiness	038	1.0	1		266.8286604934992	1.2334564505536036
84.0	249.0717440546341	rating	1.0		117	trustworthiness	038	1.0	1		268.06211694405283	0.9834531301312381
84.0	250.05519718476535	fix	2.0		60	trustworthiness	038	1.0	1	-2.2	269.04557007418407	0.5167527360281383
85.0	250.5719499207935	face	0.0		147	trustworthiness	066	1.0	1		269.5623228102122	1.233445885574838
85.0	251.80539580636832	rating	1.0		131	trustworthiness	066	1.0	1		270.79576869578705	1.1001454344796002
85.0	252.90554124084792	fix	2.0		60	trustworthiness	066	1.0	1	-2.66	271.89591413026665	0.5167512267453276
86.0	253.42229246759325	face	0.0		147	trustworthiness	130	1.0	1		272.412665357012	1.233444980004606
86.0	254.65573744759786	rating	1.0		135	trustworthiness	130	1.0	1		273.6461103370166	1.183485006182309
86.0	255.83922245378017	fix	2.0		60	trustworthiness	130	1.0	1	-3.16	274.8295953431989	0.5167451896140847
87.0	256.35596764339425	face	0.0		147	trustworthiness	009	1.0	1		275.346340532813	1.233459167262481
87.0	257.58942681065673	rating	1.0		264	trustworthiness	009	1.0	1		276.57979970007545	2.2085916219111823
87.0	259.7980184325679	fix	2.0		60	trustworthiness	009	1.0	1	2.0300000000000002	278.78839132198664	0.5167620935808372
88.0	260.31478052614875	face	0.0		147	trustworthiness	136	1.0	1		279.3051534155675	1.233449205996294
88.0	261.54822973214505	rating	1.0		114	trustworthiness	136	1.0	1		280.53860262156377	0.9584569938951972
88.0	262.50668672604024	fix	2.0		60	trustworthiness	136	1.0	1	-3.58	281.49705961545897	0.5167545471667836
89.0	263.023441273207	face	0.0		147	trustworthiness	062	1.0	1		282.01381416262575	1.233451620849337
89.0	264.25689289405636	rating	1.0		84	trustworthiness	062	1.0	1		283.2472657834751	0.70841654511878
89.0	264.96530943917514	fix	2.0		60	trustworthiness	062	1.0	1	-1.12	283.95568232859387	0.5167521323146502
90.0	265.4820615714898	face	0.0		147	trustworthiness	070	1.0	1		284.4724344609085	1.2334649025360704
90.0	266.71552647402586	rating	1.0		119	trustworthiness	070	1.0	1		285.7058993634446	1.0001515319827377
90.0	267.7156780060086	fix	2.0		60	trustworthiness	070	1.0	1	-3.2800000000000002	286.7060508954273	0.5167186262387986
91.0	268.2323966322474	face	0.0		147	trustworthiness	141	1.0	1		287.2227695216661	1.23344890413955
91.0	269.46584553638695	rating	1.0		73	trustworthiness	141	1.0	1		288.4562184258057	0.6167378846866995
91.0	270.08258342107365	fix	2.0		60	trustworthiness	141	1.0	1	-1.1600000000000001	289.0729563104924	0.5167599805845384
92.0	270.5993434016582	face	0.0		147	trustworthiness	101	1.0	1		289.5897162910769	1.233458261692249
92.0	271.83280166335044	rating	1.0		107	trustworthiness	101	1.0	1		290.82317455276916	0.9001096342954042
92.0	272.73291129764584	fix	2.0		60	trustworthiness	101	1.0	1	-2.9699999999999998	291.72328418706456	0.5167536415965515
93.0	273.2496649392424	face	0.0		147	trustworthiness	099	1.0	1		292.2400378286611	1.233455846841025
93.0	274.4831207860834	rating	1.0		258	trustworthiness	099	1.0	1		293.47349367550214	2.15858697332078
93.0	276.6417077594042	fix	2.0		60	trustworthiness	099	1.0	1	0.4299999999999997	295.6320806488229	0.5167584713017277
94.0	277.1584662307059	face	0.0		147	trustworthiness	087	1.0	1		296.14883912012465	1.233454941270793
94.0	278.3919211719767	rating	1.0		66	trustworthiness	087	1.0	1		297.38229406139544	0.5584104476165521
94.0	278.95033161959327	fix	2.0		60	trustworthiness	087	1.0	1	1.1500000000000004	297.940704509012	0.5167820161123018
95.0	279.4671136357056	face	0.0		147	trustworthiness	033	1.0	1		298.4574865251243	1.233419322199552
95.0	280.7005329579051	rating	1.0		110	trustworthiness	033	1.0	1		299.69090584732385	0.9251154299399786
95.0	281.6256483878451	fix	2.0		60	trustworthiness	033	1.0	1	-0.8300000000000001	300.6160212772638	0.5167557545928503
96.0	282.14240414243795	face	0.0		147	trustworthiness	082	1.0	1		301.1327770318567	1.2334748638022575
96.0	283.3758790062402	rating	1.0		76	trustworthiness	082	1.0	1		302.36625189565893	0.6417092686860997
96.0	284.0175882749263	fix	2.0		60	trustworthiness	082	1.0	1	2.1900000000000004	303.00796116434503	0.5167642065762266
97.0	284.53435248150254	face	0.0		147	trustworthiness	039	1.0	1		303.52472537092126	1.233455243127537
97.0	285.7678077246301	rating	1.0		79	trustworthiness	039	1.0	1		304.7581806140488	0.6667392128547363
97.0	286.4345469374848	fix	2.0		60	trustworthiness	039	1.0	1	3.08	305.42491982690353	0.5167581694449837
98.0	286.9513051069298	face	0.0		147	trustworthiness	030	1.0	1		305.9416779963485	1.2334489041404595
98.0	288.18475401107025	rating	1.0		146	trustworthiness	030	1.0	1		307.175126900489	1.2251559994592753
98.0	289.40991001052953	fix	2.0		59	trustworthiness	030	1.0	1	-0.8500000000000001	308.40028289994825	0.5167518304579062
99.0	289.92666184098744	face	0.0		147	trustworthiness	018	1.0	1		308.91703473040616	1.2334531301312381
99.0	291.1601149711187	rating	1.0		69	trustworthiness	018	1.0	1		310.1504878605374	0.5834123191280014
99.0	291.7435272902467	fix	2.0		61	trustworthiness	018	1.0	1	2.8499999999999996	310.7339001796654	0.5250806560670753
100.0	292.26860794631375	face	0.0		146	trustworthiness	042	1.0	1		311.2589808357325	1.225120682243869
100.0	293.4937286285576	rating	1.0		103	trustworthiness	042	1.0	1		312.48410151797634	0.8668175748116482
100.0	294.36054620336927	fix	2.0		60	trustworthiness	042	1.0	1	0.7300000000000004	313.350919092788	0.5167113816823985
101.0	294.87725758505167	face	0.0		147	trustworthiness	027	1.0	1		313.8676304744704	1.2334525264186595
101.0	296.1107101114703	rating	1.0		373	trustworthiness	027	1.0	1		315.10108300088905	3.1170403449368678
101.0	299.2277504564072	fix	2.0		60	trustworthiness	027	1.0	1	1.33	318.2181233458259	0.516754245310949
102.0	299.74450470171814	face	0.0		147	trustworthiness	091	1.0	1		318.73487759113686	1.2334416595831499
102.0	300.9779463613013	rating	1.0		68	trustworthiness	091	1.0	1		319.96831925072	0.5750868139402883
102.0	301.5530331752416	fix	2.0		60	trustworthiness	091	1.0	1	1.1500000000000004	320.5434060646603	0.5167639047194825
103.0	302.06979707996106	face	0.0		147	trustworthiness	144	1.0	1		321.0601699693798	1.2334479985702274
103.0	303.3032450785313	rating	1.0		82	trustworthiness	144	1.0	1		322.29361796795	0.6917498382053964
103.0	303.9949949167367	fix	2.0		60	trustworthiness	144	1.0	1	2.1900000000000004	322.9853678061554	0.5167527360272288
104.0	304.5117476527639	face	0.0		147	trustworthiness	006	1.0	1		323.50212054218264	1.2334546394140489
104.0	305.74520229217796	rating	1.0		79	trustworthiness	006	1.0	1		324.7355751815967	0.6667364961458588
104.0	306.4119387883238	fix	2.0		60	trustworthiness	006	1.0	1	0.9000000000000004	325.40231167774255	0.5167527360281383
105.0	306.92869152435196	face	0.0		147	trustworthiness	011	1.0	1		325.9190644137707	1.233458563548993
105.0	308.16215008790095	rating	1.0		100	trustworthiness	011	1.0	1		327.1525229773197	0.8417665006854804
105.0	309.00391658858643	fix	2.0		60	trustworthiness	011	1.0	1	-0.6600000000000001	327.99428947800516	0.5167584713026372
106.0	309.5206750598891	face	0.0		147	trustworthiness	043	1.0	1		328.5110479493078	1.2334558468401156
106.0	310.7541309067292	rating	1.0		49	trustworthiness	043	1.0	1		329.7445037961479	0.4167250255977706
106.0	311.17085593232696	fix	2.0		60	trustworthiness	043	1.0	1	0.3200000000000003	330.1612288217457	0.508396743330195
107.0	311.67925267565715	face	0.0		148	trustworthiness	024	1.0	1		330.6696255650759	1.2418042931240052
107.0	312.92105696878116	rating	1.0		49	trustworthiness	024	1.0	1		331.9114298581999	0.4167295534452933
107.0	313.33778652222645	fix	2.0		60	trustworthiness	024	1.0	1	0.0	332.3281594116452	0.5167476044671275
108.0	313.8545341266936	face	0.0		147	trustworthiness	061	1.0	1		332.8449070161123	1.2334483004269714
108.0	315.08798242712055	rating	1.0		52	trustworthiness	061	1.0	1		334.0783553165393	0.44172538782459014
108.0	315.52970781494514	fix	2.0		60	trustworthiness	061	1.0	1	0.33999999999999986	334.52008070436386	0.5083946303348057
109.0	316.03810244527995	face	0.0		148	trustworthiness	005	1.0	1		335.02847533469867	1.2418236119428911
109.0	317.27992605722284	rating	1.0		63	trustworthiness	005	1.0	1		336.27029894664156	0.5333892572880359
109.0	317.8133153145109	fix	2.0		60	trustworthiness	005	1.0	1	1.2800000000000002	336.8036882039296	0.5083985544697498
110.0	318.3217138689806	face	0.0		148	trustworthiness	064	1.0	1		337.31208675839935	1.2418163673855815
110.0	319.5635302363662	rating	1.0		252	trustworthiness	064	1.0	1		338.5539031257849	2.108572967177679
110.0	321.6721032035439	fix	2.0		60	trustworthiness	064	1.0	1	0.7999999999999998	340.6624760929626	0.5084607369162768
111.0	322.18056394046016	face	0.0		148	trustworthiness	121	1.0	1		341.1709368298789	1.2417562979344439
111.0	323.4223202383946	rating	1.0		135	trustworthiness	121	1.0	1		342.4126931278133	1.1335054116843821
111.0	324.555825650079	fix	2.0		60	trustworthiness	121	1.0	1	-1.63	343.5461985394977	0.5083674632460315
112.0	325.064193113325	face	0.0		148	trustworthiness	100	1.0	1		344.05456600274374	1.2417994634197385
112.0	326.30599257674476	rating	1.0		88	trustworthiness	100	1.0	1		345.2963654661635	0.7417529775129879
112.0	327.04774555425774	fix	2.0		60	trustworthiness	100	1.0	1	-0.7400000000000002	346.03811844367647	0.5084242122748037
113.0	327.55616976653255	face	0.0		148	trustworthiness	092	1.0	1		346.54654265595127	1.241792520719173
113.0	328.7979622872517	rating	1.0		69	trustworthiness	092	1.0	1		347.78833517667044	0.5833960188747369
113.0	329.38135830612646	fix	2.0		60	trustworthiness	092	1.0	1	-0.5699999999999998	348.3717311955452	0.5084679814735864
114.0	329.88982628760004	face	0.0		148	trustworthiness	036	1.0	1		348.88019917701877	1.241756599791188
114.0	331.13158288739123	rating	1.0		57	trustworthiness	036	1.0	1		350.12195577680995	0.48337796785290266
114.0	331.61496085524414	fix	2.0		61	trustworthiness	036	1.0	1	1.4699999999999998	350.60533374466286	0.5167629991501599
115.0	332.1317238543943	face	0.0		147	trustworthiness	012	1.0	1		351.122096743813	1.2334624876848466
115.0	333.36518634207914	rating	1.0		156	trustworthiness	012	1.0	1		352.35555923149786	1.3084765541989327
115.0	334.6736628962781	fix	2.0		59	trustworthiness	012	1.0	1	-1.06	353.6640357856968	0.51677024370656
116.0	335.19043313998463	face	0.0		147	trustworthiness	034	1.0	1		354.18080602940336	1.2334467911441607
116.0	336.4238799311288	rating	1.0		58	trustworthiness	034	1.0	1		355.4142528205475	0.4917179621543255
116.0	336.9155978932831	fix	2.0		59	trustworthiness	034	1.0	1	-0.5299999999999998	355.90597078270184	0.5167533397407169
117.0	337.43235123302384	face	0.0		147	trustworthiness	044	1.0	1		356.42272412244256	1.23347214709338
117.0	338.6658233801172	rating	1.0		46	trustworthiness	044	1.0	1		357.65619626953594	0.3917125891084652
117.0	339.0575359692257	fix	2.0		60	trustworthiness	044	1.0	1	0.7800000000000002	358.0479088586444	0.5167530378839729
118.0	339.57428900710966	face	0.0		147	trustworthiness	124	1.0	1		358.5646618965284	1.2334513189925929
118.0	340.80774032610225	rating	1.0		59	trustworthiness	124	1.0	1		359.79811321552097	0.5000534286073162
118.0	341.30779375470956	fix	2.0		60	trustworthiness	124	1.0	1	-1.2999999999999998	360.2981666441283	0.5167596787277944
119.0	341.82455343343736	face	0.0		147	trustworthiness	102	1.0	1		360.8149263228561	1.2334558468401156
119.0	343.0580092802775	rating	1.0		41	trustworthiness	102	1.0	1		362.0483821696962	0.3500406902621762
119.0	343.40804997053965	fix	2.0		60	trustworthiness	102	1.0	1	0.7400000000000002	362.3984228599584	0.5000552397459614
120.0	343.9081052102856	cue	0.0		3600						362.89847809970433	30.00362891930581
120.0	373.9117341295914	fix	1.0		120						392.90210701901015	1.0000881421092345
120.0	374.91182227170066	cue	0.0		480						393.9021951611194	4.00048840387899
120.0	378.91231067557965	fix	1.0		120						397.90268356499837	1.0168131073351105
120.0	379.92912378291476	face	0.0		147	attractiveness	141	2.0	1		398.9194966723335	1.2334603746885477
120.0	381.1625841576033	rating	1.0		124	attractiveness	141	2.0	1		400.152957047022	1.0417760393520439
120.0	382.20436019695535	fix	2.0		60	attractiveness	141	2.0	1	-1.1400000000000001	401.1947330863741	0.5084740186048293
121.0	382.7128342155602	face	0.0		148	attractiveness	130	2.0	1		401.7032071049789	1.2417445255296116
121.0	383.9545787410898	rating	1.0		94	attractiveness	130	2.0	1		402.9449516305085	0.7917582298168782
121.0	384.74633697090667	fix	2.0		60	attractiveness	130	2.0	1	-2.05	403.7367098603254	0.5167545471667836
122.0	385.26309151807345	face	0.0		147	attractiveness	009	2.0	1		404.2534644074922	1.2334483004269714
122.0	386.4965398185004	rating	1.0		224	attractiveness	009	2.0	1		405.48691270791915	1.8752357499561185
122.0	388.37177556845654	fix	2.0		60	attractiveness	009	2.0	1	1.46	407.36214845787526	0.5167337190659964
123.0	388.88850928752254	face	0.0		147	attractiveness	144	2.0	1		407.87888217694126	1.2334630913974252
123.0	390.12197237891996	rating	1.0		99	attractiveness	144	2.0	1		409.1123452683387	0.8334539753295758
123.0	390.95542635424954	fix	2.0		60	attractiveness	144	2.0	1	1.2000000000000002	409.94579924366826	0.5086647919360985
124.0	391.46409114618564	face	0.0		148	attractiveness	044	2.0	1		410.45446403560436	1.241527792535635
124.0	392.7056189387213	rating	1.0		161	attractiveness	044	2.0	1		411.69599182814	1.350169583002753
124.0	394.055788521724	fix	2.0		61	attractiveness	044	2.0	1	1.0099999999999998	413.04616141114275	0.5250894099071957
125.0	394.5808779316312	face	0.0		146	attractiveness	042	2.0	1		413.57125082104994	1.2251218896699356
125.0	395.80599982130116	rating	1.0		74	attractiveness	042	2.0	1		414.7963727107199	0.6250673140084473
125.0	396.4310671353096	fix	2.0		60	attractiveness	042	2.0	1	1.2800000000000002	415.4214400247283	0.5167657158590373
126.0	396.94783285116864	face	0.0		147	attractiveness	018	2.0	1		415.93820574058736	1.2334649025360704
126.0	398.1812977537047	rating	1.0		146	attractiveness	018	2.0	1		417.17167064312343	1.2251873925388281
126.0	399.40648514624354	fix	2.0		60	attractiveness	018	2.0	1	1.4900000000000002	418.39685803566226	0.5166993074208222
127.0	399.92318445366436	face	0.0		147	attractiveness	124	2.0	1		418.9135573430831	1.2334564505536036
127.0	401.15664090421797	rating	1.0		143	attractiveness	124	2.0	1		420.1470137936367	1.2001323942777162
127.0	402.3567732984957	fix	2.0		60	attractiveness	124	2.0	1	3.09	421.3471461879144	0.5167639047194825
128.0	402.87353720321516	face	0.0		147	attractiveness	043	2.0	1		421.8639100926339	1.2335053513124876
128.0	404.10704255452765	rating	1.0		194	attractiveness	043	2.0	1		423.0974154439464	1.6251512301259936
128.0	405.73219378465365	fix	2.0		60	attractiveness	043	2.0	1	0.5300000000000002	424.72256667407237	0.5167524341713943
129.0	406.24894621882504	face	0.0		147	attractiveness	101	2.0	1		425.23931910824376	1.2334470929999952
129.0	407.48239331182504	rating	1.0		77	attractiveness	101	2.0	1		426.47276620124376	0.6500761282195526
129.0	408.1324694400446	fix	2.0		60	attractiveness	101	2.0	1	2.3	427.1228423294633	0.5167599805845384
130.0	408.6492294206291	face	0.0		147	attractiveness	137	2.0	1		427.63960231004785	1.2334467911441607
130.0	409.8826762117733	rating	1.0		58	attractiveness	137	2.0	1		428.873049101192	0.4917348661201686
130.0	410.37441107789346	fix	2.0		60	attractiveness	137	2.0	1	0.3099999999999996	429.3647839673122	0.516766923285104
131.0	410.89117800117856	face	0.0		147	attractiveness	126	2.0	1		429.8815508905973	1.2334434707227047
131.0	412.12462147190126	rating	1.0		68	attractiveness	126	2.0	1		431.11499436132	0.5750720229698345
131.0	412.6996934948711	fix	2.0		61	attractiveness	126	2.0	1	0.9400000000000004	431.6900663842898	0.5250773356456193
132.0	413.2247708305167	face	0.0		146	attractiveness	102	2.0	1		432.21514371993544	1.2251221915266797
132.0	414.4498930220434	rating	1.0		98	attractiveness	102	2.0	1		433.4402659114621	0.8251022086233206
132.0	415.2749952306667	fix	2.0		60	attractiveness	102	2.0	1	-1.6	434.26536812008544	0.5167590750152158
133.0	415.79175430568193	face	0.0		147	attractiveness	062	2.0	1		434.78212719510066	1.2334534319879822
133.0	417.0252077376699	rating	1.0		92	attractiveness	062	2.0	1		436.01558062708864	0.7751138602861829
133.0	417.8003215979561	fix	2.0		60	attractiveness	062	2.0	1	-1.8599999999999999	436.7906944873748	0.5167322097831857
134.0	418.3170538077393	face	0.0		147	attractiveness	082	2.0	1		437.307426697158	1.2334561486968596
134.0	419.55050995643614	rating	1.0		111	attractiveness	082	2.0	1		438.54088284585487	0.9334376147062358
134.0	420.4839475711424	fix	2.0		60	attractiveness	082	2.0	1	0.54	439.4743204605611	0.516756962018917
135.0	421.0007045331613	face	0.0		147	attractiveness	012	2.0	1		439.99107742258	1.2334606765452918
135.0	422.2341652097066	rating	1.0		75	attractiveness	012	2.0	1		441.2245380991253	0.6334103268736726
135.0	422.86757553658026	fix	2.0		59	attractiveness	012	2.0	1	0.7999999999999998	441.857948425999	0.5167560564495943
136.0	423.38433159302986	face	0.0		147	attractiveness	034	2.0	1		442.3747044824486	1.2334600728327132
136.0	424.61779166586257	rating	1.0		64	attractiveness	034	2.0	1		443.6081645552813	0.5417425332761923
136.0	425.15953419913876	fix	2.0		60	attractiveness	034	2.0	1	-0.6200000000000001	444.1499070885575	0.5167430766186953
137.0	425.67627727575746	face	0.0		147	attractiveness	006	2.0	1		444.6666501651762	1.2334567524094382
137.0	426.9097340281669	rating	1.0		71	attractiveness	006	2.0	1		445.9001069175856	0.6000618202197074
137.0	427.5097958483866	fix	2.0		60	attractiveness	006	2.0	1	0.1200000000000001	446.5001687378053	0.5167548490235276
138.0	428.02655069741013	face	0.0		147	attractiveness	061	2.0	1		447.01692358682885	1.233449205996294
138.0	429.2599999034064	rating	1.0		57	attractiveness	061	2.0	1		448.25037279282515	0.48339306068010046
138.0	429.7433929640865	fix	2.0		60	attractiveness	061	2.0	1	0.08999999999999986	448.73376585350525	0.5167675269985921
139.0	430.2601604910851	face	0.0		147	attractiveness	039	2.0	1		449.25053338050384	1.2334576579796703
139.0	431.4936181490648	rating	1.0		90	attractiveness	039	2.0	1		450.4839910384835	0.7584133454392941
139.0	432.2520314945041	fix	2.0		60	attractiveness	039	2.0	1	2.9699999999999998	451.2424043839228	0.5167566601630824
140.0	432.76878815466716	face	0.0		147	attractiveness	066	2.0	1		451.7591610440859	1.2334694303845026
140.0	434.00225758505167	rating	1.0		117	attractiveness	066	2.0	1		452.9926304744704	0.9834316983169629
140.0	434.98568928336863	fix	2.0		60	attractiveness	066	2.0	1	2.1500000000000004	453.97606217278735	0.5167548490235276
141.0	435.50244413239216	face	0.0		147	attractiveness	038	2.0	1		454.4928170218109	1.2334612802578704
141.0	436.73590541265	rating	1.0		89	attractiveness	038	2.0	1		455.72627830206875	0.7500811994095784
141.0	437.4859866120596	fix	2.0		60	attractiveness	038	2.0	1	-2.95	456.4763595014783	0.5167681307111707
142.0	438.0027547427708	face	0.0		147	attractiveness	136	2.0	1		456.9931276321895	1.2334519227051715
142.0	439.23620666547595	rating	1.0		78	attractiveness	136	2.0	1		458.22657955489467	0.6584088779627564
142.0	439.8946155434387	fix	2.0		60	attractiveness	136	2.0	1	-3.33	458.8849884328574	0.5167518304579062
143.0	440.4113673738966	face	0.0		147	attractiveness	099	2.0	1		459.40174026331533	1.2334576579796703
143.0	441.6448250318763	rating	1.0		174	attractiveness	099	2.0	1		460.635197921295	1.458521289338023
143.0	443.1033463212143	fix	2.0		61	attractiveness	099	2.0	1	0.40000000000000036	462.093719210633	0.5250743170799979
144.0	443.6284206382943	face	0.0		146	attractiveness	100	2.0	1		462.618793527713	1.2251556976025313
144.0	444.85357633589683	rating	1.0		91	attractiveness	100	2.0	1		463.84394922531555	0.7667448877573406
144.0	445.6203212236542	fix	2.0		61	attractiveness	100	2.0	1	0.17999999999999972	464.6106941130729	0.5250649595272989
145.0	446.1453861831815	face	0.0		146	attractiveness	011	2.0	1		465.1357590726002	1.2251258138048797
145.0	447.37051199698635	rating	1.0		95	attractiveness	011	2.0	1		466.3608848864051	0.8000891684214366
145.0	448.1706011654078	fix	2.0		60	attractiveness	011	2.0	1	-0.9900000000000002	467.1609740548265	0.5167566601630824
146.0	448.68735782557087	face	0.0		147	attractiveness	117	2.0	1		467.6777307149896	1.2334642988234918
146.0	449.92082212439436	rating	1.0		48	attractiveness	117	2.0	1		468.9111950138131	0.40837778673903813
146.0	450.3291999111334	fix	2.0		60	attractiveness	117	2.0	1	0.2400000000000002	469.3195728005521	0.516753641597461
147.0	450.84595355273086	face	0.0		147	attractiveness	121	2.0	1		469.8363264421496	1.233459469119225
147.0	452.0794130218501	rating	1.0		73	attractiveness	121	2.0	1		471.0697859112688	0.6167895021535514
147.0	452.69620252400364	fix	2.0		60	attractiveness	121	2.0	1	0.1299999999999999	471.68657541342236	0.5167023259864436
148.0	453.2129048499901	face	0.0		147	attractiveness	027	2.0	1		472.2032777394088	1.233458865405737
148.0	454.4463637153958	rating	1.0		69	attractiveness	027	2.0	1		473.43673660481454	0.583389981743494
148.0	455.0297536971393	fix	2.0		60	attractiveness	027	2.0	1	1.37	474.02012658655804	0.516753641597461
149.0	455.5465073387368	face	0.0		147	attractiveness	087	2.0	1		474.5368802281555	1.2334676192449479
149.0	456.7799749579817	rating	1.0		289	attractiveness	087	2.0	1		475.77034784740044	2.416952927284001
149.0	459.1969278852657	fix	2.0		60	attractiveness	087	2.0	1	1.08	478.18730077468445	0.5167590750152158
150.0	459.71368696028094	face	0.0		147	attractiveness	070	2.0	1		478.70405984969966	1.2334609784011263
150.0	460.94714793868206	rating	1.0		66	attractiveness	070	2.0	1		479.9375208281008	0.558386600951053
150.0	461.5055345396331	fix	2.0		60	attractiveness	070	2.0	1	-1.38	480.49590742905184	0.5167578675882396
151.0	462.02229240722136	face	0.0		147	attractiveness	005	2.0	1		481.0126652966401	1.2334498097097821
151.0	463.25574221693114	rating	1.0		137	attractiveness	005	2.0	1		482.24611510634986	1.1501361976706903
151.0	464.40587841460183	fix	2.0		60	attractiveness	005	2.0	1	-3.0300000000000002	483.39625130402055	0.5167660177148719
152.0	464.9226444323167	face	0.0		147	attractiveness	064	2.0	1		483.9130173217354	1.2334618839713585
152.0	466.15610631628806	rating	1.0		134	attractiveness	064	2.0	1		485.1464792057068	1.1251252704632861
152.0	467.28123158675135	fix	2.0		60	attractiveness	064	2.0	1	-0.18999999999999995	486.27160447617007	0.5167509248885835
153.0	467.79798251163993	face	0.0		147	attractiveness	172	2.0	1		486.78835540105865	1.2334558468401156
153.0	469.03143835848005	rating	1.0		58	attractiveness	172	2.0	1		488.02181124789877	0.4917218862901791
153.0	469.5231602447702	fix	2.0		60	attractiveness	172	2.0	1	-1.5299999999999998	488.51353313418895	0.5167639047194825
154.0	470.0399241494897	face	0.0		147	attractiveness	092	2.0	1		489.03029703890843	1.23344528186135
154.0	471.27336943135106	rating	1.0		338	attractiveness	092	2.0	1		490.2637423207698	2.8253388641496713
154.0	474.0987082955007	fix	2.0		60	attractiveness	092	2.0	1	-0.06000000000000005	493.08908118491945	0.5167859402472459
155.0	474.615494235748	face	0.0		147	attractiveness	091	2.0	1		493.6058671251667	1.2334428670092166
155.0	475.8489371027572	rating	1.0		114	attractiveness	091	2.0	1		494.8393099921759	0.958439184359122
155.0	476.8073762871163	fix	2.0		60	attractiveness	091	2.0	1	1.0499999999999998	495.79774917653504	0.5167445859015061
156.0	477.3241208730178	face	0.0		147	attractiveness	033	2.0	1		496.31449376243654	1.233455544984281
156.0	478.5575764180021	rating	1.0		87	attractiveness	033	2.0	1		497.5479493074208	0.733416303633021
156.0	479.2909927216351	fix	2.0		60	attractiveness	033	2.0	1	1.1600000000000001	498.28136561105384	0.5167629991501599
157.0	479.8077557207853	face	0.0		147	attractiveness	036	2.0	1		498.798128610204	1.2334528282754036
157.0	481.0412085490607	rating	1.0		85	attractiveness	036	2.0	1		500.0315814384794	0.71675412456716
157.0	481.75796267362784	fix	2.0		59	attractiveness	036	2.0	1	1.12	500.74833556304657	0.5167569620198265
158.0	482.27471963564767	face	0.0		147	attractiveness	030	2.0	1		501.2650925250664	1.2334673173891133
158.0	483.5081869530368	rating	1.0		69	attractiveness	030	2.0	1		502.4985598424555	0.5833930003091155
158.0	484.0915799533459	fix	2.0		60	attractiveness	030	2.0	1	0.71	503.0819528427646	0.5167566601621729
159.0	484.6083366135081	face	0.0		147	attractiveness	024	2.0	1		503.5987095029268	1.233449205996294
159.0	485.84178581950437	rating	1.0		48	attractiveness	024	2.0	1		504.8321587089231	0.40837808859669167
159.0	486.25016390810106	fix	2.0		60	attractiveness	024	2.0	1	-0.3799999999999999	505.2405367975198	0.5000715399992259
160.0	486.7502354481003	cue	0.0		480						505.740608337519	4.000474820335512
160.0	490.7507102684358	fix	1.0		120						509.7410831578545	1.0168082776299343
160.0	491.76751854606573	face	0.0		147	trustworthiness	043	2.0	1		510.75789143548445	1.2334573561238358
160.0	493.00097590218957	rating	1.0		204	trustworthiness	043	2.0	1		511.9913487916083	1.7085460415737543
160.0	494.7095219437633	fix	2.0		60	trustworthiness	043	2.0	1	0.2699999999999996	513.699894833182	0.5084133454402036
161.0	495.2179352892035	face	0.0		148	trustworthiness	006	2.0	1		514.2083081786222	1.2417952374280503
161.0	496.4597305266316	rating	1.0		83	trustworthiness	006	2.0	1		515.4501034160503	0.7000780601010774
161.0	497.15980858673265	fix	2.0		60	trustworthiness	006	2.0	1	0.46999999999999975	516.1501814761514	0.5167599805845384
162.0	497.6765685673172	face	0.0		147	trustworthiness	124	2.0	1		516.6669414567359	1.2334615821146144
162.0	498.9100301494318	rating	1.0		81	trustworthiness	124	2.0	1		517.9004030388505	0.6834013919205972
162.0	499.5934315413524	fix	2.0		60	trustworthiness	124	2.0	1	-1.15	518.5838044307711	0.5083813486462532
163.0	500.10181288999866	face	0.0		148	trustworthiness	141	2.0	1		519.0921857794174	1.2418408177663878
163.0	501.34365370776504	rating	1.0		76	trustworthiness	141	2.0	1		520.3340265971838	0.6417273800780094
163.0	501.98538108784305	fix	2.0		60	trustworthiness	141	2.0	1	-1.44	520.9757539772618	0.5083771226554745
164.0	502.4937582104985	face	0.0		148	trustworthiness	027	2.0	1		521.4841310999172	1.2418474586092998
164.0	503.7356056691078	rating	1.0		50	trustworthiness	027	2.0	1		522.7259785585265	0.42503966394906456
164.0	504.1606453330569	fix	2.0		60	trustworthiness	027	2.0	1	1.0700000000000003	523.1510182224756	0.5084356828238015
165.0	504.6690810158807	face	0.0		148	trustworthiness	030	2.0	1		523.6594539052994	1.241783766879962
165.0	505.91086478276065	rating	1.0		67	trustworthiness	030	2.0	1		524.9012376721794	0.5667362546600998
165.0	506.47760103742075	fix	2.0		60	trustworthiness	030	2.0	1	-0.31000000000000005	525.4679739268395	0.5084166658616596
166.0	506.9860177032824	face	0.0		148	trustworthiness	136	2.0	1		525.9763905927011	1.2417843705934501
166.0	508.22780207387586	rating	1.0		70	trustworthiness	136	2.0	1		527.2181749632946	0.5917339001789514
166.0	508.8195359740548	fix	2.0		60	trustworthiness	136	2.0	1	-3.42	527.8099088634735	0.5084184770012143
167.0	509.32795445105603	face	0.0		148	trustworthiness	087	2.0	1		528.3183273404748	1.2417985578504158
167.0	510.56975300890645	rating	1.0		89	trustworthiness	087	2.0	1		529.5601258983252	0.750081803122157
167.0	511.3198348120286	fix	2.0		60	trustworthiness	087	2.0	1	0.8799999999999999	530.3102077014473	0.5084236085622251
168.0	511.8282584205908	face	0.0		148	trustworthiness	038	2.0	1		530.8186313100096	1.241790407722874
168.0	513.0700488283137	rating	1.0		224	trustworthiness	038	2.0	1		532.0604217177324	1.8752158274255635
168.0	514.9452646557393	fix	2.0		60	trustworthiness	038	2.0	1	-1.9700000000000002	533.935637545158	0.5084368902498682
169.0	515.4537015459891	face	0.0		148	trustworthiness	121	2.0	1		534.4440744354079	1.2417804464575966
169.0	516.6954819924467	rating	1.0		97	trustworthiness	121	2.0	1		535.6858548818655	0.8167649310316847
169.0	517.5122469234784	fix	2.0		60	trustworthiness	121	2.0	1	-1.6	536.5026198128971	0.5084266271278466
170.0	518.0206735506063	face	0.0		148	trustworthiness	039	2.0	1		537.011046440025	1.2417813520269192
170.0	519.2624549026332	rating	1.0		89	trustworthiness	039	2.0	1		538.2528277920519	0.7500953866665441
170.0	520.0125502892997	fix	2.0		60	trustworthiness	039	2.0	1	2.99	539.0029231787184	0.5167503211750955
171.0	520.5293006104748	face	0.0		147	trustworthiness	117	2.0	1		539.5196734998935	1.2334531301321476
171.0	521.762753740607	rating	1.0		157	trustworthiness	117	2.0	1		540.7531266300257	1.3168310376131558
171.0	523.0795847782201	fix	2.0		60	trustworthiness	117	2.0	1	-0.45999999999999996	542.0699576676388	0.5167626972934158
172.0	523.5963474755135	face	0.0		147	trustworthiness	061	2.0	1		542.5867203649323	1.233442263296638
172.0	524.8297897388102	rating	1.0		36	trustworthiness	061	2.0	1		543.8201626282289	0.3083709044103671
172.0	525.1381606432205	fix	2.0		60	trustworthiness	061	2.0	1	0.0	544.1285335326393	0.5167602824412825
173.0	525.6549209256618	face	0.0		147	trustworthiness	005	2.0	1		544.6452938150805	1.2334501115656167
173.0	526.8883710372274	rating	1.0		48	trustworthiness	005	2.0	1		545.8787439266462	0.40838593686657987
173.0	527.296756974094	fix	2.0		60	trustworthiness	005	2.0	1	1.17	546.2871298635127	0.5167593768710503
174.0	527.8135163509651	face	0.0		147	trustworthiness	064	2.0	1		546.8038892403838	1.2334476967143928
174.0	529.0469640476795	rating	1.0		232	trustworthiness	064	2.0	1		548.0373369370982	1.941897747908115
174.0	530.9888617955876	fix	2.0		60	trustworthiness	064	2.0	1	0.71	549.9792346850063	0.5167663195725254
175.0	531.5056281151601	face	0.0		147	trustworthiness	009	2.0	1		550.4960010045788	1.233458865405737
175.0	532.7390869805658	rating	1.0		90	trustworthiness	009	2.0	1		551.7294598699846	0.7584121380132274
175.0	533.4974991185791	fix	2.0		60	trustworthiness	009	2.0	1	2.12	552.4878720079978	0.5167545471667836
176.0	534.0142536657459	face	0.0		147	trustworthiness	042	2.0	1		553.0046265551646	1.233459469119225
176.0	535.2477131348651	rating	1.0		377	trustworthiness	042	2.0	1		554.2380860242838	3.1503680234918647
176.0	538.398081158357	fix	2.0		60	trustworthiness	042	2.0	1	0.4500000000000002	557.3884540477757	0.5167986182214008
177.0	538.9148797765783	face	0.0		147	trustworthiness	082	2.0	1		557.9052526659971	1.2334196240553865
177.0	540.1482994006337	rating	1.0		58	trustworthiness	082	2.0	1		559.1386722900525	0.4917239992855684
177.0	540.6400233999193	fix	2.0		60	trustworthiness	082	2.0	1	0.33000000000000007	559.630396289338	0.5167605842980265
178.0	541.1567839842173	face	0.0		147	trustworthiness	033	2.0	1		560.147156873636	1.23345252641775
178.0	542.3902365106351	rating	1.0		69	trustworthiness	033	2.0	1		561.3806094000538	0.5833984337268703
178.0	542.973634944362	fix	2.0		60	trustworthiness	033	2.0	1	-1.0299999999999998	561.9640078337807	0.5167617917240932
179.0	543.490396736086	face	0.0		147	trustworthiness	101	2.0	1		562.4807696255048	1.2334470930009047
179.0	544.723843829087	rating	1.0		76	trustworthiness	101	2.0	1		563.7142167185057	0.6417385487702632
179.0	545.3655823778572	fix	2.0		60	trustworthiness	101	2.0	1	-1.9100000000000001	564.3559552672759	0.5167578675891491
180.0	545.8823402454464	face	0.0		147	trustworthiness	011	2.0	1		564.8727131348651	1.233481202789335
180.0	547.1158214482357	rating	1.0		51	trustworthiness	011	2.0	1		566.1061943376544	0.4334083346211628
180.0	547.5492297828569	fix	2.0		60	trustworthiness	011	2.0	1	-0.6099999999999999	566.5396026722756	0.5167128909642997
181.0	548.0659426738212	face	0.0		147	trustworthiness	066	2.0	1		567.0563155632399	1.2334564505536036
181.0	549.2993991243748	rating	1.0		165	trustworthiness	066	2.0	1		568.2897720137935	1.383491828139995
181.0	550.6828909525148	fix	2.0		60	trustworthiness	066	2.0	1	-2.31	569.6732638419335	0.5167497174625169
182.0	551.1996406699773	face	0.0		147	trustworthiness	036	2.0	1		570.190013559396	1.233458261692249
182.0	552.4330989316695	rating	1.0		62	trustworthiness	036	2.0	1		571.4234718210882	0.525065261384043
182.0	552.9581641930536	fix	2.0		60	trustworthiness	036	2.0	1	1.3200000000000003	571.9485370824723	0.5167542453100396
183.0	553.4749184383636	face	0.0		147	trustworthiness	070	2.0	1		572.4652913277823	1.233458563548993
183.0	554.7083770019126	rating	1.0		98	trustworthiness	070	2.0	1		573.6987498913313	0.8250952659236646
183.0	555.5334722678363	fix	2.0		60	trustworthiness	070	2.0	1	-1.5899999999999999	574.523845157255	0.5167590750152158
184.0	556.0502313428515	face	0.0		147	trustworthiness	172	2.0	1		575.0406042322702	1.2334489041404595
184.0	557.2836802469919	rating	1.0		178	trustworthiness	172	2.0	1		576.2740531364107	1.4918438363301902
184.0	558.7755240833221	fix	2.0		60	trustworthiness	172	2.0	1	-1.3599999999999999	577.7658969727408	0.5167633010069039
185.0	559.292287384329	face	0.0		147	trustworthiness	144	2.0	1		578.2826602737478	1.2334467911441607
185.0	560.5257341754732	rating	1.0		64	trustworthiness	144	2.0	1		579.5161070648919	0.5417283460192266
185.0	561.0674625214924	fix	2.0		60	trustworthiness	144	2.0	1	1.5599999999999996	580.0578354109111	0.5167566601630824
186.0	561.5842191816555	face	0.0		147	trustworthiness	092	2.0	1		580.5745920710742	1.2334627895406811
186.0	562.8176819711962	rating	1.0		180	trustworthiness	092	2.0	1		581.8080548606149	1.5085153729496596
186.0	564.3261973441458	fix	2.0		60	trustworthiness	092	2.0	1	-0.08000000000000007	583.3165702335646	0.5167521323146502
187.0	564.8429494764605	face	0.0		147	trustworthiness	024	2.0	1		583.8333223658792	1.2334564505536036
187.0	566.0764059270141	rating	1.0		131	trustworthiness	024	2.0	1		585.0667788164328	1.1001258138048797
187.0	567.176531740819	fix	2.0		60	trustworthiness	024	2.0	1	0.5700000000000003	586.1669046302377	0.5167633010069039
188.0	567.6932950418259	face	0.0		147	trustworthiness	044	2.0	1		586.6836679312446	1.233449507853038
188.0	568.9267445496789	rating	1.0		274	trustworthiness	044	2.0	1		587.9171174390976	2.291939947453102
188.0	571.218684497132	fix	2.0		60	trustworthiness	044	2.0	1	0.5199999999999996	590.2090573865507	0.5167575657314956
189.0	571.7354420628635	face	0.0		147	trustworthiness	099	2.0	1		590.7258149522822	1.2334531301321476
189.0	572.9688951929957	rating	1.0		46	trustworthiness	099	2.0	1		591.9592680824144	0.3917147021038545
189.0	573.3606098950995	fix	2.0		60	trustworthiness	099	2.0	1	0.6699999999999999	592.3509827845182	0.5167563583054289
190.0	573.877366253405	face	0.0		147	trustworthiness	100	2.0	1		592.8677391428237	1.2334603746885477
190.0	575.1108266280935	rating	1.0		171	trustworthiness	100	2.0	1		594.1011995175122	1.4335408496417585
190.0	576.5443674777352	fix	2.0		60	trustworthiness	100	2.0	1	0.46999999999999975	595.534740367154	0.5167131928210438
191.0	577.0610806705563	face	0.0		147	trustworthiness	034	2.0	1		596.051453559975	1.2334473948576488
191.0	578.2945280654139	rating	1.0		68	trustworthiness	034	2.0	1		597.2849009548327	0.5751028123368087
191.0	578.8696308777508	fix	2.0		60	trustworthiness	034	2.0	1	-0.7999999999999998	597.8600037671695	0.5167282856482416
192.0	579.386359163399	face	0.0		147	trustworthiness	137	2.0	1		598.3767320528177	1.2334476967134833
192.0	580.6198068601125	rating	1.0		109	trustworthiness	137	2.0	1		599.6101797495312	0.9167908303234071
192.0	581.5365976904359	fix	2.0		60	trustworthiness	137	2.0	1	0.28000000000000025	600.5269705798546	0.5167497174616074
193.0	582.0533474078975	face	0.0		147	trustworthiness	126	2.0	1		601.0437202973162	1.233455243127537
193.0	583.286802651025	rating	1.0		104	trustworthiness	126	2.0	1		602.2771755404437	0.8750935755269893
193.0	584.161896226552	fix	2.0		60	trustworthiness	126	2.0	1	0.5899999999999999	603.1522691159707	0.516754245310949
194.0	584.678650471863	face	0.0		147	trustworthiness	018	2.0	1		603.6690233612817	1.2334639969667478
194.0	585.9121144688297	rating	1.0		68	trustworthiness	018	2.0	1		604.9024873582484	0.5750626654171356
194.0	586.4871771342468	fix	2.0		60	trustworthiness	018	2.0	1	1.9900000000000002	605.4775500236656	0.5167693381372374
195.0	587.0039464723841	face	0.0		147	trustworthiness	130	2.0	1		605.9943193618028	1.2334449800055154
195.0	588.2373914523896	rating	1.0		100	trustworthiness	130	2.0	1		607.2277643418083	0.8417677081115471
195.0	589.0791591605011	fix	2.0		60	trustworthiness	130	2.0	1	-2.12	608.0695320499199	0.516753943454205
196.0	589.5959131039554	face	0.0		147	trustworthiness	012	2.0	1		608.5862859933741	1.233452828274494
196.0	590.8293659322298	rating	1.0		101	trustworthiness	012	2.0	1		609.8197388216486	0.8501040801347699
196.0	591.6794700123646	fix	2.0		60	trustworthiness	012	2.0	1	-1.35	610.6698429017833	0.5167497174625169
197.0	592.1962197298271	face	0.0		147	trustworthiness	102	2.0	1		611.1865926192459	1.2334652043928145
197.0	593.42968493422	rating	1.0		88	trustworthiness	102	2.0	1		612.4200578236387	0.741783465023218
197.0	594.1714683992432	fix	2.0		60	trustworthiness	102	2.0	1	0.4400000000000004	613.1618412886619	0.5167225503737427
198.0	594.6881909496169	face	0.0		147	trustworthiness	091	2.0	1		613.6785638390356	1.2334561486968596
198.0	595.9216470983138	rating	1.0		75	trustworthiness	091	2.0	1		614.9120199877325	0.6334021767479499
198.0	596.5550492750617	fix	2.0		60	trustworthiness	091	2.0	1	1.4400000000000004	615.5454221644804	0.5167663195716159
199.0	597.0718155946333	face	0.0		147	trustworthiness	062	2.0	1		616.0621884840521	1.2334443762920273
199.0	598.3052599709254	rating	1.0		76	trustworthiness	062	2.0	1		617.2956328603441	0.641740963623306
199.0	598.9470009345487	fix	2.0		60	trustworthiness	062	2.0	1	-1.2200000000000002	617.9373738239674	0.5000938773828238
200.0	599.4470948119315	cue	0.0		480						618.4374677013502	4.000449162529549
200.0	603.447543974461	fix	1.0		120						622.4379168638798	1.0168188426096094
200.0	604.4643628170707	face	0.0		147	dominance	126	2.0	1		623.4547357064894	1.2334609784011263
200.0	605.6978237954718	rating	1.0		217	dominance	126	2.0	1		624.6881966848905	1.816872090103061
200.0	607.5146958855748	fix	2.0		61	dominance	126	2.0	1	-0.94	626.5050687749936	0.5250900136197743
201.0	608.0397858991946	face	0.0		146	dominance	172	2.0	1		627.0301587886133	1.2251185692484796
201.0	609.2649044684431	rating	1.0		111	dominance	172	2.0	1		628.2552773578618	0.9334548205279134
201.0	610.198359288971	fix	2.0		60	dominance	172	2.0	1	1.5599999999999996	629.1887321783897	0.5167506230318395
202.0	610.7151099120028	face	0.0		147	dominance	124	2.0	1		629.7054828014216	1.233451620849337
202.0	611.9485615328522	rating	1.0		90	dominance	124	2.0	1		630.9389344222709	0.7584239104189692
202.0	612.7069854432712	fix	2.0		60	dominance	124	2.0	1	2.2699999999999996	631.6973583326899	0.516773564128016
203.0	613.2237590073992	face	0.0		147	dominance	102	2.0	1		632.2141318968179	1.2334483004269714
203.0	614.4572073078261	rating	1.0		79	dominance	102	2.0	1		633.4475801972449	0.6667328738676588
203.0	615.1239401816938	fix	2.0		60	dominance	102	2.0	1	-1.4900000000000002	634.1143130711125	0.5167620935808372
204.0	615.6407022752746	face	0.0		147	dominance	082	2.0	1		634.6310751646934	1.2334630913965157
204.0	616.8741653666711	rating	1.0		151	dominance	082	2.0	1		635.8645382560899	1.2668106924838867
204.0	618.140976059155	fix	2.0		60	dominance	082	2.0	1	-0.8599999999999999	637.1313489485738	0.5167554527361062
205.0	618.6577315118911	face	0.0		147	dominance	101	2.0	1		637.6481044013099	1.2334561486968596
205.0	619.891187660588	rating	1.0		88	dominance	101	2.0	1		638.8815605500067	0.7417523737994998
205.0	620.6329400343875	fix	2.0		60	dominance	101	2.0	1	2.7800000000000002	639.6233129238062	0.5167494156057728
206.0	621.1496894499933	face	0.0		147	dominance	024	2.0	1		640.140062339412	1.2334576579796703
206.0	622.383147107973	rating	1.0		61	dominance	024	2.0	1		641.3735199973917	0.5167388506270072
206.0	622.8998859586	fix	2.0		60	dominance	024	2.0	1	-0.6600000000000001	641.8902588480187	0.5167497174625169
207.0	623.4166356760625	face	0.0		147	dominance	009	2.0	1		642.4070085654812	1.233455243127537
207.0	624.65009091919	rating	1.0		83	dominance	009	2.0	1		643.6404638086087	0.700078663813656
207.0	625.3501695830037	fix	2.0		60	dominance	009	2.0	1	-1.79	644.3405424724224	0.5167503211750955
208.0	625.8669199041788	face	0.0		147	dominance	062	2.0	1		644.8572927935975	1.2335159162921627
208.0	627.1004358204709	rating	1.0		66	dominance	062	2.0	1		646.0908087098896	0.5583540004436145
208.0	627.6587898209145	fix	2.0		60	dominance	062	2.0	1	0.96	646.6491627103333	0.525091824759329
209.0	628.1838816456739	face	0.0		146	dominance	034	2.0	1		647.1742545350926	1.2251034764212818
209.0	629.4089851220951	rating	1.0		84	dominance	034	2.0	1		648.3993580115139	0.7084231859635111
209.0	630.1174083080587	fix	2.0		60	dominance	034	2.0	1	1.0999999999999996	649.1077811974774	0.516750924887674
210.0	630.6341592329463	face	0.0		147	dominance	030	2.0	1		649.624532122365	1.23346852481518
210.0	631.8676277577615	rating	1.0		54	dominance	030	2.0	1		650.8580006471802	0.4583794167647284
210.0	632.3260071745262	fix	2.0		60	dominance	030	2.0	1	0.3799999999999999	651.316380063945	0.5167488118931942
211.0	632.8427559864194	face	0.0		147	dominance	042	2.0	1		651.8331288758382	1.2334627895406811
211.0	634.0762187759601	rating	1.0		82	dominance	042	2.0	1		653.0665916653788	0.691727500820889
211.0	634.767946276781	fix	2.0		60	dominance	042	2.0	1	0.7199999999999998	653.7583191661997	0.5167681307111707
212.0	635.2847144074922	face	0.0		147	dominance	099	2.0	1		654.2750872969109	1.2334564505536036
212.0	636.5181708580458	rating	1.0		88	dominance	099	2.0	1		655.5085437474645	0.7417632406350094
212.0	637.2599340986808	fix	2.0		60	dominance	099	2.0	1	-0.9199999999999999	656.2503069880995	0.5167463970401514
213.0	637.7766804957209	face	0.0		147	dominance	039	2.0	1		656.7670533851397	1.2334664118197907
213.0	639.0101469075407	rating	1.0		99	dominance	039	2.0	1		658.0005197969595	0.8334431084940661
213.0	639.8435900160348	fix	2.0		60	dominance	039	2.0	1	-2.6399999999999997	658.8339629054535	0.5167433784754394
214.0	640.3603333945102	face	0.0		147	dominance	005	2.0	1		659.350706283929	1.233444980004606
214.0	641.5937783745148	rating	1.0		90	dominance	005	2.0	1		660.5841512639336	0.7584550016426874
214.0	642.3522333761575	fix	2.0		60	dominance	005	2.0	1	-2.92	661.3426062655763	0.5167270782212654
215.0	642.8689604543788	face	0.0		147	dominance	137	2.0	1		661.8593333437975	1.233458865405737
215.0	644.1024193197845	rating	1.0		122	dominance	137	2.0	1		663.0927922092033	1.025127141973826
215.0	645.1275464617584	fix	2.0		60	dominance	137	2.0	1	0.4800000000000004	664.1179193511771	0.5167557545937598
216.0	645.6443022163521	face	0.0		147	dominance	066	2.0	1		664.6346751057708	1.2334501115656167
216.0	646.8777523279177	rating	1.0		78	dominance	066	2.0	1		665.8681252173365	0.6584097835329885
216.0	647.5361621114507	fix	2.0		60	dominance	066	2.0	1	2.3099999999999996	666.5265350008694	0.5167642065762266
217.0	648.052926318027	face	0.0		147	dominance	018	2.0	1		667.0432992074457	1.233445583718094
217.0	649.286371901745	rating	1.0		72	dominance	018	2.0	1		668.2767447911638	0.6084006070941541
217.0	649.8947725088392	fix	2.0		59	dominance	018	2.0	1	-2.63	668.8851453982579	0.5167557545928503
218.0	650.411528263432	face	0.0		147	dominance	144	2.0	1		669.4019011528508	1.2334733545194467
218.0	651.6450016179515	rating	1.0		93	dominance	144	2.0	1		670.6353745073702	0.7834182355154553
218.0	652.428419853467	fix	2.0		60	dominance	144	2.0	1	-1.92	671.4187927428857	0.5167551508802717
219.0	652.9451750043472	face	0.0		147	dominance	038	2.0	1		671.9355478937659	1.2334540357014703
219.0	654.1786290400487	rating	1.0		67	dominance	038	2.0	1		673.1690019294674	0.5667284063902116
219.0	654.7453574464389	fix	2.0		60	dominance	038	2.0	1	1.67	673.7357303358576	0.5167639047194825
220.0	655.2621213511584	face	0.0		147	dominance	141	2.0	1		674.2524942405771	1.2334564505536036
220.0	656.495577801712	rating	1.0		605	dominance	141	2.0	1		675.4859506911307	5.0505990041147015
220.0	661.5461768058267	fix	2.0		59	dominance	141	2.0	1	1.46	680.5365496952454	0.5167476044671275
221.0	662.0629244102938	face	0.0		147	dominance	006	2.0	1		681.0532972997125	1.2334633932532597
221.0	663.2963878035471	rating	1.0		60	dominance	006	2.0	1		682.2867606929658	0.5083922154826723
221.0	663.8047800190297	fix	2.0		60	dominance	006	2.0	1	-1.2599999999999998	682.7951529084485	0.5167962033692675
222.0	664.321576222399	face	0.0		147	dominance	091	2.0	1		683.3119491118177	1.2334066442244875
222.0	665.5549828666235	rating	1.0		117	dominance	091	2.0	1		684.5453557560422	0.9834558468401156
222.0	666.5384387134636	fix	2.0		60	dominance	091	2.0	1	-1.21	685.5288116028823	0.516780204972747
223.0	667.0552189184364	face	0.0		147	dominance	130	2.0	1		686.0455918078551	1.2334386410175284
223.0	668.2886575594539	rating	1.0		137	dominance	130	2.0	1		687.2790304488726	1.150131367965514
223.0	669.4387889274194	fix	2.0		61	dominance	130	2.0	1	2.4000000000000004	688.4291618168381	0.5250978618896625
224.0	669.9638867893091	face	0.0		146	dominance	012	2.0	1		688.9542596787278	1.2251143432567915
224.0	671.1890011325659	rating	1.0		132	dominance	012	2.0	1		690.1793740219846	1.108469128528668
224.0	672.2974702610945	fix	2.0		60	dominance	012	2.0	1	1.5499999999999998	691.2878431505133	0.5167512267444181
225.0	672.814221487839	face	0.0		147	dominance	117	2.0	1		691.8045943772577	1.233446187431582
225.0	674.0476676752705	rating	1.0		124	dominance	117	2.0	1		693.0380405646893	1.0417989804491299
225.0	675.0894666557197	fix	2.0		60	dominance	117	2.0	1	1.4699999999999998	694.0798395451384	0.5167494156057728
226.0	675.6062160713254	face	0.0		147	dominance	011	2.0	1		694.5965889607442	1.2334763730850682
226.0	676.8396924444105	rating	1.0		137	dominance	011	2.0	1		695.8300653338292	1.150117482564383
226.0	677.9898099269749	fix	2.0		59	dominance	011	2.0	1	-0.3799999999999999	696.9801828163936	0.5167524341713943
227.0	678.5065623611463	face	0.0		147	dominance	033	2.0	1		697.496935250565	1.2334603746885477
227.0	679.7400227358348	rating	1.0		76	dominance	033	2.0	1		698.7303956252535	0.6417391524837512
227.0	680.3817618883186	fix	2.0		60	dominance	033	2.0	1	1.5	699.3721347777373	0.5167578675882396
228.0	680.8985197559068	face	0.0		147	dominance	044	2.0	1		699.8888926453255	1.2334655062495585
228.0	682.1319852621564	rating	1.0		77	dominance	044	2.0	1		701.1223581515751	0.6500809579238194
228.0	682.7820662200802	fix	2.0		60	dominance	044	2.0	1	-1.3599999999999999	701.7724391094989	0.5167590750152158
229.0	683.2988252950954	face	0.0		147	dominance	064	2.0	1		702.2891981845141	1.2334374335914617
229.0	684.5322627286869	rating	1.0		60	dominance	064	2.0	1		703.5226356181056	0.5084003656083951
229.0	685.0406630942953	fix	2.0		60	dominance	064	2.0	1	-1.19	704.031035983714	0.5167509248885835
230.0	685.5574140191839	face	0.0		147	dominance	100	2.0	1		704.5477869086026	1.2334531301321476
230.0	686.790867149316	rating	1.0		171	dominance	100	2.0	1		705.7812400387347	1.433514889979051
230.0	688.224382039295	fix	2.0		60	dominance	100	2.0	1	-1.5099999999999998	707.2147549287138	0.5167503211750955
231.0	688.7411323604701	face	0.0		147	dominance	043	2.0	1		707.7315052498889	1.2334483004269714
231.0	689.9745806608971	rating	1.0		160	dominance	043	2.0	1		708.9649535503158	1.3418256645672955
231.0	691.3164063254644	fix	2.0		60	dominance	043	2.0	1	-1.9100000000000001	710.3067792148831	0.5167578675891491
232.0	691.8331641930536	face	0.0		147	dominance	061	2.0	1		710.8235370824723	1.2334649025360704
232.0	693.0666290955896	rating	1.0		83	dominance	061	2.0	1		712.0570019850084	0.7000665895529892
232.0	693.7666956851426	fix	2.0		60	dominance	061	2.0	1	-0.5499999999999998	712.7570685745613	0.516756962018917
233.0	694.2834526471615	face	0.0		147	dominance	027	2.0	1		713.2738255365803	1.2334543375573048
233.0	695.5169069847188	rating	1.0		55	dominance	027	2.0	1		714.5072798741376	0.4667200147796393
233.0	695.9836269994985	fix	2.0		60	dominance	027	2.0	1	-1.38	714.9739998889172	0.5167575657314956
234.0	696.50038456523	face	0.0		147	dominance	036	2.0	1		715.4907574546487	1.233459469119225
234.0	697.7338440343492	rating	1.0		102	dominance	036	2.0	1		716.7242169237679	0.8584301890350616
234.0	698.5922742233843	fix	2.0		60	dominance	036	2.0	1	-2.01	717.582647112803	0.5250869950541528
235.0	699.1173612184384	face	0.0		146	dominance	136	2.0	1		718.1077341078571	1.2251333602189334
235.0	700.3424945786574	rating	1.0		98	dominance	136	2.0	1		719.3328674680761	0.825101303053998
235.0	701.1675958817113	fix	2.0		60	dominance	136	2.0	1	3.0300000000000002	720.1579687711301	0.5167479063229621
236.0	701.6843437880343	face	0.0		147	dominance	087	2.0	1		720.674716677453	1.233446187431582
236.0	702.9177899754659	rating	1.0		189	dominance	087	2.0	1		721.9081628648846	1.5835231004766683
236.0	704.5013130759426	fix	2.0		60	dominance	087	2.0	1	-1.1800000000000002	723.4916859653613	0.5167587731584717
237.0	705.018071849101	face	0.0		147	dominance	092	2.0	1		724.0084447385198	1.2334670155323693
237.0	706.2515388646334	rating	1.0		337	dominance	092	2.0	1		725.2419117540521	2.816989814153203
237.0	709.0685286787866	fix	2.0		60	dominance	092	2.0	1	-0.009999999999999787	728.0589015682053	0.516757263875661
238.0	709.5852859426623	face	0.0		147	dominance	070	2.0	1		728.575658832081	1.2334416595831499
238.0	710.8187276022454	rating	1.0		172	dominance	070	2.0	1		729.8091004916641	1.4418497527185536
238.0	712.260577354964	fix	2.0		60	dominance	070	2.0	1	2.9299999999999997	731.2509502443827	0.5167629991501599
239.0	712.7773403541141	face	0.0		147	dominance	121	2.0	1		731.7677132435329	1.2334564505536036
239.0	714.0107968046677	rating	1.0		104	dominance	121	2.0	1		733.0011696940865	0.875094782953056
239.0	714.8858915876208	fix	2.0		61	dominance	121	2.0	1	2.38	733.8762644770395	0.5084012711786272
