trial_nr	onset	event_type	phase	response	nr_frames	trial_type	stim_name	task_probe	onset_abs	duration
0.0	0.05743438939589396	baseline	0.0		41.0		baseline	0.0	89.09917228143468	0.34970618873649073
0.0	0.4071405781323847	ISI	1.0		11.0		baseline	0.0	89.44887847017117	0.100003592082885
1.0	0.5071441702152697	baseline	0.0		48.0		baseline	0.0	89.54888206225405	0.40000289781482934
1.0	0.7072705873902123	pulse	0.0	t			baseline	0.0	89.749008479429	
1.0	0.907147068030099	ISI	1.0		11.0		baseline	0.0	89.94888496006888	0.10000298837167065
2.0	1.0071500564017697	baseline	0.0		48.0		baseline	0.0	90.04888794844055	0.3999645621388481
2.0	1.4071146185406178	ISI	1.0		11.0		baseline	0.0	90.4488525105794	0.10000932734146772
2.0	1.4116533211222304	pulse	1.0	t			baseline	0.0	90.45339121316101	
3.0	1.5071239458820855	baseline	0.0		48.0		baseline	0.0	90.54886183792087	0.3999811642033819
3.0	1.9071051100854675	ISI	1.0		11.0		baseline	0.0	90.94884300212425	0.09999815868013684
4.0	2.0071032687656043	baseline	0.0		48.0		baseline	0.0	91.04884116080439	0.3999947477104797
4.0	2.107204360245305	pulse	0.0	t			baseline	0.0	91.14894225228409	
4.0	2.407098016476084	ISI	1.0		11.0		baseline	0.0	91.44883590851487	0.10001294961011808
5.0	2.507110966086202	baseline	0.0		48.0		baseline	0.0	91.54884885812498	0.3999781456459459
5.0	2.8072041489463118	pulse	0.0	t			baseline	0.0	91.8489420409851	
5.0	2.907089111732148	ISI	1.0		11.0		baseline	0.0	91.94882700377093	0.09999815868013684
6.0	3.007087270412285	baseline	0.0		48.0		baseline	0.0	92.04882516245107	0.39999354028759626
6.0	3.407080810699881	ISI	1.0		11.0		baseline	0.0	92.44881870273866	0.09999664940141884
7.0	3.5070774601013	baseline	0.0		47.0		baseline	0.0	92.54881535214008	0.39999323843221646
7.0	3.51124186159268	pulse	0.0	t			baseline	0.0	92.55297975363146	
7.0	3.9070706985335164	ISI	1.0		11.0		baseline	0.0	92.9488085905723	0.0999996679584001
8.0	4.0070703664919165	baseline	0.0		48.0		baseline	0.0	93.0488082585307	0.3999929365763819
8.0	4.207180785313994	pulse	0.0	t			baseline	0.0	93.24891867735278	
8.0	4.407063303068298	ISI	1.0		11.0		baseline	0.0	93.44880119510708	0.09999574383436993
9.0	4.507059046902668	baseline	0.0		48.0		baseline	0.0	93.54879693894145	0.39999595513336317
9.0	4.9070550020360315	ISI	1.0		11.0		baseline	0.0	93.94879289407481	0.09999725311308794
9.0	4.9115040534693435	pulse	1.0	t			baseline	0.0	93.95324194550813	
10.0	5.0070522551491194	baseline	0.0		48.0		baseline	0.0	94.0487901471879	0.39999203100887826
10.0	5.407044286157998	ISI	1.0		11.0		baseline	0.0	94.44878217819678	0.09999936610302029
11.0	5.507043652261018	baseline	0.0		48.0		baseline	0.0	94.5487815442998	0.3999914272976639
11.0	5.6071541012684065	pulse	0.0	t			baseline	0.0	94.64889199330719	
11.0	5.907035079558682	ISI	1.0		11.0		baseline	0.0	94.94877297159746	0.10001385517762174
12.0	6.007048934736304	baseline	0.0		48.0		baseline	0.0	95.04878682677509	0.39997874935716027
12.0	6.30714453244218	pulse	0.0	t			baseline	0.0	95.34888242448096	
12.0	6.407027684093464	ISI	1.0		11.0		baseline	0.0	95.44876557613225	0.09999544197853538
13.0	6.507023126071999	baseline	0.0		48.0		baseline	0.0	95.54876101811078	0.39999504956631426
13.0	6.9070181756383136	ISI	1.0		11.0		baseline	0.0	95.9487560676771	0.09999755496892249
14.0	7.007015730607236	baseline	0.0		47.0		baseline	0.0	96.04875362264602	0.39999384214297606
14.0	7.011133344461541	pulse	0.0	t			baseline	0.0	96.05287123650032	
14.0	7.407009572750212	ISI	1.0		11.0		baseline	0.0	96.448747464789	0.09999846053597139
15.0	7.5070080332861835	baseline	0.0		48.0		baseline	0.0	96.54874592532497	0.3999929365763819
15.0	7.707113622416728	pulse	0.0	t			baseline	0.0	96.74885151445551	
15.0	7.907000969862565	ISI	1.0		11.0		baseline	0.0	96.94873886190135	0.0999996679584001
16.0	8.007000637820965	baseline	0.0		48.0		baseline	0.0	97.04873852985975	0.39999323843221646
16.0	8.406993876253182	ISI	1.0		11.0		baseline	0.0	97.44873176829196	0.09998638630713685
16.0	8.411441418407776	pulse	1.0	t			baseline	0.0	97.45317931044656	
17.0	8.506980262560319	baseline	0.0		48.0		baseline	0.0	97.5487181545991	0.40000531266059625
17.0	8.906985575220915	ISI	1.0		11.0		baseline	0.0	97.9487234672597	0.09999242342155412
18.0	9.00697799864247	baseline	0.0		48.0		baseline	0.0	98.04871589068125	0.3999941439988106
18.0	9.107095994042538	pulse	0.0	t			baseline	0.0	98.14883388608132	
18.0	9.40697214264128	ISI	1.0		11.0		baseline	0.0	98.44871003468006	0.1000026865158361
19.0	9.506974829157116	baseline	0.0		48.0		baseline	0.0	98.5487127211959	0.39999082358644955
19.0	9.807080991813564	pulse	0.0	t			baseline	0.0	98.84881888385235	
19.0	9.906965652743565	ISI	1.0		11.0		baseline	0.0	98.94870354478235	0.09999906424718574
20.0	10.006964716990751	baseline	0.0		48.0		baseline	0.0	99.04870260902953	0.39999112544182935
20.0	10.40695584243258	ISI	1.0		11.0		baseline	0.0	99.44869373447136	0.09999966795885484
21.0	10.506955510391435	baseline	0.0		47.0		baseline	0.0	99.54869340243022	0.39999293657592716
21.0	10.511067992698827	pulse	0.0	t			baseline	0.0	99.55280588473761	
21.0	10.906948446967363	ISI	1.0		11.0		baseline	0.0	99.94868633900614	0.10000057352590375
22.0	11.006949020493266	baseline	0.0		48.0		baseline	0.0	100.04868691253205	0.3999914272976639
22.0	11.207056420757908	pulse	0.0	t			baseline	0.0	100.24879431279669	
22.0	11.40694044779093	ISI	1.0		11.0		baseline	0.0	100.44867833982971	0.09999785682430229
23.0	11.506938304615232	baseline	0.0		48.0		baseline	0.0	100.54867619665401	0.39999414399926536
23.0	11.906932448614498	ISI	1.0		11.0		baseline	0.0	100.94867034065328	0.10000872363025337
23.0	11.91137697221211	pulse	1.0	t			baseline	0.0	100.95311486425089	
24.0	12.006941172244751	baseline	0.0		48.0		baseline	0.0	101.04867906428353	0.39998297533747973
24.0	12.406924147582231	ISI	1.0		11.0		baseline	0.0	101.44866203962101	0.09999393269981738
25.0	12.506918080282048	baseline	0.0		48.0		baseline	0.0	101.54865597232083	0.39999565327798337
25.0	12.60703396269264	pulse	0.0	t			baseline	0.0	101.64877185473142	
25.0	12.906913733560032	ISI	1.0		11.0		baseline	0.0	101.94865162559881	0.09999996981423465
26.0	13.006913703374266	baseline	0.0		48.0		baseline	0.0	102.04865159541305	0.39999414399926536
26.0	13.307021375308977	pulse	0.0	t			baseline	0.0	102.34875926734776	
26.0	13.406907847373532	ISI	1.0		11.0		baseline	0.0	102.44864573941231	0.09999634754558429
27.0	13.506904194919116	baseline	0.0		48.0		baseline	0.0	102.5486420869579	0.39999444585464516
27.0	13.906898640773761	ISI	1.0		11.0		baseline	0.0	102.94863653281254	0.09999363084443758
28.0	14.006892271618199	baseline	0.0		47.0		baseline	0.0	103.04863016365698	0.3999923328647128
28.0	14.011065728780977	pulse	0.0	t			baseline	0.0	103.05280362081976	
28.0	14.406884604482912	ISI	1.0		11.0		baseline	0.0	103.4486224965217	0.10000208280462175
29.0	14.506886687287533	baseline	0.0		48.0		baseline	0.0	103.54862457932632	0.39999263472054736
29.0	14.706994993119224	pulse	0.0	t			baseline	0.0	103.748732885158	
29.0	14.90687932200808	ISI	1.0		11.0		baseline	0.0	103.94861721404686	0.09999514012270083
30.0	15.006874462130781	baseline	0.0		48.0		baseline	0.0	104.04861235416956	0.39999686070041207
30.0	15.406871322831194	ISI	1.0		11.0		baseline	0.0	104.44860921486998	0.1000017809487872
30.0	15.411360822931329	pulse	1.0	t			baseline	0.0	104.45309871497011	
31.0	15.50687310377998	baseline	0.0		48.0		baseline	0.0	104.54861099581876	0.3999896161635661
31.0	15.906862719943547	ISI	1.0		11.0		baseline	0.0	104.94860061198233	0.10001294961011808
32.0	16.006875669553665	baseline	0.0		48.0		baseline	0.0	105.04861356159245	0.399977240078897
32.0	16.106976459177986	pulse	0.0	t			baseline	0.0	105.14871435121677	
32.0	16.406852909632562	ISI	1.0		11.0		baseline	0.0	105.44859080167134	0.09999966795885484
33.0	16.506852577591417	baseline	0.0		48.0		baseline	0.0	105.5485904696302	0.39999595513336317
33.0	16.806952703132993	pulse	0.0	t			baseline	0.0	105.84869059517177	
33.0	16.90684853272478	ISI	1.0		11.0		baseline	0.0	105.94858642476356	0.09999091414283612
34.0	17.006839446867616	baseline	0.0		48.0		baseline	0.0	106.0485773389064	0.3999748252331301
34.0	17.406814272100746	ISI	1.0		11.0		baseline	0.0	106.44855216413953	0.10001204404306918
35.0	17.506826316143815	baseline	0.0		47.0		baseline	0.0	106.5485642081826	0.40000289781482934
35.0	17.51097803969469	pulse	0.0	t			baseline	0.0	106.55271593173347	
35.0	17.906829213958645	ISI	1.0		2.0		baseline	0.0	106.94856710599743	0.1333438580359143
36.0	18.04017307199456	body	0.0		44.0	body	body-94.jpg	0.0	107.08191096403334	0.36663003144440154
36.0	18.206924207953307	pulse	0.0	t		body	body-94.jpg	0.0	107.24866209999209	
36.0	18.40680310343896	ISI	1.0		6.0	body	body-94.jpg	0.0	107.44854099547774	0.11670255228091264
37.0	18.523505655719873	body	0.0		46.0	body	body-116.jpg	0.0	107.56524354775866	0.38325745183647086
37.0	18.906763107556344	ISI	1.0		8.0	body	body-116.jpg	0.0	107.94850099959513	0.11669983557931118
37.0	18.938074903081542	pulse	1.0	t		body	body-116.jpg	0.0	107.97981279512032	
38.0	19.023462943135655	body	0.0		46.0	body	body-116.jpg	1.0	108.06520083517444	0.38329125967720756
38.0	19.406754202812863	ISI	1.0		6.0	body	body-116.jpg	1.0	108.44849209485164	0.11669832630059318
39.0	19.523452529113456	body	0.0		46.0	body	body-77.jpg	0.0	108.56519042115224	0.3832927689554708
39.0	19.6068652253457	pulse	0.0	t		body	body-77.jpg	0.0	108.64860311738448	
39.0	19.611254811202798	response	0.0	b		body	body-77.jpg	0.0	108.65299270324158	
39.0	19.906745298068927	ISI	1.0		5.0	body	body-77.jpg	0.0	108.94848319010771	0.11670013743514573
40.0	20.023445435504073	body	0.0		46.0	body	body-55.jpg	0.0	109.06518332754285	0.3832912596767528
40.0	20.307438238055965	pulse	0.0	t		body	body-55.jpg	0.0	109.34917613009475	
40.0	20.406736695180825	ISI	1.0		6.0	body	body-55.jpg	0.0	109.44847458721961	0.11669832630059318
41.0	20.52343502148142	body	0.0		46.0	body	body-26.jpg	0.0	109.5651729135202	0.3832930708117601
41.0	20.90672809229318	ISI	1.0		6.0	body	body-26.jpg	0.0	109.94846598433196	0.11667780011157447
42.0	21.023405892404753	body	0.0		45.0	body	body-68.jpg	0.0	110.06514378444353	0.38331389885615863
42.0	21.01533849647467	pulse	0.0	t		body	body-68.jpg	0.0	110.05707638851345	
42.0	21.40671979126091	ISI	1.0		6.0	body	body-68.jpg	0.0	110.4484576832997	0.11669983557885644
43.0	21.523419626839768	body	0.0		46.0	body	body-110.jpg	0.0	110.56515751887855	0.38328975039848956
43.0	21.706824444638187	pulse	0.0	t		body	body-110.jpg	0.0	110.74856233667697	
43.0	21.906709377238258	ISI	1.0		6.0	body	body-110.jpg	0.0	110.94844726927704	0.11670013743514573
44.0	22.023409514673403	body	0.0		46.0	body	body-103.jpg	0.0	111.06514740671219	0.38329367452297447
44.0	22.406703189196378	ISI	1.0		6.0	body	body-103.jpg	0.0	111.44844108123516	0.11670074114636009
44.0	22.44970283813791	pulse	1.0	t		body	body-103.jpg	0.0	111.49144073017669	
45.0	22.523403930342738	body	0.0		46.0	body	body-128.jpg	0.0	111.56514182238152	0.38328824111977156
45.0	22.90669217146251	ISI	1.0		6.0	body	body-128.jpg	0.0	111.94843006350129	0.11670225042507809
46.0	23.023394421887588	body	0.0		46.0	body	body-140.jpg	0.0	112.06513231392637	0.383290957821373
46.0	23.106805910697403	pulse	0.0	t		body	body-140.jpg	0.0	112.14854380273619	
46.0	23.40668537970896	ISI	1.0		7.0	body	body-140.jpg	0.0	112.44842327174774	0.11670043929052554
47.0	23.523385818999486	body	0.0		46.0	body	body-24.jpg	0.0	112.56512371103827	0.38329125967720756
47.0	23.80678879547804	pulse	0.0	t		body	body-24.jpg	0.0	112.84852668751682	
47.0	23.906677078676694	ISI	1.0		6.0	body	body-24.jpg	0.0	112.94841497071548	0.11668413908182629
48.0	24.02336121775852	body	0.0		46.0	body	body-72.jpg	0.0	113.0650991097973	0.38330786174174136
48.0	24.40666907950026	ISI	1.0		6.0	body	body-72.jpg	0.0	113.44840697153904	0.11667447969875866
49.0	24.52334355919902	body	0.0		45.0	body	body-44.jpg	0.0	113.5650814512378	0.3833471029847715
49.0	24.515024717455617	pulse	0.0	t		body	body-44.jpg	0.0	113.5567626094944	
49.0	24.90669066218379	ISI	1.0		6.0	body	body-44.jpg	0.0	113.94842855422257	0.12502743113873294
50.0	25.031718093322525	body	0.0		45.0	body	body-54.jpg	0.0	114.0734559853613	0.3749621548390678
50.0	25.206798635974337	pulse	0.0	t		body	body-54.jpg	0.0	114.24853652801312	
50.0	25.406680248161592	ISI	1.0		6.0	body	body-54.jpg	0.0	114.44841814020037	0.11669077990745791
51.0	25.52337102806905	body	0.0		46.0	body	body-15.jpg	0.0	114.56510892010783	0.3832692242099256
51.0	25.906640252278976	ISI	1.0		6.0	body	body-15.jpg	0.0	114.94837814431776	0.11670345784796154
51.0	25.95345716863585	pulse	1.0	t		body	body-15.jpg	0.0	114.99519506067463	
52.0	26.023343710126937	body	0.0		46.0	body	body-86.jpg	0.0	115.06508160216572	0.3832870336968881
52.0	26.406630743823825	ISI	1.0		7.0	body	body-86.jpg	0.0	115.44836863586261	0.11670013743469099
53.0	26.523330881258516	body	0.0		46.0	body	body-91.jpg	0.0	115.5650687732973	0.383292467100091
53.0	26.606742068212952	pulse	0.0	t		body	body-91.jpg	0.0	115.64847996025173	
53.0	26.906623348358607	ISI	1.0		4.0	body	body-91.jpg	0.0	115.94836124039739	0.11670013743514573
54.0	27.023323485793753	body	0.0		46.0	body	body-115.jpg	0.0	116.06506137783254	0.38329125967720756
54.0	27.306727065983523	pulse	0.0	t		body	body-115.jpg	0.0	116.3484649580223	
54.0	27.40661474547096	ISI	1.0		5.0	body	body-115.jpg	0.0	116.44835263750974	0.11670375970334135
55.0	27.523318505174302	body	0.0		46.0	body	body-28.jpg	0.0	116.56505639721308	0.38328733555272265
55.0	27.906605840727025	ISI	1.0		6.0	body	body-28.jpg	0.0	116.9483437327658	0.11669319475322482
56.0	28.02329903548025	body	0.0		45.0	body	body-67.jpg	0.0	117.06503692751903	0.3833024283389932
56.0	28.016227763421284	pulse	0.0	t		body	body-67.jpg	0.0	117.05796565546007	
56.0	28.406601463819243	ISI	1.0		6.0	body	body-67.jpg	0.0	117.44833935585802	0.11668806320585645
57.0	28.5232895270251	body	0.0		46.0	body	body-83.jpg	0.0	117.56502741906388	0.3832991079261774
57.0	28.706703098639537	pulse	0.0	t		body	body-83.jpg	0.0	117.74844099067832	
57.0	28.906588634951277	ISI	1.0		8.0	body	body-83.jpg	0.0	117.94832652699006	0.11668776135047665
58.0	29.023276396301753	body	0.0		46.0	body	body-83.jpg	1.0	118.06501428834054	0.383302730194373
58.0	29.406579126496126	ISI	1.0		5.0	body	body-83.jpg	1.0	118.44831701853491	0.11666331103697303
58.0	29.457396838544355	pulse	1.0	t		body	body-83.jpg	1.0	118.49913473058314	
58.0	29.49836167808826	response	1.0	b		body	body-83.jpg	1.0	118.54009957012704	
59.0	29.5232424375331	body	0.0		46.0	body	body-131.jpg	0.0	118.56498032957188	0.383329293497809
59.0	29.90657173103091	ISI	1.0		8.0	body	body-131.jpg	0.0	118.94830962306969	0.11666753701729249
60.0	30.0232392680482	adult	0.0		46.0	face	adult-138.jpg	0.0	119.06497716008698	0.383329293497809
60.0	30.106680338718434	pulse	0.0	t		face	adult-138.jpg	0.0	119.14841823075722	
60.0	30.40656856154601	ISI	1.0		5.0	face	adult-138.jpg	0.0	119.44830645358479	0.11669410032027372
61.0	30.523262661866283	adult	0.0		46.0	face	adult-142.jpg	0.0	119.56500055390507	0.3832858262744594
61.0	30.80666563834484	pulse	0.0	t		face	adult-142.jpg	0.0	119.84840353038362	
61.0	30.906548488140743	ISI	1.0		8.0	face	adult-142.jpg	0.0	119.94828638017952	0.11669289289739027
62.0	31.023241381038133	adult	0.0		46.0	face	adult-17.jpg	0.0	120.06497927307691	0.38331027658750827
62.0	31.40655165762564	ISI	1.0		6.0	face	adult-17.jpg	0.0	120.44828954966442	0.11668564836054429
63.0	31.523237305986186	adult	0.0		45.0	face	adult-106.jpg	0.0	120.56497519802497	0.3833305009202377
63.0	31.51482609639288	pulse	0.0	t		face	adult-106.jpg	0.0	120.55656398843166	
63.0	31.906567806906423	ISI	1.0		6.0	face	adult-106.jpg	0.0	120.9483056989452	0.12503829794422927
64.0	32.03160610485065	adult	0.0		45.0	face	adult-68.jpg	0.0	121.07334399688943	0.3749546084463873
64.0	32.20667396956287	pulse	0.0	t		face	adult-68.jpg	0.0	121.24841186160165	
64.0	32.40656071329704	ISI	1.0		7.0	face	adult-68.jpg	0.0	121.44829860533582	0.1167040615591759
65.0	32.523264774856216	adult	0.0		46.0	face	adult-121.jpg	0.0	121.565002666895	0.38325533884699325
65.0	32.90652011370321	ISI	1.0		7.0	face	adult-121.jpg	0.0	121.94825800574199	0.11669621331020608
65.0	32.93990082832215	pulse	1.0	t		face	adult-121.jpg	0.0	121.98163872036093	
66.0	33.023216327013415	adult	0.0		46.0	face	adult-143.jpg	0.0	122.0649542190522	0.3832985042145083
66.0	33.40651483122792	ISI	1.0		7.0	face	adult-143.jpg	0.0	122.4482527232667	0.11669802444475863
67.0	33.52321285567268	adult	0.0		46.0	face	adult-1.jpg	0.0	122.56495074771146	0.3832867318415083
67.0	33.60661287396533	pulse	0.0	t		face	adult-1.jpg	0.0	122.64835076600411	
67.0	33.90649958751419	ISI	1.0		8.0	face	adult-1.jpg	0.0	122.94823747955297	0.11670285413629244
68.0	34.02320244165048	adult	0.0		45.0	face	adult-1.jpg	1.0	123.06494033368926	0.3749576270038233
68.0	34.30659304204437	pulse	0.0	t		face	adult-1.jpg	1.0	123.34833093408315	
68.0	34.38991669084044	response	0.0	b		face	adult-1.jpg	1.0	123.43165458287922	
68.0	34.398160068654306	ISI	1.0		6.0	face	adult-1.jpg	1.0	123.43989796069309	0.12502350701379328
69.0	34.5231835756681	adult	0.0		46.0	face	adult-59.jpg	0.0	123.56492146770688	0.38330152277148954
69.0	34.90648509843959	ISI	1.0		6.0	face	adult-59.jpg	0.0	123.94822299047837	0.11669259104201046
70.0	35.0231776894816	adult	0.0		45.0	face	adult-45.jpg	0.0	124.06491558152038	0.3833135970003241
70.0	35.01474504813223	pulse	0.0	t		face	adult-45.jpg	0.0	124.05648294017101	
70.0	35.40649128648192	ISI	1.0		6.0	face	adult-45.jpg	0.0	124.4482291785207	0.11668383722599174
71.0	35.523175123707915	adult	0.0		46.0	face	adult-134.jpg	0.0	124.5649130157467	0.383292467100091
71.0	35.70661616419284	pulse	0.0	t		face	adult-134.jpg	0.0	124.74835405623162	
71.0	35.906467590808006	ISI	1.0		7.0	face	adult-134.jpg	0.0	124.94820548284679	0.11668383722599174
72.0	36.023151428034	house	0.0		46.0	place	house-60.jpg	0.0	125.06488932007278	0.3832915615330421
72.0	36.40644298956704	ISI	1.0		6.0	place	house-60.jpg	0.0	125.44818088160582	0.11671311723057443
72.0	36.44851171547316	pulse	1.0	t		place	house-60.jpg	0.0	125.49024960751194	
73.0	36.523156106797614	house	0.0		46.0	place	house-51.jpg	0.0	125.5648939988364	0.3832948819458579
73.0	36.90645098874347	ISI	1.0		5.0	place	house-51.jpg	0.0	125.94818888078225	0.11671372094224353
74.0	37.023164709685716	house	0.0		46.0	place	house-93.jpg	0.0	126.0649026017245	0.38328552441862485
74.0	37.10655084261498	pulse	0.0	t		place	house-93.jpg	0.0	126.14828873465376	
74.0	37.40645023410434	ISI	1.0		8.0	place	house-93.jpg	0.0	126.44818812614312	0.11667719640036012
75.0	37.5231274305047	house	0.0		45.0	place	house-93.jpg	1.0	126.56486532254348	0.38330635246302336
75.0	37.52745875820801	response	0.0	b		place	house-93.jpg	1.0	126.5691966502468	
75.0	37.80652467172422	pulse	0.0	t		place	house-93.jpg	1.0	126.848262563763	
75.0	37.906433782967724	ISI	1.0		6.0	place	house-93.jpg	1.0	126.9481716750065	0.11669802444475863
76.0	38.02313180741248	house	0.0		46.0	place	house-55.jpg	0.0	127.06486969945126	0.38329065596553846
76.0	38.40642246337802	ISI	1.0		6.0	place	house-55.jpg	0.0	127.4481603554168	0.11668262980356303
77.0	38.523105093181584	house	0.0		45.0	place	house-42.jpg	0.0	127.56484298522037	0.3833410658703542
77.0	38.514619325225794	pulse	0.0	t		place	house-42.jpg	0.0	127.55635721726458	
77.0	38.90644615905194	ISI	1.0		6.0	place	house-42.jpg	0.0	127.94818405109072	0.11670436341501045
78.0	39.02315052246695	house	0.0		46.0	place	house-30.jpg	0.0	128.06488841450573	0.38325654626942196
78.0	39.2065221361363	pulse	0.0	t		place	house-30.jpg	0.0	128.24826002817508	
78.0	39.40640706873637	ISI	1.0		7.0	place	house-30.jpg	0.0	128.44814496077515	0.1166865539275932
79.0	39.523093622663964	house	0.0		46.0	place	house-49.jpg	0.0	128.56483151470275	0.383305748751809
79.0	39.90639937141577	ISI	1.0		6.0	place	house-49.jpg	0.0	128.94813726345456	0.11669923186764208
79.0	39.95228747772671	pulse	1.0	t		place	house-49.jpg	0.0	128.9940253697655	
80.0	40.023098603283415	house	0.0		46.0	place	house-63.jpg	0.0	129.0648364953222	0.3832885429756061
80.0	40.40638714625902	ISI	1.0		5.0	place	house-63.jpg	0.0	129.4481250382978	0.11670285413629244
81.0	40.523090000395314	house	0.0		46.0	place	house-6.jpg	0.0	129.5648278924341	0.3832900522543241
81.0	40.60650722446371	pulse	0.0	t		place	house-6.jpg	0.0	129.6482451165025	
81.0	40.90638005264964	ISI	1.0		6.0	place	house-6.jpg	0.0	129.94811794468842	0.11669893001226228
82.0	41.0230789826619	house	0.0		46.0	place	house-9.jpg	0.0	130.06481687470068	0.383290957821373
82.0	41.30648346841872	pulse	0.0	t		place	house-9.jpg	0.0	130.3482213604575	
82.0	41.40636994048327	ISI	1.0		3.0	place	house-9.jpg	0.0	130.44810783252206	0.1167025522804579
83.0	41.52307249276373	house	0.0		46.0	place	house-124.jpg	0.0	130.5648103848025	0.3832900522543241
83.0	41.906362545018055	ISI	1.0		7.0	place	house-124.jpg	0.0	130.94810043705684	0.11669410032072847
84.0	42.023056645338784	house	0.0		45.0	place	house-116.jpg	0.0	131.06479453737757	0.3832954856570723
84.0	42.014683167710245	pulse	0.0	t		place	house-116.jpg	0.0	131.05642105974903	
84.0	42.406352130995856	ISI	1.0		7.0	place	house-116.jpg	0.0	131.44809002303464	0.11669953372347663
85.0	42.52305166471933	house	0.0		46.0	place	house-4.jpg	0.0	131.56478955675811	0.3832945800900234
85.0	42.70646251963217	pulse	0.0	t		place	house-4.jpg	0.0	131.74820041167095	
85.0	42.906346244809356	ISI	1.0		6.0	place	house-4.jpg	0.0	131.94808413684814	0.11669772258892408
86.0	43.02304396739828	house	0.0		46.0	place	house-10.jpg	0.0	132.06478185943706	0.3832852225627903
86.0	43.40632918996107	ISI	1.0		8.0	place	house-10.jpg	0.0	132.44806708199985	0.11670587269372845
86.0	43.43816108288911	pulse	1.0	t		place	house-10.jpg	0.0	132.4798989749279	
87.0	43.5230350626548	house	0.0		46.0	place	house-10.jpg	1.0	132.56477295469358	0.38330816359712117
87.0	43.90634322625192	ISI	1.0		5.0	place	house-10.jpg	1.0	132.9480811182907	0.11668081866901048
87.0	43.99811340175984	response	1.0	b		place	house-10.jpg	1.0	133.03985129379862	
88.0	44.02302404492093	house	0.0		46.0	place	house-2.jpg	0.0	133.0647619369597	0.3832945800900234
88.0	44.10643070403921	pulse	0.0	t		place	house-2.jpg	0.0	133.148168596078	
88.0	44.406318625010954	ISI	1.0		6.0	place	house-2.jpg	0.0	133.44805651704974	0.11669832630059318
89.0	44.52301695131155	house	0.0		46.0	place	house-75.jpg	0.0	133.56475484335033	0.3832843169957414
89.0	44.806422946347084	pulse	0.0	t		place	house-75.jpg	0.0	133.84816083838587	
89.0	44.90630126830729	ISI	1.0		6.0	place	house-75.jpg	0.0	133.94803916034607	0.11670949496192407
90.0	45.02301076326921	house	0.0		46.0	place	house-82.jpg	0.0	134.064748655308	0.38333774545799315
90.0	45.406348508727206	ISI	1.0		6.0	place	house-82.jpg	0.0	134.448086400766	0.1250147531982293
91.0	45.531363261925435	house	0.0		44.0	place	house-130.jpg	0.0	134.57310115396422	0.37496245669490236
91.0	45.51779605480624	pulse	0.0	t		place	house-130.jpg	0.0	134.55953394684502	
91.0	45.90632571862034	ISI	1.0		7.0	place	house-130.jpg	0.0	134.94806361065912	0.11668081866901048
92.0	46.02300653728935	house	0.0		46.0	place	house-69.jpg	0.0	135.06474442932813	0.3832785817367039
92.0	46.20640320498342	pulse	0.0	t		place	house-69.jpg	0.0	135.2481410970222	
92.0	46.40628511902605	ISI	1.0		7.0	place	house-69.jpg	0.0	135.44802301106483	0.11669621331066082
93.0	46.52298133233671	house	0.0		46.0	place	house-100.jpg	0.0	135.5647192243755	0.3832963912245759
93.0	46.90627772356129	ISI	1.0		7.0	place	house-100.jpg	0.0	135.94801561560007	0.11669621331020608
93.0	46.94129057204964	pulse	1.0	t		place	house-100.jpg	0.0	135.98302846408842	
94.0	47.022973936871495	house	0.0		46.0	place	house-73.jpg	0.0	136.06471182891028	0.3832867318415083
94.0	47.406260668713	ISI	1.0		7.0	place	house-73.jpg	0.0	136.44799856075178	0.11669198733079611
95.0	47.5229526560438	house	0.0		46.0	place	house-47.jpg	0.0	136.56469054808258	0.3833060506071888
95.0	47.606379841350645	pulse	0.0	t		place	house-47.jpg	0.0	136.64811773338943	
95.0	47.90625870665099	ISI	1.0		3.0	place	house-47.jpg	0.0	136.94799659868977	0.11670013743469099
96.0	48.02295884408568	word	0.0		46.0	character	word-12.jpg	0.0	137.06469673612446	0.3832812984383054
96.0	48.30639653397202	pulse	0.0	t		character	word-12.jpg	0.0	137.3481344260108	
96.0	48.406240142523984	ISI	1.0		6.0	character	word-12.jpg	0.0	137.44797803456277	0.1167070801166119
97.0	48.522947222640596	word	0.0		46.0	character	word-74.jpg	0.0	137.56468511467938	0.38329367452297447
97.0	48.90624089716357	ISI	1.0		7.0	character	word-74.jpg	0.0	137.94797878920235	0.11669228918617591
98.0	49.022933186349746	word	0.0		45.0	character	word-14.jpg	0.0	138.06467107838853	0.3832900522543241
98.0	49.01454340851251	pulse	0.0	t		character	word-14.jpg	0.0	138.0562813005513	
98.0	49.40622323860407	ISI	1.0		7.0	character	word-14.jpg	0.0	138.44796113064285	0.1167064764049428
99.0	49.52292971500901	word	0.0		46.0	character	word-52.jpg	0.0	138.5646676070478	0.3832843169957414
99.0	49.706351134871966	pulse	0.0	t		character	word-52.jpg	0.0	138.74808902691075	
99.0	49.906214032004755	ISI	1.0		7.0	character	word-52.jpg	0.0	138.94795192404354	0.11670889125070971
100.0	50.022922923255464	word	0.0		46.0	character	word-116.jpg	0.0	139.06466081529425	0.38329156153258737
100.0	50.40621448478805	ISI	1.0		6.0	character	word-116.jpg	0.0	139.44795237682683	0.11669862815642773
100.0	50.45161841452682	pulse	1.0	t		character	word-116.jpg	0.0	139.4933563065656	
101.0	50.52291311294448	word	0.0		46.0	character	word-92.jpg	0.0	139.56465100498326	0.3833090691646248
101.0	50.906222182109104	ISI	1.0		8.0	character	word-92.jpg	0.0	139.9479600741479	0.11668232794727373
102.0	51.02290451005638	word	0.0		46.0	character	word-120.jpg	0.0	140.06464240209516	0.38330786174174136
102.0	51.10638089784561	pulse	0.0	t		character	word-120.jpg	0.0	140.1481187898844	
102.0	51.40621237179812	ISI	1.0		3.0	character	word-120.jpg	0.0	140.4479502638369	0.11668112052484503
103.0	51.522893492322964	word	0.0		46.0	character	word-139.jpg	0.0	140.56463138436175	0.38328763740810246
103.0	51.80630914674157	pulse	0.0	t		character	word-139.jpg	0.0	140.84804703878035	
103.0	51.90618112973107	ISI	1.0		7.0	character	word-139.jpg	0.0	140.94791902176985	0.11670738197244646
104.0	52.02288851170351	word	0.0		46.0	character	word-93.jpg	0.0	141.0646264037423	0.38332929349735423
104.0	52.40621780520087	ISI	1.0		7.0	character	word-93.jpg	0.0	141.44795569723965	0.1166910817637472
105.0	52.522908886964615	word	0.0		45.0	character	word-84.jpg	0.0	141.5646467790034	0.3832939763783543
105.0	52.51451458129122	pulse	0.0	t		character	word-84.jpg	0.0	141.55625247333	
105.0	52.90620286334297	ISI	1.0		7.0	character	word-84.jpg	0.0	141.94794075538175	0.11670345784796154
106.0	53.02290632119093	word	0.0		46.0	character	word-96.jpg	0.0	142.0646442132297	0.3832471887421889
106.0	53.20631144084473	pulse	0.0	t		character	word-96.jpg	0.0	142.2480493328835	
106.0	53.40615350993312	ISI	1.0		8.0	character	word-96.jpg	0.0	142.4478914019719	0.11670074114636009
107.0	53.52285425107948	word	0.0		46.0	character	word-15.jpg	0.0	142.56459214311826	0.3833069561742377
107.0	53.90616120725372	ISI	1.0		5.0	character	word-15.jpg	0.0	142.9478990992925	0.11666783887312704
107.0	53.95598309728712	pulse	1.0	t		character	word-15.jpg	0.0	142.9977209893259	
108.0	54.022829046126844	car	0.0		46.0	object	car-90.jpg	0.0	143.06456693816563	0.38331570999025644
108.0	54.4061447561171	ISI	1.0		7.0	object	car-90.jpg	0.0	143.44788264815588	0.11669017619624356
109.0	54.522834932313344	car	0.0		46.0	object	car-108.jpg	0.0	143.56457282435213	0.38330152277148954
109.0	54.60626121205314	pulse	0.0	t		object	car-108.jpg	0.0	143.64799910409192	
109.0	54.906136455084834	ISI	1.0		4.0	object	car-108.jpg	0.0	143.94787434712362	0.11670074114636009
110.0	55.022837196231194	car	0.0		46.0	object	car-30.jpg	0.0	144.06457508826998	0.3832900522543241
110.0	55.30624168198847	pulse	0.0	t		object	car-30.jpg	0.0	144.34797957402725	
110.0	55.40612724848552	ISI	1.0		7.0	object	car-30.jpg	0.0	144.4478651405243	0.11669681702187518
111.0	55.52282406550739	car	0.0		46.0	object	car-97.jpg	0.0	144.56456195754618	0.3832945800900234
111.0	55.90611864559742	ISI	1.0		8.0	object	car-97.jpg	0.0	144.9478565376362	0.11666934815184504
112.0	56.02278799374926	car	0.0		45.0	object	car-20.jpg	0.0	145.06452588578804	0.3833208415376248
112.0	56.01591534275258	pulse	0.0	t		object	car-20.jpg	0.0	145.05765323479136	
112.0	56.40610883528689	ISI	1.0		6.0	object	car-20.jpg	0.0	145.44784672732567	0.11670013743469099
113.0	56.52280897272158	car	0.0		46.0	object	car-7.jpg	0.0	145.56454686476036	0.3832988060698881
113.0	56.70621620536576	pulse	0.0	t		object	car-7.jpg	0.0	145.74795409740454	
113.0	56.906107778791466	ISI	1.0		6.0	object	car-7.jpg	0.0	145.94784567083025	0.11669651516649537
114.0	57.02280429395796	car	0.0		46.0	object	car-130.jpg	0.0	146.06454218599674	0.3832867318415083
114.0	57.40609102579947	ISI	1.0		6.0	object	car-130.jpg	0.0	146.44782891783825	0.11669711887770973
114.0	57.447300368475226	pulse	1.0	t		object	car-130.jpg	0.0	146.489038260514	
115.0	57.52278814467718	car	0.0		46.0	object	car-49.jpg	0.0	146.56452603671596	0.3832942782341888
115.0	57.90608242291137	ISI	1.0		8.0	object	car-49.jpg	0.0	146.94782031495015	0.11670375970334135
116.0	58.02278618261471	car	0.0		46.0	object	car-49.jpg	1.0	147.0645240746535	0.38328793926439175
116.0	58.10619223802178	pulse	0.0	t		object	car-49.jpg	1.0	147.14793013006056	
116.0	58.36450889131129	response	0.0	b		object	car-49.jpg	1.0	147.40624678335007	
116.0	58.4060741218791	ISI	1.0		6.0	object	car-49.jpg	1.0	147.44781201391788	0.11668927062919465
117.0	58.522763392508296	car	0.0		46.0	object	car-144.jpg	0.0	147.56450128454708	0.38330333390558735
117.0	58.80617482094658	pulse	0.0	t		object	car-144.jpg	0.0	147.84791271298536	
117.0	58.90606672641388	ISI	1.0		5.0	object	car-144.jpg	0.0	147.94780461845266	0.11669802444521338
118.0	59.022764750859096	car	0.0		46.0	object	car-103.jpg	0.0	148.06450264289788	0.3833250675174895
118.0	59.406089818376586	ISI	1.0		6.0	object	car-103.jpg	0.0	148.44782771041537	0.11669983557885644
119.0	59.52278965395544	car	0.0		45.0	object	car-115.jpg	0.0	148.56452754599422	0.3832897503989443
119.0	59.515227262642384	pulse	0.0	t		object	car-115.jpg	0.0	148.55696515468117	
119.0	59.90607940435439	ISI	1.0		5.0	object	car-115.jpg	0.0	148.94781729639317	0.11669772258892408
120.0	60.02277712694331	car	0.0		46.0	object	car-85.jpg	0.0	149.0645150189821	0.3832637908067227
120.0	60.206159003706944	pulse	0.0	t		object	car-85.jpg	0.0	149.24789689574573	
120.0	60.40604091775003	ISI	1.0		7.0	object	car-85.jpg	0.0	149.44777880978882	0.11668474279349539
121.0	60.52272566054353	car	0.0		46.0	object	car-77.jpg	0.0	149.5644635525823	0.38330725803007226
121.0	60.9060329185736	ISI	1.0		4.0	object	car-77.jpg	0.0	149.94777081061238	0.11669560959899172
121.0	60.971126896823534	pulse	1.0	t		object	car-77.jpg	0.0	150.01286478886232	
122.0	61.02272852817259	car	0.0		46.0	object	car-105.jpg	0.0	150.06446642021137	0.38329276895592557
122.0	61.40602129712852	ISI	1.0		6.0	object	car-105.jpg	0.0	150.4477591891673	0.11669862815597298
123.0	61.52271992528449	car	0.0		46.0	object	car-117.jpg	0.0	150.56445781732327	0.38329427823464357
123.0	61.606132017805976	pulse	0.0	t		object	car-117.jpg	0.0	150.64786990984476	
123.0	61.906014203519135	ISI	1.0		7.0	object	car-117.jpg	0.0	150.94775209555792	0.11668776135047665
124.0	62.02270196486961	car	0.0		46.0	object	car-133.jpg	0.0	151.0644398569084	0.3833021264827039
124.0	62.306121241556866	pulse	0.0	t		object	car-133.jpg	0.0	151.34785913359565	
124.0	62.406004091352315	ISI	1.0		3.0	object	car-133.jpg	0.0	151.4477419833911	0.11670225042507809
125.0	62.52270634177739	car	0.0		46.0	object	car-142.jpg	0.0	151.56444423381618	0.383289448542655
125.0	62.90599579032005	ISI	1.0		8.0	object	car-142.jpg	0.0	151.94773368235883	0.11666934815184504
126.0	63.02266513847189	car	0.0		45.0	object	car-142.jpg	1.0	152.06440303051068	0.38331721926897444
126.0	63.01550663010994	pulse	0.0	t		object	car-142.jpg	1.0	152.05724452214872	
126.0	63.40598235774087	ISI	1.0		5.0	object	car-142.jpg	1.0	152.44772024977965	0.11667780011157447
126.0	63.497787850367786	response	1.0	b		object	car-142.jpg	1.0	152.53952574240657	
127.0	63.52266015785244	car	0.0		46.0	object	car-32.jpg	0.0	152.56439804989122	0.3833202378259557
127.0	63.70606739049663	pulse	0.0	t		object	car-32.jpg	0.0	152.7478052825354	
127.0	63.9059803956784	ISI	1.0		6.0	object	car-32.jpg	0.0	152.94771828771718	0.11669862815642773
128.0	64.02267902383483	car	0.0		46.0	object	car-5.jpg	0.0	153.0644169158736	0.383292467100091
128.0	64.40597149093492	ISI	1.0		6.0	object	car-5.jpg	0.0	153.4477093829737	0.11669711887770973
128.0	64.44824215831659	pulse	1.0	t		object	car-5.jpg	0.0	153.48998005035537	
129.0	64.52266860981263	car	0.0		46.0	object	car-26.jpg	0.0	153.5644065018514	0.38329125967720756
129.0	64.90595986948983	ISI	1.0		6.0	object	car-26.jpg	0.0	153.94769776152862	0.11670285413629244
130.0	65.02266272362613	car	0.0		46.0	object	car-137.jpg	0.0	154.0644006156649	0.38329367452297447
130.0	65.10609322934624	pulse	0.0	t		object	car-137.jpg	0.0	154.14783112138502	
130.0	65.4059563981491	ISI	1.0		6.0	object	car-137.jpg	0.0	154.44769429018788	0.11669832630059318
131.0	65.5226547244497	car	0.0		46.0	object	car-43.jpg	0.0	154.56439261648848	0.383289448542655
131.0	65.8060577009278	pulse	0.0	t		object	car-43.jpg	0.0	154.84779559296658	
131.0	65.90594417299235	ISI	1.0		6.0	object	car-43.jpg	0.0	154.94768206503113	0.11668927062919465
132.0	66.02263344362154	house	0.0		46.0	place	house-33.jpg	0.0	155.06437133566033	0.38333412318888804
132.0	66.40596756681043	ISI	1.0		6.0	place	house-33.jpg	0.0	155.4477054588492	0.11669832630059318
133.0	66.52266589311103	house	0.0		45.0	place	house-43.jpg	0.0	155.5644037851498	0.3832915615330421
133.0	66.5148203611343	pulse	0.0	t		place	house-43.jpg	0.0	155.55655825317308	
133.0	66.90595745464407	ISI	1.0		6.0	place	house-43.jpg	0.0	155.94769534668285	0.1167025522804579
134.0	67.02266000692453	house	0.0		46.0	place	house-41.jpg	0.0	156.0643978989633	0.38325714998109106
134.0	67.20604852451424	pulse	0.0	t		place	house-41.jpg	0.0	156.24778641655303	
134.0	67.40591715690562	ISI	1.0		7.0	place	house-41.jpg	0.0	156.4476550489444	0.11670074114636009
135.0	67.52261789805198	house	0.0		46.0	place	house-34.jpg	0.0	156.56435579009076	0.383301220915655
135.0	67.90591911896763	ISI	1.0		7.0	place	house-34.jpg	0.0	156.9476570110064	0.11669168547496156
135.0	67.94102282602762	pulse	1.0	t		place	house-34.jpg	0.0	156.9827607180664	
136.0	68.02261080444259	house	0.0		46.0	place	house-129.jpg	0.0	157.06434869648137	0.3832945800900234
136.0	68.40590538453262	ISI	1.0		8.0	place	house-129.jpg	0.0	157.4476432765714	0.11669319475322482
137.0	68.52259857928584	house	0.0		46.0	place	house-129.jpg	1.0	157.56433647132462	0.38328884483144066
137.0	68.60598893819542	pulse	0.0	t		place	house-129.jpg	1.0	157.6477268302342	
137.0	68.90588742411728	ISI	1.0		6.0	place	house-129.jpg	1.0	157.94762531615606	0.11670587269372845
137.0	68.9893460024191	response	1.0	b		place	house-129.jpg	1.0	158.03108389445788	
138.0	69.02259329681101	house	0.0		46.0	place	house-40.jpg	0.0	158.0643311888498	0.38330725803007226
138.0	69.30598208607034	pulse	0.0	t		place	house-40.jpg	0.0	158.34771997810913	
138.0	69.40590055484108	ISI	1.0		6.0	place	house-40.jpg	0.0	158.44763844687986	0.11668232794727373
139.0	69.52258288278836	house	0.0		46.0	place	house-57.jpg	0.0	158.56432077482714	0.3832930708117601
139.0	69.90587595360012	ISI	1.0		7.0	place	house-57.jpg	0.0	158.9476138456389	0.11668021495734138
140.0	70.02255616855746	house	0.0		45.0	place	house-110.jpg	0.0	159.06429406059624	0.38330786174174136
140.0	70.01433844847952	pulse	0.0	t		place	house-110.jpg	0.0	159.0560763405183	
140.0	70.4058640302992	ISI	1.0		7.0	place	house-110.jpg	0.0	159.44760192233798	0.1167025522804579
141.0	70.52256658257966	house	0.0		46.0	place	house-76.jpg	0.0	159.56430447461844	0.383290957821373
141.0	70.7059729096568	pulse	0.0	t		place	house-76.jpg	0.0	159.74771080169558	
141.0	70.90585754040103	ISI	1.0		7.0	place	house-76.jpg	0.0	159.9475954324398	0.11669742073354428
142.0	71.02255496113457	house	0.0		46.0	place	house-54.jpg	0.0	160.06429285317336	0.383292467100091
142.0	71.40584742823467	ISI	1.0		7.0	place	house-54.jpg	0.0	160.44758532027345	0.11666240546992412
142.0	71.442451056359	pulse	1.0	t		place	house-54.jpg	0.0	160.4841889483978	
143.0	71.52250983370459	house	0.0		46.0	place	house-102.jpg	0.0	160.56424772574337	0.3833280860749255
143.0	71.90583791977951	ISI	1.0		6.0	place	house-102.jpg	0.0	160.9475758118183	0.11669983557931118
144.0	72.02253775535883	car	0.0		46.0	object	car-2.jpg	0.0	161.0642756473976	0.383299711636937
144.0	72.10594954602402	pulse	0.0	t		object	car-2.jpg	0.0	161.1476874380628	
144.0	72.40583746699576	ISI	1.0		6.0	object	car-2.jpg	0.0	161.44757535903454	0.11669379846489392
145.0	72.52253126546066	car	0.0		46.0	object	car-89.jpg	0.0	161.56426915749944	0.3832969949357903
145.0	72.80594239204356	pulse	0.0	t		object	car-89.jpg	0.0	161.84768028408234	
145.0	72.90582826039645	ISI	1.0		6.0	object	car-89.jpg	0.0	161.94756615243523	0.1166904780520781
146.0	73.02251873844853	car	0.0		46.0	object	car-55.jpg	0.0	162.0642566304873	0.38332627494037297
146.0	73.4058450133889	ISI	1.0		6.0	object	car-55.jpg	0.0	162.44758290542768	0.11669621331066082
147.0	73.52254122669956	car	0.0		45.0	object	car-45.jpg	0.0	162.56427911873834	0.383302730194373
147.0	73.51499090961488	pulse	0.0	t		object	car-45.jpg	0.0	162.55672880165366	
147.0	73.90584395689393	ISI	1.0		6.0	object	car-45.jpg	0.0	162.9475818489327	0.11669228918617591
148.0	74.02253624608011	car	0.0		46.0	object	car-15.jpg	0.0	163.0642741381189	0.38325896111518887
148.0	74.2059178209879	pulse	0.0	t		object	car-15.jpg	0.0	163.2476557130267	
148.0	74.4057952071953	ISI	1.0		6.0	object	car-15.jpg	0.0	163.44753309923408	0.11669832630059318
149.0	74.52249353349589	car	0.0		46.0	object	car-94.jpg	0.0	163.56423142553467	0.3832891466872752
149.0	74.90578268018317	ISI	1.0		6.0	object	car-94.jpg	0.0	163.94752057222195	0.11671885248915714
149.0	74.95218213008093	pulse	1.0	t		object	car-94.jpg	0.0	163.9939200221197	
150.0	75.02250153267232	car	0.0		46.0	object	car-140.jpg	0.0	164.0642394247111	0.38327526132434286
150.0	75.40577679399667	ISI	1.0		5.0	object	car-140.jpg	0.0	164.44751468603545	0.11670043929052554
151.0	75.52247723328719	car	0.0		46.0	object	car-72.jpg	0.0	164.56421512532597	0.3832903541097039
151.0	75.60588902395239	pulse	0.0	t		object	car-72.jpg	0.0	164.64762691599117	
151.0	75.9057675873969	ISI	1.0		5.0	object	car-72.jpg	0.0	164.94750547943568	0.11670225042507809
152.0	76.02246983782197	car	0.0		46.0	object	car-134.jpg	0.0	165.06420772986075	0.383290957821373
152.0	76.30587402172341	pulse	0.0	t		object	car-134.jpg	0.0	165.3476119137622	
152.0	76.40576079564335	ISI	1.0		6.0	object	car-134.jpg	0.0	165.44749868768213	0.11670043929052554
153.0	76.52246123493387	car	0.0		46.0	object	car-102.jpg	0.0	165.56419912697265	0.383290957821373
153.0	76.90575219275524	ISI	1.0		6.0	object	car-102.jpg	0.0	165.94749008479403	0.11668202609189393
154.0	77.02243421884714	car	0.0		45.0	object	car-118.jpg	0.0	166.06417211088592	0.38330876730879027
154.0	77.01423793052572	pulse	0.0	t		object	car-118.jpg	0.0	166.0559758225645	
154.0	77.40574298615593	ISI	1.0		4.0	object	car-118.jpg	0.0	166.4474808781947	0.11668202609189393
155.0	77.52242501224782	car	0.0		46.0	object	car-129.jpg	0.0	166.5641629042866	0.38330816359712117
155.0	77.70587601397119	pulse	0.0	t		object	car-129.jpg	0.0	166.74761390600997	
155.0	77.90573317584494	ISI	1.0		11.0	object	car-129.jpg	0.0	166.94747106788373	0.10000027167052394
156.0	78.00573344751547	baseline	0.0		48.0		baseline	0.0	167.04747133955425	0.39999293657592716
156.0	78.4057263840914	ISI	1.0		11.0		baseline	0.0	167.44746427613018	0.10000570507327211
156.0	78.41032636338423	pulse	1.0	t			baseline	0.0	167.452064255423	
157.0	78.50573208916467	baseline	0.0		48.0		baseline	0.0	167.54746998120345	0.39998388090452863
157.0	78.9057159700692	ISI	1.0		11.0		baseline	0.0	167.94745386210798	0.10000147909295265
158.0	79.00571744916215	baseline	0.0		48.0		baseline	0.0	168.04745534120093	0.3999899180189459
158.0	79.10582608703544	pulse	0.0	t			baseline	0.0	168.14756397907422	
158.0	79.4057073671811	ISI	1.0		11.0		baseline	0.0	168.44744525921988	0.09999966795885484
159.0	79.50570703513995	baseline	0.0		48.0		baseline	0.0	168.54744492717873	0.39999112544182935
159.0	79.80581319779594	pulse	0.0	t			baseline	0.0	168.84755108983472	
159.0	79.90569816058178	ISI	1.0		11.0		baseline	0.0	168.94743605262056	0.10000600692865191
160.0	80.00570416751043	baseline	0.0		48.0		baseline	0.0	169.0474420595492	0.4000560244217013
160.0	80.40576019193213	ISI	1.0		11.0		baseline	0.0	169.4474980839709	0.0999996679584001
161.0	80.50575985989053	baseline	0.0		47.0		baseline	0.0	169.5474977519293	0.39998931430773155
161.0	80.51006643542496	pulse	0.0	t			baseline	0.0	169.55180432746374	
161.0	80.90574917419826	ISI	1.0		11.0		baseline	0.0	169.94748706623704	0.1000002716700692
162.0	81.00574944586833	baseline	0.0		48.0		baseline	0.0	170.0474873379071	0.3999899180189459
162.0	81.19779941144179	pulse	0.0	t			baseline	0.0	170.23953730348057	
162.0	81.40573936388728	ISI	1.0		11.0		baseline	0.0	170.44747725592606	0.10000117723757285
163.0	81.50574054112485	baseline	0.0		48.0		baseline	0.0	170.54747843316363	0.40000229410316024
163.0	81.90574283522801	ISI	1.0		11.0		baseline	0.0	170.9474807272668	0.09998759373002031
163.0	81.91037118895838	pulse	1.0	t			baseline	0.0	170.95210908099716	
164.0	82.00573042895803	baseline	0.0		48.0		baseline	0.0	171.0474683209968	0.3999929365763819
164.0	82.40572336553441	ISI	1.0		11.0		baseline	0.0	171.4474612575732	0.0999996679584001
165.0	82.50572303349281	baseline	0.0		48.0		baseline	0.0	171.5474609255316	0.39999172915349845
165.0	82.6058361992018	pulse	0.0	t			baseline	0.0	171.64757409124059	
165.0	82.90571476264631	ISI	1.0		11.0		baseline	0.0	171.9474526546851	0.09999604569020448
166.0	83.00571080833652	baseline	0.0		48.0		baseline	0.0	172.0474487003753	0.3999965588445775
166.0	83.3058299507884	pulse	0.0	t			baseline	0.0	172.34756784282717	
166.0	83.4057073671811	ISI	1.0		11.0		baseline	0.0	172.44744525921988	0.09999000857578721
167.0	83.50569737575688	baseline	0.0		48.0		baseline	0.0	172.54743526779566	0.40000108668073153
167.0	83.90569846243761	ISI	1.0		3.0		baseline	0.0	172.9474363544764	0.11665938691294286
168.0	84.02235784935056	word	0.0		45.0	character	word-61.jpg	0.0	173.06409574138934	0.3832988060698881
168.0	84.0143704451857	pulse	0.0	t		character	word-61.jpg	0.0	173.0561083372245	
168.0	84.40565665542044	ISI	1.0		8.0	character	word-61.jpg	0.0	173.44739454745923	0.11668927062919465
169.0	84.52234592604964	word	0.0		46.0	character	word-70.jpg	0.0	173.56408381808842	0.3832671112195385
169.0	84.70573051951487	pulse	0.0	t		character	word-70.jpg	0.0	173.74746841155365	
169.0	84.90561303726918	ISI	1.0		3.0	character	word-70.jpg	0.0	173.94735092930796	0.116703155992127
170.0	85.0223161932613	word	0.0		46.0	character	word-129.jpg	0.0	174.06405408530009	0.38328793926439175
170.0	85.4056041325257	ISI	1.0		6.0	character	word-129.jpg	0.0	174.44734202456448	0.11670194856924354
170.0	85.44891891883753	pulse	1.0	t		character	word-129.jpg	0.0	174.49065681087632	
171.0	85.52230608109494	word	0.0		46.0	character	word-90.jpg	0.0	174.56404397313372	0.3832779780254896
171.0	85.90558405912043	ISI	1.0		6.0	character	word-90.jpg	0.0	174.9473219511592	0.11671281537473988
172.0	86.02229687449517	word	0.0		46.0	character	word-72.jpg	0.0	175.06403476653395	0.383292467100091
172.0	86.10569719464365	pulse	0.0	t		character	word-72.jpg	0.0	175.14743508668244	
172.0	86.40558934159526	ISI	1.0		6.0	character	word-72.jpg	0.0	175.44732723363404	0.11668323351477738
173.0	86.52227257511004	word	0.0		46.0	character	word-87.jpg	0.0	175.56401046714882	0.38330484318430535
173.0	86.80620651579738	pulse	0.0	t		character	word-87.jpg	0.0	175.84794440783617	
173.0	86.90557741829434	ISI	1.0		7.0	character	word-87.jpg	0.0	175.94731531033312	0.1166880632063112
174.0	87.02226548150065	word	0.0		46.0	character	word-20.jpg	0.0	176.06400337353944	0.38330242833853845
174.0	87.40556790983919	ISI	1.0		7.0	character	word-20.jpg	0.0	176.44730580187797	0.11669138361912701
175.0	87.52225929345832	word	0.0		45.0	character	word-89.jpg	0.0	176.5639971854971	0.383302730194373
175.0	87.51394256470485	pulse	0.0	t		character	word-89.jpg	0.0	176.55568045674363	
175.0	87.90556202365269	ISI	1.0		7.0	character	word-89.jpg	0.0	176.94729991569147	0.11669953372347663
176.0	88.02226155737617	word	0.0		46.0	character	word-19.jpg	0.0	177.06399944941495	0.3832885429756061
176.0	88.20567029929907	pulse	0.0	t		character	word-19.jpg	0.0	177.24740819133785	
176.0	88.40555010035177	ISI	1.0		6.0	character	word-19.jpg	0.0	177.44728799239056	0.11670194856924354
177.0	88.52225204892102	word	0.0		46.0	character	word-57.jpg	0.0	177.5639899409598	0.3832906559659932
177.0	88.90554270488701	ISI	1.0		6.0	character	word-57.jpg	0.0	177.9472805969258	0.11668413908182629
177.0	88.95368688083727	pulse	1.0	t		character	word-57.jpg	0.0	177.99542477287605	
178.0	89.02222684396884	word	0.0		46.0	character	word-63.jpg	0.0	178.06396473600762	0.3833051450401399
178.0	89.40553198900898	ISI	1.0		6.0	character	word-63.jpg	0.0	178.44726988104776	0.11670104300173989
179.0	89.52223303201072	word	0.0		46.0	character	word-86.jpg	0.0	178.5639709240495	0.3832915615330421
179.0	89.6056587080393	pulse	0.0	t		character	word-86.jpg	0.0	178.64739660007808	
179.0	89.90552459354376	ISI	1.0		6.0	character	word-86.jpg	0.0	178.94726248558254	0.11669802444475863
180.0	90.02222261798852	body	0.0		46.0	body	body-84.jpg	0.0	179.0639605100273	0.38329367452297447
180.0	90.3056322352927	pulse	0.0	t		body	body-84.jpg	0.0	179.3473701273315	
180.0	90.40551629251149	ISI	1.0		6.0	body	body-84.jpg	0.0	179.44725418455027	0.11667991310196157
181.0	90.52219620561345	body	0.0		46.0	body	body-132.jpg	0.0	179.56393409765224	0.38334317886028657
181.0	90.90553938447374	ISI	1.0		4.0	body	body-132.jpg	0.0	179.94727727651252	0.11669893001226228
182.0	91.022238314486	body	0.0		45.0	body	body-75.jpg	0.0	180.06397620652479	0.3832927689554708
182.0	91.01382378447988	pulse	0.0	t		body	body-75.jpg	0.0	180.05556167651866	
182.0	91.40553108344147	ISI	1.0		7.0	body	body-75.jpg	0.0	180.44726897548026	0.116707683828281
183.0	91.52223876726976	body	0.0		46.0	body	body-75.jpg	1.0	180.56397665930854	0.3832571499806363
183.0	91.70560887166039	pulse	0.0	t		body	body-75.jpg	1.0	180.74734676369917	
183.0	91.90549591725039	ISI	1.0		5.0	body	body-75.jpg	1.0	180.94723380928917	0.11669379846489392
183.0	91.99727484657433	response	1.0	b		body	body-75.jpg	1.0	181.0390127386131	
184.0	92.02218971571529	body	0.0		46.0	body	body-102.jpg	0.0	181.06392760775407	0.38329216524425647
184.0	92.40548188095954	ISI	1.0		6.0	body	body-102.jpg	0.0	181.44721977299832	0.11667991310196157
184.0	92.4474286571558	pulse	1.0	t		body	body-102.jpg	0.0	181.48916654919458	
185.0	92.5221617940615	body	0.0		46.0	body	body-109.jpg	0.0	181.56389968610029	0.3833099747316737
185.0	92.90547176879318	ISI	1.0		4.0	body	body-109.jpg	0.0	181.94720966083196	0.10835080826382182
186.0	93.013822577057	body	0.0		47.0	body	body-98.jpg	0.0	182.05556046909578	0.39164058884807673
186.0	93.1055912432862	pulse	0.0	t		body	body-98.jpg	0.0	182.14732913532498	
186.0	93.40546316590508	ISI	1.0		4.0	body	body-98.jpg	0.0	182.44720105794386	0.10836741032835562
187.0	93.51383057623343	body	0.0		47.0	body	body-46.jpg	0.0	182.5555684682722	0.3916251942064264
187.0	93.8055674872412	pulse	0.0	t		body	body-46.jpg	0.0	182.84730537928	
187.0	93.90545577043986	ISI	1.0		5.0	body	body-46.jpg	0.0	182.94719366247864	0.1167203617683299
188.0	94.02217613220819	body	0.0		46.0	body	body-125.jpg	0.0	183.06391402424697	0.38327103534356866
188.0	94.40544716755176	ISI	1.0		5.0	body	body-125.jpg	0.0	183.44718505959054	0.10833511176679167
189.0	94.51378227931855	body	0.0		46.0	body	body-107.jpg	0.0	183.55552017135733	0.3916559834897271
189.0	94.50913400311083	pulse	0.0	t		body	body-107.jpg	0.0	183.5508718951496	
189.0	94.90543826280827	ISI	1.0		4.0	body	body-107.jpg	0.0	183.94717615484706	0.11670104300219464
190.0	95.02213930581047	body	0.0		46.0	body	body-135.jpg	0.0	184.06387719784925	0.3832933726671399
190.0	95.20557702588212	pulse	0.0	t		body	body-135.jpg	0.0	184.2473149179209	
190.0	95.40543267847761	ISI	1.0		4.0	body	body-135.jpg	0.0	184.4471705705164	0.10833843217960748
191.0	95.51377111065722	body	0.0		47.0	body	body-100.jpg	0.0	184.555509002696	0.39164964451947526
191.0	95.90542075517669	ISI	1.0		6.0	body	body-100.jpg	0.0	184.94715864721547	0.1083435637265211
191.0	95.94673001209549	pulse	1.0	t		body	body-100.jpg	0.0	184.98846790413427	
192.0	96.01376431890321	car	0.0		47.0	object	car-59.jpg	0.0	185.055502210942	0.39164843709704655
192.0	96.40541275600026	ISI	1.0		4.0	object	car-59.jpg	0.0	185.44715064803904	0.11669711887770973
193.0	96.52210987487797	car	0.0		46.0	object	car-29.jpg	0.0	185.56384776691675	0.3832933726671399
193.0	96.60552257111021	pulse	0.0	t		object	car-29.jpg	0.0	185.647260463149	
193.0	96.90540324754511	ISI	1.0		6.0	object	car-29.jpg	0.0	185.9471411395839	0.116686855782973
194.0	97.02209010332808	car	0.0		46.0	object	car-119.jpg	0.0	186.06382799536686	0.38330363576187665
194.0	97.30551028558284	pulse	0.0	t		object	car-119.jpg	0.0	186.34724817762162	
194.0	97.40539373908996	ISI	1.0		7.0	object	car-119.jpg	0.0	186.44713163112874	0.11669440217610827
195.0	97.52208814126607	car	0.0		46.0	object	car-39.jpg	0.0	186.56382603330485	0.3833280860749255
195.0	97.905416227341	ISI	1.0		6.0	object	car-39.jpg	0.0	186.94715411937977	0.11669802444475863
196.0	98.02211425178575	car	0.0		45.0	object	car-126.jpg	0.0	187.06385214382453	0.3832939763783543
196.0	98.01383193458423	pulse	0.0	t		object	car-126.jpg	0.0	187.055569826623	
196.0	98.4054082281641	ISI	1.0		7.0	object	car-126.jpg	0.0	187.4471461202029	0.12503950536711272
197.0	98.53044773353122	car	0.0		45.0	object	car-111.jpg	0.0	187.57218562557	0.3749521936006204
197.0	98.70551861680042	pulse	0.0	t		object	car-111.jpg	0.0	187.7472565088392	
197.0	98.90539992713184	ISI	1.0		8.0	object	car-111.jpg	0.0	187.94713781917062	0.116703155992127
198.0	99.02210308312397	car	0.0		46.0	object	car-111.jpg	1.0	188.06384097516275	0.3832743557568392
198.0	99.4053774388808	ISI	1.0		6.0	object	car-111.jpg	1.0	188.4471153309196	0.11667930939074722
198.0	99.4512275113716	pulse	1.0	t		object	car-111.jpg	1.0	188.49296540341038	
199.0	99.52205674827155	car	0.0		46.0	object	car-104.jpg	0.0	188.56379464031033	0.38329216524425647
199.0	99.61379522892912	response	0.0	b		object	car-104.jpg	0.0	188.6555331209679	
199.0	99.90534891351581	ISI	1.0		6.0	object	car-104.jpg	0.0	188.9470868055546	0.11672881372805932
200.0	100.02207772724387	car	0.0		46.0	object	car-58.jpg	0.0	189.06381561928265	0.38326650750832414
200.0	100.10545933233743	pulse	0.0	t		object	car-58.jpg	0.0	189.1471972243762	
200.0	100.40534423475219	ISI	1.0		7.0	object	car-58.jpg	0.0	189.44708212679097	0.11669530774315717
201.0	100.52203954249535	car	0.0		46.0	object	car-11.jpg	0.0	189.56377743453413	0.383293976378809
201.0	100.80545942289427	pulse	0.0	t		object	car-11.jpg	0.0	189.84719731493306	
201.0	100.90533351887416	ISI	1.0		5.0	object	car-11.jpg	0.0	189.94707141091294	0.11669923186764208
202.0	101.0220327507418	car	0.0		46.0	object	car-35.jpg	0.0	190.06377064278058	0.38329307081130537
202.0	101.4053258215531	ISI	1.0		4.0	object	car-35.jpg	0.0	190.4470637135919	0.11669017619624356
203.0	101.52201599774935	car	0.0		45.0	object	car-123.jpg	0.0	190.56375388978813	0.3833081635975759
203.0	101.51364433125536	pulse	0.0	t		object	car-123.jpg	0.0	190.55538222329415	
203.0	101.90532416134693	ISI	1.0		6.0	object	car-123.jpg	0.0	190.9470620533857	0.11668866691752555
204.0	102.02201282826445	body	0.0		46.0	body	body-8.jpg	0.0	191.06375072030323	0.3832900522543241
204.0	102.2054197590528	pulse	0.0	t		body	body-8.jpg	0.0	191.24715765109158	
204.0	102.40530288051878	ISI	1.0		6.0	body	body-8.jpg	0.0	191.44704077255756	0.1167025522804579
205.0	102.52200543279923	body	0.0		46.0	body	body-73.jpg	0.0	191.56374332483801	0.38327646874677157
205.0	102.905281901546	ISI	1.0		6.0	body	body-73.jpg	0.0	191.9470197935848	0.11671643764384498
205.0	102.94876451963728	pulse	1.0	t		body	body-73.jpg	0.0	191.99050241167606	
206.0	103.02199833918985	body	0.0		46.0	body	body-42.jpg	0.0	192.06373623122863	0.38329276895592557
206.0	103.40529110814578	ISI	1.0		6.0	body	body-42.jpg	0.0	192.44702900018456	0.11669530774315717
207.0	103.52198641588893	body	0.0		46.0	body	body-1.jpg	0.0	192.5637243079277	0.38329729679162483
207.0	103.60540665851477	pulse	0.0	t		body	body-1.jpg	0.0	192.64714455055355	
207.0	103.90528371268056	ISI	1.0		8.0	body	body-1.jpg	0.0	192.94702160471934	0.11669530774315717
208.0	104.02197902042371	body	0.0		46.0	body	body-1.jpg	1.0	193.0637169124625	0.383293976378809
208.0	104.3053868265938	pulse	0.0	t		body	body-1.jpg	1.0	193.34712471863259	
208.0	104.40527299680252	ISI	1.0		5.0	body	body-1.jpg	1.0	193.4470108888413	0.11669440217610827
209.0	104.52196739897863	body	0.0		45.0	body	body-11.jpg	0.0	193.5637052910174	0.3832957875129068
209.0	104.5154886696946	response	0.0	b		body	body-11.jpg	0.0	193.5572265617334	
209.0	104.90526318649154	ISI	1.0		6.0	body	body-11.jpg	0.0	193.94700107853032	0.11669379846489392
210.0	105.02195698495643	body	0.0		45.0	body	body-78.jpg	0.0	194.0636948769952	0.3833283879303053
210.0	105.01363120053156	pulse	0.0	t		body	body-78.jpg	0.0	194.05536909257034	
210.0	105.40528537288674	ISI	1.0		6.0	body	body-78.jpg	0.0	194.44702326492552	0.1167070801166119
211.0	105.52199245300335	body	0.0		46.0	body	body-74.jpg	0.0	194.56373034504213	0.38325322585660615
211.0	105.70537795203563	pulse	0.0	t		body	body-74.jpg	0.0	194.74711584407441	
211.0	105.90524567885996	ISI	1.0		6.0	body	body-74.jpg	0.0	194.94698357089874	0.11670375970334135
212.0	106.0219494385633	body	0.0		46.0	body	body-13.jpg	0.0	195.06368733060208	0.38328552441862485
212.0	106.40523496298192	ISI	1.0		5.0	body	body-13.jpg	0.0	195.4469728550207	0.11670194856924354
212.0	106.45941474402161	pulse	1.0	t		body	body-13.jpg	0.0	195.5011526360604	
213.0	106.52193691155117	body	0.0		46.0	body	body-137.jpg	0.0	195.56367480358995	0.3832945800900234
213.0	106.90523149164119	ISI	1.0		4.0	body	body-137.jpg	0.0	195.94696938367997	0.10836771218419017
214.0	107.01359920382538	body	0.0		47.0	body	body-65.jpg	0.0	196.05533709586416	0.3916206663707271
214.0	107.10536062551773	pulse	0.0	t		body	body-65.jpg	0.0	196.14709851755651	
214.0	107.4052198701961	ISI	1.0		4.0	body	body-65.jpg	0.0	196.4469577622349	0.10836408991553981
215.0	107.51358396011165	body	0.0		47.0	body	body-47.jpg	0.0	196.55532185215043	0.3916267034851444
215.0	107.80534230287549	pulse	0.0	t		body	body-47.jpg	0.0	196.84708019491427	
215.0	107.90521066359679	ISI	1.0		5.0	body	body-47.jpg	0.0	196.94694855563557	0.10834778970638581
216.0	108.01355845330318	house	0.0		47.0	place	house-83.jpg	0.0	197.05529634534196	0.3916433055496782
216.0	108.40520175885285	ISI	1.0		5.0	place	house-83.jpg	0.0	197.44693965089164	0.10833088578647221
217.0	108.51353264463933	house	0.0		46.0	place	house-112.jpg	0.0	197.5552705366781	0.3916617187483098
217.0	108.50890821503344	pulse	0.0	t		place	house-112.jpg	0.0	197.55064610707223	
217.0	108.90519436338764	ISI	1.0		5.0	place	house-112.jpg	0.0	197.94693225542642	0.10835292125420892
218.0	109.01354728464185	house	0.0		47.0	place	house-103.jpg	0.0	198.05528517668063	0.3916387777135242
218.0	109.20531803367567	pulse	0.0	t		place	house-103.jpg	0.0	198.24705592571445	
218.0	109.40518606235537	ISI	1.0		5.0	place	house-103.jpg	0.0	198.44692395439415	0.10836741032881037
219.0	109.51355347268418	house	0.0		47.0	place	house-31.jpg	0.0	198.55529136472296	0.3916212700819415
219.0	109.90517474276612	ISI	1.0		1.0	place	house-31.jpg	0.0	198.9469126348049	0.10836922146290817
219.0	109.9806827433008	pulse	1.0	t		place	house-31.jpg	0.0	199.02242063533959	
220.0	110.01354396422903	house	0.0		47.0	place	house-97.jpg	0.0	199.0552818562678	0.391621571937776
220.0	110.4051655361668	ISI	1.0		5.0	place	house-97.jpg	0.0	199.4469034282056	0.11670375970334135
221.0	110.52186929587015	house	0.0		46.0	place	house-66.jpg	0.0	199.56360718790893	0.3832891466872752
221.0	110.60529617932161	pulse	0.0	t		place	house-66.jpg	0.0	199.6470340713604	
221.0	110.90515844255742	ISI	1.0		7.0	place	house-66.jpg	0.0	199.9468963345962	0.11669983557931118
222.0	111.02185827813673	house	0.0		46.0	place	house-113.jpg	0.0	200.06359617017551	0.3832912596767528
222.0	111.30528449750545	pulse	0.0	t		place	house-113.jpg	0.0	200.34702238954424	
222.0	111.40514953781349	ISI	1.0		5.0	place	house-113.jpg	0.0	200.44688742985227	0.11669893001226228
223.0	111.52184846782575	house	0.0		46.0	place	house-29.jpg	0.0	200.56358635986453	0.3833265767962075
223.0	111.90517504462196	ISI	1.0		6.0	place	house-29.jpg	0.0	200.94691293666074	0.11669681702187518
224.0	112.02187186164383	house	0.0		45.0	place	house-79.jpg	0.0	201.0636097536826	0.3832945800900234
224.0	112.01351045824413	pulse	0.0	t		place	house-79.jpg	0.0	201.0552483502829	
224.0	112.40516644173385	ISI	1.0		7.0	place	house-79.jpg	0.0	201.44690433377264	0.11669832630059318
225.0	112.52186476803445	house	0.0		46.0	place	house-37.jpg	0.0	201.56360266007323	0.3832583574039745
225.0	112.7052581153157	pulse	0.0	t		place	house-37.jpg	0.0	201.74699600735448	
225.0	112.90512312543842	ISI	1.0		7.0	place	house-37.jpg	0.0	201.9468610174772	0.11670043929052554
226.0	113.02182356472895	house	0.0		46.0	place	house-38.jpg	0.0	202.06356145676773	0.38329125967720756
226.0	113.40511482440616	ISI	1.0		7.0	place	house-38.jpg	0.0	202.44685271644494	0.11669923186764208
226.0	113.44243264316037	pulse	1.0	t		place	house-38.jpg	0.0	202.48417053519915	
227.0	113.5218140562738	house	0.0		46.0	place	house-3.jpg	0.0	202.56355194831258	0.38329216524425647
227.0	113.90510622151805	ISI	1.0		4.0	place	house-3.jpg	0.0	202.94684411355684	0.11669440217610827
228.0	114.02180062369416	adult	0.0		46.0	face	adult-20.jpg	0.0	203.06353851573294	0.3832969949357903
228.0	114.10521724405135	pulse	0.0	t		face	adult-20.jpg	0.0	203.14695513609013	
228.0	114.40509761862995	ISI	1.0		6.0	face	adult-20.jpg	0.0	203.44683551066873	0.11667870567907812
229.0	114.52177632430903	adult	0.0		46.0	face	adult-129.jpg	0.0	203.5635142163478	0.3833117858657715
229.0	114.80520526037935	pulse	0.0	t		face	adult-129.jpg	0.0	203.84694315241813	
229.0	114.9050881101748	ISI	1.0		6.0	face	adult-129.jpg	0.0	203.94682600221358	0.11670587269372845
230.0	115.02179398286853	adult	0.0		46.0	face	adult-120.jpg	0.0	204.0635318749073	0.38328884483144066
230.0	115.40508282769997	ISI	1.0		6.0	face	adult-120.jpg	0.0	204.44682071973875	0.11669168547450681
231.0	115.52177451317448	adult	0.0		45.0	face	adult-57.jpg	0.0	204.56351240521326	0.38329125967720756
231.0	115.51134237954693	pulse	0.0	t		face	adult-57.jpg	0.0	204.5530802715857	
231.0	115.90506577285169	ISI	1.0		7.0	face	adult-57.jpg	0.0	204.94680366489047	0.11670768382782626
232.0	116.02177345667951	adult	0.0		46.0	face	adult-131.jpg	0.0	205.0635113487183	0.38328944854310976
232.0	116.20518914128388	pulse	0.0	t		face	adult-131.jpg	0.0	205.24692703332266	
232.0	116.40506290522262	ISI	1.0		6.0	face	adult-131.jpg	0.0	205.4468007972614	0.11669893001180753
233.0	116.52176183523443	adult	0.0		46.0	face	adult-75.jpg	0.0	205.5634997272732	0.38329216524425647
233.0	116.90505400047869	ISI	1.0		7.0	face	adult-75.jpg	0.0	205.94679189251747	0.11668504464887519
233.0	116.9404942766646	pulse	1.0	t		face	adult-75.jpg	0.0	205.98223216870338	
234.0	117.02173904512756	adult	0.0		46.0	face	adult-69.jpg	0.0	206.06347693716634	0.38330544689597446
234.0	117.40504449202353	ISI	1.0		4.0	face	adult-69.jpg	0.0	206.44678238406232	0.11669983557931118
235.0	117.52174432760285	adult	0.0		46.0	face	adult-23.jpg	0.0	206.56348221964163	0.383292467100091
235.0	117.60524426013808	pulse	0.0	t		face	adult-23.jpg	0.0	206.64698215217686	
235.0	117.90503679470294	ISI	1.0		5.0	face	adult-23.jpg	0.0	206.94677468674172	0.11669923186764208
236.0	118.02173602657058	adult	0.0		46.0	face	adult-139.jpg	0.0	207.06347391860936	0.38328975039848956
236.0	118.30514232346195	pulse	0.0	t		face	adult-139.jpg	0.0	207.34688021550073	
236.0	118.40502577696907	ISI	1.0		7.0	face	adult-139.jpg	0.0	207.44676366900785	0.116688365061691
237.0	118.52171414203076	adult	0.0		46.0	face	adult-93.jpg	0.0	207.56345203406954	0.38333533061222624
237.0	118.90504947264299	ISI	1.0		5.0	face	adult-93.jpg	0.0	207.94678736468177	0.11668383722599174
238.0	119.02173330986898	adult	0.0		45.0	face	adult-16.jpg	0.0	208.06347120190776	0.3833033339060421
238.0	119.01145783935908	pulse	0.0	t		face	adult-16.jpg	0.0	208.05319573139786	
238.0	119.40503664377502	ISI	1.0		7.0	face	adult-16.jpg	0.0	208.4467745358138	0.11670768382782626
239.0	119.52174432760285	adult	0.0		46.0	face	adult-37.jpg	0.0	208.56348221964163	0.3832945800900234
239.0	119.69699904100435	pulse	0.0	t		face	adult-37.jpg	0.0	208.73873693304313	
239.0	119.90503890769287	ISI	1.0		7.0	face	adult-37.jpg	0.0	208.94677679973165	0.11669530774315717
240.0	120.02173421543603	adult	0.0		46.0	face	adult-133.jpg	0.0	209.0634721074748	0.38329971163739174
240.0	120.40503392707342	ISI	1.0		7.0	face	adult-133.jpg	0.0	209.4467718191122	0.11668927062919465
240.0	120.44460479690997	pulse	1.0	t		face	adult-133.jpg	0.0	209.48634268894875	
241.0	120.52172319770261	adult	0.0		46.0	face	adult-12.jpg	0.0	209.5634610897414	0.3832918633884219
241.0	120.90501506109104	ISI	1.0		7.0	face	adult-12.jpg	0.0	209.94675295312982	0.11670074114636009
242.0	121.0217158022374	adult	0.0		46.0	face	adult-40.jpg	0.0	210.06345369427618	0.38325986668223777
242.0	121.09693100272534	pulse	0.0	t		face	adult-40.jpg	0.0	210.13866889476412	
242.0	121.40497566891963	ISI	1.0		7.0	face	adult-40.jpg	0.0	210.44671356095841	0.11669138361912701
243.0	121.52166705253876	adult	0.0		46.0	face	adult-26.jpg	0.0	210.56340494457754	0.3832985042145083
243.0	121.80507938654455	pulse	0.0	t		face	adult-26.jpg	0.0	210.84681727858333	
243.0	121.90496555675327	ISI	1.0		7.0	face	adult-26.jpg	0.0	210.94670344879205	0.11669953372347663
244.0	122.02166509047674	adult	0.0		46.0	face	adult-100.jpg	0.0	211.06340298251553	0.3832918633884219
244.0	122.40495695386517	ISI	1.0		4.0	face	adult-100.jpg	0.0	211.44669484590395	0.11669289289784501
245.0	122.52164984676301	adult	0.0		45.0	face	adult-14.jpg	0.0	211.5633877388018	0.38329759864700463
245.0	122.51148183688883	pulse	0.0	t		face	adult-14.jpg	0.0	211.55321972892762	
245.0	122.90494744541002	ISI	1.0		7.0	face	adult-14.jpg	0.0	211.9466853374488	0.11670013743514573
246.0	123.02164758284516	adult	0.0		46.0	face	adult-135.jpg	0.0	212.06338547488394	0.38329307081130537
246.0	123.1968736199533	pulse	0.0	t		face	adult-135.jpg	0.0	212.23861151199208	
246.0	123.40494065365647	ISI	1.0		6.0	face	adult-135.jpg	0.0	212.44667854569525	0.11670013743514573
247.0	123.52164079109161	adult	0.0		46.0	face	adult-124.jpg	0.0	212.5633786831304	0.3832948819454032
247.0	123.90493567303702	ISI	1.0		7.0	face	adult-124.jpg	0.0	212.9466735650758	0.11669259104201046
247.0	123.94322003380194	pulse	1.0	t		face	adult-124.jpg	0.0	212.98495792584072	
248.0	124.02162826407903	adult	0.0		46.0	face	adult-22.jpg	0.0	213.0633661561178	0.38329307081130537
248.0	124.40492133489033	ISI	1.0		6.0	face	adult-22.jpg	0.0	213.4466592269291	0.1166886669179803
249.0	124.52161000180831	adult	0.0		46.0	face	adult-51.jpg	0.0	213.5633478938471	0.38330333390558735
249.0	124.59703589758783	pulse	0.0	t		face	adult-51.jpg	0.0	213.6387737896266	
249.0	124.9049133357139	ISI	1.0		6.0	face	adult-51.jpg	0.0	213.94665122775268	0.1166874594946421
250.0	125.02160079520854	adult	0.0		46.0	face	adult-80.jpg	0.0	214.06333868724732	0.38330393761725645
250.0	125.29687026935471	pulse	0.0	t		face	adult-80.jpg	0.0	214.3386081613935	
250.0	125.4049047328258	ISI	1.0		2.0	face	adult-80.jpg	0.0	214.44664262486458	0.11669742073354428
251.0	125.52160215355934	adult	0.0		46.0	face	adult-116.jpg	0.0	214.56334004559812	0.38330212648315864
251.0	125.9049042800425	ISI	1.0		6.0	face	adult-116.jpg	0.0	214.94664217208128	0.11668776135047665
252.0	126.02159204139298	body	0.0		45.0	body	body-133.jpg	0.0	215.06332993343176	0.3832951838012377
252.0	126.01145995234901	pulse	0.0	t		body	body-133.jpg	0.0	215.0531978443878	
252.0	126.40488722519422	ISI	1.0		6.0	body	body-133.jpg	0.0	215.446625117233	0.11668504464932994
253.0	126.52157226984355	body	0.0		46.0	body	body-21.jpg	0.0	215.56331016188233	0.3833069561742377
253.0	126.69680041994161	pulse	0.0	t		body	body-21.jpg	0.0	215.7385383119804	
253.0	126.90487922601778	ISI	1.0		6.0	body	body-21.jpg	0.0	215.94661711805657	0.1167055708378939
254.0	127.02158479685568	body	0.0		46.0	body	body-79.jpg	0.0	216.06332268889446	0.38331812483602334
254.0	127.4049029216917	ISI	1.0		5.0	body	body-79.jpg	0.0	216.44664081373048	0.11670013743469099
254.0	127.4592538549241	pulse	1.0	t		body	body-79.jpg	0.0	216.50099174696288	
255.0	127.52160305912639	body	0.0		46.0	body	body-31.jpg	0.0	216.56334095116517	0.38328944854310976
255.0	127.9048925076695	ISI	1.0		6.0	body	body-31.jpg	0.0	216.94663039970828	0.1167058726932737
256.0	128.02159838036278	body	0.0		46.0	body	body-52.jpg	0.0	217.06333627240156	0.38328461885157594
256.0	128.09697114953588	pulse	0.0	t		body	body-52.jpg	0.0	217.13870904157466	
256.0	128.40488299921435	ISI	1.0		5.0	body	body-52.jpg	0.0	217.44662089125313	0.11672096547954425
257.0	128.5216039646939	body	0.0		46.0	body	body-41.jpg	0.0	217.56334185673268	0.3832719409110723
257.0	128.79679103222907	pulse	0.0	t		body	body-41.jpg	0.0	217.83852892426785	
257.0	128.90487590560497	ISI	1.0		5.0	body	body-41.jpg	0.0	217.94661379764375	0.11668957248457446
258.0	129.02156547808954	body	0.0		46.0	body	body-99.jpg	0.0	218.06330337012832	0.38330393761725645
258.0	129.4048694157068	ISI	1.0		6.0	body	body-99.jpg	0.0	218.44660730774558	0.11669500588777737
259.0	129.52156442159458	body	0.0		45.0	body	body-43.jpg	0.0	218.56330231363336	0.3832918633884219
259.0	129.51211875245463	pulse	0.0	t		body	body-43.jpg	0.0	218.5538566444934	
259.0	129.904856284983	ISI	1.0		6.0	body	body-43.jpg	0.0	218.94659417702178	0.11670285413674719
260.0	130.02155913911974	body	0.0		46.0	body	body-18.jpg	0.0	219.06329703115853	0.38329005225386936
260.0	130.19679242076518	pulse	0.0	t		body	body-18.jpg	0.0	219.23853031280396	
260.0	130.40484919137361	ISI	1.0		6.0	body	body-18.jpg	0.0	219.4465870834124	0.11670677826077736
261.0	130.5215559696344	body	0.0		46.0	body	body-81.jpg	0.0	219.56329386167317	0.3832867318415083
261.0	130.9048427014759	ISI	1.0		4.0	body	body-81.jpg	0.0	219.94658059351468	0.11668112052484503
261.0	130.96563312274884	pulse	1.0	t		body	body-81.jpg	0.0	220.00737101478762	
262.0	131.02152382200074	body	0.0		46.0	body	body-4.jpg	0.0	220.06326171403953	0.38330876730879027
262.0	131.40483258930954	ISI	1.0		6.0	body	body-4.jpg	0.0	220.44657048134832	0.11667840382278882
263.0	131.52151099313232	body	0.0		46.0	body	body-130.jpg	0.0	220.5632488851711	0.3833114840103917
263.0	131.5967421919736	pulse	0.0	t		body	body-130.jpg	0.0	220.63848008401237	
263.0	131.90482247714272	ISI	1.0		4.0	body	body-130.jpg	0.0	220.9465603691815	0.11668595021637884
264.0	132.0215084273591	word	0.0		46.0	character	word-1.jpg	0.0	221.06324631939788	0.38330423947263625
264.0	132.2967700532563	pulse	0.0	t		character	word-1.jpg	0.0	221.33850794529508	
264.0	132.40481266683173	ISI	1.0		3.0	character	word-1.jpg	0.0	221.4465505588705	0.116703155992127
265.0	132.52151582282386	word	0.0		46.0	character	word-131.jpg	0.0	221.56325371486264	0.3832891466872752
265.0	132.90480496951113	ISI	1.0		7.0	character	word-131.jpg	0.0	221.94654286154991	0.11669772258892408
266.0	133.02150269210006	word	0.0		45.0	character	word-10.jpg	0.0	222.06324058413884	0.38329276895592557
266.0	133.0119456381999	pulse	0.0	t		character	word-10.jpg	0.0	222.0536835302387	
266.0	133.40479546105598	ISI	1.0		6.0	character	word-10.jpg	0.0	222.44653335309476	0.11670375970334135
267.0	133.52149922075932	word	0.0		46.0	character	word-112.jpg	0.0	222.5632371127981	0.3832867318415083
267.0	133.69670654281344	pulse	0.0	t		character	word-112.jpg	0.0	222.73844443485223	
267.0	133.90478595260083	ISI	1.0		6.0	character	word-112.jpg	0.0	222.94652384463961	0.1167025522804579
268.0	134.0214885048813	word	0.0		46.0	character	word-143.jpg	0.0	223.06322639692007	0.38329035411015866
268.0	134.40477885899145	ISI	1.0		7.0	character	word-143.jpg	0.0	223.44651675103023	0.11670828753949536
268.0	134.4423188435544	pulse	1.0	t		character	word-143.jpg	0.0	223.48405673559319	
269.0	134.52148714653094	word	0.0		46.0	character	word-26.jpg	0.0	223.56322503856973	0.3832855244181701
269.0	134.90477267094911	ISI	1.0		2.0	character	word-26.jpg	0.0	223.9465105629879	0.11668262980310828
270.0	135.02145530075222	word	0.0		46.0	character	word-97.jpg	0.0	224.063193192791	0.38330846545341046
270.0	135.09669766825527	pulse	0.0	t		character	word-97.jpg	0.0	224.13843556029406	
270.0	135.40476376620563	ISI	1.0		6.0	character	word-97.jpg	0.0	224.44650165824442	0.11670043929052554
271.0	135.52146420549616	word	0.0		46.0	character	word-60.jpg	0.0	224.56320209753494	0.3832876374085572
271.0	135.79667210107573	pulse	0.0	t		character	word-60.jpg	0.0	224.8384099931145	
271.0	135.90475184290472	ISI	1.0		4.0	character	word-60.jpg	0.0	224.9464897349435	0.1167064764049428
272.0	136.02145831930966	word	0.0		46.0	character	word-137.jpg	0.0	225.06319621134844	0.38329065596553846
272.0	136.4047489752752	ISI	1.0		7.0	character	word-137.jpg	0.0	225.44648686731398	0.12502773299411274
272.0	136.49664140234927	pulse	1.0	t		character	word-137.jpg	0.0	225.53837929438805	
273.0	136.5297767082693	word	0.0		45.0	character	word-137.jpg	1.0	225.5715146003081	0.3749458546308233
273.0	136.90472256290013	ISI	1.0		5.0	character	word-137.jpg	1.0	225.94646045493892	0.11670013743469099
274.0	137.02142270033482	word	0.0		46.0	character	word-22.jpg	0.0	226.0631605923736	0.38330303205020755
274.0	137.0465911282795	response	0.0	b		character	word-22.jpg	0.0	226.08832902031827	
274.0	137.19653342855872	pulse	0.0	t		character	word-22.jpg	0.0	226.2382713205975	
274.0	137.40472573238503	ISI	1.0		6.0	character	word-22.jpg	0.0	226.4464636244238	0.11670375970334135
275.0	137.52142949208837	word	0.0		46.0	character	word-128.jpg	0.0	226.56316738412715	0.3833096728762939
275.0	137.90473916496467	ISI	1.0		3.0	character	word-128.jpg	0.0	226.94647705700345	0.1166693481513903
275.0	137.89653502839428	pulse	1.0	t		character	word-128.jpg	0.0	226.93827292043306	
276.0	138.02140851311606	house	0.0		46.0	place	house-7.jpg	0.0	227.06314640515484	0.38330001349277154
276.0	138.40470852660883	ISI	1.0		6.0	place	house-7.jpg	0.0	227.4464464186476	0.11670285413674719
277.0	138.52141138074558	house	0.0		46.0	place	house-140.jpg	0.0	227.56314927278436	0.383289448542655
277.0	138.59662386453192	pulse	0.0	t		place	house-140.jpg	0.0	227.6383617565707	
277.0	138.90470082928823	ISI	1.0		6.0	place	house-140.jpg	0.0	227.946438721327	0.11670225042507809
278.0	139.0214030797133	house	0.0		46.0	place	house-13.jpg	0.0	228.0631409717521	0.3832870336968881
278.0	139.2966103715812	pulse	0.0	t		place	house-13.jpg	0.0	228.33834826362	
278.0	139.4046901134102	ISI	1.0		7.0	place	house-13.jpg	0.0	228.44642800544898	0.1167049671262248
279.0	139.52139508053642	house	0.0		46.0	place	house-70.jpg	0.0	228.5631329725752	0.3832867318415083
279.0	139.90468181237793	ISI	1.0		7.0	place	house-70.jpg	0.0	228.9464197044167	0.12502682742706384
279.0	139.9965688060488	pulse	1.0	t		place	house-70.jpg	0.0	229.03830669808758	
280.0	140.029708639805	house	0.0		45.0	place	house-70.jpg	1.0	229.07144653184378	0.37496638081938727
280.0	140.40467502062438	ISI	1.0		4.0	place	house-70.jpg	1.0	229.44641291266316	0.11669893001180753
281.0	140.5213739506362	house	0.0		46.0	place	house-85.jpg	0.0	229.56311184267497	0.3832800910158767
281.0	140.69659123392876	pulse	0.0	t		place	house-85.jpg	0.0	229.73832912596754	
281.0	140.84644237378143	response	0.0	b		place	house-85.jpg	0.0	229.8881802658202	
281.0	140.90465404165207	ISI	1.0		6.0	place	house-85.jpg	0.0	229.94639193369085	0.11668172423605938
282.0	141.02133576588813	house	0.0		46.0	place	house-25.jpg	0.0	230.0630736579269	0.3833211433930046
282.0	141.40465690928113	ISI	1.0		7.0	place	house-25.jpg	0.0	230.4463948013199	0.11668504464887519
282.0	141.39649684364576	pulse	1.0	t		place	house-25.jpg	0.0	230.43823473568455	
283.0	141.52134195393	house	0.0		46.0	place	house-143.jpg	0.0	230.5630798459688	0.3833051450401399
283.0	141.90464709897014	ISI	1.0		5.0	place	house-143.jpg	0.0	230.94638499100893	0.11670074114636009
284.0	142.0213478401165	house	0.0		46.0	place	house-99.jpg	0.0	231.0630857321553	0.38329186338887666
284.0	142.0965720962763	pulse	0.0	t		place	house-99.jpg	0.0	231.1383099883151	
284.0	142.40463970350538	ISI	1.0		6.0	place	house-99.jpg	0.0	231.44637759554416	0.11670617454910825
285.0	142.5213458780545	house	0.0		46.0	place	house-121.jpg	0.0	231.56308377009327	0.38325322585660615
285.0	142.7965130231123	pulse	0.0	t		place	house-121.jpg	0.0	231.8382509151511	
285.0	142.9045991039111	ISI	1.0		6.0	place	house-121.jpg	0.0	231.94633699594988	0.11669893001226228
286.0	143.02129803392336	house	0.0		46.0	place	house-24.jpg	0.0	232.06303592596214	0.38329156153258737
286.0	143.40458959545595	ISI	1.0		7.0	place	house-24.jpg	0.0	232.44632748749473	0.11669651516649537
287.0	143.52128611062244	house	0.0		45.0	place	house-81.jpg	0.0	232.56302400266122	0.38329759864700463
287.0	143.51155911195247	pulse	0.0	t		place	house-81.jpg	0.0	232.55329700399125	
287.0	143.90458370926945	ISI	1.0		5.0	place	house-81.jpg	0.0	232.94632160130823	0.11669832630059318
288.0	144.02128203557004	body	0.0		46.0	body	body-134.jpg	0.0	233.06301992760882	0.38328975039848956
288.0	144.19642023266442	pulse	0.0	t		body	body-134.jpg	0.0	233.2381581247032	
288.0	144.40457178596853	ISI	1.0		7.0	body	body-134.jpg	0.0	233.4463096780073	0.11669832630059318
289.0	144.52127011226912	body	0.0		46.0	body	body-134.jpg	1.0	233.5630080043079	0.3832942782341888
289.0	144.9045643905033	ISI	1.0		6.0	body	body-134.jpg	1.0	233.9463022825421	0.11671009867359317
289.0	144.89637655414208	pulse	1.0	t		body	body-134.jpg	1.0	233.93811444618086	
290.0	145.0212744891769	body	0.0		46.0	body	body-17.jpg	0.0	234.06301238121569	0.3832791854488278
290.0	145.09634238407443	response	0.0	b		body	body-17.jpg	0.0	234.13808027611321	
290.0	145.40455367462573	ISI	1.0		5.0	body	body-17.jpg	0.0	234.4462915666645	0.11669893001180753
291.0	145.52125260463754	body	0.0		46.0	body	body-89.jpg	0.0	234.56299049667632	0.38329367452297447
291.0	145.59646961626004	pulse	0.0	t		body	body-89.jpg	0.0	234.63820750829882	
291.0	145.9045462791605	ISI	1.0		5.0	body	body-89.jpg	0.0	234.9462841711993	0.11669711887770973
292.0	146.02124339803822	body	0.0		46.0	body	body-95.jpg	0.0	235.062981290077	0.3832918633884219
292.0	146.29645551959766	pulse	0.0	t		body	body-95.jpg	0.0	235.33819341163644	
292.0	146.40453526142664	ISI	1.0		6.0	body	body-95.jpg	0.0	235.44627315346543	0.11669802444475863
293.0	146.5212332858714	body	0.0		46.0	body	body-30.jpg	0.0	235.56297117791019	0.3832945800900234
293.0	146.90452786596143	ISI	1.0		5.0	body	body-30.jpg	0.0	235.9462657580002	0.11669591145482627
294.0	147.02122377741625	body	0.0		45.0	body	body-112.jpg	0.0	236.06296166945504	0.3832951838016925
294.0	147.01150915483095	pulse	0.0	t		body	body-112.jpg	0.0	236.05324704686973	
294.0	147.40451896121795	ISI	1.0		6.0	body	body-112.jpg	0.0	236.44625685325673	0.11669953372347663
295.0	147.52121849494142	body	0.0		46.0	body	body-62.jpg	0.0	236.5629563869802	0.3832927689554708
295.0	147.69643215596534	pulse	0.0	t		body	body-62.jpg	0.0	236.73817004800412	
295.0	147.9045112638969	ISI	1.0		6.0	body	body-62.jpg	0.0	236.94624915593567	0.11669319475367956
296.0	148.02120445865057	body	0.0		46.0	body	body-126.jpg	0.0	237.06294235068935	0.3832994097815572
296.0	148.3963151265034	pulse	0.0	t		body	body-126.jpg	0.0	237.43805301854218	
296.0	148.40450386843213	ISI	1.0		6.0	body	body-126.jpg	0.0	237.4462417604709	0.1166732722758752
297.0	148.521177140708	body	0.0		46.0	body	body-7.jpg	0.0	237.5629150327468	0.3833495178305384
297.0	148.90452665853854	ISI	1.0		6.0	body	body-7.jpg	0.0	237.94626455057733	0.11668112052484503
298.0	149.0212077790634	body	0.0		46.0	body	body-6.jpg	0.0	238.06294567110217	0.38326982792113995
298.0	149.09627295725932	pulse	0.0	t		body	body-6.jpg	0.0	238.1380108492981	
298.0	149.40447760698453	ISI	1.0		6.0	body	body-6.jpg	0.0	238.4462154990233	0.1166904780520781
299.0	149.5211680850366	body	0.0		46.0	body	body-80.jpg	0.0	238.5629059770754	0.38330725803007226
299.0	149.7963925826807	pulse	0.0	t		body	body-80.jpg	0.0	238.8381304747195	
299.0	149.90447534306668	ISI	1.0		11.0	body	body-80.jpg	0.0	238.94621323510546	0.09999996981423465
300.0	150.0044753128809	baseline	0.0		48.0		baseline	0.0	239.0462132049197	0.3999929365763819
300.0	150.4044682494573	ISI	1.0		11.0		baseline	0.0	239.44620614149608	0.09999755496846774
301.0	150.50446580442576	baseline	0.0		47.0		baseline	0.0	239.54620369646454	0.3999929365763819
301.0	150.50882278986546	pulse	0.0	t			baseline	0.0	239.55056068190424	
301.0	150.90445874100214	ISI	1.0		11.0		baseline	0.0	239.94619663304093	0.10000057352590375
302.0	151.00445931452805	baseline	0.0		48.0		baseline	0.0	240.04619720656683	0.3999893143072768
302.0	151.20456429994692	pulse	0.0	t			baseline	0.0	240.2463021919857	
302.0	151.40444862883533	ISI	1.0		11.0		baseline	0.0	240.4461865208741	0.09999936610302029
303.0	151.50444799493835	baseline	0.0		48.0		baseline	0.0	240.54618588697713	0.39999414399926536
303.0	151.9044421389376	ISI	1.0		11.0		baseline	0.0	240.9461800309764	0.10002049600325336
303.0	151.90916044567166	pulse	1.0	t			baseline	0.0	240.95089833771044	
304.0	152.00446263494086	baseline	0.0		48.0		baseline	0.0	241.04620052697965	0.3999693918299272
304.0	152.4044320267708	ISI	1.0		11.0		baseline	0.0	241.44616991880957	0.09999936610302029
305.0	152.5044313928738	baseline	0.0		48.0		baseline	0.0	241.5461692849126	0.3999929365763819
305.0	152.59623507436663	pulse	0.0	t			baseline	0.0	241.6379729664054	
305.0	152.9044243294502	ISI	1.0		11.0		baseline	0.0	241.94616222148898	0.10000510136160301
306.0	153.0044294308118	baseline	0.0		48.0		baseline	0.0	242.04616732285058	0.39998780502901354
306.0	153.2962049793514	pulse	0.0	t			baseline	0.0	242.33794287139017	
306.0	153.4044172358408	ISI	1.0		11.0		baseline	0.0	242.4461551278796	0.09999725311308794
307.0	153.5044144889539	baseline	0.0		48.0		baseline	0.0	242.54615238099268	0.3999923328647128
307.0	153.9044068218186	ISI	1.0		11.0		baseline	0.0	242.9461447138574	0.10000298837167065
307.0	153.99621442743546	pulse	1.0	t			baseline	0.0	243.03795231947424	
308.0	154.00440981019028	baseline	0.0		48.0		baseline	0.0	243.04614770222906	0.3999835790486941
308.0	154.40439338923898	ISI	1.0		11.0		baseline	0.0	243.44613128127776	0.1000026865158361
309.0	154.5043960757548	baseline	0.0		48.0		baseline	0.0	243.5461339677936	0.40000923678508116
309.0	154.70450740014394	pulse	0.0	t			baseline	0.0	243.74624529218272	
309.0	154.9044053125399	ISI	1.0		11.0		baseline	0.0	243.94614320457868	0.09999272527738867
310.0	155.00439803781728	baseline	0.0		48.0		baseline	0.0	244.04613592985606	0.4000548169983631
310.0	155.39625324608096	pulse	0.0	t			baseline	0.0	244.43799113811974	
310.0	155.40445285481564	ISI	1.0		11.0		baseline	0.0	244.44619074685443	0.1000017809487872
311.0	155.50445463576443	baseline	0.0		48.0		baseline	0.0	244.5461925278032	0.399984484615743
311.0	155.90443912038018	ISI	1.0		6.0		baseline	0.0	244.94617701241896	0.11666572588319468
312.0	156.02110484626337	house	0.0		46.0	place	house-128.jpg	0.0	245.06284273830215	0.38325745183647086
312.0	156.1044764901185	pulse	0.0	t		place	house-128.jpg	0.0	245.14621438215727	
312.0	156.40436229809984	ISI	1.0		4.0	place	house-128.jpg	0.0	245.44610019013862	0.11669772258937883
313.0	156.52106002068922	house	0.0		46.0	place	house-105.jpg	0.0	245.562797912728	0.383292467100091
313.0	156.79614143872277	pulse	0.0	t		place	house-105.jpg	0.0	245.83787933076155	
313.0	156.9043524877893	ISI	1.0		6.0	place	house-105.jpg	0.0	245.9460903798281	0.11670104300173989
314.0	157.02105353079105	house	0.0		46.0	place	house-86.jpg	0.0	246.06279142282983	0.3832897503989443
314.0	157.40434328119	ISI	1.0		6.0	place	house-86.jpg	0.0	246.44608117322878	0.11669560959899172
315.0	157.521038890789	house	0.0		45.0	place	house-32.jpg	0.0	246.56277678282777	0.38329669307995573
315.0	157.51282267998977	pulse	0.0	t		place	house-32.jpg	0.0	246.55456057202855	
315.0	157.90433558386894	ISI	1.0		7.0	place	house-32.jpg	0.0	246.94607347590772	0.11670074114636009
316.0	158.0210363250153	house	0.0		46.0	place	house-95.jpg	0.0	247.06277421705408	0.38328975039848956
316.0	158.20443993539084	pulse	0.0	t		place	house-95.jpg	0.0	247.24617782742962	
316.0	158.4043260754138	ISI	1.0		7.0	place	house-95.jpg	0.0	247.44606396745257	0.11670013743514573
317.0	158.52102621284894	house	0.0		46.0	place	house-74.jpg	0.0	247.56276410488772	0.3832939763783543
317.0	158.9043201892273	ISI	1.0		6.0	place	house-74.jpg	0.0	247.94605808126607	0.11669742073354428
317.0	158.94663402197693	pulse	1.0	t		place	house-74.jpg	0.0	247.98837191401572	
318.0	159.02101760996084	house	0.0		46.0	place	house-11.jpg	0.0	248.06275550199962	0.3832903541097039
318.0	159.40430796407054	ISI	1.0		6.0	place	house-11.jpg	0.0	248.44604585610932	0.11670043929098028
319.0	159.52100840336152	house	0.0		46.0	place	house-17.jpg	0.0	248.5627462954003	0.38329216524425647
319.0	159.60442079773838	pulse	0.0	t		place	house-17.jpg	0.0	248.64615868977717	
319.0	159.90430056860578	ISI	1.0		7.0	place	house-17.jpg	0.0	248.94603846064456	0.11670526898205935
320.0	160.02100583758784	house	0.0		46.0	place	house-88.jpg	0.0	249.06274372962662	0.3832861281298392
320.0	160.29606884242276	pulse	0.0	t		place	house-88.jpg	0.0	249.33780673446154	
320.0	160.40429196571768	ISI	1.0		6.0	place	house-88.jpg	0.0	249.44602985775646	0.11670134485757444
321.0	160.52099331057525	house	0.0		46.0	place	house-45.jpg	0.0	249.56273120261403	0.383304239473091
321.0	160.90429755004834	ISI	1.0		6.0	place	house-45.jpg	0.0	249.94603544208712	0.11667900753491267
322.0	161.02097655758325	house	0.0		45.0	place	house-139.jpg	0.0	250.06271444962204	0.3832963912241212
322.0	161.01346487803085	pulse	0.0	t		place	house-139.jpg	0.0	250.05520277006963	
322.0	161.40427294880737	ISI	1.0		7.0	place	house-139.jpg	0.0	250.44601084084616	0.116704665270845
323.0	161.52097761407822	house	0.0		46.0	place	house-39.jpg	0.0	250.562715506117	0.383287939263937
323.0	161.70438363929952	pulse	0.0	t		place	house-39.jpg	0.0	250.7461215313383	
323.0	161.90426555334216	ISI	1.0		11.0	place	house-39.jpg	0.0	250.94600344538094	0.10000298837167065
324.0	162.00426854171383	baseline	0.0		48.0		baseline	0.0	251.0460064337526	0.4000524021525962
324.0	162.40432094386642	ISI	1.0		11.0		baseline	0.0	251.4460588359052	0.1000014790934074
324.0	162.40907637885448	pulse	1.0	t			baseline	0.0	251.45081427089326	
325.0	162.50432242295983	baseline	0.0		48.0		baseline	0.0	251.5460603149986	0.39999384214297606
325.0	162.9043162651028	ISI	1.0		11.0		baseline	0.0	251.9460541571416	0.09999876239180594
326.0	163.0043150274946	baseline	0.0		48.0		baseline	0.0	252.0460529195334	0.39999203100887826
326.0	163.10442758949193	pulse	0.0	t			baseline	0.0	252.14616548153072	
326.0	163.4043070585035	ISI	1.0		11.0		baseline	0.0	252.44604495054227	0.09999846053597139
327.0	163.50430551903946	baseline	0.0		48.0		baseline	0.0	252.54604341107824	0.39999354028759626
327.0	163.80441047427257	pulse	0.0	t			baseline	0.0	252.84614836631135	
327.0	163.90429905932706	ISI	1.0		11.0		baseline	0.0	252.94603695136584	0.09999574383436993
328.0	164.00429480316143	baseline	0.0		48.0		baseline	0.0	253.0460326952002	0.39999595513336317
328.0	164.4042907582948	ISI	1.0		11.0		baseline	0.0	253.44602865033357	0.10001113847602028
329.0	164.5043018967708	baseline	0.0		47.0		baseline	0.0	253.5460397888096	0.3999790512129948
329.0	164.5086809176778	pulse	0.0	t			baseline	0.0	253.55041880971658	
329.0	164.9042809479838	ISI	1.0		11.0		baseline	0.0	253.9460188400226	0.09999695125725339
330.0	165.00427789924106	baseline	0.0		48.0		baseline	0.0	254.04601579127984	0.39999595513336317
330.0	165.20438861991852	pulse	0.0	t			baseline	0.0	254.2461265119573	
330.0	165.40427385437442	ISI	1.0		11.0		baseline	0.0	254.4460117464132	0.09999514012315558
331.0	165.50426899449758	baseline	0.0		48.0		baseline	0.0	254.54600688653636	0.39999444585464516
331.0	165.90426344035222	ISI	1.0		11.0		baseline	0.0	254.946001332391	0.09999785682430229
331.0	165.9090022732753	pulse	1.0	t			baseline	0.0	254.95074016531407	
332.0	166.00426129717653	baseline	0.0		48.0		baseline	0.0	255.0459991892153	0.39999414399926536
332.0	166.4042554411758	ISI	1.0		11.0		baseline	0.0	255.44599333321457	0.09999634754558429
333.0	166.50425178872138	baseline	0.0		48.0		baseline	0.0	255.54598968076016	0.39999414399926536
333.0	166.6043652562862	pulse	0.0	t			baseline	0.0	255.64610314832498	
333.0	166.90424593272064	ISI	1.0		11.0		baseline	0.0	255.94598382475942	0.09999755496846774
334.0	167.0042434876891	baseline	0.0		48.0		baseline	0.0	256.0459813797279	0.39999565327798337
334.0	167.30435417818126	pulse	0.0	t			baseline	0.0	256.34609207022004	
334.0	167.4042391409671	ISI	1.0		11.0		baseline	0.0	256.4459770330059	0.09999634754558429
335.0	167.50423548851268	baseline	0.0		48.0		baseline	0.0	256.54597338055146	0.39998931430773155
335.0	167.9042248028204	ISI	1.0		5.0		baseline	0.0	256.9459626948592	0.11666572588273993
336.0	168.02089052870315	adult	0.0		45.0	face	adult-47.jpg	0.0	257.06262842074193	0.3832930708117601
336.0	168.0125007508659	pulse	0.0	t		face	adult-47.jpg	0.0	257.0542386429047	
336.0	168.4041835995149	ISI	1.0		4.0	face	adult-47.jpg	0.0	257.4459214915537	0.1167040615591759
337.0	168.52088766107408	adult	0.0		46.0	face	adult-104.jpg	0.0	257.56262555311287	0.38325594255775286
337.0	168.70426018031048	pulse	0.0	t		face	adult-104.jpg	0.0	257.74599807234927	
337.0	168.90414360363184	ISI	1.0		6.0	face	adult-104.jpg	0.0	257.9458814956706	0.11670074114636009
338.0	169.0208443447782	adult	0.0		46.0	face	adult-85.jpg	0.0	258.062582236817	0.3832900522543241
338.0	169.40413439703252	ISI	1.0		5.0	face	adult-85.jpg	0.0	258.4458722890713	0.10847547467574259
338.0	169.45473115069535	pulse	1.0	t		face	adult-85.jpg	0.0	258.49646904273413	
339.0	169.51260987170826	adult	0.0		47.0	face	adult-29.jpg	0.0	258.55434776374705	0.3915201484164754
339.0	169.90413002012474	ISI	1.0		5.0	face	adult-29.jpg	0.0	258.9458679121635	0.10831941526930677
340.0	170.01244943539405	adult	0.0		47.0	face	adult-95.jpg	0.0	259.0541873274328	0.3916704725643285
340.0	170.1042395333793	pulse	0.0	t		face	adult-95.jpg	0.0	259.1459774254181	
340.0	170.40411990795837	ISI	1.0		5.0	face	adult-95.jpg	0.0	259.44585779999716	0.10832092454757003
341.0	170.51244083250594	adult	0.0		47.0	face	adult-117.jpg	0.0	259.5541787245447	0.39166443544991125
341.0	170.80422241815995	pulse	0.0	t		face	adult-117.jpg	0.0	259.84596031019873	
341.0	170.90410526795586	ISI	1.0		6.0	face	adult-117.jpg	0.0	259.94584315999464	0.11669470403194282
342.0	171.0207999719878	adult	0.0		46.0	face	adult-89.jpg	0.0	260.0625378640266	0.3832870336968881
342.0	171.4040870056847	ISI	1.0		5.0	face	adult-89.jpg	0.0	260.44582489772347	0.10835261939837437
343.0	171.51243962508306	adult	0.0		46.0	face	adult-83.jpg	0.0	260.55417751712184	0.39165205936524217
343.0	171.50757431461398	pulse	0.0	t		face	adult-83.jpg	0.0	260.54931220665276	
343.0	171.9040916844483	ISI	1.0		6.0	face	adult-83.jpg	0.0	260.9458295764871	0.10835020455260747
344.0	172.0124418890009	adult	0.0		47.0	face	adult-58.jpg	0.0	261.0541797810397	0.39164058884807673
344.0	172.20420086566173	pulse	0.0	t		face	adult-58.jpg	0.0	261.2459387577005	
344.0	172.404082477849	ISI	1.0		5.0	face	adult-58.jpg	0.0	261.44582036988777	0.10836258063727655
345.0	172.51244505848626	adult	0.0		47.0	face	adult-111.jpg	0.0	261.55418295052505	0.3916285146192422
345.0	172.9040735731055	ISI	1.0		6.0	face	adult-111.jpg	0.0	261.9458114651443	0.10832635795077294
345.0	172.94544259745635	pulse	1.0	t		face	adult-111.jpg	0.0	261.98718048949513	
346.0	173.01239993105628	adult	0.0		47.0	face	adult-78.jpg	0.0	262.05413782309506	0.3916650391611256
346.0	173.4040649702174	ISI	1.0		6.0	face	adult-78.jpg	0.0	262.4458028622562	0.11670889125070971
347.0	173.52077386146811	adult	0.0		46.0	face	adult-52.jpg	0.0	262.5625117535069	0.3832809965829256
347.0	173.604171464915	pulse	0.0	t		face	adult-52.jpg	0.0	262.6459093569538	
347.0	173.90405485805104	ISI	1.0		7.0	face	adult-52.jpg	0.0	262.9457927500898	0.11668172423605938
348.0	174.0207365822871	car	0.0		46.0	object	car-139.jpg	0.0	263.0624744743259	0.38330423947263625
348.0	174.3041540478398	pulse	0.0	t		object	car-139.jpg	0.0	263.3458919398786	
348.0	174.40404082175974	ISI	1.0		7.0	object	car-139.jpg	0.0	263.4457787137985	0.11670828753949536
349.0	174.52074910929923	car	0.0		46.0	object	car-27.jpg	0.0	263.562487001338	0.3833199359705759
349.0	174.9040690452698	ISI	1.0		6.0	object	car-27.jpg	0.0	263.9458069373086	0.11668444093720609
350.0	175.020753486207	car	0.0		45.0	object	car-116.jpg	0.0	264.0624913782458	0.38330605060764356
350.0	175.0124590947771	pulse	0.0	t		object	car-116.jpg	0.0	264.0541969868159	
350.0	175.40405953681466	ISI	1.0		6.0	object	car-116.jpg	0.0	264.44579742885344	0.11670436341501045
351.0	175.52076390022967	car	0.0		46.0	object	car-57.jpg	0.0	264.56250179226845	0.38325594255775286
351.0	175.7041294767846	pulse	0.0	t		object	car-57.jpg	0.0	264.7458673688234	
351.0	175.90401984278742	ISI	1.0		7.0	object	car-57.jpg	0.0	264.9457577348262	0.11669923186764208
352.0	176.02071907465506	car	0.0		46.0	object	car-86.jpg	0.0	265.06245696669384	0.38329367452297447
352.0	176.40401274917804	ISI	1.0		7.0	object	car-86.jpg	0.0	265.4457506412168	0.11669893001226228
352.0	176.4429231587028	pulse	1.0	t		object	car-86.jpg	0.0	265.4846610507416	
353.0	176.5207116791903	car	0.0		46.0	object	car-87.jpg	0.0	265.5624495712291	0.38329125967720756
353.0	176.9040029388675	ISI	1.0		6.0	object	car-87.jpg	0.0	265.9457408309063	0.11670013743469099
354.0	177.0207030763022	car	0.0		46.0	object	car-44.jpg	0.0	266.062440968341	0.38329035411015866
354.0	177.10412603562918	pulse	0.0	t		object	car-44.jpg	0.0	266.14586392766796	
354.0	177.40399343041236	ISI	1.0		6.0	object	car-44.jpg	0.0	266.44573132245114	0.11669802444475863
355.0	177.52069145485711	car	0.0		46.0	object	car-132.jpg	0.0	266.5624293468959	0.3832933726671399
355.0	177.8040992610272	pulse	0.0	t		object	car-132.jpg	0.0	266.845837153066	
355.0	177.90398482752425	ISI	1.0		7.0	object	car-132.jpg	0.0	266.94572271956304	0.11670194856924354
356.0	178.0206867760935	car	0.0		46.0	object	car-9.jpg	0.0	267.0624246681323	0.38329125967720756
356.0	178.4039780357707	ISI	1.0		7.0	object	car-9.jpg	0.0	267.4457159278095	0.11669228918617591
357.0	178.52067032495688	car	0.0		45.0	object	car-120.jpg	0.0	267.56240821699566	0.3832963912241212
357.0	178.51308348333032	pulse	0.0	t		object	car-120.jpg	0.0	267.5548213753691	
357.0	178.903966716181	ISI	1.0		6.0	object	car-120.jpg	0.0	267.9457046082198	0.11669893001226228
358.0	179.02066564619327	car	0.0		46.0	object	car-12.jpg	0.0	268.06240353823205	0.3832933726671399
358.0	179.20407680296148	pulse	0.0	t		object	car-12.jpg	0.0	268.24581469500026	
358.0	179.4039590188604	ISI	1.0		6.0	object	car-12.jpg	0.0	268.4456969108992	0.11669953372347663
359.0	179.52065855258388	car	0.0		46.0	object	car-41.jpg	0.0	268.56239644462266	0.3832912596767528
359.0	179.90394981226063	ISI	1.0		3.0	object	car-41.jpg	0.0	268.9456877042994	0.11669832630059318
359.0	179.9701165857341	pulse	1.0	t		object	car-41.jpg	0.0	269.0118544777729	
360.0	180.02064813856123	word	0.0		46.0	character	word-80.jpg	0.0	269.0623860306	0.3832915615330421
360.0	180.40393970009427	ISI	1.0		6.0	character	word-80.jpg	0.0	269.44567759213305	0.11668625207175864
361.0	180.52062595216603	word	0.0		46.0	character	word-51.jpg	0.0	269.5623638442048	0.3833066543188579
361.0	180.6040501189159	pulse	0.0	t		character	word-51.jpg	0.0	269.6457880109547	
361.0	180.9039326064849	ISI	1.0		6.0	character	word-51.jpg	0.0	269.94567049852367	0.11669772258937883
362.0	181.02063032907427	word	0.0		46.0	character	word-68.jpg	0.0	270.06236822111305	0.3832951838012377
362.0	181.30403783338852	pulse	0.0	t		character	word-68.jpg	0.0	270.3457757254273	
362.0	181.4039255128755	ISI	1.0		6.0	character	word-68.jpg	0.0	270.4456634049143	0.11669772258937883
363.0	181.52062323546488	word	0.0		46.0	character	word-49.jpg	0.0	270.56236112750366	0.38332567122870387
363.0	181.90394890669359	ISI	1.0		5.0	character	word-49.jpg	0.0	270.94568679873237	0.11669651516649537
364.0	182.02064542186008	word	0.0		45.0	character	word-123.jpg	0.0	271.06238331389886	0.3832918633884219
364.0	182.0122991112462	pulse	0.0	t		character	word-123.jpg	0.0	271.054037003285	
364.0	182.4039372852485	ISI	1.0		7.0	character	word-123.jpg	0.0	271.4456751772873	0.11666934815184504
365.0	182.52060663340035	word	0.0		46.0	character	word-48.jpg	0.0	271.56234452543913	0.3832912596767528
365.0	182.70400601779556	pulse	0.0	t		character	word-48.jpg	0.0	271.74574390983435	
365.0	182.9038978930771	ISI	1.0		7.0	character	word-48.jpg	0.0	271.9456357851159	0.11669198733079611
366.0	183.0205898804079	word	0.0		46.0	character	word-94.jpg	0.0	272.0623277724467	0.3832988060698881
366.0	183.40388868647779	ISI	1.0		7.0	character	word-94.jpg	0.0	272.44562657851657	0.11670285413629244
366.0	183.44105225696012	pulse	1.0	t		character	word-94.jpg	0.0	272.4827901489989	
367.0	183.52059154061408	word	0.0		46.0	character	word-91.jpg	0.0	272.56232943265286	0.38328884483144066
367.0	183.90388038544552	ISI	1.0		7.0	character	word-91.jpg	0.0	272.9456182774843	0.11670104300219464
368.0	184.0205814284477	word	0.0		46.0	character	word-65.jpg	0.0	273.0623193204865	0.3832828077170234
368.0	184.1040333659239	pulse	0.0	t		character	word-65.jpg	0.0	273.1457712579627	
368.0	184.40386423616474	ISI	1.0		6.0	character	word-65.jpg	0.0	273.4456021282035	0.10837254187572398
369.0	184.51223677804046	word	0.0		47.0	character	word-39.jpg	0.0	273.55397467007924	0.3916245904947573
369.0	184.80397368904823	pulse	0.0	t		character	word-39.jpg	0.0	273.845711581087	
369.0	184.90386136853522	ISI	1.0		6.0	character	word-39.jpg	0.0	273.945599260574	0.10836710847297581
370.0	185.0122284770082	word	0.0		47.0	character	word-140.jpg	0.0	274.053966369047	0.3916242886393775
370.0	185.40385276564757	ISI	1.0		6.0	character	word-140.jpg	0.0	274.44559065768635	0.10835895836817144
371.0	185.51221172401574	word	0.0		46.0	character	word-77.jpg	0.0	274.5539496160545	0.39164451297256164
371.0	185.5077991971243	pulse	0.0	t		character	word-77.jpg	0.0	274.5495370891631	
371.0	185.9038562369883	ISI	1.0		5.0	character	word-77.jpg	0.0	274.9455941290271	0.10834326187068655
372.0	186.012199498859	word	0.0		47.0	character	word-37.jpg	0.0	275.0539373908978	0.391636362868212
372.0	186.2039539476841	pulse	0.0	t		character	word-37.jpg	0.0	275.2456918397229	
372.0	186.4038358617272	ISI	1.0		6.0	character	word-37.jpg	0.0	275.445573753766	0.10838220125879161
373.0	186.512218062986	word	0.0		47.0	character	word-7.jpg	0.0	275.5539559550248	0.39161251626592275
373.0	186.90383057925192	ISI	1.0		6.0	character	word-7.jpg	0.0	275.9455684712907	0.10836378806016
373.0	186.94840863174522	pulse	1.0	t		character	word-7.jpg	0.0	275.990146523784	
374.0	187.01219436731208	word	0.0		47.0	character	word-43.jpg	0.0	276.05393225935086	0.3916285146192422
374.0	187.40382288193132	ISI	1.0		6.0	character	word-43.jpg	0.0	276.4455607739701	0.1083456767169082
375.0	187.51216855864823	word	0.0		47.0	character	word-43.jpg	1.0	276.553906450687	0.39164239998217454
375.0	187.60398974777218	pulse	0.0	t		character	word-43.jpg	1.0	276.64572763981096	
375.0	187.9038109586304	ISI	1.0		4.0	character	word-43.jpg	1.0	276.9455488506692	0.10836378805970526
376.0	188.0121747466901	word	0.0		47.0	character	word-114.jpg	0.0	277.0539126387289	0.3916134218334264
376.0	188.03730393339129	response	0.0	b		character	word-114.jpg	0.0	277.07904182543007	
376.0	188.30390562058346	pulse	0.0	t		character	word-114.jpg	0.0	277.34564351262225	
376.0	188.40378816852353	ISI	1.0		6.0	character	word-114.jpg	0.0	277.4455260605623	0.11671462650929243
377.0	188.52050279503283	word	0.0		46.0	character	word-130.jpg	0.0	277.5622406870716	0.38333140648774133
377.0	188.90383420152057	ISI	1.0		7.0	character	word-130.jpg	0.0	277.94557209355935	0.11668927062919465
378.0	189.02052347214976	word	0.0		45.0	character	word-78.jpg	0.0	278.06226136418854	0.3832927689554708
378.0	189.01190398211065	pulse	0.0	t		character	word-78.jpg	0.0	278.05364187414943	
378.0	189.40381624110523	ISI	1.0		6.0	character	word-78.jpg	0.0	278.445554133144	0.11670406155963065
379.0	189.52052030266486	word	0.0		46.0	character	word-40.jpg	0.0	278.56225819470365	0.3832544332794896
379.0	189.70389161447838	pulse	0.0	t		character	word-40.jpg	0.0	278.74562950651716	
379.0	189.90377473594435	ISI	1.0		7.0	character	word-40.jpg	0.0	278.94551262798313	0.11667991310150683
380.0	190.02045464904586	word	0.0		46.0	character	word-132.jpg	0.0	279.06219254108464	0.3833120877216061
380.0	190.40376673676747	ISI	1.0		6.0	character	word-132.jpg	0.0	279.44550462880625	0.11669832630059318
380.0	190.4468327939676	pulse	1.0	t		character	word-132.jpg	0.0	279.48857068600637	
381.0	190.52046506306806	word	0.0		46.0	character	word-103.jpg	0.0	279.56220295510684	0.3832906559659932
381.0	190.90375571903405	ISI	1.0		7.0	character	word-103.jpg	0.0	279.94549361107283	0.11668232794727373
382.0	191.02043804698133	word	0.0		46.0	character	word-29.jpg	0.0	280.0621759390201	0.38330937102045937
382.0	191.10390869951198	pulse	0.0	t		character	word-29.jpg	0.0	280.14564659155076	
382.0	191.40374741800179	ISI	1.0		6.0	character	word-29.jpg	0.0	280.44548531004057	0.11669923186764208
383.0	191.52044664986943	word	0.0		46.0	character	word-76.jpg	0.0	280.5621845419082	0.3832918633884219
383.0	191.80385385232785	pulse	0.0	t		character	word-76.jpg	0.0	280.84559174436663	
383.0	191.90373851325785	ISI	1.0		6.0	character	word-76.jpg	0.0	280.94547640529663	0.11670255228091264
384.0	192.02044106553876	adult	0.0		46.0	face	adult-105.jpg	0.0	281.06217895757754	0.38328975039848956
384.0	192.40373081593725	ISI	1.0		7.0	face	adult-105.jpg	0.0	281.44546870797603	0.11669470403194282
385.0	192.5204255199692	adult	0.0		45.0	face	adult-126.jpg	0.0	281.562163412008	0.3832951838012377
385.0	192.51200948068436	pulse	0.0	t		face	adult-126.jpg	0.0	281.55374737272314	
385.0	192.90372070377043	ISI	1.0		5.0	face	adult-126.jpg	0.0	281.9454585958092	0.11670104300219464
386.0	193.02042174677263	adult	0.0		46.0	face	adult-15.jpg	0.0	282.0621596388114	0.3832915615330421
386.0	193.20382837570514	pulse	0.0	t		face	adult-15.jpg	0.0	282.2455662677439	
386.0	193.40371330830567	ISI	1.0		6.0	face	adult-15.jpg	0.0	282.44545120034445	0.11670466527039025
387.0	193.52041797357606	adult	0.0		46.0	face	adult-24.jpg	0.0	282.56215586561484	0.38328642998567375
387.0	193.90370440356173	ISI	1.0		4.0	face	adult-24.jpg	0.0	282.9454422956005	0.11669651516649537
387.0	193.9664680556657	pulse	1.0	t		face	adult-24.jpg	0.0	283.0082059477045	
388.0	194.02040091872823	adult	0.0		46.0	face	adult-99.jpg	0.0	283.062138810767	0.38330876730879027
388.0	194.40370968603702	ISI	1.0		6.0	face	adult-99.jpg	0.0	283.4454475780758	0.11668564836008954
389.0	194.5203953343971	adult	0.0		46.0	face	adult-3.jpg	0.0	283.5621332264359	0.3832915615330421
389.0	194.60381044547557	pulse	0.0	t		face	adult-3.jpg	0.0	283.64554833751436	
389.0	194.90368689593015	ISI	1.0		6.0	face	adult-3.jpg	0.0	283.94542478796893	0.11670074114636009
390.0	195.0203876370765	adult	0.0		45.0	face	adult-18.jpg	0.0	284.0621255291153	0.38329125967720756
390.0	195.0249858052348	response	0.0	b		face	adult-18.jpg	0.0	284.0667236972736	
390.0	195.30377159664476	pulse	0.0	t		face	adult-18.jpg	0.0	284.34550948868355	
