trial_nr	onset	event_type	phase	response	nr_frames	face_age	face_sex	face_eth	attractiveness	expression	face_id	sub_id	ses	run	trial_type	catch	rating_type	onset_abs	duration
-1.0	0.06093245899592148	fix	0.0		713													20.618518838262844	5.957986097695084
-1.0	0.7024542747712985	pulse	0.0	t														21.26004065403822	
-1.0	1.4024463057589855	pulse	0.0	t														21.960032685025908	
-1.0	2.1024531277166716	pulse	0.0	t														22.660039506983594	
-1.0	2.8024201046114285	pulse	0.0	t														23.36000648387835	
-1.0	3.5024064003246167	pulse	0.0	t														24.05999277959154	
-1.0	4.202421372408935	pulse	0.0	t														24.760007751675857	
-1.0	4.902384425168293	pulse	0.0	t														25.459970804435216	
-1.0	5.602383096999802	pulse	0.0	t														26.159969476266724	
0.0	6.0189185566910055	face	0.0		144	40.0	female	west_asian	1.5777954635893354	neutral	038	sub-15	1.0	2.0	038_neutral	0.0		26.576504935957928	1.2333251429590746
0.0	6.302376033556811	pulse	0.0	t		40.0	female	west_asian	1.5777954635893354	neutral	038	sub-15	1.0	2.0	038_neutral	0.0		26.859962412823734	
0.0	7.002361423700222	pulse	0.0	t		40.0	female	west_asian	1.5777954635893354	neutral	038	sub-15	1.0	2.0	038_neutral	0.0		27.559947802967145	
0.0	7.25224369965008	fix	1.0		444	40.0	female	west_asian	1.5777954635893354	neutral	038	sub-15	1.0	2.0	038_neutral	0.0		27.809830078917003	3.7582593986053325
0.0	7.70236220852712	pulse	1.0	t		40.0	female	west_asian	1.5777954635893354	neutral	038	sub-15	1.0	2.0	038_neutral	0.0		28.259948587794042	
0.0	8.402343674535587	pulse	1.0	t		40.0	female	west_asian	1.5777954635893354	neutral	038	sub-15	1.0	2.0	038_neutral	0.0		28.95993005380251	
0.0	9.102329668392485	pulse	1.0	t		40.0	female	west_asian	1.5777954635893354	neutral	038	sub-15	1.0	2.0	038_neutral	0.0		29.659916047659408	
0.0	9.802321397523428	pulse	1.0	t		40.0	female	west_asian	1.5777954635893354	neutral	038	sub-15	1.0	2.0	038_neutral	0.0		30.35990777679035	
0.0	10.502309202518973	pulse	1.0	t		40.0	female	west_asian	1.5777954635893354	neutral	038	sub-15	1.0	2.0	038_neutral	0.0		31.059895581785895	
1.0	11.010503098255413	face	0.0		146	25.0	female	black	3.858336649423	smiling	126	sub-15	1.0	2.0	126_smiling	0.0		31.568089477522335	1.2416645335470093
1.0	11.202299422367105	pulse	0.0	t		25.0	female	black	3.858336649423	smiling	126	sub-15	1.0	2.0	126_smiling	0.0		31.759885801634027	
1.0	11.902291151498048	pulse	0.0	t		25.0	female	black	3.858336649423	smiling	126	sub-15	1.0	2.0	126_smiling	0.0		32.45987753076497	
1.0	12.252167631802422	fix	1.0		444	25.0	female	black	3.858336649423	smiling	126	sub-15	1.0	2.0	126_smiling	0.0		32.809754011069344	3.7582799248498304
1.0	12.602275334215392	pulse	1.0	t		25.0	female	black	3.858336649423	smiling	126	sub-15	1.0	2.0	126_smiling	0.0		33.159861713482314	
1.0	13.30225830950667	pulse	1.0	t		25.0	female	black	3.858336649423	smiling	126	sub-15	1.0	2.0	126_smiling	0.0		33.85984468877359	
1.0	14.002261207329411	pulse	1.0	t		25.0	female	black	3.858336649423	smiling	126	sub-15	1.0	2.0	126_smiling	0.0		34.559847586596334	
1.0	14.702278594266318	pulse	1.0	t		25.0	female	black	3.858336649423	smiling	126	sub-15	1.0	2.0	126_smiling	0.0		35.25986497353324	
1.0	15.40224013774332	pulse	1.0	t		25.0	female	black	3.858336649423	smiling	126	sub-15	1.0	2.0	126_smiling	0.0		35.95982651701024	
2.0	16.010447556652252	face	0.0		146	24.0	female	black	3.0955033824114606	neutral	099	sub-15	1.0	2.0	099_neutral	0.0		36.568033935919175	1.2416461202983555
2.0	16.10224786527033	pulse	0.0	t		24.0	female	black	3.0955033824114606	neutral	099	sub-15	1.0	2.0	099_neutral	0.0		36.65983424453725	
2.0	16.802217860730707	pulse	0.0	t		24.0	female	black	3.0955033824114606	neutral	099	sub-15	1.0	2.0	099_neutral	0.0		37.35980423999763	
2.0	17.252093676950608	fix	1.0		444	24.0	female	black	3.0955033824114606	neutral	099	sub-15	1.0	2.0	099_neutral	0.0		37.80968005621753	3.7582784155670197
2.0	17.50220476015693	pulse	1.0	t		24.0	female	black	3.0955033824114606	neutral	099	sub-15	1.0	2.0	099_neutral	0.0		38.05979113942385	
2.0	18.20219679114416	pulse	1.0	t		24.0	female	black	3.0955033824114606	neutral	099	sub-15	1.0	2.0	099_neutral	0.0		38.75978317041108	
2.0	18.902178257152627	pulse	1.0	t		24.0	female	black	3.0955033824114606	neutral	099	sub-15	1.0	2.0	099_neutral	0.0		39.45976463641955	
2.0	19.602175721557614	pulse	1.0	t		24.0	female	black	3.0955033824114606	neutral	099	sub-15	1.0	2.0	099_neutral	0.0		40.15976210082454	
2.0	20.3021713748235	pulse	1.0	t		24.0	female	black	3.0955033824114606	neutral	099	sub-15	1.0	2.0	099_neutral	0.0		40.859757754090424	
3.0	21.010372092517628	face	0.0		147	20.0	male	black	2.609629924393156	smiling	043	sub-15	1.0	2.0	043_smiling	0.0		41.56795847178455	1.2416479314374556
3.0	21.003589376098716	pulse	0.0	t		20.0	male	black	2.609629924393156	smiling	043	sub-15	1.0	2.0	043_smiling	0.0		41.56117575536564	
3.0	21.702163888781342	pulse	0.0	t		20.0	male	black	2.609629924393156	smiling	043	sub-15	1.0	2.0	043_smiling	0.0		42.259750268048265	
3.0	22.252020023955083	fix	1.0		443	20.0	male	black	2.609629924393156	smiling	043	sub-15	1.0	2.0	043_smiling	0.0		42.809606403222006	3.7582738877190422
3.0	22.402149278925208	pulse	1.0	t		20.0	male	black	2.609629924393156	smiling	043	sub-15	1.0	2.0	043_smiling	0.0		42.95973565819213	
3.0	23.102121689237265	pulse	1.0	t		20.0	male	black	2.609629924393156	smiling	043	sub-15	1.0	2.0	043_smiling	0.0		43.65970806850419	
3.0	23.802108286807197	pulse	1.0	t		20.0	male	black	2.609629924393156	smiling	043	sub-15	1.0	2.0	043_smiling	0.0		44.35969466607412	
3.0	24.502110580916906	pulse	1.0	t		20.0	male	black	2.609629924393156	smiling	043	sub-15	1.0	2.0	043_smiling	0.0		45.05969696018383	
3.0	25.202095669203572	pulse	1.0	t		20.0	male	black	2.609629924393156	smiling	043	sub-15	1.0	2.0	043_smiling	0.0		45.759682048470495	
3.0	25.902099472596092	pulse	1.0	t		20.0	male	black	2.609629924393156	smiling	043	sub-15	1.0	2.0	043_smiling	0.0		46.459685851863014	
4.0	26.010293911674125	face	0.0		147	24.0	female	black	3.0955033824114606	smiling	099	sub-15	1.0	2.0	099_smiling	0.0		46.56788029094105	1.2416443091592555
4.0	26.602088183161413	pulse	0.0	t		24.0	female	black	3.0955033824114606	smiling	099	sub-15	1.0	2.0	099_smiling	0.0		47.159674562428336	
4.0	27.25193822083338	fix	1.0		443	24.0	female	black	3.0955033824114606	smiling	099	sub-15	1.0	2.0	099_smiling	0.0		47.8095246001003	3.7582805285628638
4.0	27.302063310182803	pulse	1.0	t		24.0	female	black	3.0955033824114606	smiling	099	sub-15	1.0	2.0	099_smiling	0.0		47.859649689449725	
4.0	28.002073754419143	pulse	1.0	t		24.0	female	black	3.0955033824114606	smiling	099	sub-15	1.0	2.0	099_smiling	0.0		48.559660133686066	
4.0	28.702032883044012	pulse	1.0	t		24.0	female	black	3.0955033824114606	smiling	099	sub-15	1.0	2.0	099_smiling	0.0		49.259619262310935	
4.0	29.402017367617646	pulse	1.0	t		24.0	female	black	3.0955033824114606	smiling	099	sub-15	1.0	2.0	099_smiling	0.0		49.95960374688457	
4.0	30.102038074976463	pulse	1.0	t		24.0	female	black	3.0955033824114606	smiling	099	sub-15	1.0	2.0	099_smiling	0.0		50.659624454243385	
4.0	30.80202618182875	pulse	1.0	t		24.0	female	black	3.0955033824114606	smiling	099	sub-15	1.0	2.0	099_smiling	0.0		51.35961256109567	
5.0	31.010218749396245	face	0.0		146	40.0	male	white	1.868682849184242	smiling	172	sub-15	1.0	2.0	172_smiling	0.0		51.56780512866317	1.241650648146333
5.0	31.501997686571485	pulse	0.0	t		40.0	male	white	1.868682849184242	smiling	172	sub-15	1.0	2.0	172_smiling	0.0		52.05958406583841	
5.0	32.201990623128495	pulse	0.0	t		40.0	male	white	1.868682849184242	smiling	172	sub-15	1.0	2.0	172_smiling	0.0		52.75957700239542	
5.0	32.25186939754258	fix	1.0		444	40.0	male	white	1.868682849184242	smiling	172	sub-15	1.0	2.0	172_smiling	0.0		52.8094557768095	3.766611165311133
5.0	32.90199352095124	pulse	1.0	t		40.0	male	white	1.868682849184242	smiling	172	sub-15	1.0	2.0	172_smiling	0.0		53.45957990021816	
5.0	33.60196532755026	pulse	1.0	t		40.0	male	white	1.868682849184242	smiling	172	sub-15	1.0	2.0	172_smiling	0.0		54.15955170681718	
5.0	34.30196128267289	pulse	1.0	t		40.0	male	white	1.868682849184242	smiling	172	sub-15	1.0	2.0	172_smiling	0.0		54.859547661939814	
5.0	35.001954822942935	pulse	1.0	t		40.0	male	white	1.868682849184242	smiling	172	sub-15	1.0	2.0	172_smiling	0.0		55.55954120220986	
5.0	35.70193115739039	pulse	1.0	t		40.0	male	white	1.868682849184242	smiling	172	sub-15	1.0	2.0	172_smiling	0.0		56.25951753665731	
6.0	36.01848056285371	face	0.0		145	20.0	male	black	3.1070433744528456	neutral	082	sub-15	1.0	2.0	082_neutral	0.0		56.57606694212063	1.2333154835500864
6.0	36.401920471668745	pulse	0.0	t		20.0	male	black	3.1070433744528456	neutral	082	sub-15	1.0	2.0	082_neutral	0.0		56.95950685093567	
6.0	37.10191793607373	pulse	0.0	t		20.0	male	black	3.1070433744528456	neutral	082	sub-15	1.0	2.0	082_neutral	0.0		57.659504315340655	
6.0	37.2517960464038	fix	1.0		444	20.0	male	black	3.1070433744528456	neutral	082	sub-15	1.0	2.0	082_neutral	0.0		57.80938242567072	3.7582669450184767
6.0	37.801909363348386	pulse	1.0	t		20.0	male	black	3.1070433744528456	neutral	082	sub-15	1.0	2.0	082_neutral	0.0		58.35949574261531	
6.0	38.50191799644517	pulse	1.0	t		20.0	male	black	3.1070433744528456	neutral	082	sub-15	1.0	2.0	082_neutral	0.0		59.059504375712095	
6.0	39.20189644388847	pulse	1.0	t		20.0	male	black	3.1070433744528456	neutral	082	sub-15	1.0	2.0	082_neutral	0.0		59.759482823155395	
6.0	39.901875495044806	pulse	1.0	t		20.0	male	black	3.1070433744528456	neutral	082	sub-15	1.0	2.0	082_neutral	0.0		60.45946187431173	
6.0	40.601866922319005	pulse	1.0	t		20.0	male	black	3.1070433744528456	neutral	082	sub-15	1.0	2.0	082_neutral	0.0		61.15945330158593	
7.0	41.010062991422274	face	0.0		146	22.0	male	black	2.767608436132113	smiling	044	sub-15	1.0	2.0	044_smiling	0.0		61.567649370689196	1.2416630242646534
7.0	41.30184657718837	pulse	0.0	t		22.0	male	black	2.767608436132113	smiling	044	sub-15	1.0	2.0	044_smiling	0.0		61.859432956455294	
7.0	42.00186366226853	pulse	0.0	t		22.0	male	black	2.767608436132113	smiling	044	sub-15	1.0	2.0	044_smiling	0.0		62.559450041535456	
7.0	42.25172601568693	fix	1.0		444	22.0	male	black	2.767608436132113	smiling	044	sub-15	1.0	2.0	044_smiling	0.0		62.80931239495385	3.7582763025711756
7.0	42.701834563298235	pulse	1.0	t		22.0	male	black	2.767608436132113	smiling	044	sub-15	1.0	2.0	044_smiling	0.0		63.25942094256516	
7.0	43.40182417943288	pulse	1.0	t		22.0	male	black	2.767608436132113	smiling	044	sub-15	1.0	2.0	044_smiling	0.0		63.9594105586998	
7.0	44.101823756834165	pulse	1.0	t		22.0	male	black	2.767608436132113	smiling	044	sub-15	1.0	2.0	044_smiling	0.0		64.65941013610109	
7.0	44.80182242866522	pulse	1.0	t		22.0	male	black	2.767608436132113	smiling	044	sub-15	1.0	2.0	044_smiling	0.0		65.35940880793214	
7.0	45.50179815939964	pulse	1.0	t		22.0	male	black	2.767608436132113	smiling	044	sub-15	1.0	2.0	044_smiling	0.0		66.05938453866656	
8.0	46.0100023182581	face	0.0		146	36.0	female	white	2.7548746518105847	neutral	011	sub-15	1.0	2.0	011_neutral	0.0		66.56758869752503	1.2416542704249878
8.0	46.201798340513506	pulse	0.0	t		36.0	female	white	2.7548746518105847	neutral	011	sub-15	1.0	2.0	011_neutral	0.0		66.75938471978043	
8.0	46.901771958252084	pulse	0.0	t		36.0	female	white	2.7548746518105847	neutral	011	sub-15	1.0	2.0	011_neutral	0.0		67.459358337519	
8.0	47.25165658868309	fix	1.0		444	36.0	female	white	2.7548746518105847	neutral	011	sub-15	1.0	2.0	011_neutral	0.0		67.80924296795001	3.766592148348991
8.0	47.601764894809094	pulse	1.0	t		36.0	female	white	2.7548746518105847	neutral	011	sub-15	1.0	2.0	011_neutral	0.0		68.15935127407602	
8.0	48.3017671889188	pulse	1.0	t		36.0	female	white	2.7548746518105847	neutral	011	sub-15	1.0	2.0	011_neutral	0.0		68.85935356818572	
8.0	49.00173839180479	pulse	1.0	t		36.0	female	white	2.7548746518105847	neutral	011	sub-15	1.0	2.0	011_neutral	0.0		69.55932477107172	
8.0	49.7017313283618	pulse	1.0	t		36.0	female	white	2.7548746518105847	neutral	011	sub-15	1.0	2.0	011_neutral	0.0		70.25931770762872	
8.0	50.401718227788024	pulse	1.0	t		36.0	female	white	2.7548746518105847	neutral	011	sub-15	1.0	2.0	011_neutral	0.0		70.95930460705495	
9.0	51.01824873703208	face	0.0		145	31.0	female	white	2.1822522881018704	neutral	102	sub-15	1.0	2.0	102_neutral	0.0		71.575835116299	1.233339330216495
9.0	51.10172565345874	pulse	0.0	t		31.0	female	white	2.1822522881018704	neutral	102	sub-15	1.0	2.0	102_neutral	0.0		71.65931203272567	
9.0	51.801701384193166	pulse	0.0	t		31.0	female	white	2.1822522881018704	neutral	102	sub-15	1.0	2.0	102_neutral	0.0		72.35928776346009	
9.0	52.251588067248576	fix	1.0		444	31.0	female	white	2.1822522881018704	neutral	102	sub-15	1.0	2.0	102_neutral	0.0		72.8091744465155	3.758370481811653
9.0	52.50170156530703	pulse	1.0	t		31.0	female	white	2.1822522881018704	neutral	102	sub-15	1.0	2.0	102_neutral	0.0		73.05928794457395	
9.0	53.20168333317224	pulse	1.0	t		31.0	female	white	2.1822522881018704	neutral	102	sub-15	1.0	2.0	102_neutral	0.0		73.75926971243916	
9.0	53.901663893611385	pulse	1.0	t		31.0	female	white	2.1822522881018704	neutral	102	sub-15	1.0	2.0	102_neutral	0.0		74.45925027287831	
9.0	54.601665584007606	pulse	1.0	t		31.0	female	white	2.1822522881018704	neutral	102	sub-15	1.0	2.0	102_neutral	0.0		75.15925196327453	
9.0	55.301655200142704	pulse	1.0	t		31.0	female	white	2.1822522881018704	neutral	102	sub-15	1.0	2.0	102_neutral	0.0		75.85924157940963	
10.0	56.00995854906023	face	0.0		147	37.0	male	white	3.898925586947871	neutral	101	sub-15	1.0	2.0	101_neutral	0.0		76.56754492832715	1.2415591856151877
10.0	56.00414056613772	pulse	0.0	t		37.0	male	white	3.898925586947871	neutral	101	sub-15	1.0	2.0	101_neutral	0.0		76.56172694540464	
10.0	56.70164137511347	pulse	0.0	t		37.0	male	white	3.898925586947871	neutral	101	sub-15	1.0	2.0	101_neutral	0.0		77.25922775438039	
10.0	57.25151773467542	fix	1.0		443	37.0	male	white	3.898925586947871	neutral	101	sub-15	1.0	2.0	101_neutral	0.0		77.80910411394234	3.7583846690686187
10.0	57.40162072812609	pulse	1.0	t		37.0	male	white	3.898925586947871	neutral	101	sub-15	1.0	2.0	101_neutral	0.0		77.95920710739301	
10.0	58.1016024959913	pulse	1.0	t		37.0	male	white	3.898925586947871	neutral	101	sub-15	1.0	2.0	101_neutral	0.0		78.65918887525822	
10.0	58.801631353476296	pulse	1.0	t		37.0	male	white	3.898925586947871	neutral	101	sub-15	1.0	2.0	101_neutral	0.0		79.35921773274322	
10.0	59.501586256109476	pulse	1.0	t		37.0	male	white	3.898925586947871	neutral	101	sub-15	1.0	2.0	101_neutral	0.0		80.0591726353764	
10.0	60.20158824836244	pulse	1.0	t		37.0	male	white	3.898925586947871	neutral	101	sub-15	1.0	2.0	101_neutral	0.0		80.75917462762936	
10.0	60.90158118491945	pulse	1.0	t		37.0	male	white	3.898925586947871	neutral	101	sub-15	1.0	2.0	101_neutral	0.0		81.45916756418637	
11.0	61.009902403744036	face	0.0		147	22.0	female	white	4.614007162753682	smiling	009	sub-15	1.0	2.0	009_smiling	1.0	attractiveness	81.56748878301096	1.2415314148133803
11.0	61.601549067383985	pulse	0.0	t		22.0	female	white	4.614007162753682	smiling	009	sub-15	1.0	2.0	009_smiling	1.0	attractiveness	82.15913544665091	
11.0	62.251433818557416	fix	1.0		176	22.0	female	white	4.614007162753682	smiling	009	sub-15	1.0	2.0	009_smiling	1.0	attractiveness	82.80902019782434	1.508324599617481
11.0	62.3015622283292	pulse	1.0	t		22.0	female	white	4.614007162753682	smiling	009	sub-15	1.0	2.0	009_smiling	1.0	attractiveness	82.85914860759613	
11.0	63.001538260919915	pulse	1.0	t		22.0	female	white	4.614007162753682	smiling	009	sub-15	1.0	2.0	009_smiling	1.0	attractiveness	83.55912464018684	
11.0	63.701522745494	pulse	1.0	t		22.0	female	white	4.614007162753682	smiling	009	sub-15	1.0	2.0	009_smiling	1.0	attractiveness	84.25910912476093	
11.0	63.7597584181749	rating	2.0		294	22.0	female	white	4.614007162753682	smiling	009	sub-15	1.0	2.0	009_smiling	1.0	attractiveness	84.31734479744182	2.491612614222504
11.0	64.40152986930798	pulse	2.0	t		22.0	female	white	4.614007162753682	smiling	009	sub-15	1.0	2.0	009_smiling	1.0	attractiveness	84.9591162485749	
11.0	64.41284828207381	response	2.0	g		22.0	female	white	4.614007162753682	smiling	009	sub-15	1.0	2.0	009_smiling	1.0	attractiveness	84.97043466134073	
11.0	65.10150801489453	pulse	2.0	t		22.0	female	white	4.614007162753682	smiling	009	sub-15	1.0	2.0	009_smiling	1.0	attractiveness	85.65909439416146	
11.0	65.80150517744323	pulse	2.0	t		22.0	female	white	4.614007162753682	smiling	009	sub-15	1.0	2.0	009_smiling	1.0	attractiveness	86.35909155671015	
11.0	66.2513710323974	fix	3.0		444	22.0	female	white	4.614007162753682	smiling	009	sub-15	1.0	2.0	009_smiling	1.0	attractiveness	86.80895741166432	3.7666108634548436
11.0	66.50148211560372	pulse	3.0	t		22.0	female	white	4.614007162753682	smiling	009	sub-15	1.0	2.0	009_smiling	1.0	attractiveness	87.05906849487064	
11.0	67.20148018372174	pulse	3.0	t		22.0	female	white	4.614007162753682	smiling	009	sub-15	1.0	2.0	009_smiling	1.0	attractiveness	87.75906656298866	
11.0	67.90146014044785	pulse	3.0	t		22.0	female	white	4.614007162753682	smiling	009	sub-15	1.0	2.0	009_smiling	1.0	attractiveness	88.45904651971478	
11.0	68.60145277514812	pulse	3.0	t		22.0	female	white	4.614007162753682	smiling	009	sub-15	1.0	2.0	009_smiling	1.0	attractiveness	89.15903915441504	
11.0	69.30143816529153	pulse	3.0	t		22.0	female	white	4.614007162753682	smiling	009	sub-15	1.0	2.0	009_smiling	1.0	attractiveness	89.85902454455845	
12.0	70.01798189585224	face	0.0		146	30.0	female	black	2.7345801830481498	smiling	062	sub-15	1.0	2.0	062_smiling	0.0		90.57556827511917	1.2333182002589638
12.0	70.0043240949135	pulse	0.0	t		30.0	female	black	2.7345801830481498	smiling	062	sub-15	1.0	2.0	062_smiling	0.0		90.56191047418042	
12.0	70.70142675511443	pulse	0.0	t		30.0	female	black	2.7345801830481498	smiling	062	sub-15	1.0	2.0	062_smiling	0.0		91.25901313438135	
12.0	71.25130009611121	fix	1.0		443	30.0	female	black	2.7345801830481498	smiling	062	sub-15	1.0	2.0	062_smiling	0.0		91.80888647537813	3.7665945632011244
12.0	71.40142240838031	pulse	1.0	t		30.0	female	black	2.7345801830481498	smiling	062	sub-15	1.0	2.0	062_smiling	0.0		91.95900878764724	
12.0	72.10140447810181	pulse	1.0	t		30.0	female	black	2.7345801830481498	smiling	062	sub-15	1.0	2.0	062_smiling	0.0		92.65899085736874	
12.0	72.80140164065051	pulse	1.0	t		30.0	female	black	2.7345801830481498	smiling	062	sub-15	1.0	2.0	062_smiling	0.0		93.35898801991743	
12.0	73.50137948438078	pulse	1.0	t		30.0	female	black	2.7345801830481498	smiling	062	sub-15	1.0	2.0	062_smiling	0.0		94.0589658636477	
12.0	74.20137785435554	pulse	1.0	t		30.0	female	black	2.7345801830481498	smiling	062	sub-15	1.0	2.0	062_smiling	0.0		94.75896423362246	
12.0	74.90135992407704	pulse	1.0	t		30.0	female	black	2.7345801830481498	smiling	062	sub-15	1.0	2.0	062_smiling	0.0		95.45894630334396	
13.0	75.01789465931233	face	0.0		146	24.0	male	white	3.1153999204138483	neutral	012	sub-15	1.0	2.0	012_neutral	0.0		95.57548103857926	1.2333320856596401
13.0	75.60135980333416	pulse	0.0	t		24.0	male	white	3.1153999204138483	neutral	012	sub-15	1.0	2.0	012_neutral	0.0		96.15894618260108	
13.0	76.25122674497197	fix	1.0		443	24.0	male	white	3.1153999204138483	neutral	012	sub-15	1.0	2.0	012_neutral	0.0		96.8088131242389	3.758246720630723
13.0	76.30133915634724	pulse	1.0	t		24.0	male	white	3.1153999204138483	neutral	012	sub-15	1.0	2.0	012_neutral	0.0		96.85892553561416	
13.0	77.00133239476054	pulse	1.0	t		24.0	male	white	3.1153999204138483	neutral	012	sub-15	1.0	2.0	012_neutral	0.0		97.55891877402746	
13.0	77.70130661621215	pulse	1.0	t		24.0	male	white	3.1153999204138483	neutral	012	sub-15	1.0	2.0	012_neutral	0.0		98.25889299547907	
13.0	78.4013892041612	pulse	1.0	t		24.0	male	white	3.1153999204138483	neutral	012	sub-15	1.0	2.0	012_neutral	0.0		98.95897558342813	
13.0	79.10130426173146	pulse	1.0	t		24.0	male	white	3.1153999204138483	neutral	012	sub-15	1.0	2.0	012_neutral	0.0		99.65889064099838	
13.0	79.80131440411105	pulse	1.0	t		24.0	male	white	3.1153999204138483	neutral	012	sub-15	1.0	2.0	012_neutral	0.0		100.35890078337798	
14.0	80.0094734656027	face	0.0		146	31.0	male	west_asian	1.9538400318344609	neutral	070	sub-15	1.0	2.0	070_neutral	1.0	trustworthiness	100.56705984486962	1.2416835505091512
14.0	80.5012928515539	pulse	0.0	t		31.0	male	west_asian	1.9538400318344609	neutral	070	sub-15	1.0	2.0	070_neutral	1.0	trustworthiness	101.05887923082082	
14.0	81.20126797857529	pulse	0.0	t		31.0	male	west_asian	1.9538400318344609	neutral	070	sub-15	1.0	2.0	070_neutral	1.0	trustworthiness	101.75885435784221	
14.0	81.25115701611185	fix	1.0		177	31.0	male	west_asian	1.9538400318344609	neutral	070	sub-15	1.0	2.0	070_neutral	1.0	trustworthiness	101.80874339537877	1.4999737384810032
14.0	81.90125850028016	pulse	1.0	t		31.0	male	west_asian	1.9538400318344609	neutral	070	sub-15	1.0	2.0	070_neutral	1.0	trustworthiness	102.45884487954709	
14.0	82.60123694772301	pulse	1.0	t		31.0	male	west_asian	1.9538400318344609	neutral	070	sub-15	1.0	2.0	070_neutral	1.0	trustworthiness	103.15882332698993	
14.0	82.75113075459285	rating	2.0		295	31.0	male	west_asian	1.9538400318344609	neutral	070	sub-15	1.0	2.0	070_neutral	1.0	trustworthiness	103.30871713385977	2.499965890211115
14.0	83.30123954368946	pulse	2.0	t		31.0	male	west_asian	1.9538400318344609	neutral	070	sub-15	1.0	2.0	070_neutral	1.0	trustworthiness	103.85882592295638	
14.0	83.62947562689578	response	2.0	b		31.0	male	west_asian	1.9538400318344609	neutral	070	sub-15	1.0	2.0	070_neutral	1.0	trustworthiness	104.1870620061627	
14.0	84.0012185948458	pulse	2.0	t		31.0	male	west_asian	1.9538400318344609	neutral	070	sub-15	1.0	2.0	070_neutral	1.0	trustworthiness	104.55880497411272	
14.0	84.70121454996797	pulse	2.0	t		31.0	male	west_asian	1.9538400318344609	neutral	070	sub-15	1.0	2.0	070_neutral	1.0	trustworthiness	105.2588009292349	
14.0	85.25109664480397	fix	3.0		443	31.0	male	west_asian	1.9538400318344609	neutral	070	sub-15	1.0	2.0	070_neutral	1.0	trustworthiness	105.80868302407089	3.766592148349446
14.0	85.40120597724217	pulse	3.0	t		31.0	male	west_asian	1.9538400318344609	neutral	070	sub-15	1.0	2.0	070_neutral	1.0	trustworthiness	105.9587923565091	
14.0	86.10119710266008	pulse	3.0	t		31.0	male	west_asian	1.9538400318344609	neutral	070	sub-15	1.0	2.0	070_neutral	1.0	trustworthiness	106.658783481927	
14.0	86.80118792622125	pulse	3.0	t		31.0	male	west_asian	1.9538400318344609	neutral	070	sub-15	1.0	2.0	070_neutral	1.0	trustworthiness	107.35877430548817	
14.0	87.50117210893859	pulse	3.0	t		31.0	male	west_asian	1.9538400318344609	neutral	070	sub-15	1.0	2.0	070_neutral	1.0	trustworthiness	108.05875848820551	
14.0	88.20116232878672	pulse	3.0	t		31.0	male	west_asian	1.9538400318344609	neutral	070	sub-15	1.0	2.0	070_neutral	1.0	trustworthiness	108.75874870805364	
14.0	88.90115134120879	pulse	3.0	t		31.0	male	west_asian	1.9538400318344609	neutral	070	sub-15	1.0	2.0	070_neutral	1.0	trustworthiness	109.45873772047571	
15.0	89.01768879315341	face	0.0		146	27.0	male	black	3.5523278949462798	smiling	042	sub-15	1.0	2.0	042_smiling	0.0		109.57527517242033	1.2333338967987402
15.0	89.6011442777658	pulse	0.0	t		27.0	male	black	3.5523278949462798	smiling	042	sub-15	1.0	2.0	042_smiling	0.0		110.15873065703272	
15.0	90.25102268995215	fix	1.0		443	27.0	male	black	3.5523278949462798	smiling	042	sub-15	1.0	2.0	042_smiling	0.0		110.80860906921907	3.758301658520395
15.0	90.30113329018786	pulse	1.0	t		27.0	male	black	3.5523278949462798	smiling	042	sub-15	1.0	2.0	042_smiling	0.0		110.85871966945479	
15.0	91.00113135830588	pulse	1.0	t		27.0	male	black	3.5523278949462798	smiling	042	sub-15	1.0	2.0	042_smiling	0.0		111.5587177375728	
15.0	91.70112278558054	pulse	1.0	t		27.0	male	black	3.5523278949462798	smiling	042	sub-15	1.0	2.0	042_smiling	0.0		112.25870916484746	
15.0	92.4010855364836	pulse	1.0	t		27.0	male	black	3.5523278949462798	smiling	042	sub-15	1.0	2.0	042_smiling	0.0		112.95867191575053	
15.0	93.10110111228096	pulse	1.0	t		27.0	male	black	3.5523278949462798	smiling	042	sub-15	1.0	2.0	042_smiling	0.0		113.65868749154788	
15.0	93.80108106900661	pulse	1.0	t		27.0	male	black	3.5523278949462798	smiling	042	sub-15	1.0	2.0	042_smiling	0.0		114.35866744827354	
16.0	94.00932434847255	face	0.0		146	21.0	male	black	2.969757262236371	neutral	137	sub-15	1.0	2.0	137_neutral	0.0		114.56691072773947	1.2416274051929577
16.0	94.5010749111334	pulse	0.0	t		21.0	male	black	2.969757262236371	neutral	137	sub-15	1.0	2.0	137_neutral	0.0		115.05866129040032	
16.0	95.20106694212063	pulse	0.0	t		21.0	male	black	2.969757262236371	neutral	137	sub-15	1.0	2.0	137_neutral	0.0		115.75865332138756	
16.0	95.2509517536655	fix	1.0		444	21.0	male	black	2.969757262236371	neutral	137	sub-15	1.0	2.0	137_neutral	0.0		115.80853813293243	3.7665891297838243
16.0	95.90109972374103	pulse	1.0	t		21.0	male	black	2.969757262236371	neutral	137	sub-15	1.0	2.0	137_neutral	0.0		116.45868610300795	
16.0	96.60105613565656	pulse	1.0	t		21.0	male	black	2.969757262236371	neutral	137	sub-15	1.0	2.0	137_neutral	0.0		117.15864251492349	
16.0	97.30103065896492	pulse	1.0	t		21.0	male	black	2.969757262236371	neutral	137	sub-15	1.0	2.0	137_neutral	0.0		117.85861703823184	
16.0	98.00101936953024	pulse	1.0	t		21.0	male	black	2.969757262236371	neutral	137	sub-15	1.0	2.0	137_neutral	0.0		118.55860574879716	
16.0	98.70101170237422	pulse	1.0	t		21.0	male	black	2.969757262236371	neutral	137	sub-15	1.0	2.0	137_neutral	0.0		119.25859808164114	
17.0	99.01754088344933	face	0.0		145	31.0	female	west_asian	2.364902506963788	smiling	006	sub-15	1.0	2.0	006_smiling	0.0		119.57512726271625	1.2333369153643616
17.0	99.40100795935314	pulse	0.0	t		31.0	female	west_asian	2.364902506963788	smiling	006	sub-15	1.0	2.0	006_smiling	0.0		119.95859433862006	
17.0	100.10099938662734	pulse	0.0	t		31.0	female	west_asian	2.364902506963788	smiling	006	sub-15	1.0	2.0	006_smiling	0.0		120.65858576589426	
17.0	100.25087779881369	fix	1.0		444	31.0	female	west_asian	2.364902506963788	smiling	006	sub-15	1.0	2.0	006_smiling	0.0		120.80846417808061	3.7582871694066853
17.0	100.8009883990494	pulse	1.0	t		31.0	female	west_asian	2.364902506963788	smiling	006	sub-15	1.0	2.0	006_smiling	0.0		121.35857477831632	
17.0	101.50097077062765	pulse	1.0	t		31.0	female	west_asian	2.364902506963788	smiling	006	sub-15	1.0	2.0	006_smiling	0.0		122.05855714989457	
17.0	102.20096189604556	pulse	1.0	t		31.0	female	west_asian	2.364902506963788	smiling	006	sub-15	1.0	2.0	006_smiling	0.0		122.75854827531248	
17.0	102.900947889902	pulse	1.0	t		31.0	female	west_asian	2.364902506963788	smiling	006	sub-15	1.0	2.0	006_smiling	0.0		123.45853426916892	
17.0	103.60093297818912	pulse	1.0	t		31.0	female	west_asian	2.364902506963788	smiling	006	sub-15	1.0	2.0	006_smiling	0.0		124.15851935745604	
18.0	104.00916496822038	face	0.0		146	47.0	male	east_asian	2.171110226820533	neutral	024	sub-15	1.0	2.0	024_neutral	0.0		124.5667513474873	1.241639781311278
18.0	104.30101798099031	pulse	0.0	t		47.0	male	east_asian	2.171110226820533	neutral	024	sub-15	1.0	2.0	024_neutral	0.0		124.85860436025723	
18.0	105.00092851071213	pulse	0.0	t		47.0	male	east_asian	2.171110226820533	neutral	024	sub-15	1.0	2.0	024_neutral	0.0		125.55851488997905	
18.0	105.25080474953165	fix	1.0		444	47.0	male	east_asian	2.171110226820533	neutral	024	sub-15	1.0	2.0	024_neutral	0.0		125.80839112879858	3.7665906390661803
18.0	105.70092023984307	pulse	1.0	t		47.0	male	east_asian	2.171110226820533	neutral	024	sub-15	1.0	2.0	024_neutral	0.0		126.25850661911	
18.0	106.40089566872075	pulse	1.0	t		47.0	male	east_asian	2.171110226820533	neutral	024	sub-15	1.0	2.0	024_neutral	0.0		126.95848204798767	
18.0	107.10091396122698	pulse	1.0	t		47.0	male	east_asian	2.171110226820533	neutral	024	sub-15	1.0	2.0	024_neutral	0.0		127.6585003404939	
18.0	107.80089391795309	pulse	1.0	t		47.0	male	east_asian	2.171110226820533	neutral	024	sub-15	1.0	2.0	024_neutral	0.0		128.35848029722	
18.0	108.50087206353965	pulse	1.0	t		47.0	male	east_asian	2.171110226820533	neutral	024	sub-15	1.0	2.0	024_neutral	0.0		129.05845844280657	
19.0	109.01739538859783	face	0.0		145	23.0	male	white	2.6275368085953046	neutral	141	sub-15	1.0	2.0	141_neutral	1.0	dominance	129.57498176786476	1.2333302745205401
19.0	109.20086228338778	pulse	0.0	t		23.0	male	white	2.6275368085953046	neutral	141	sub-15	1.0	2.0	141_neutral	1.0	dominance	129.7584486626547	
19.0	109.90084073083062	pulse	0.0	t		23.0	male	white	2.6275368085953046	neutral	141	sub-15	1.0	2.0	141_neutral	1.0	dominance	130.45842711009755	
19.0	110.25072566311837	fix	1.0		177	23.0	male	white	2.6275368085953046	neutral	141	sub-15	1.0	2.0	141_neutral	1.0	dominance	130.8083120423853	1.4999827941774129
19.0	110.60083517667044	pulse	1.0	t		23.0	male	white	2.6275368085953046	neutral	141	sub-15	1.0	2.0	141_neutral	1.0	dominance	131.15842155593737	
19.0	111.3008226798097	pulse	1.0	t		23.0	male	white	2.6275368085953046	neutral	141	sub-15	1.0	2.0	141_neutral	1.0	dominance	131.85840905907662	
19.0	111.75070845729579	rating	2.0		294	23.0	male	white	2.6275368085953046	neutral	141	sub-15	1.0	2.0	141_neutral	1.0	dominance	132.3082948365627	2.4999571363714495
19.0	112.00083372775907	pulse	2.0	t		23.0	male	white	2.6275368085953046	neutral	141	sub-15	1.0	2.0	141_neutral	1.0	dominance	132.558420107026	
19.0	112.7008019120799	pulse	2.0	t		23.0	male	white	2.6275368085953046	neutral	141	sub-15	1.0	2.0	141_neutral	1.0	dominance	133.25838829134682	
19.0	112.90912518352889	response	2.0	e		23.0	male	white	2.6275368085953046	neutral	141	sub-15	1.0	2.0	141_neutral	1.0	dominance	133.4667115627958	
19.0	113.400822921295	pulse	2.0	t		23.0	male	white	2.6275368085953046	neutral	141	sub-15	1.0	2.0	141_neutral	1.0	dominance	133.95840930056193	
19.0	114.1007920111856	pulse	2.0	t		23.0	male	white	2.6275368085953046	neutral	141	sub-15	1.0	2.0	141_neutral	1.0	dominance	134.65837839045253	
19.0	114.25066559366724	fix	3.0		444	23.0	male	white	2.6275368085953046	neutral	141	sub-15	1.0	2.0	141_neutral	1.0	dominance	134.80825197293416	3.766603618897534
19.0	114.80078011803789	pulse	3.0	t		23.0	male	white	2.6275368085953046	neutral	141	sub-15	1.0	2.0	141_neutral	1.0	dominance	135.35836649730481	
19.0	115.50076248961614	pulse	3.0	t		23.0	male	white	2.6275368085953046	neutral	141	sub-15	1.0	2.0	141_neutral	1.0	dominance	136.05834886888306	
19.0	116.20074123891573	pulse	3.0	t		23.0	male	white	2.6275368085953046	neutral	141	sub-15	1.0	2.0	141_neutral	1.0	dominance	136.75832761818265	
19.0	116.90074202374262	pulse	3.0	t		23.0	male	white	2.6275368085953046	neutral	141	sub-15	1.0	2.0	141_neutral	1.0	dominance	137.45832840300955	
19.0	117.60073918629132	pulse	3.0	t		23.0	male	white	2.6275368085953046	neutral	141	sub-15	1.0	2.0	141_neutral	1.0	dominance	138.15832556555824	
20.0	118.01726921256477	face	0.0		145	36.0	female	white	2.7548746518105847	smiling	011	sub-15	1.0	2.0	011_smiling	0.0		138.5748555918317	1.2333230299636853
20.0	118.30072336900867	pulse	0.0	t		36.0	female	white	2.7548746518105847	smiling	011	sub-15	1.0	2.0	011_smiling	0.0		138.8583097482756	
20.0	119.00071751299174	pulse	0.0	t		36.0	female	white	2.7548746518105847	smiling	011	sub-15	1.0	2.0	011_smiling	0.0		139.55830389225866	
20.0	119.25059224252846	fix	1.0		1185	36.0	female	white	2.7548746518105847	smiling	011	sub-15	1.0	2.0	011_smiling	0.0		139.80817862179538	10.0165024969574
20.0	119.70070592170077	pulse	1.0	t		36.0	female	white	2.7548746518105847	smiling	011	sub-15	1.0	2.0	011_smiling	0.0		140.2582923009677	
20.0	120.40068768956598	pulse	1.0	t		36.0	female	white	2.7548746518105847	smiling	011	sub-15	1.0	2.0	011_smiling	0.0		140.9582740688329	
20.0	121.10068364468816	pulse	1.0	t		36.0	female	white	2.7548746518105847	smiling	011	sub-15	1.0	2.0	011_smiling	0.0		141.65827002395508	
20.0	121.80067054411438	pulse	1.0	t		36.0	female	white	2.7548746518105847	smiling	011	sub-15	1.0	2.0	011_smiling	0.0		142.3582569233813	
20.0	122.50066136767555	pulse	1.0	t		36.0	female	white	2.7548746518105847	smiling	011	sub-15	1.0	2.0	011_smiling	0.0		143.05824774694247	
20.0	123.20065943579402	pulse	1.0	t		36.0	female	white	2.7548746518105847	smiling	011	sub-15	1.0	2.0	011_smiling	0.0		143.75824581506095	
20.0	123.90063878880665	pulse	1.0	t		36.0	female	white	2.7548746518105847	smiling	011	sub-15	1.0	2.0	011_smiling	0.0		144.45822516807357	
20.0	124.60063504578557	pulse	1.0	t		36.0	female	white	2.7548746518105847	smiling	011	sub-15	1.0	2.0	011_smiling	0.0		145.1582214250525	
20.0	125.30061288951538	pulse	1.0	t		36.0	female	white	2.7548746518105847	smiling	011	sub-15	1.0	2.0	011_smiling	0.0		145.8581992687823	
20.0	126.00063088016532	pulse	1.0	t		36.0	female	white	2.7548746518105847	smiling	011	sub-15	1.0	2.0	011_smiling	0.0		146.55821725943224	
20.0	126.70058216051984	pulse	1.0	t		36.0	female	white	2.7548746518105847	smiling	011	sub-15	1.0	2.0	011_smiling	0.0		147.25816853978677	
20.0	127.40059501960832	pulse	1.0	t		36.0	female	white	2.7548746518105847	smiling	011	sub-15	1.0	2.0	011_smiling	0.0		147.95818139887524	
20.0	128.10059731371803	pulse	1.0	t		36.0	female	white	2.7548746518105847	smiling	011	sub-15	1.0	2.0	011_smiling	0.0		148.65818369298495	
20.0	128.80058360943121	pulse	1.0	t		36.0	female	white	2.7548746518105847	smiling	011	sub-15	1.0	2.0	011_smiling	0.0		149.35816998869814	
21.0	129.26709473948586	face	0.0		145	23.0	male	white	2.6275368085953046	smiling	141	sub-15	1.0	2.0	141_smiling	0.0		149.82468111875278	1.2333326893726735
21.0	129.5005732255663	pulse	0.0	t		23.0	male	white	2.6275368085953046	smiling	141	sub-15	1.0	2.0	141_smiling	0.0		150.05815960483324	
21.0	130.2005580119967	pulse	0.0	t		23.0	male	white	2.6275368085953046	smiling	141	sub-15	1.0	2.0	141_smiling	0.0		150.7581443912636	
21.0	130.50042742885853	fix	1.0		444	23.0	male	white	2.6275368085953046	smiling	141	sub-15	1.0	2.0	141_smiling	0.0		151.05801380812545	3.758344824005235
21.0	130.9005488355583	pulse	1.0	t		23.0	male	white	2.6275368085953046	smiling	141	sub-15	1.0	2.0	141_smiling	0.0		151.45813521482523	
21.0	131.6005290941407	pulse	1.0	t		23.0	male	white	2.6275368085953046	smiling	141	sub-15	1.0	2.0	141_smiling	0.0		152.15811547340763	
21.0	132.3005138805711	pulse	1.0	t		23.0	male	white	2.6275368085953046	smiling	141	sub-15	1.0	2.0	141_smiling	0.0		152.858100259838	
21.0	133.00051587282405	pulse	1.0	t		23.0	male	white	2.6275368085953046	smiling	141	sub-15	1.0	2.0	141_smiling	0.0		153.55810225209098	
21.0	133.70050367782005	pulse	1.0	t		23.0	male	white	2.6275368085953046	smiling	141	sub-15	1.0	2.0	141_smiling	0.0		154.25809005708697	
22.0	134.25877225286376	face	0.0		146	19.0	female	white	4.298846000795861	neutral	100	sub-15	1.0	2.0	100_neutral	0.0		154.8163586321307	1.2415815229992404
22.0	134.40050597192976	pulse	0.0	t		19.0	female	white	4.298846000795861	neutral	100	sub-15	1.0	2.0	100_neutral	0.0		154.95809235119668	
22.0	135.1004792878116	pulse	0.0	t		19.0	female	white	4.298846000795861	neutral	100	sub-15	1.0	2.0	100_neutral	0.0		155.65806566707852	
22.0	135.500353775863	fix	1.0		444	19.0	female	white	4.298846000795861	neutral	100	sub-15	1.0	2.0	100_neutral	0.0		156.05794015512993	3.766594261344835
22.0	135.80046407424197	pulse	1.0	t		19.0	female	white	4.298846000795861	neutral	100	sub-15	1.0	2.0	100_neutral	0.0		156.3580504535089	
22.0	136.50045127552494	pulse	1.0	t		19.0	female	white	4.298846000795861	neutral	100	sub-15	1.0	2.0	100_neutral	0.0		157.05803765479186	
22.0	137.20044240094285	pulse	1.0	t		19.0	female	white	4.298846000795861	neutral	100	sub-15	1.0	2.0	100_neutral	0.0		157.75802878020977	
22.0	137.90043563935615	pulse	1.0	t		19.0	female	white	4.298846000795861	neutral	100	sub-15	1.0	2.0	100_neutral	0.0		158.45802201862307	
22.0	138.60042102949956	pulse	1.0	t		19.0	female	white	4.298846000795861	neutral	100	sub-15	1.0	2.0	100_neutral	0.0		159.15800740876648	
23.0	139.26694803720784	face	0.0		145	25.0	female	black	3.858336649423	neutral	126	sub-15	1.0	2.0	126_neutral	0.0		159.82453441647476	1.2333441599212165
23.0	139.30041728647848	pulse	0.0	t		25.0	female	black	3.858336649423	neutral	126	sub-15	1.0	2.0	126_neutral	0.0		159.8580036657454	
23.0	140.0004192787319	pulse	0.0	t		25.0	female	black	3.858336649423	neutral	126	sub-15	1.0	2.0	126_neutral	0.0		160.55800565799882	
23.0	140.50029219712906	fix	1.0		443	25.0	female	black	3.858336649423	neutral	126	sub-15	1.0	2.0	126_neutral	0.0		161.05787857639598	3.766583092653036
23.0	140.7003998391706	pulse	1.0	t		25.0	female	black	3.858336649423	neutral	126	sub-15	1.0	2.0	126_neutral	0.0		161.2579862184375	
23.0	141.40039700171928	pulse	1.0	t		25.0	female	black	3.858336649423	neutral	126	sub-15	1.0	2.0	126_neutral	0.0		161.9579833809862	
23.0	142.10037997701056	pulse	1.0	t		25.0	female	black	3.858336649423	neutral	126	sub-15	1.0	2.0	126_neutral	0.0		162.65796635627748	
23.0	142.80036023559296	pulse	1.0	t		25.0	female	black	3.858336649423	neutral	126	sub-15	1.0	2.0	126_neutral	0.0		163.35794661485988	
23.0	143.50033475890086	pulse	1.0	t		25.0	female	black	3.858336649423	neutral	126	sub-15	1.0	2.0	126_neutral	0.0		164.05792113816779	
23.0	144.2003452031372	pulse	1.0	t		25.0	female	black	3.858336649423	neutral	126	sub-15	1.0	2.0	126_neutral	0.0		164.75793158240413	
24.0	144.2668752897821	face	0.0		146	32.0	male	white	2.389176283326701	smiling	092	sub-15	1.0	2.0	092_smiling	0.0		164.82446166904901	1.2333311800903175
24.0	144.90033089513736	pulse	0.0	t		32.0	male	white	2.389176283326701	smiling	092	sub-15	1.0	2.0	092_smiling	0.0		165.45791727440428	
24.0	145.5002064698724	fix	1.0		443	32.0	male	white	2.389176283326701	smiling	092	sub-15	1.0	2.0	092_smiling	0.0		166.05779284913933	3.7666144857330437
24.0	145.6003353022429	pulse	1.0	t		32.0	male	white	2.389176283326701	smiling	092	sub-15	1.0	2.0	092_smiling	0.0		166.15792168150983	
24.0	146.3003218998124	pulse	1.0	t		32.0	male	white	2.389176283326701	smiling	092	sub-15	1.0	2.0	092_smiling	0.0		166.8579082790793	
24.0	147.0003078936693	pulse	1.0	t		32.0	male	white	2.389176283326701	smiling	092	sub-15	1.0	2.0	092_smiling	0.0		167.5578942729362	
24.0	147.70028483182978	pulse	1.0	t		32.0	male	white	2.389176283326701	smiling	092	sub-15	1.0	2.0	092_smiling	0.0		168.2578712110967	
24.0	148.40027927766914	pulse	1.0	t		32.0	male	white	2.389176283326701	smiling	092	sub-15	1.0	2.0	092_smiling	0.0		168.95786565693606	
24.0	149.1002682900912	pulse	1.0	t		32.0	male	white	2.389176283326701	smiling	092	sub-15	1.0	2.0	092_smiling	0.0		169.65785466935813	
25.0	149.26682095560545	face	0.0		146	22.0	female	white	4.614007162753682	neutral	009	sub-15	1.0	2.0	009_neutral	0.0		169.82440733487238	1.2333133705542423
25.0	149.80025941550912	pulse	0.0	t		22.0	female	white	4.614007162753682	neutral	009	sub-15	1.0	2.0	009_neutral	0.0		170.35784579477604	
25.0	150.5001343261597	fix	1.0		444	22.0	female	white	4.614007162753682	neutral	009	sub-15	1.0	2.0	009_neutral	0.0		171.05772070542662	3.7665891297838243
25.0	150.50785883497838	pulse	1.0	t		22.0	female	white	4.614007162753682	neutral	009	sub-15	1.0	2.0	009_neutral	0.0		171.0654452142453	
25.0	151.20022898836987	pulse	1.0	t		22.0	female	white	4.614007162753682	neutral	009	sub-15	1.0	2.0	009_neutral	0.0		171.7578153676368	
25.0	151.90021709522216	pulse	1.0	t		22.0	female	white	4.614007162753682	neutral	009	sub-15	1.0	2.0	009_neutral	0.0		172.45780347448908	
25.0	152.60022210604075	pulse	1.0	t		22.0	female	white	4.614007162753682	neutral	009	sub-15	1.0	2.0	009_neutral	0.0		173.15780848530767	
25.0	153.3002636415008	pulse	1.0	t		22.0	female	white	4.614007162753682	neutral	009	sub-15	1.0	2.0	009_neutral	0.0		173.85785002076773	
25.0	154.00018866033633	pulse	1.0	t		22.0	female	white	4.614007162753682	neutral	009	sub-15	1.0	2.0	009_neutral	0.0		174.55777503960326	
26.0	154.26672345594352	face	0.0		145	22.0	female	west_asian	3.8205332272184642	smiling	066	sub-15	1.0	2.0	066_smiling	1.0	trustworthiness	174.82430983521044	1.2333348023685176
26.0	154.7001837098892	pulse	0.0	t		22.0	female	west_asian	3.8205332272184642	smiling	066	sub-15	1.0	2.0	066_smiling	1.0	trustworthiness	175.2577700891561	
26.0	155.4001748353071	pulse	0.0	t		22.0	female	west_asian	3.8205332272184642	smiling	066	sub-15	1.0	2.0	066_smiling	1.0	trustworthiness	175.95776121457402	
26.0	155.50005825831204	fix	1.0		177	22.0	female	west_asian	3.8205332272184642	smiling	066	sub-15	1.0	2.0	066_smiling	1.0	trustworthiness	176.05764463757896	1.4999773607592033
26.0	156.1001695830032	pulse	1.0	t		22.0	female	west_asian	3.8205332272184642	smiling	066	sub-15	1.0	2.0	066_smiling	1.0	trustworthiness	176.65775596227013	
26.0	156.80015346386426	pulse	1.0	t		22.0	female	west_asian	3.8205332272184642	smiling	066	sub-15	1.0	2.0	066_smiling	1.0	trustworthiness	177.35773984313118	
26.0	157.00003561907124	rating	2.0		295	22.0	female	west_asian	3.8205332272184642	smiling	066	sub-15	1.0	2.0	066_smiling	1.0	trustworthiness	177.55762199833816	2.49996951248977
26.0	157.50014519299475	pulse	2.0	t		22.0	female	west_asian	3.8205332272184642	smiling	066	sub-15	1.0	2.0	066_smiling	1.0	trustworthiness	178.05773157226167	
26.0	158.0001412688598	response	2.0	b		22.0	female	west_asian	3.8205332272184642	smiling	066	sub-15	1.0	2.0	066_smiling	1.0	trustworthiness	178.55772764812673	
26.0	158.200117905164	pulse	2.0	t		22.0	female	west_asian	3.8205332272184642	smiling	066	sub-15	1.0	2.0	066_smiling	1.0	trustworthiness	178.75770428443093	
26.0	158.90011567142528	pulse	2.0	t		22.0	female	west_asian	3.8205332272184642	smiling	066	sub-15	1.0	2.0	066_smiling	1.0	trustworthiness	179.4577020506922	
26.0	159.500005131561	fix	3.0		443	22.0	female	west_asian	3.8205332272184642	smiling	066	sub-15	1.0	2.0	066_smiling	1.0	trustworthiness	180.05759151082793	3.7665987891932673
26.0	159.60012611566162	pulse	3.0	t		22.0	female	west_asian	3.8205332272184642	smiling	066	sub-15	1.0	2.0	066_smiling	1.0	trustworthiness	180.15771249492855	
26.0	160.30012569306245	pulse	3.0	t		22.0	female	west_asian	3.8205332272184642	smiling	066	sub-15	1.0	2.0	066_smiling	1.0	trustworthiness	180.85771207232938	
26.0	161.00008844396552	pulse	3.0	t		22.0	female	west_asian	3.8205332272184642	smiling	066	sub-15	1.0	2.0	066_smiling	1.0	trustworthiness	181.55767482323245	
26.0	161.700086512084	pulse	3.0	t		22.0	female	west_asian	3.8205332272184642	smiling	066	sub-15	1.0	2.0	066_smiling	1.0	trustworthiness	182.25767289135092	
26.0	162.40007492079258	pulse	3.0	t		22.0	female	west_asian	3.8205332272184642	smiling	066	sub-15	1.0	2.0	066_smiling	1.0	trustworthiness	182.9576613000595	
26.0	163.1000838557461	pulse	3.0	t		22.0	female	west_asian	3.8205332272184642	smiling	066	sub-15	1.0	2.0	066_smiling	1.0	trustworthiness	183.65767023501303	
27.0	163.26660392075428	face	0.0		146	20.0	male	black	3.1070433744528456	smiling	082	sub-15	1.0	2.0	082_smiling	0.0		183.8241903000212	1.2333341986554842
27.0	163.80005686977165	pulse	0.0	t		20.0	male	black	3.1070433744528456	smiling	082	sub-15	1.0	2.0	082_smiling	0.0		184.35764324903857	
27.0	164.49993811940976	fix	1.0		444	20.0	male	black	3.1070433744528456	smiling	082	sub-15	1.0	2.0	082_smiling	0.0		185.05752449867668	3.7666540289392287
27.0	164.50767258949418	pulse	1.0	t		20.0	male	black	3.1070433744528456	smiling	082	sub-15	1.0	2.0	082_smiling	0.0		185.0652589687611	
27.0	165.20003368718972	pulse	1.0	t		20.0	male	black	3.1070433744528456	smiling	082	sub-15	1.0	2.0	082_smiling	0.0		185.75762006645664	
27.0	165.90002420889414	pulse	1.0	t		20.0	male	black	3.1070433744528456	smiling	082	sub-15	1.0	2.0	082_smiling	0.0		186.45761058816106	
27.0	166.6000258992908	pulse	1.0	t		20.0	male	black	3.1070433744528456	smiling	082	sub-15	1.0	2.0	082_smiling	0.0		187.15761227855774	
27.0	167.3000994315439	pulse	1.0	t		20.0	male	black	3.1070433744528456	smiling	082	sub-15	1.0	2.0	082_smiling	0.0		187.85768581081084	
27.0	168.00008814210923	pulse	1.0	t		20.0	male	black	3.1070433744528456	smiling	082	sub-15	1.0	2.0	082_smiling	0.0		188.55767452137616	
28.0	168.266592148349	face	0.0		145	40.0	male	black	2.408674890569041	neutral	061	sub-15	1.0	2.0	061_neutral	0.0		188.8241785276159	1.2332774496262573
28.0	168.69997995672566	pulse	0.0	t		40.0	male	black	2.408674890569041	neutral	061	sub-15	1.0	2.0	061_neutral	0.0		189.25756633599258	
28.0	169.39998919353593	pulse	0.0	t		40.0	male	black	2.408674890569041	neutral	061	sub-15	1.0	2.0	061_neutral	0.0		189.95757557280285	
28.0	169.49986959797525	fix	1.0		444	40.0	male	black	2.408674890569041	neutral	061	sub-15	1.0	2.0	061_neutral	0.0		190.05745597724217	3.766602109615178
28.0	170.09999148764564	pulse	1.0	t		40.0	male	black	2.408674890569041	neutral	061	sub-15	1.0	2.0	061_neutral	0.0		190.65757786691256	
28.0	170.7999524274096	pulse	1.0	t		40.0	male	black	2.408674890569041	neutral	061	sub-15	1.0	2.0	061_neutral	0.0		191.35753880667653	
28.0	171.49995381594954	pulse	1.0	t		40.0	male	black	2.408674890569041	neutral	061	sub-15	1.0	2.0	061_neutral	0.0		192.05754019521646	
28.0	172.19992803740115	pulse	1.0	t		40.0	male	black	2.408674890569041	neutral	061	sub-15	1.0	2.0	061_neutral	0.0		192.75751441666807	
28.0	172.89991252197524	pulse	1.0	t		40.0	male	black	2.408674890569041	neutral	061	sub-15	1.0	2.0	061_neutral	0.0		193.45749890124216	
29.0	173.26647170759043	face	0.0		145	19.0	male	white	2.243931555909272	smiling	130	sub-15	1.0	2.0	130_smiling	0.0		193.82405808685735	1.2332997870098552
29.0	173.5999347386164	pulse	0.0	t		19.0	male	white	2.243931555909272	smiling	130	sub-15	1.0	2.0	130_smiling	0.0		194.15752111788333	
29.0	174.29989054681892	pulse	0.0	t		19.0	male	white	2.243931555909272	smiling	130	sub-15	1.0	2.0	130_smiling	0.0		194.85747692608584	
29.0	174.49977149460028	fix	1.0		444	19.0	male	white	2.243931555909272	smiling	130	sub-15	1.0	2.0	130_smiling	0.0		195.0573578738672	3.7666048263240555
29.0	174.9999073300428	pulse	1.0	t		19.0	male	white	2.243931555909272	smiling	130	sub-15	1.0	2.0	130_smiling	0.0		195.5574937093097	
29.0	175.69988879605125	pulse	1.0	t		19.0	male	white	2.243931555909272	smiling	130	sub-15	1.0	2.0	130_smiling	0.0		196.25747517531818	
29.0	176.39987388433838	pulse	1.0	t		19.0	male	white	2.243931555909272	smiling	130	sub-15	1.0	2.0	130_smiling	0.0		196.9574602636053	
29.0	177.09986229304695	pulse	1.0	t		19.0	male	white	2.243931555909272	smiling	130	sub-15	1.0	2.0	130_smiling	0.0		197.65744867231388	
29.0	177.79984677762104	pulse	1.0	t		19.0	male	white	2.243931555909272	smiling	130	sub-15	1.0	2.0	130_smiling	0.0		198.35743315688796	
30.0	178.26637632092434	face	0.0		145	22.0	male	black	2.767608436132113	neutral	044	sub-15	1.0	2.0	044_neutral	0.0		198.82396270019126	1.2333287652377294
30.0	178.49984575130884	pulse	0.0	t		22.0	male	black	2.767608436132113	neutral	044	sub-15	1.0	2.0	044_neutral	0.0		199.05743213057576	
30.0	179.19982238761258	pulse	0.0	t		22.0	male	black	2.767608436132113	neutral	044	sub-15	1.0	2.0	044_neutral	0.0		199.7574087668795	
30.0	179.49970508616207	fix	1.0		444	22.0	male	black	2.767608436132113	neutral	044	sub-15	1.0	2.0	044_neutral	0.0		200.057291465429	3.758427230840425
30.0	179.89981321117375	pulse	1.0	t		22.0	male	black	2.767608436132113	neutral	044	sub-15	1.0	2.0	044_neutral	0.0		200.45739959044067	
30.0	180.59981852384908	pulse	1.0	t		22.0	male	black	2.767608436132113	neutral	044	sub-15	1.0	2.0	044_neutral	0.0		201.157404903116	
30.0	181.2998057251316	pulse	1.0	t		22.0	male	black	2.767608436132113	neutral	044	sub-15	1.0	2.0	044_neutral	0.0		201.8573921043985	
30.0	181.99978809670984	pulse	1.0	t		22.0	male	black	2.767608436132113	neutral	044	sub-15	1.0	2.0	044_neutral	0.0		202.55737447597676	
30.0	182.69977318499696	pulse	1.0	t		22.0	male	black	2.767608436132113	neutral	044	sub-15	1.0	2.0	044_neutral	0.0		203.25735956426388	
31.0	183.2581323170025	face	0.0		146	22.0	female	west_asian	3.8205332272184642	neutral	066	sub-15	1.0	2.0	066_neutral	0.0		203.8157186962694	1.2415000217333727
31.0	183.39977849767183	pulse	0.0	t		22.0	female	west_asian	3.8205332272184642	neutral	066	sub-15	1.0	2.0	066_neutral	0.0		203.95736487693875	
31.0	184.09976117110682	pulse	0.0	t		22.0	female	west_asian	3.8205332272184642	neutral	066	sub-15	1.0	2.0	066_neutral	0.0		204.65734755037374	
31.0	184.49963233873586	fix	1.0		444	22.0	female	west_asian	3.8205332272184642	neutral	066	sub-15	1.0	2.0	066_neutral	0.0		205.0572187180028	3.7583946303348057
31.0	184.79975742808574	pulse	1.0	t		22.0	female	west_asian	3.8205332272184642	neutral	066	sub-15	1.0	2.0	066_neutral	0.0		205.35734380735266	
31.0	185.49973195139364	pulse	1.0	t		22.0	female	west_asian	3.8205332272184642	neutral	066	sub-15	1.0	2.0	066_neutral	0.0		206.05731833066056	
31.0	186.19973183065122	pulse	1.0	t		22.0	female	west_asian	3.8205332272184642	neutral	066	sub-15	1.0	2.0	066_neutral	0.0		206.75731820991814	
31.0	186.89971088180755	pulse	1.0	t		22.0	female	west_asian	3.8205332272184642	neutral	066	sub-15	1.0	2.0	066_neutral	0.0		207.45729726107447	
31.0	187.59969929051613	pulse	1.0	t		22.0	female	west_asian	3.8205332272184642	neutral	066	sub-15	1.0	2.0	066_neutral	0.0		208.15728566978305	
32.0	188.25802696907067	face	0.0		146	19.0	male	white	3.2522881018702745	smiling	018	sub-15	1.0	2.0	018_smiling	0.0		208.8156133483376	1.2415302073873136
32.0	188.2997024901956	pulse	0.0	t		19.0	male	white	3.2522881018702745	smiling	018	sub-15	1.0	2.0	018_smiling	0.0		208.85728886946254	
32.0	188.99967490050813	pulse	0.0	t		19.0	male	white	3.2522881018702745	smiling	018	sub-15	1.0	2.0	018_smiling	0.0		209.55726127977505	
32.0	189.49955717645798	fix	1.0		443	19.0	male	white	3.2522881018702745	smiling	018	sub-15	1.0	2.0	018_smiling	0.0		210.0571435557249	3.7583919136254735
32.0	189.69967296862615	pulse	1.0	t		19.0	male	white	3.2522881018702745	smiling	018	sub-15	1.0	2.0	018_smiling	0.0		210.25725934789307	
32.0	190.39965986805237	pulse	1.0	t		19.0	male	white	3.2522881018702745	smiling	018	sub-15	1.0	2.0	018_smiling	0.0		210.9572462473193	
32.0	191.09966940671893	pulse	1.0	t		19.0	male	white	3.2522881018702745	smiling	018	sub-15	1.0	2.0	018_smiling	0.0		211.65725578598585	
32.0	191.79964996715808	pulse	1.0	t		19.0	male	white	3.2522881018702745	smiling	018	sub-15	1.0	2.0	018_smiling	0.0		212.357236346425	
32.0	192.4996326405926	pulse	1.0	t		19.0	male	white	3.2522881018702745	smiling	018	sub-15	1.0	2.0	018_smiling	0.0		213.05721901985953	
32.0	193.19961863444905	pulse	1.0	t		19.0	male	white	3.2522881018702745	smiling	018	sub-15	1.0	2.0	018_smiling	0.0		213.75720501371597	
33.0	193.25794909008346	face	0.0		147	25.0	female	west_asian	2.6756864305610826	smiling	064	sub-15	1.0	2.0	064_smiling	0.0		213.81553546935038	1.2415359426618124
33.0	193.89961066543674	pulse	0.0	t		25.0	female	west_asian	2.6756864305610826	smiling	064	sub-15	1.0	2.0	064_smiling	0.0		214.45719704470366	
33.0	194.49948503274527	fix	1.0		443	25.0	female	west_asian	2.6756864305610826	smiling	064	sub-15	1.0	2.0	064_smiling	0.0		215.0570714120122	3.766603920754278
33.0	194.5996108465506	pulse	1.0	t		25.0	female	west_asian	2.6756864305610826	smiling	064	sub-15	1.0	2.0	064_smiling	0.0		215.15719722581753	
33.0	195.29957933272772	pulse	1.0	t		25.0	female	west_asian	2.6756864305610826	smiling	064	sub-15	1.0	2.0	064_smiling	0.0		215.85716571199464	
33.0	195.99958192869417	pulse	1.0	t		25.0	female	west_asian	2.6756864305610826	smiling	064	sub-15	1.0	2.0	064_smiling	0.0		216.5571683079611	
33.0	196.69958784508253	pulse	1.0	t		25.0	female	west_asian	2.6756864305610826	smiling	064	sub-15	1.0	2.0	064_smiling	0.0		217.25717422434946	
33.0	197.39955784054246	pulse	1.0	t		25.0	female	west_asian	2.6756864305610826	smiling	064	sub-15	1.0	2.0	064_smiling	0.0		217.95714421980938	
33.0	198.10030662587178	pulse	1.0	t		25.0	female	west_asian	2.6756864305610826	smiling	064	sub-15	1.0	2.0	064_smiling	0.0		218.6578930051387	
34.0	198.26608895349955	face	0.0		146	30.0	female	black	2.7345801830481498	neutral	062	sub-15	1.0	2.0	062_neutral	0.0		218.82367533276647	1.2333363116513283
34.0	198.79956091947906	pulse	0.0	t		30.0	female	black	2.7345801830481498	neutral	062	sub-15	1.0	2.0	062_neutral	0.0		219.35714729874599	
34.0	199.49942526515088	fix	1.0		444	30.0	female	black	2.7345801830481498	neutral	062	sub-15	1.0	2.0	062_neutral	0.0		220.0570116444178	3.7582651338793767
34.0	199.50732273776612	pulse	1.0	t		30.0	female	black	2.7345801830481498	neutral	062	sub-15	1.0	2.0	062_neutral	0.0		220.06490911703304	
34.0	200.19951509765633	pulse	1.0	t		30.0	female	black	2.7345801830481498	neutral	062	sub-15	1.0	2.0	062_neutral	0.0		220.75710147692325	
34.0	200.89951014720918	pulse	1.0	t		30.0	female	black	2.7345801830481498	neutral	062	sub-15	1.0	2.0	062_neutral	0.0		221.4570965264761	
34.0	201.59950066891406	pulse	1.0	t		30.0	female	black	2.7345801830481498	neutral	062	sub-15	1.0	2.0	062_neutral	0.0		222.15708704818098	
34.0	202.29950930201085	pulse	1.0	t		30.0	female	black	2.7345801830481498	neutral	062	sub-15	1.0	2.0	062_neutral	0.0		222.85709568127777	
34.0	202.99946782692268	pulse	1.0	t		30.0	female	black	2.7345801830481498	neutral	062	sub-15	1.0	2.0	062_neutral	0.0		223.5570542061896	
35.0	203.25769039903025	face	0.0		146	34.0	male	white	2.651014723438122	neutral	121	sub-15	1.0	2.0	121_neutral	0.0		223.81527677829718	1.2416497425765556
35.0	203.69947796930228	pulse	0.0	t		34.0	male	white	2.651014723438122	neutral	121	sub-15	1.0	2.0	121_neutral	0.0		224.2570643485692	
35.0	204.39945852974142	pulse	0.0	t		34.0	male	white	2.651014723438122	neutral	121	sub-15	1.0	2.0	121_neutral	0.0		224.95704490900835	
35.0	204.4993401416068	fix	1.0		444	34.0	male	white	2.651014723438122	neutral	121	sub-15	1.0	2.0	121_neutral	0.0		225.05692652087373	3.766607543032933
35.0	205.09944301431506	pulse	1.0	t		34.0	male	white	2.651014723438122	neutral	121	sub-15	1.0	2.0	121_neutral	0.0		225.65702939358198	
35.0	205.79945255298162	pulse	1.0	t		34.0	male	white	2.651014723438122	neutral	121	sub-15	1.0	2.0	121_neutral	0.0		226.35703893224854	
35.0	206.49943160413795	pulse	1.0	t		34.0	male	white	2.651014723438122	neutral	121	sub-15	1.0	2.0	121_neutral	0.0		227.05701798340488	
35.0	207.19942363512519	pulse	1.0	t		34.0	male	white	2.651014723438122	neutral	121	sub-15	1.0	2.0	121_neutral	0.0		227.7570100143921	
35.0	207.899418080965	pulse	1.0	t		34.0	male	white	2.651014723438122	neutral	121	sub-15	1.0	2.0	121_neutral	0.0		228.45700446023193	
36.0	208.26594768463974	face	0.0		145	28.0	female	white	5.676880222841227	neutral	124	sub-15	1.0	2.0	124_neutral	0.0		228.82353406390666	1.233314276123565
36.0	208.59940286739538	pulse	0.0	t		28.0	female	white	5.676880222841227	neutral	124	sub-15	1.0	2.0	124_neutral	0.0		229.1569892466623	
36.0	209.2993659201552	pulse	0.0	t		28.0	female	white	5.676880222841227	neutral	124	sub-15	1.0	2.0	124_neutral	0.0		229.85695229942212	
36.0	209.4992619607633	fix	1.0		444	28.0	female	white	5.676880222841227	neutral	124	sub-15	1.0	2.0	124_neutral	0.0		230.05684834003023	3.766609052315289
36.0	209.99937032726075	pulse	1.0	t		28.0	female	white	5.676880222841227	neutral	124	sub-15	1.0	2.0	124_neutral	0.0		230.55695670652767	
36.0	210.69936084896517	pulse	1.0	t		28.0	female	white	5.676880222841227	neutral	124	sub-15	1.0	2.0	124_neutral	0.0		231.2569472282321	
36.0	211.39935046510027	pulse	1.0	t		28.0	female	white	5.676880222841227	neutral	124	sub-15	1.0	2.0	124_neutral	0.0		231.9569368443672	
36.0	212.09931019743817	pulse	1.0	t		28.0	female	white	5.676880222841227	neutral	124	sub-15	1.0	2.0	124_neutral	0.0		232.6568965767051	
36.0	212.799345695767	pulse	1.0	t		28.0	female	white	5.676880222841227	neutral	124	sub-15	1.0	2.0	124_neutral	0.0		233.3569320750339	
37.0	213.2658710130786	face	0.0		145	28.0	female	white	5.676880222841227	smiling	124	sub-15	1.0	2.0	124_smiling	0.0		233.82345739234552	1.2333218225376186
37.0	213.5000485989026	pulse	0.0	t		28.0	female	white	5.676880222841227	smiling	124	sub-15	1.0	2.0	124_smiling	0.0		234.05763497816952	
37.0	214.19932281504134	pulse	0.0	t		28.0	female	white	5.676880222841227	smiling	124	sub-15	1.0	2.0	124_smiling	0.0		234.75690919430826	
37.0	214.4991928356162	fix	1.0		444	28.0	female	white	5.676880222841227	smiling	124	sub-15	1.0	2.0	124_smiling	0.0		235.05677921488314	3.75826935987061
37.0	214.89930911075453	pulse	1.0	t		28.0	female	white	5.676880222841227	smiling	124	sub-15	1.0	2.0	124_smiling	0.0		235.45689549002145	
37.0	215.59929540646772	pulse	1.0	t		28.0	female	white	5.676880222841227	smiling	124	sub-15	1.0	2.0	124_smiling	0.0		236.15688178573464	
37.0	216.29928562631585	pulse	1.0	t		28.0	female	white	5.676880222841227	smiling	124	sub-15	1.0	2.0	124_smiling	0.0		236.85687200558277	
37.0	216.99927101645972	pulse	1.0	t		28.0	female	white	5.676880222841227	smiling	124	sub-15	1.0	2.0	124_smiling	0.0		237.55685739572664	
37.0	217.6992515768984	pulse	1.0	t		28.0	female	white	5.676880222841227	smiling	124	sub-15	1.0	2.0	124_smiling	0.0		238.25683795616533	
38.0	218.25746219548682	face	0.0		147	24.0	female	east_asian	2.9076800636689217	smiling	034	sub-15	1.0	2.0	034_smiling	1.0	attractiveness	238.81504857475375	1.2499879257388784
38.0	218.39925145615598	pulse	0.0	t		24.0	female	east_asian	2.9076800636689217	smiling	034	sub-15	1.0	2.0	034_smiling	1.0	attractiveness	238.9568378354229	
38.0	219.09923382773422	pulse	0.0	t		24.0	female	east_asian	2.9076800636689217	smiling	034	sub-15	1.0	2.0	034_smiling	1.0	attractiveness	239.65682020700115	
38.0	219.5074501212257	fix	1.0		177	24.0	female	east_asian	2.9076800636689217	smiling	034	sub-15	1.0	2.0	034_smiling	1.0	attractiveness	240.06503650049262	1.4999818886076355
38.0	219.7992376311263	pulse	1.0	t		24.0	female	east_asian	2.9076800636689217	smiling	034	sub-15	1.0	2.0	034_smiling	1.0	attractiveness	240.3568240103932	
38.0	220.49921577671284	pulse	1.0	t		24.0	female	east_asian	2.9076800636689217	smiling	034	sub-15	1.0	2.0	034_smiling	1.0	attractiveness	241.05680215597977	
38.0	221.00743200983334	rating	2.0		294	24.0	female	east_asian	2.9076800636689217	smiling	034	sub-15	1.0	2.0	034_smiling	1.0	attractiveness	241.56501838910026	2.4999640790715603
38.0	221.19920810955682	pulse	2.0	t		24.0	female	east_asian	2.9076800636689217	smiling	034	sub-15	1.0	2.0	034_smiling	1.0	attractiveness	241.75679448882374	
38.0	221.89920768695765	pulse	2.0	t		24.0	female	east_asian	2.9076800636689217	smiling	034	sub-15	1.0	2.0	034_smiling	1.0	attractiveness	242.45679406622457	
38.0	222.0440933919981	response	2.0	b		24.0	female	east_asian	2.9076800636689217	smiling	034	sub-15	1.0	2.0	034_smiling	1.0	attractiveness	242.60167977126503	
38.0	222.5991897566796	pulse	2.0	t		24.0	female	east_asian	2.9076800636689217	smiling	034	sub-15	1.0	2.0	034_smiling	1.0	attractiveness	243.15677613594653	
38.0	223.29917152454436	pulse	2.0	t		24.0	female	east_asian	2.9076800636689217	smiling	034	sub-15	1.0	2.0	034_smiling	1.0	attractiveness	243.85675790381129	
38.0	223.5073960889049	fix	3.0		444	24.0	female	east_asian	2.9076800636689217	smiling	034	sub-15	1.0	2.0	034_smiling	1.0	attractiveness	244.06498246817182	3.766606335606866
38.0	223.9991650648144	pulse	3.0	t		24.0	female	east_asian	2.9076800636689217	smiling	034	sub-15	1.0	2.0	034_smiling	1.0	attractiveness	244.55675144408133	
38.0	224.69915920879794	pulse	3.0	t		24.0	female	east_asian	2.9076800636689217	smiling	034	sub-15	1.0	2.0	034_smiling	1.0	attractiveness	245.25674558806486	
38.0	225.39915546577686	pulse	3.0	t		24.0	female	east_asian	2.9076800636689217	smiling	034	sub-15	1.0	2.0	034_smiling	1.0	attractiveness	245.95674184504378	
38.0	226.09914810047712	pulse	3.0	t		24.0	female	east_asian	2.9076800636689217	smiling	034	sub-15	1.0	2.0	034_smiling	1.0	attractiveness	246.65673447974405	
38.0	226.79910934209738	pulse	3.0	t		24.0	female	east_asian	2.9076800636689217	smiling	034	sub-15	1.0	2.0	034_smiling	1.0	attractiveness	247.3566957213643	
39.0	227.27400242451176	face	0.0		145	21.0	male	black	2.969757262236371	smiling	137	sub-15	1.0	2.0	137_smiling	0.0		247.8315888037787	1.2333133705542423
39.0	227.49912310675563	pulse	0.0	t		21.0	male	black	2.969757262236371	smiling	137	sub-15	1.0	2.0	137_smiling	0.0		248.05670948602256	
39.0	228.19911000618185	pulse	0.0	t		21.0	male	black	2.969757262236371	smiling	137	sub-15	1.0	2.0	137_smiling	0.0		248.75669638544878	
39.0	228.507315795066	fix	1.0		444	21.0	male	black	2.969757262236371	smiling	137	sub-15	1.0	2.0	137_smiling	0.0		249.06490217433293	3.7499538159495387
39.0	228.89908935919493	pulse	1.0	t		21.0	male	black	2.969757262236371	smiling	137	sub-15	1.0	2.0	137_smiling	0.0		249.45667573846185	
39.0	229.59907927718632	pulse	1.0	t		21.0	male	black	2.969757262236371	smiling	137	sub-15	1.0	2.0	137_smiling	0.0		250.15666565645324	
39.0	230.29907221374333	pulse	1.0	t		21.0	male	black	2.969757262236371	smiling	137	sub-15	1.0	2.0	137_smiling	0.0		250.85665859301025	
39.0	230.99905850945652	pulse	1.0	t		21.0	male	black	2.969757262236371	smiling	137	sub-15	1.0	2.0	137_smiling	0.0		251.55664488872344	
39.0	231.69905114415678	pulse	1.0	t		21.0	male	black	2.969757262236371	smiling	137	sub-15	1.0	2.0	137_smiling	0.0		252.2566375234237	
40.0	232.25726961101554	fix	0.0		720													252.81485599028247	5.9999118578907655
40.0	232.39904347700076	pulse	0.0	t														252.95662985626768	
40.0	233.0990460729672	pulse	0.0	t														253.65663245223413	
40.0	233.79901818142298	pulse	0.0	t														254.3566045606899	
40.0	234.49900960869718	pulse	0.0	t														255.0565959879641	
40.0	235.19899741369318	pulse	0.0	t														255.7565837929601	
40.0	235.89899638738098	pulse	0.0	t														256.4565827666479	
40.0	236.59897785338944	pulse	0.0	t														257.15656423265636	
40.0	237.29898135492522	pulse	0.0	t														257.85656773419214	
40.0	237.99895527452054	pulse	0.0	t														258.55654165378746	
