trial_nr	onset	event_type	phase	response	nr_frames	face_age	face_sex	face_eth	attractiveness	expression	face_id	sub_id	ses	run	trial_type	catch	rating_type	onset_abs	duration
-1.0	0.05786612276824599	fix	0.0		714													27.523934677806665	5.966236838077748
-1.0	0.7076976435246252	pulse	0.0	t														28.173766198563044	
-1.0	1.4076699636057128	pulse	0.0	t														28.87373851864413	
-1.0	2.1076591874543738	pulse	0.0	t														29.573727742492792	
-1.0	2.8076363371833395	pulse	0.0	t														30.273704892221758	
-1.0	3.507624655472682	pulse	0.0	t														30.9736932105111	
-1.0	4.207600597789678	pulse	0.0	t														31.673669152828097	
-1.0	4.907592840168036	pulse	0.0	t														32.373661395206454	
-1.0	5.6075449360992025	pulse	0.0	t														33.07361349113762	
0.0	6.024102960845994	face	0.0		144	28.0	female	white	5.676880222841227	smiling	124	sub-14	2.0	2.0	124_smiling	0.0		33.49017151588441	1.2333070016911734
0.0	6.307555591509754	pulse	0.0	t		28.0	female	white	5.676880222841227	smiling	124	sub-14	2.0	2.0	124_smiling	0.0		33.77362414654817	
0.0	7.007531231974099	pulse	0.0	t		28.0	female	white	5.676880222841227	smiling	124	sub-14	2.0	2.0	124_smiling	0.0		34.47359978701252	
0.0	7.257409962537167	fix	1.0		444	28.0	female	white	5.676880222841227	smiling	124	sub-14	2.0	2.0	124_smiling	0.0		34.723478517575586	3.7582178720513184
0.0	7.707507174291095	pulse	1.0	t		28.0	female	white	5.676880222841227	smiling	124	sub-14	2.0	2.0	124_smiling	0.0		35.173575729329514	
0.0	8.407504548169982	pulse	1.0	t		28.0	female	white	5.676880222841227	smiling	124	sub-14	2.0	2.0	124_smiling	0.0		35.8735731032084	
0.0	9.107472642309403	pulse	1.0	t		28.0	female	white	5.676880222841227	smiling	124	sub-14	2.0	2.0	124_smiling	0.0		36.57354119734782	
0.0	9.807454621686247	pulse	1.0	t		28.0	female	white	5.676880222841227	smiling	124	sub-14	2.0	2.0	124_smiling	0.0		37.273523176724666	
0.0	10.507431469562562	pulse	1.0	t		28.0	female	white	5.676880222841227	smiling	124	sub-14	2.0	2.0	124_smiling	0.0		37.97350002460098	
1.0	11.015627834588486	face	0.0		146	40.0	male	black	2.408674890569041	neutral	061	sub-14	2.0	2.0	061_neutral	0.0		38.481696389626904	1.2416505200471875
1.0	11.207431258265387	pulse	0.0	t		40.0	male	black	2.408674890569041	neutral	061	sub-14	2.0	2.0	061_neutral	0.0		38.673499813303806	
1.0	11.90739814499284	pulse	0.0	t		40.0	male	black	2.408674890569041	neutral	061	sub-14	2.0	2.0	061_neutral	0.0		39.37346670003126	
1.0	12.257278354635673	fix	1.0		444	40.0	male	black	2.408674890569041	neutral	061	sub-14	2.0	2.0	061_neutral	0.0		39.72334690967409	3.758219079463288
1.0	12.607384954017562	pulse	1.0	t		40.0	male	black	2.408674890569041	neutral	061	sub-14	2.0	2.0	061_neutral	0.0		40.07345350905598	
1.0	13.307379611219403	pulse	1.0	t		40.0	male	black	2.408674890569041	neutral	061	sub-14	2.0	2.0	061_neutral	0.0		40.77344816625782	
1.0	14.007342573858296	pulse	1.0	t		40.0	male	black	2.408674890569041	neutral	061	sub-14	2.0	2.0	061_neutral	0.0		41.473411128896714	
1.0	14.707321534705443	pulse	1.0	t		40.0	male	black	2.408674890569041	neutral	061	sub-14	2.0	2.0	061_neutral	0.0		42.17339008974386	
1.0	15.407304721494256	pulse	1.0	t		40.0	male	black	2.408674890569041	neutral	061	sub-14	2.0	2.0	061_neutral	0.0		42.873373276532675	
2.0	16.01549743409896	face	0.0		146	31.0	female	east_asian	3.395941106247513	neutral	087	sub-14	2.0	2.0	087_neutral	0.0		43.48156598913738	1.2416481052232484
2.0	16.107290926812766	pulse	0.0	t		31.0	female	east_asian	3.395941106247513	neutral	087	sub-14	2.0	2.0	087_neutral	0.0		43.573359481851185	
2.0	16.8072692839537	pulse	0.0	t		31.0	female	east_asian	3.395941106247513	neutral	087	sub-14	2.0	2.0	087_neutral	0.0		44.27333783899212	
2.0	17.25714553932221	fix	1.0		444	31.0	female	east_asian	3.395941106247513	neutral	087	sub-14	2.0	2.0	087_neutral	0.0		44.72321409436063	3.7582136461096525
2.0	17.50724975406547	pulse	1.0	t		31.0	female	east_asian	3.395941106247513	neutral	087	sub-14	2.0	2.0	087_neutral	0.0		44.97331830910389	
2.0	18.207224488970496	pulse	1.0	t		31.0	female	east_asian	3.395941106247513	neutral	087	sub-14	2.0	2.0	087_neutral	0.0		45.673293044008915	
2.0	18.907212505407188	pulse	1.0	t		31.0	female	east_asian	3.395941106247513	neutral	087	sub-14	2.0	2.0	087_neutral	0.0		46.373281060445606	
2.0	19.60720776631524	pulse	1.0	t		31.0	female	east_asian	3.395941106247513	neutral	087	sub-14	2.0	2.0	087_neutral	0.0		47.07327632135366	
2.0	20.307179180837466	pulse	1.0	t		31.0	female	east_asian	3.395941106247513	neutral	087	sub-14	2.0	2.0	087_neutral	0.0		47.773247735875884	
3.0	21.015359185431862	face	0.0		147	20.0	male	black	3.1070433744528456	smiling	082	sub-14	2.0	2.0	082_smiling	0.0		48.48142774047028	1.241652331165369
3.0	21.0085373079728	pulse	0.0	t		20.0	male	black	3.1070433744528456	smiling	082	sub-14	2.0	2.0	082_smiling	0.0		48.47460586301122	
3.0	21.70712895250108	pulse	0.0	t		20.0	male	black	3.1070433744528456	smiling	082	sub-14	2.0	2.0	082_smiling	0.0		49.1731975075395	
3.0	22.25701151659723	fix	1.0		443	20.0	male	black	3.1070433744528456	smiling	082	sub-14	2.0	2.0	082_smiling	0.0		49.72308007163565	3.758221192433666
3.0	22.407119383761255	pulse	1.0	t		20.0	male	black	3.1070433744528456	smiling	082	sub-14	2.0	2.0	082_smiling	0.0		49.873187938799674	
3.0	23.10709079828348	pulse	1.0	t		20.0	male	black	3.1070433744528456	smiling	082	sub-14	2.0	2.0	082_smiling	0.0		50.5731593533219	
3.0	23.807087266603503	pulse	1.0	t		20.0	male	black	3.1070433744528456	smiling	082	sub-14	2.0	2.0	082_smiling	0.0		51.27315582164192	
3.0	24.507057775566864	pulse	1.0	t		20.0	male	black	3.1070433744528456	smiling	082	sub-14	2.0	2.0	082_smiling	0.0		51.97312633060528	
3.0	25.20705424388734	pulse	1.0	t		20.0	male	black	3.1070433744528456	smiling	082	sub-14	2.0	2.0	082_smiling	0.0		52.67312279892576	
3.0	25.9070214324679	pulse	1.0	t		20.0	male	black	3.1070433744528456	smiling	082	sub-14	2.0	2.0	082_smiling	0.0		53.37308998750632	
4.0	26.015232709030897	face	0.0		147	27.0	female	white	4.181058495821727	smiling	039	sub-14	2.0	2.0	039_smiling	1.0	trustworthiness	53.481301264069316	1.2416453885471128
4.0	26.60701729708171	pulse	0.0	t		27.0	female	white	4.181058495821727	smiling	039	sub-14	2.0	2.0	039_smiling	1.0	trustworthiness	54.07308585212013	
4.0	27.25687809757801	fix	1.0		176	27.0	female	white	4.181058495821727	smiling	039	sub-14	2.0	2.0	039_smiling	1.0	trustworthiness	54.72294665261643	1.5083056358062095
4.0	27.306987504191966	pulse	1.0	t		27.0	female	white	4.181058495821727	smiling	039	sub-14	2.0	2.0	039_smiling	1.0	trustworthiness	54.773056059230385	
4.0	28.006966163186007	pulse	1.0	t		27.0	female	white	4.181058495821727	smiling	039	sub-14	2.0	2.0	039_smiling	1.0	trustworthiness	55.473034718224426	
4.0	28.70695991482944	pulse	1.0	t		27.0	female	white	4.181058495821727	smiling	039	sub-14	2.0	2.0	039_smiling	1.0	trustworthiness	56.17302846986786	
4.0	28.76518373338422	rating	2.0		294	27.0	female	white	4.181058495821727	smiling	039	sub-14	2.0	2.0	039_smiling	1.0	trustworthiness	56.23125228842264	2.4915902249135797
4.0	29.40169870785803	pulse	2.0	t		27.0	female	white	4.181058495821727	smiling	039	sub-14	2.0	2.0	039_smiling	1.0	trustworthiness	56.86776726289645	
4.0	30.090250118401855	response	2.0	y		27.0	female	white	4.181058495821727	smiling	039	sub-14	2.0	2.0	039_smiling	1.0	trustworthiness	57.55631867344027	
4.0	30.10134200818584	pulse	2.0	t		27.0	female	white	4.181058495821727	smiling	039	sub-14	2.0	2.0	039_smiling	1.0	trustworthiness	57.56741056322426	
4.0	30.806898004781942	pulse	2.0	t		27.0	female	white	4.181058495821727	smiling	039	sub-14	2.0	2.0	039_smiling	1.0	trustworthiness	58.27296655982036	
4.0	31.2567739582978	fix	3.0		444	27.0	female	white	4.181058495821727	smiling	039	sub-14	2.0	2.0	039_smiling	1.0	trustworthiness	58.72284251333622	3.7581955349305645
4.0	31.506880587865	pulse	3.0	t		27.0	female	white	4.181058495821727	smiling	039	sub-14	2.0	2.0	039_smiling	1.0	trustworthiness	58.97294914290342	
4.0	32.20685562462313	pulse	3.0	t		27.0	female	white	4.181058495821727	smiling	039	sub-14	2.0	2.0	039_smiling	1.0	trustworthiness	59.67292417966155	
4.0	32.906833378057854	pulse	3.0	t		27.0	female	white	4.181058495821727	smiling	039	sub-14	2.0	2.0	039_smiling	1.0	trustworthiness	60.37290193309627	
4.0	33.60681656484667	pulse	3.0	t		27.0	female	white	4.181058495821727	smiling	039	sub-14	2.0	2.0	039_smiling	1.0	trustworthiness	61.072885119885086	
4.0	34.30680277016563	pulse	3.0	t		27.0	female	white	4.181058495821727	smiling	039	sub-14	2.0	2.0	039_smiling	1.0	trustworthiness	61.77287132520405	
5.0	35.014969493228364	face	0.0		146	40.0	male	white	1.868682849184242	neutral	172	sub-14	2.0	2.0	172_neutral	1.0	attractiveness	62.48103804826678	1.2416782905220316
5.0	35.009075209991806	pulse	0.0	t		40.0	male	white	1.868682849184242	neutral	172	sub-14	2.0	2.0	172_neutral	1.0	attractiveness	62.475143765030225	
5.0	35.706769143742804	pulse	0.0	t		40.0	male	white	1.868682849184242	neutral	172	sub-14	2.0	2.0	172_neutral	1.0	attractiveness	63.17283769878122	
5.0	36.256647783750395	fix	1.0		177	40.0	male	white	1.868682849184242	neutral	172	sub-14	2.0	2.0	172_neutral	1.0	attractiveness	63.722716338788814	1.499956985949666
5.0	36.39861195923413	pulse	1.0	t		40.0	male	white	1.868682849184242	neutral	172	sub-14	2.0	2.0	172_neutral	1.0	attractiveness	63.86468051427255	
5.0	37.098593636758324	pulse	1.0	t		40.0	male	white	1.868682849184242	neutral	172	sub-14	2.0	2.0	172_neutral	1.0	attractiveness	64.56466219179674	
5.0	37.75660476970006	rating	2.0		294	40.0	male	white	1.868682849184242	neutral	172	sub-14	2.0	2.0	172_neutral	1.0	attractiveness	65.22267332473848	2.4999123117077033
5.0	37.80174990212436	pulse	2.0	t		40.0	male	white	1.868682849184242	neutral	172	sub-14	2.0	2.0	172_neutral	1.0	attractiveness	65.26781845716278	
5.0	38.50149945470275	pulse	2.0	t		40.0	male	white	1.868682849184242	neutral	172	sub-14	2.0	2.0	172_neutral	1.0	attractiveness	65.96756800974117	
5.0	39.201447928398466	pulse	2.0	t		40.0	male	white	1.868682849184242	neutral	172	sub-14	2.0	2.0	172_neutral	1.0	attractiveness	66.66751648343688	
5.0	39.33477759924881	response	2.0	n		40.0	male	white	1.868682849184242	neutral	172	sub-14	2.0	2.0	172_neutral	1.0	attractiveness	66.80084615428723	
5.0	39.898525780207365	pulse	2.0	t		40.0	male	white	1.868682849184242	neutral	172	sub-14	2.0	2.0	172_neutral	1.0	attractiveness	67.36459433524578	
5.0	40.256517081407765	fix	3.0		444	40.0	male	white	1.868682849184242	neutral	172	sub-14	2.0	2.0	172_neutral	1.0	attractiveness	67.72258563644618	3.766569842291119
5.0	40.59850111881815	pulse	3.0	t		40.0	male	white	1.868682849184242	neutral	172	sub-14	2.0	2.0	172_neutral	1.0	attractiveness	68.06456967385657	
5.0	41.298557354029526	pulse	3.0	t		40.0	male	white	1.868682849184242	neutral	172	sub-14	2.0	2.0	172_neutral	1.0	attractiveness	68.76462590906795	
5.0	41.99848681098683	pulse	3.0	t		40.0	male	white	1.868682849184242	neutral	172	sub-14	2.0	2.0	172_neutral	1.0	attractiveness	69.46455536602525	
5.0	42.69843951062421	pulse	3.0	t		40.0	male	white	1.868682849184242	neutral	172	sub-14	2.0	2.0	172_neutral	1.0	attractiveness	70.16450806566263	
5.0	43.39841756591204	pulse	3.0	t		40.0	male	white	1.868682849184242	neutral	172	sub-14	2.0	2.0	172_neutral	1.0	attractiveness	70.86448612095046	
6.0	44.023086923698884	face	0.0		145	20.0	male	black	2.609629924393156	smiling	043	sub-14	2.0	2.0	043_smiling	0.0		71.4891554787373	1.2333154535745052
6.0	44.106545349940006	pulse	0.0	t		20.0	male	black	2.609629924393156	smiling	043	sub-14	2.0	2.0	043_smiling	0.0		71.57261390497843	
6.0	44.80652491449291	pulse	0.0	t		20.0	male	black	2.609629924393156	smiling	043	sub-14	2.0	2.0	043_smiling	0.0		72.27259346953133	
6.0	45.25640237727339	fix	1.0		444	20.0	male	black	2.609629924393156	smiling	043	sub-14	2.0	2.0	043_smiling	0.0		72.72247093231181	3.7665499199938495
6.0	45.49836501330719	pulse	1.0	t		20.0	male	black	2.609629924393156	smiling	043	sub-14	2.0	2.0	043_smiling	0.0		72.96443356834561	
6.0	46.198347898243355	pulse	1.0	t		20.0	male	black	2.609629924393156	smiling	043	sub-14	2.0	2.0	043_smiling	0.0		73.66441645328177	
6.0	46.898328670207775	pulse	1.0	t		20.0	male	black	2.609629924393156	smiling	043	sub-14	2.0	2.0	043_smiling	0.0		74.3643972252462	
6.0	47.59830763105492	pulse	1.0	t		20.0	male	black	2.609629924393156	smiling	043	sub-14	2.0	2.0	043_smiling	0.0		75.06437618609334	
6.0	48.298289610431766	pulse	1.0	t		20.0	male	black	2.609629924393156	smiling	043	sub-14	2.0	2.0	043_smiling	0.0		75.76435816547018	
7.0	49.02295229726724	face	0.0		146	37.0	male	white	3.898925586947871	neutral	101	sub-14	2.0	2.0	101_neutral	0.0		76.48902085230566	1.233318170252005
7.0	49.00921798645368	pulse	0.0	t		37.0	male	white	3.898925586947871	neutral	101	sub-14	2.0	2.0	101_neutral	0.0		76.4752865414921	
7.0	49.698217950533035	pulse	0.0	t		37.0	male	white	3.898925586947871	neutral	101	sub-14	2.0	2.0	101_neutral	0.0		77.16428650557145	
7.0	50.25627046751924	fix	1.0		443	37.0	male	white	3.898925586947871	neutral	101	sub-14	2.0	2.0	101_neutral	0.0		77.72233902255766	3.7582227016987417
7.0	50.39824249118101	pulse	1.0	t		37.0	male	white	3.898925586947871	neutral	101	sub-14	2.0	2.0	101_neutral	0.0		77.86431104621943	
7.0	51.09821873535111	pulse	1.0	t		37.0	male	white	3.898925586947871	neutral	101	sub-14	2.0	2.0	101_neutral	0.0		78.56428729038953	
7.0	51.79820494066962	pulse	1.0	t		37.0	male	white	3.898925586947871	neutral	101	sub-14	2.0	2.0	101_neutral	0.0		79.26427349570804	
7.0	52.49818873116419	pulse	1.0	t		37.0	male	white	3.898925586947871	neutral	101	sub-14	2.0	2.0	101_neutral	0.0		79.96425728620261	
7.0	53.19815984383331	pulse	1.0	t		37.0	male	white	3.898925586947871	neutral	101	sub-14	2.0	2.0	101_neutral	0.0		80.66422839887173	
7.0	53.898143634328335	pulse	1.0	t		37.0	male	white	3.898925586947871	neutral	101	sub-14	2.0	2.0	101_neutral	0.0		81.36421218936675	
8.0	54.014493169217985	face	0.0		147	19.0	male	white	2.243931555909272	smiling	130	sub-14	2.0	2.0	130_smiling	0.0		81.4805617242564	1.241645086693552
8.0	54.598073996844505	pulse	0.0	t		19.0	male	white	2.243931555909272	smiling	130	sub-14	2.0	2.0	130_smiling	0.0		82.06414255188292	
8.0	55.25613825591154	fix	1.0		443	19.0	male	white	2.243931555909272	smiling	130	sub-14	2.0	2.0	130_smiling	0.0		82.72220681094996	3.7665393551396846
8.0	55.29811936534816	pulse	1.0	t		19.0	male	white	2.243931555909272	smiling	130	sub-14	2.0	2.0	130_smiling	0.0		82.76418792038658	
8.0	55.99808866689955	pulse	1.0	t		19.0	male	white	2.243931555909272	smiling	130	sub-14	2.0	2.0	130_smiling	0.0		83.46415722193797	
8.0	56.69807336295344	pulse	1.0	t		19.0	male	white	2.243931555909272	smiling	130	sub-14	2.0	2.0	130_smiling	0.0		84.16414191799186	
8.0	57.39805202194748	pulse	1.0	t		19.0	male	white	2.243931555909272	smiling	130	sub-14	2.0	2.0	130_smiling	0.0		84.8641205769859	
8.0	58.09802856797023	pulse	1.0	t		19.0	male	white	2.243931555909272	smiling	130	sub-14	2.0	2.0	130_smiling	0.0		85.56409712300865	
8.0	58.798025036290255	pulse	1.0	t		19.0	male	white	2.243931555909272	smiling	130	sub-14	2.0	2.0	130_smiling	0.0		86.26409359132867	
9.0	59.02267761105122	face	0.0		145	36.0	female	white	2.7548746518105847	neutral	011	sub-14	2.0	2.0	011_neutral	0.0		86.48874616608964	1.2333317536358663
9.0	59.49793970245173	pulse	0.0	t		36.0	female	white	2.7548746518105847	neutral	011	sub-14	2.0	2.0	011_neutral	0.0		86.96400825749015	
9.0	60.19794733933213	pulse	0.0	t		36.0	female	white	2.7548746518105847	neutral	011	sub-14	2.0	2.0	011_neutral	0.0		87.66401589437055	
9.0	60.25600936468709	fix	1.0		445	36.0	female	white	2.7548746518105847	neutral	011	sub-14	2.0	2.0	011_neutral	0.0		87.7220779197255	3.7665475051699104
9.0	60.897963729949424	pulse	1.0	t		36.0	female	white	2.7548746518105847	neutral	011	sub-14	2.0	2.0	011_neutral	0.0		88.36403228498784	
9.0	61.59794721859089	pulse	1.0	t		36.0	female	white	2.7548746518105847	neutral	011	sub-14	2.0	2.0	011_neutral	0.0		89.06401577362931	
9.0	62.2979304053797	pulse	1.0	t		36.0	female	white	2.7548746518105847	neutral	011	sub-14	2.0	2.0	011_neutral	0.0		89.76399896041812	
9.0	62.99789880137223	pulse	1.0	t		36.0	female	white	2.7548746518105847	neutral	011	sub-14	2.0	2.0	011_neutral	0.0		90.46396735641065	
9.0	63.6978859122496	pulse	1.0	t		36.0	female	white	2.7548746518105847	neutral	011	sub-14	2.0	2.0	011_neutral	0.0		91.16395446728802	
10.0	64.022556869857	face	0.0		145	24.0	male	white	3.1153999204138483	neutral	012	sub-14	2.0	2.0	012_neutral	0.0		91.48862542489542	1.233313038751021
10.0	64.39781597291312	pulse	0.0	t		24.0	male	white	3.1153999204138483	neutral	012	sub-14	2.0	2.0	012_neutral	0.0		91.86388452795154	
10.0	65.09778768928845	pulse	0.0	t		24.0	male	white	3.1153999204138483	neutral	012	sub-14	2.0	2.0	012_neutral	0.0		92.56385624432687	
10.0	65.25586990860802	fix	1.0		445	24.0	male	white	3.1153999204138483	neutral	012	sub-14	2.0	2.0	012_neutral	0.0		92.72193846364644	3.766547203317259
10.0	65.7978330577921	pulse	1.0	t		24.0	male	white	3.1153999204138483	neutral	012	sub-14	2.0	2.0	012_neutral	0.0		93.26390161283052	
10.0	66.4978056797263	pulse	1.0	t		24.0	male	white	3.1153999204138483	neutral	012	sub-14	2.0	2.0	012_neutral	0.0		93.96387423476472	
10.0	67.19779641283958	pulse	1.0	t		24.0	male	white	3.1153999204138483	neutral	012	sub-14	2.0	2.0	012_neutral	0.0		94.663864967878	
10.0	67.89776812921491	pulse	1.0	t		24.0	male	white	3.1153999204138483	neutral	012	sub-14	2.0	2.0	012_neutral	0.0		95.36383668425333	
10.0	68.59772233811736	pulse	1.0	t		24.0	male	white	3.1153999204138483	neutral	012	sub-14	2.0	2.0	012_neutral	0.0		96.06379089315578	
11.0	69.02241711192528	face	0.0		145	24.0	female	black	3.0955033824114606	neutral	099	sub-14	2.0	2.0	099_neutral	0.0		96.4884856669637	1.2333214906343528
11.0	69.29768590446201	pulse	0.0	t		24.0	female	black	3.0955033824114606	neutral	099	sub-14	2.0	2.0	099_neutral	0.0		96.76375445950043	
11.0	69.99765882824931	pulse	0.0	t		24.0	female	black	3.0955033824114606	neutral	099	sub-14	2.0	2.0	099_neutral	0.0		97.46372738328773	
11.0	70.25573860255963	fix	1.0		444	24.0	female	black	3.0955033824114606	neutral	099	sub-14	2.0	2.0	099_neutral	0.0		97.72180715759805	3.7665526366708946
11.0	70.69756262770306	pulse	1.0	t		24.0	female	black	3.0955033824114606	neutral	099	sub-14	2.0	2.0	099_neutral	0.0		98.16363118274148	
11.0	71.3976825538939	pulse	1.0	t		24.0	female	black	3.0955033824114606	neutral	099	sub-14	2.0	2.0	099_neutral	0.0		98.86375110893232	
11.0	72.09746832883047	pulse	1.0	t		24.0	female	black	3.0955033824114606	neutral	099	sub-14	2.0	2.0	099_neutral	0.0		99.56353688386889	
11.0	72.79764530523562	pulse	1.0	t		24.0	female	black	3.0955033824114606	neutral	099	sub-14	2.0	2.0	099_neutral	0.0		100.26371386027404	
11.0	73.49743349499613	pulse	1.0	t		24.0	female	black	3.0955033824114606	neutral	099	sub-14	2.0	2.0	099_neutral	0.0		100.96350205003455	
12.0	74.02229123923053	face	0.0		145	27.0	female	white	3.504576203740549	smiling	144	sub-14	2.0	2.0	144_smiling	0.0		101.48835979426894	1.2333251128702614
12.0	74.19742634108025	pulse	0.0	t		27.0	female	white	3.504576203740549	smiling	144	sub-14	2.0	2.0	144_smiling	0.0		101.66349489611866	
12.0	74.89739051113065	pulse	0.0	t		27.0	female	white	3.504576203740549	smiling	144	sub-14	2.0	2.0	144_smiling	0.0		102.36345906616907	
12.0	75.25561635210079	fix	1.0		444	27.0	female	white	3.504576203740549	smiling	144	sub-14	2.0	2.0	144_smiling	0.0		102.7216849071392	3.766530299549686
12.0	75.59743346481082	pulse	1.0	t		27.0	female	white	3.504576203740549	smiling	144	sub-14	2.0	2.0	144_smiling	0.0		103.06350201984924	
12.0	76.29734994208957	pulse	1.0	t		27.0	female	white	3.504576203740549	smiling	144	sub-14	2.0	2.0	144_smiling	0.0		103.76341849712799	
12.0	76.99735244746944	pulse	1.0	t		27.0	female	white	3.504576203740549	smiling	144	sub-14	2.0	2.0	144_smiling	0.0		104.46342100250786	
12.0	77.6973232582859	pulse	1.0	t		27.0	female	white	3.504576203740549	smiling	144	sub-14	2.0	2.0	144_smiling	0.0		105.16339181332432	
12.0	78.39729708763207	pulse	1.0	t		27.0	female	white	3.504576203740549	smiling	144	sub-14	2.0	2.0	144_smiling	0.0		105.86336564267049	
13.0	79.02214665165047	face	0.0		145	24.0	female	east_asian	4.409868682849185	neutral	030	sub-14	2.0	2.0	030_neutral	0.0		106.48821520668889	1.233326622135337
13.0	79.09728570777452	pulse	0.0	t		24.0	female	east_asian	4.409868682849185	neutral	030	sub-14	2.0	2.0	030_neutral	0.0		106.56335426281294	
13.0	79.79727130938727	pulse	0.0	t		24.0	female	east_asian	4.409868682849185	neutral	030	sub-14	2.0	2.0	030_neutral	0.0		107.26333986442569	
13.0	80.25547327378581	fix	1.0		444	24.0	female	east_asian	4.409868682849185	neutral	030	sub-14	2.0	2.0	030_neutral	0.0		107.72154182882423	3.7665550514948336
13.0	80.49724513873343	pulse	1.0	t		24.0	female	east_asian	4.409868682849185	neutral	030	sub-14	2.0	2.0	030_neutral	0.0		107.96331369377185	
13.0	81.1972225903155	pulse	1.0	t		24.0	female	east_asian	4.409868682849185	neutral	030	sub-14	2.0	2.0	030_neutral	0.0		108.66329114535392	
13.0	81.89720758822205	pulse	1.0	t		24.0	female	east_asian	4.409868682849185	neutral	030	sub-14	2.0	2.0	030_neutral	0.0		109.36327614326046	
13.0	82.59718292683328	pulse	1.0	t		24.0	female	east_asian	4.409868682849185	neutral	030	sub-14	2.0	2.0	030_neutral	0.0		110.0632514818717	
13.0	83.29716671732785	pulse	1.0	t		24.0	female	east_asian	4.409868682849185	neutral	030	sub-14	2.0	2.0	030_neutral	0.0		110.76323527236627	
13.0	83.99714658373387	pulse	1.0	t		24.0	female	east_asian	4.409868682849185	neutral	030	sub-14	2.0	2.0	030_neutral	0.0		111.46321513877228	
14.0	84.02202832528064	face	0.0		146	28.0	male	east_asian	1.5563072025467568	smiling	005	sub-14	2.0	2.0	005_smiling	0.0		111.48809688031906	1.2333124350448088
14.0	84.69714033537684	pulse	0.0	t		28.0	male	east_asian	1.5563072025467568	smiling	005	sub-14	2.0	2.0	005_smiling	0.0		112.16320889041526	
14.0	85.25534076032545	fix	1.0		443	28.0	male	east_asian	1.5563072025467568	smiling	005	sub-14	2.0	2.0	005_smiling	0.0		112.72140931536387	3.766553542229758
14.0	85.39709605354392	pulse	1.0	t		28.0	male	east_asian	1.5563072025467568	smiling	005	sub-14	2.0	2.0	005_smiling	0.0		112.86316460858234	
14.0	86.09710399227743	pulse	1.0	t		28.0	male	east_asian	1.5563072025467568	smiling	005	sub-14	2.0	2.0	005_smiling	0.0		113.56317254731584	
14.0	86.79707782162359	pulse	1.0	t		28.0	male	east_asian	1.5563072025467568	smiling	005	sub-14	2.0	2.0	005_smiling	0.0		114.26314637666201	
14.0	87.49705678247074	pulse	1.0	t		28.0	male	east_asian	1.5563072025467568	smiling	005	sub-14	2.0	2.0	005_smiling	0.0		114.96312533750915	
14.0	88.1970460063194	pulse	1.0	t		28.0	male	east_asian	1.5563072025467568	smiling	005	sub-14	2.0	2.0	005_smiling	0.0		115.66311456135782	
14.0	88.89703643757957	pulse	1.0	t		28.0	male	east_asian	1.5563072025467568	smiling	005	sub-14	2.0	2.0	005_smiling	0.0		116.36310499261799	
15.0	89.02189430255521	face	0.0		146	27.0	female	white	4.181058495821727	neutral	039	sub-14	2.0	2.0	039_neutral	0.0		116.48796285759363	1.233315151721854
15.0	89.59701388916164	pulse	0.0	t		27.0	female	white	4.181058495821727	neutral	039	sub-14	2.0	2.0	039_neutral	0.0		117.06308244420006	
15.0	90.25520945427706	fix	1.0		443	27.0	female	white	4.181058495821727	neutral	039	sub-14	2.0	2.0	039_neutral	0.0		117.72127800931548	3.766537544021503
15.0	90.29698983147864	pulse	1.0	t		27.0	female	white	4.181058495821727	neutral	039	sub-14	2.0	2.0	039_neutral	0.0		117.76305838651706	
15.0	90.9969636608248	pulse	1.0	t		27.0	female	white	4.181058495821727	neutral	039	sub-14	2.0	2.0	039_neutral	0.0		118.46303221586322	
15.0	91.69694473464278	pulse	1.0	t		27.0	female	white	4.181058495821727	neutral	039	sub-14	2.0	2.0	039_neutral	0.0		119.1630132896812	
15.0	92.39691645101811	pulse	1.0	t		27.0	female	white	4.181058495821727	neutral	039	sub-14	2.0	2.0	039_neutral	0.0		119.86298500605653	
15.0	93.09689239333511	pulse	1.0	t		27.0	female	white	4.181058495821727	neutral	039	sub-14	2.0	2.0	039_neutral	0.0		120.56296094837353	
15.0	93.79687105232915	pulse	1.0	t		27.0	female	white	4.181058495821727	neutral	039	sub-14	2.0	2.0	039_neutral	0.0		121.26293960736757	
16.0	94.02174699829857	face	0.0		145	34.0	male	white	2.651014723438122	neutral	121	sub-14	2.0	2.0	121_neutral	0.0		121.48781555333699	1.2333281314004125
16.0	94.4968593706185	pulse	0.0	t		34.0	male	white	2.651014723438122	neutral	121	sub-14	2.0	2.0	121_neutral	0.0		121.96292792565691	
16.0	95.19685855561556	pulse	0.0	t		34.0	male	white	2.651014723438122	neutral	121	sub-14	2.0	2.0	121_neutral	0.0		122.66292711065398	
16.0	95.25507512969898	fix	1.0		444	34.0	male	white	2.651014723438122	neutral	121	sub-14	2.0	2.0	121_neutral	0.0		122.7211436847374	3.76655263667044
16.0	95.8968338942268	pulse	1.0	t		34.0	male	white	2.651014723438122	neutral	121	sub-14	2.0	2.0	121_neutral	0.0		123.36290244926522	
16.0	96.5968068180141	pulse	1.0	t		34.0	male	white	2.651014723438122	neutral	121	sub-14	2.0	2.0	121_neutral	0.0		124.06287537305252	
16.0	97.29681656786533	pulse	1.0	t		34.0	male	white	2.651014723438122	neutral	121	sub-14	2.0	2.0	121_neutral	0.0		124.76288512290375	
16.0	97.9967590045012	pulse	1.0	t		34.0	male	white	2.651014723438122	neutral	121	sub-14	2.0	2.0	121_neutral	0.0		125.46282755953962	
16.0	98.69677780994198	pulse	1.0	t		34.0	male	white	2.651014723438122	neutral	121	sub-14	2.0	2.0	121_neutral	0.0		126.1628463649804	
17.0	99.02162776636942	face	0.0		145	40.0	male	white	1.868682849184242	smiling	172	sub-14	2.0	2.0	172_smiling	1.0	attractiveness	126.48769632140784	1.233315755428066
17.0	99.39677156158541	pulse	0.0	t		40.0	male	white	1.868682849184242	smiling	172	sub-14	2.0	2.0	172_smiling	1.0	attractiveness	126.86284011662383	
17.0	100.09673875016597	pulse	0.0	t		40.0	male	white	1.868682849184242	smiling	172	sub-14	2.0	2.0	172_smiling	1.0	attractiveness	127.56280730520439	
17.0	100.25494352179749	fix	1.0		177	40.0	male	white	1.868682849184242	smiling	172	sub-14	2.0	2.0	172_smiling	1.0	attractiveness	127.7210120768359	1.4999606081855745
17.0	100.79672978513236	pulse	1.0	t		40.0	male	white	1.868682849184242	smiling	172	sub-14	2.0	2.0	172_smiling	1.0	attractiveness	128.26279834017078	
17.0	101.49666195876625	pulse	1.0	t		40.0	male	white	1.868682849184242	smiling	172	sub-14	2.0	2.0	172_smiling	1.0	attractiveness	128.96273051380467	
17.0	101.75490412998306	rating	2.0		295	40.0	male	white	1.868682849184242	smiling	172	sub-14	2.0	2.0	172_smiling	1.0	attractiveness	129.22097268502148	2.4999286117690644
17.0	102.19668740497309	pulse	2.0	t		40.0	male	white	1.868682849184242	smiling	172	sub-14	2.0	2.0	172_smiling	1.0	attractiveness	129.6627559600115	
17.0	102.89665881949531	pulse	2.0	t		40.0	male	white	1.868682849184242	smiling	172	sub-14	2.0	2.0	172_smiling	1.0	attractiveness	130.36272737453373	
17.0	103.58829818607501	response	2.0	n		40.0	male	white	1.868682849184242	smiling	172	sub-14	2.0	2.0	172_smiling	1.0	attractiveness	131.05436674111343	
17.0	103.5994815373133	pulse	2.0	t		40.0	male	white	1.868682849184242	smiling	172	sub-14	2.0	2.0	172_smiling	1.0	attractiveness	131.0655500923517	
17.0	104.25483274175213	fix	3.0		443	40.0	male	white	1.868682849184242	smiling	172	sub-14	2.0	2.0	172_smiling	1.0	attractiveness	131.72090129679054	3.7665541459355154
17.0	104.29663183383855	pulse	3.0	t		40.0	male	white	1.868682849184242	smiling	172	sub-14	2.0	2.0	172_smiling	1.0	attractiveness	131.76270038887697	
17.0	104.99657789271032	pulse	3.0	t		40.0	male	white	1.868682849184242	smiling	172	sub-14	2.0	2.0	172_smiling	1.0	attractiveness	132.46264644774874	
17.0	105.6965432701727	pulse	3.0	t		40.0	male	white	1.868682849184242	smiling	172	sub-14	2.0	2.0	172_smiling	1.0	attractiveness	133.16261182521112	
17.0	106.39653581440416	pulse	3.0	t		40.0	male	white	1.868682849184242	smiling	172	sub-14	2.0	2.0	172_smiling	1.0	attractiveness	133.86260436944258	
17.0	107.09652020860494	pulse	3.0	t		40.0	male	white	1.868682849184242	smiling	172	sub-14	2.0	2.0	172_smiling	1.0	attractiveness	134.56258876364336	
17.0	107.79649735833391	pulse	3.0	t		40.0	male	white	1.868682849184242	smiling	172	sub-14	2.0	2.0	172_smiling	1.0	attractiveness	135.26256591337233	
18.0	108.02138688768764	face	0.0		145	20.0	female	white	3.9502586549940313	smiling	091	sub-14	2.0	2.0	091_smiling	0.0		135.48745544272606	1.233315755428066
18.0	108.49648446921128	pulse	0.0	t		20.0	female	white	3.9502586549940313	smiling	091	sub-14	2.0	2.0	091_smiling	0.0		135.9625530242497	
18.0	109.19646252449911	pulse	0.0	t		20.0	female	white	3.9502586549940313	smiling	091	sub-14	2.0	2.0	091_smiling	0.0		136.66253107953753	
18.0	109.2547026431157	fix	1.0		444	20.0	female	white	3.9502586549940313	smiling	091	sub-14	2.0	2.0	091_smiling	0.0		136.72077119815413	3.7665523348173338
18.0	109.89644601314103	pulse	1.0	t		20.0	female	white	3.9502586549940313	smiling	091	sub-14	2.0	2.0	091_smiling	0.0		137.36251456817945	
18.0	110.59644580184386	pulse	1.0	t		20.0	female	white	3.9502586549940313	smiling	091	sub-14	2.0	2.0	091_smiling	0.0		138.06251435688228	
18.0	111.29640725521767	pulse	1.0	t		20.0	female	white	3.9502586549940313	smiling	091	sub-14	2.0	2.0	091_smiling	0.0		138.7624758102561	
18.0	111.99639014015338	pulse	1.0	t		20.0	female	white	3.9502586549940313	smiling	091	sub-14	2.0	2.0	091_smiling	0.0		139.4624586951918	
18.0	112.69638902329734	pulse	1.0	t		20.0	female	white	3.9502586549940313	smiling	091	sub-14	2.0	2.0	091_smiling	0.0		140.16245757833576	
19.0	113.02125497793304	face	0.0		145	40.0	male	black	2.408674890569041	smiling	061	sub-14	2.0	2.0	061_smiling	0.0		140.48732353297146	1.2333094165155671
19.0	113.39635741928987	pulse	0.0	t		40.0	male	black	2.408674890569041	smiling	061	sub-14	2.0	2.0	061_smiling	0.0		140.8624259743283	
19.0	114.09635268019792	pulse	0.0	t		40.0	male	black	2.408674890569041	smiling	061	sub-14	2.0	2.0	061_smiling	0.0		141.56242123523634	
19.0	114.25456439444861	fix	1.0		444	40.0	male	black	2.408674890569041	smiling	061	sub-14	2.0	2.0	061_smiling	0.0		141.72063294948703	3.766560182995363
19.0	114.7963334521628	pulse	1.0	t		40.0	male	black	2.408674890569041	smiling	061	sub-14	2.0	2.0	061_smiling	0.0		142.26240200720122	
19.0	115.49632116674638	pulse	1.0	t		40.0	male	black	2.408674890569041	smiling	061	sub-14	2.0	2.0	061_smiling	0.0		142.9623897217848	
19.0	116.19629650535762	pulse	1.0	t		40.0	male	black	2.408674890569041	smiling	061	sub-14	2.0	2.0	061_smiling	0.0		143.66236506039604	
19.0	116.89627878658757	pulse	1.0	t		40.0	male	black	2.408674890569041	smiling	061	sub-14	2.0	2.0	061_smiling	0.0		144.362347341626	
19.0	117.59625503075767	pulse	1.0	t		40.0	male	black	2.408674890569041	smiling	061	sub-14	2.0	2.0	061_smiling	0.0		145.0623235857961	
20.0	118.02112457744397	face	0.0		145	34.0	male	white	2.651014723438122	smiling	121	sub-14	2.0	2.0	121_smiling	0.0		145.4871931324824	1.2333018701901892
20.0	118.29624365090012	pulse	0.0	t		34.0	male	white	2.651014723438122	smiling	121	sub-14	2.0	2.0	121_smiling	0.0		145.76231220593854	
20.0	118.99622080062909	pulse	0.0	t		34.0	male	white	2.651014723438122	smiling	121	sub-14	2.0	2.0	121_smiling	0.0		146.4622893556675	
20.0	119.25442644763416	fix	1.0		1185	34.0	male	white	2.651014723438122	smiling	121	sub-14	2.0	2.0	121_smiling	0.0		146.72049500267258	10.016396352287757
20.0	119.69619221515131	pulse	1.0	t		34.0	male	white	2.651014723438122	smiling	121	sub-14	2.0	2.0	121_smiling	0.0		147.16226077018973	
20.0	120.39617238341043	pulse	1.0	t		34.0	male	white	2.651014723438122	smiling	121	sub-14	2.0	2.0	121_smiling	0.0		147.86224093844885	
20.0	121.09616734246538	pulse	1.0	t		34.0	male	white	2.651014723438122	smiling	121	sub-14	2.0	2.0	121_smiling	0.0		148.5622358975038	
20.0	121.79615234037192	pulse	1.0	t		34.0	male	white	2.651014723438122	smiling	121	sub-14	2.0	2.0	121_smiling	0.0		149.26222089541034	
20.0	122.4961303956602	pulse	1.0	t		34.0	male	white	2.651014723438122	smiling	121	sub-14	2.0	2.0	121_smiling	0.0		149.96219895069862	
20.0	123.19611177133083	pulse	1.0	t		34.0	male	white	2.651014723438122	smiling	121	sub-14	2.0	2.0	121_smiling	0.0		150.66218032636925	
20.0	123.89609012847177	pulse	1.0	t		34.0	male	white	2.651014723438122	smiling	121	sub-14	2.0	2.0	121_smiling	0.0		151.3621586835102	
20.0	124.59607090043664	pulse	1.0	t		34.0	male	white	2.651014723438122	smiling	121	sub-14	2.0	2.0	121_smiling	0.0		152.06213945547506	
20.0	125.29605106869576	pulse	1.0	t		34.0	male	white	2.651014723438122	smiling	121	sub-14	2.0	2.0	121_smiling	0.0		152.76211962373418	
20.0	125.99603153880753	pulse	1.0	t		34.0	male	white	2.651014723438122	smiling	121	sub-14	2.0	2.0	121_smiling	0.0		153.46210009384595	
20.0	126.69602861083331	pulse	1.0	t		34.0	male	white	2.651014723438122	smiling	121	sub-14	2.0	2.0	121_smiling	0.0		154.16209716587173	
20.0	127.39599670497319	pulse	1.0	t		34.0	male	white	2.651014723438122	smiling	121	sub-14	2.0	2.0	121_smiling	0.0		154.8620652600116	
20.0	128.09598170287973	pulse	1.0	t		34.0	male	white	2.651014723438122	smiling	121	sub-14	2.0	2.0	121_smiling	0.0		155.56205025791814	
20.0	128.7959621729915	pulse	1.0	t		34.0	male	white	2.651014723438122	smiling	121	sub-14	2.0	2.0	121_smiling	0.0		156.2620307280299	
21.0	129.27082279992192	face	0.0		145	27.0	male	black	3.5523278949462798	smiling	042	sub-14	2.0	2.0	042_smiling	1.0	trustworthiness	156.73689135496033	1.2333166609869295
21.0	129.49594717089803	pulse	0.0	t		27.0	male	black	3.5523278949462798	smiling	042	sub-14	2.0	2.0	042_smiling	1.0	trustworthiness	156.96201572593645	
21.0	130.1959216039504	pulse	0.0	t		27.0	male	black	3.5523278949462798	smiling	042	sub-14	2.0	2.0	042_smiling	1.0	trustworthiness	157.66199015898883	
21.0	130.50413946090885	fix	1.0		177	27.0	male	black	3.5523278949462798	smiling	042	sub-14	2.0	2.0	042_smiling	1.0	trustworthiness	157.97020801594726	1.499963928568377
21.0	130.89590871482778	pulse	1.0	t		27.0	male	black	3.5523278949462798	smiling	042	sub-14	2.0	2.0	042_smiling	1.0	trustworthiness	158.3619772698662	
21.0	131.5958888830869	pulse	1.0	t		27.0	male	black	3.5523278949462798	smiling	042	sub-14	2.0	2.0	042_smiling	1.0	trustworthiness	159.06195743812532	
21.0	132.00410338947722	rating	2.0		294	27.0	male	black	3.5523278949462798	smiling	042	sub-14	2.0	2.0	042_smiling	1.0	trustworthiness	159.47017194451564	2.4999286117690644
21.0	132.2958714661695	pulse	2.0	t		27.0	male	black	3.5523278949462798	smiling	042	sub-14	2.0	2.0	042_smiling	1.0	trustworthiness	159.76194002120792	
21.0	132.99585374739945	pulse	2.0	t		27.0	male	black	3.5523278949462798	smiling	042	sub-14	2.0	2.0	042_smiling	1.0	trustworthiness	160.46192230243787	
21.0	133.69583089712842	pulse	2.0	t		27.0	male	black	3.5523278949462798	smiling	042	sub-14	2.0	2.0	042_smiling	1.0	trustworthiness	161.16189945216684	
21.0	133.9041541309639	response	2.0	e		27.0	male	black	3.5523278949462798	smiling	042	sub-14	2.0	2.0	042_smiling	1.0	trustworthiness	161.3702226860023	
21.0	134.39580774500428	pulse	2.0	t		27.0	male	black	3.5523278949462798	smiling	042	sub-14	2.0	2.0	042_smiling	1.0	trustworthiness	161.8618763000427	
21.0	134.5040320012463	fix	3.0		444	27.0	male	black	3.5523278949462798	smiling	042	sub-14	2.0	2.0	042_smiling	1.0	trustworthiness	161.9701005562847	3.7665544477886215
21.0	135.09579908182377	pulse	3.0	t		27.0	male	black	3.5523278949462798	smiling	042	sub-14	2.0	2.0	042_smiling	1.0	trustworthiness	162.5618676368622	
21.0	135.79577260931683	pulse	3.0	t		27.0	male	black	3.5523278949462798	smiling	042	sub-14	2.0	2.0	042_smiling	1.0	trustworthiness	163.26184116435525	
21.0	136.49574945719314	pulse	3.0	t		27.0	male	black	3.5523278949462798	smiling	042	sub-14	2.0	2.0	042_smiling	1.0	trustworthiness	163.96181801223156	
21.0	137.19572902174605	pulse	3.0	t		27.0	male	black	3.5523278949462798	smiling	042	sub-14	2.0	2.0	042_smiling	1.0	trustworthiness	164.66179757678447	
21.0	137.90404938797838	pulse	3.0	t		27.0	male	black	3.5523278949462798	smiling	042	sub-14	2.0	2.0	042_smiling	1.0	trustworthiness	165.3701179430168	
22.0	138.2705864490349	face	0.0		145	31.0	female	white	2.1822522881018704	smiling	102	sub-14	2.0	2.0	102_smiling	0.0		165.73665500407333	1.2333136424567783
22.0	138.59570565832473	pulse	0.0	t		31.0	female	white	2.1822522881018704	smiling	102	sub-14	2.0	2.0	102_smiling	0.0		166.06177421336315	
22.0	139.295679789524	pulse	0.0	t		31.0	female	white	2.1822522881018704	smiling	102	sub-14	2.0	2.0	102_smiling	0.0		166.76174834456242	
22.0	139.5039000914917	fix	1.0		444	31.0	female	white	2.1822522881018704	smiling	102	sub-14	2.0	2.0	102_smiling	0.0		166.9699686465301	3.766551127405819
22.0	139.9956675041076	pulse	1.0	t		31.0	female	white	2.1822522881018704	smiling	102	sub-14	2.0	2.0	102_smiling	0.0		167.461736059146	
22.0	140.69564586124852	pulse	1.0	t		31.0	female	white	2.1822522881018704	smiling	102	sub-14	2.0	2.0	102_smiling	0.0		168.16171441628694	
22.0	141.39562452024256	pulse	1.0	t		31.0	female	white	2.1822522881018704	smiling	102	sub-14	2.0	2.0	102_smiling	0.0		168.86169307528098	
22.0	142.09562219597456	pulse	1.0	t		31.0	female	white	2.1822522881018704	smiling	102	sub-14	2.0	2.0	102_smiling	0.0		169.56169075101297	
22.0	142.79558878084936	pulse	1.0	t		31.0	female	white	2.1822522881018704	smiling	102	sub-14	2.0	2.0	102_smiling	0.0		170.26165733588778	
23.0	143.2704512188975	face	0.0		145	19.0	female	white	4.298846000795861	neutral	100	sub-14	2.0	2.0	100_neutral	0.0		170.73651977393592	1.233317566545793
23.0	143.49557226949082	pulse	0.0	t		19.0	female	white	4.298846000795861	neutral	100	sub-14	2.0	2.0	100_neutral	0.0		170.96164082452924	
23.0	144.20388569310444	pulse	0.0	t		19.0	female	white	4.298846000795861	neutral	100	sub-14	2.0	2.0	100_neutral	0.0		171.66995424814286	
23.0	144.5037687854433	fix	1.0		444	19.0	female	white	4.298846000795861	neutral	100	sub-14	2.0	2.0	100_neutral	0.0		171.96983734048172	3.7582966556801694
23.0	144.90386857804015	pulse	1.0	t		19.0	female	white	4.298846000795861	neutral	100	sub-14	2.0	2.0	100_neutral	0.0		172.36993713307857	
23.0	145.59551186870885	pulse	1.0	t		19.0	female	white	4.298846000795861	neutral	100	sub-14	2.0	2.0	100_neutral	0.0		173.06158042374727	
23.0	146.30382740529285	pulse	1.0	t		19.0	female	white	4.298846000795861	neutral	100	sub-14	2.0	2.0	100_neutral	0.0		173.76989596033127	
23.0	146.9954791478449	pulse	1.0	t		19.0	female	white	4.298846000795861	neutral	100	sub-14	2.0	2.0	100_neutral	0.0		174.4615477028833	
23.0	147.7037925714585	pulse	1.0	t		19.0	female	white	4.298846000795861	neutral	100	sub-14	2.0	2.0	100_neutral	0.0		175.16986112649693	
24.0	148.26206544112347	face	0.0		146	28.0	male	white	3.9076800636689217	neutral	033	sub-14	2.0	2.0	033_neutral	0.0		175.7281339961619	1.2415699253006096
24.0	148.4037772675124	pulse	0.0	t		28.0	male	white	3.9076800636689217	neutral	033	sub-14	2.0	2.0	033_neutral	0.0		175.86984582255081	
24.0	149.10375170056432	pulse	0.0	t		28.0	male	white	3.9076800636689217	neutral	033	sub-14	2.0	2.0	033_neutral	0.0		176.56982025560274	
24.0	149.50363536642408	fix	1.0		444	28.0	male	white	3.9076800636689217	neutral	033	sub-14	2.0	2.0	033_neutral	0.0		176.9697039214625	3.7665589755833935
24.0	149.80374213182495	pulse	1.0	t		28.0	male	white	3.9076800636689217	neutral	033	sub-14	2.0	2.0	033_neutral	0.0		177.26981068686337	
24.0	150.50371475375914	pulse	1.0	t		28.0	male	white	3.9076800636689217	neutral	033	sub-14	2.0	2.0	033_neutral	0.0		177.96978330879756	
24.0	151.20369733684174	pulse	1.0	t		28.0	male	white	3.9076800636689217	neutral	033	sub-14	2.0	2.0	033_neutral	0.0		178.66976589188016	
24.0	151.90368203289563	pulse	1.0	t		28.0	male	white	3.9076800636689217	neutral	033	sub-14	2.0	2.0	033_neutral	0.0		179.36975058793405	
24.0	152.60366159744854	pulse	1.0	t		28.0	male	white	3.9076800636689217	neutral	033	sub-14	2.0	2.0	033_neutral	0.0		180.06973015248695	
25.0	153.27019434200747	face	0.0		145	20.0	male	black	3.1070433744528456	neutral	082	sub-14	2.0	2.0	082_neutral	0.0		180.7362628970459	1.2333097183682185
25.0	153.30365082129674	pulse	0.0	t		20.0	male	black	3.1070433744528456	neutral	082	sub-14	2.0	2.0	082_neutral	0.0		180.76971937633516	
25.0	154.0036267636142	pulse	0.0	t		20.0	male	black	3.1070433744528456	neutral	082	sub-14	2.0	2.0	082_neutral	0.0		181.4696953186526	
25.0	154.5035040603757	fix	1.0		443	20.0	male	black	3.1070433744528456	neutral	082	sub-14	2.0	2.0	082_neutral	0.0		181.9695726154141	3.766552938523546
25.0	154.7036090448437	pulse	1.0	t		20.0	male	black	3.1070433744528456	neutral	082	sub-14	2.0	2.0	082_neutral	0.0		182.1696775998821	
25.0	155.4035952501622	pulse	1.0	t		20.0	male	black	3.1070433744528456	neutral	082	sub-14	2.0	2.0	082_neutral	0.0		182.86966380520062	
25.0	156.1035681739495	pulse	1.0	t		20.0	male	black	3.1070433744528456	neutral	082	sub-14	2.0	2.0	082_neutral	0.0		183.56963672898792	
25.0	156.80354321070763	pulse	1.0	t		20.0	male	black	3.1070433744528456	neutral	082	sub-14	2.0	2.0	082_neutral	0.0		184.26961176574605	
25.0	157.50351583264182	pulse	1.0	t		20.0	male	black	3.1070433744528456	neutral	082	sub-14	2.0	2.0	082_neutral	0.0		184.96958438768024	
25.0	158.2035116972561	pulse	1.0	t		20.0	male	black	3.1070433744528456	neutral	082	sub-14	2.0	2.0	082_neutral	0.0		185.6695802522945	
26.0	158.27005699889924	face	0.0		146	21.0	male	black	2.969757262236371	smiling	137	sub-14	2.0	2.0	137_smiling	0.0		185.73612555393765	1.233297644248978
26.0	158.90350333592824	pulse	0.0	t		21.0	male	black	2.969757262236371	smiling	137	sub-14	2.0	2.0	137_smiling	0.0		186.36957189096665	
26.0	159.5033546431482	fix	1.0		443	21.0	male	black	2.969757262236371	smiling	137	sub-14	2.0	2.0	137_smiling	0.0		186.96942319818663	3.7665659182021045
26.0	159.60346690227334	pulse	1.0	t		21.0	male	black	2.969757262236371	smiling	137	sub-14	2.0	2.0	137_smiling	0.0		187.06953545731176	
26.0	160.3034473723851	pulse	1.0	t		21.0	male	black	2.969757262236371	smiling	137	sub-14	2.0	2.0	137_smiling	0.0		187.76951592742353	
26.0	161.0034414258812	pulse	1.0	t		21.0	male	black	2.969757262236371	smiling	137	sub-14	2.0	2.0	137_smiling	0.0		188.4695099809196	
26.0	161.70342249969917	pulse	1.0	t		21.0	male	black	2.969757262236371	smiling	137	sub-14	2.0	2.0	137_smiling	0.0		189.1694910547376	
26.0	162.40340266795783	pulse	1.0	t		21.0	male	black	2.969757262236371	smiling	137	sub-14	2.0	2.0	137_smiling	0.0		189.86947122299625	
26.0	163.10338102509877	pulse	1.0	t		21.0	male	black	2.969757262236371	smiling	137	sub-14	2.0	2.0	137_smiling	0.0		190.5694495801372	
27.0	163.26992056135032	face	0.0		146	22.0	female	west_asian	3.8205332272184642	neutral	066	sub-14	2.0	2.0	066_neutral	0.0		190.73598911638874	1.2333166609864747
27.0	163.8033744748891	pulse	0.0	t		22.0	female	west_asian	3.8205332272184642	neutral	066	sub-14	2.0	2.0	066_neutral	0.0		191.26944302992752	
27.0	164.5032372223368	fix	1.0		444	22.0	female	west_asian	3.8205332272184642	neutral	066	sub-14	2.0	2.0	066_neutral	0.0		191.9693057773752	3.766553844082864
27.0	164.51084723793974	pulse	1.0	t		22.0	female	west_asian	3.8205332272184642	neutral	066	sub-14	2.0	2.0	066_neutral	0.0		191.97691579297816	
27.0	165.20333330214225	pulse	1.0	t		22.0	female	west_asian	3.8205332272184642	neutral	066	sub-14	2.0	2.0	066_neutral	0.0		192.66940185718067	
27.0	165.90330713148842	pulse	1.0	t		22.0	female	west_asian	3.8205332272184642	neutral	066	sub-14	2.0	2.0	066_neutral	0.0		193.36937568652684	
27.0	166.60329303495382	pulse	1.0	t		22.0	female	west_asian	3.8205332272184642	neutral	066	sub-14	2.0	2.0	066_neutral	0.0		194.06936158999224	
27.0	167.3032704865359	pulse	1.0	t		22.0	female	west_asian	3.8205332272184642	neutral	066	sub-14	2.0	2.0	066_neutral	0.0		194.7693390415743	
27.0	168.0032500510888	pulse	1.0	t		22.0	female	west_asian	3.8205332272184642	neutral	066	sub-14	2.0	2.0	066_neutral	0.0		195.46931860612722	
28.0	168.26979106641966	face	0.0		145	54.0	female	white	2.286908077994429	smiling	136	sub-14	2.0	2.0	136_smiling	0.0		195.73585962145808	1.2333145480160965
28.0	168.70324199161405	pulse	0.0	t		54.0	female	white	2.286908077994429	smiling	136	sub-14	2.0	2.0	136_smiling	0.0		196.16931054665247	
28.0	169.40321883949036	pulse	0.0	t		54.0	female	white	2.286908077994429	smiling	136	sub-14	2.0	2.0	136_smiling	0.0		196.86928739452878	
28.0	169.50310561443575	fix	1.0		444	54.0	female	white	2.286908077994429	smiling	136	sub-14	2.0	2.0	136_smiling	0.0		196.96917416947417	3.766550825552713
28.0	170.10319961145524	pulse	1.0	t		54.0	female	white	2.286908077994429	smiling	136	sub-14	2.0	2.0	136_smiling	0.0		197.56926816649366	
28.0	170.8031764593311	pulse	1.0	t		54.0	female	white	2.286908077994429	smiling	136	sub-14	2.0	2.0	136_smiling	0.0		198.26924501436952	
28.0	171.50316357020847	pulse	1.0	t		54.0	female	white	2.286908077994429	smiling	136	sub-14	2.0	2.0	136_smiling	0.0		198.9692321252469	
28.0	172.20314494587956	pulse	1.0	t		54.0	female	white	2.286908077994429	smiling	136	sub-14	2.0	2.0	136_smiling	0.0		199.66921350091798	
28.0	172.90311937893148	pulse	1.0	t		54.0	female	white	2.286908077994429	smiling	136	sub-14	2.0	2.0	136_smiling	0.0		200.3691879339699	
29.0	173.26965643998847	face	0.0		145	22.0	female	west_asian	3.8205332272184642	smiling	066	sub-14	2.0	2.0	066_smiling	0.0		200.73572499502689	1.2333160572807174
29.0	173.60310830092703	pulse	0.0	t		22.0	female	west_asian	3.8205332272184642	smiling	066	sub-14	2.0	2.0	066_smiling	0.0		201.06917685596545	
29.0	174.30308786547994	pulse	0.0	t		22.0	female	west_asian	3.8205332272184642	smiling	066	sub-14	2.0	2.0	066_smiling	0.0		201.76915642051836	
29.0	174.50297249726918	fix	1.0		444	22.0	female	west_asian	3.8205332272184642	smiling	066	sub-14	2.0	2.0	066_smiling	0.0		201.9690410523076	3.766550523699607
29.0	175.0030734670927	pulse	1.0	t		22.0	female	west_asian	3.8205332272184642	smiling	066	sub-14	2.0	2.0	066_smiling	0.0		202.4691420221311	
29.0	175.7030445797618	pulse	1.0	t		22.0	female	west_asian	3.8205332272184642	smiling	066	sub-14	2.0	2.0	066_smiling	0.0		203.16911313480023	
29.0	176.40302504987403	pulse	1.0	t		22.0	female	west_asian	3.8205332272184642	smiling	066	sub-14	2.0	2.0	066_smiling	0.0		203.86909360491245	
29.0	177.10299495513118	pulse	1.0	t		22.0	female	west_asian	3.8205332272184642	smiling	066	sub-14	2.0	2.0	066_smiling	0.0		204.5690635101696	
29.0	177.80299836606991	pulse	1.0	t		22.0	female	west_asian	3.8205332272184642	smiling	066	sub-14	2.0	2.0	066_smiling	0.0		205.26906692110833	
30.0	178.2695230209688	face	0.0		145	27.0	male	black	3.5523278949462798	neutral	042	sub-14	2.0	2.0	042_neutral	0.0		205.7355915760072	1.2333166609869295
30.0	178.50298185471183	pulse	0.0	t		27.0	male	black	3.5523278949462798	neutral	042	sub-14	2.0	2.0	042_neutral	0.0		205.96905040975025	
30.0	179.20295779702883	pulse	0.0	t		27.0	male	black	3.5523278949462798	neutral	042	sub-14	2.0	2.0	042_neutral	0.0		206.66902635206725	
30.0	179.50283968195572	fix	1.0		444	27.0	male	black	3.5523278949462798	neutral	042	sub-14	2.0	2.0	042_neutral	0.0		206.96890823699414	3.766551127405819
30.0	179.90294551161242	pulse	1.0	t		27.0	male	black	3.5523278949462798	neutral	042	sub-14	2.0	2.0	042_neutral	0.0		207.36901406665083	
30.0	180.60291903910547	pulse	1.0	t		27.0	male	black	3.5523278949462798	neutral	042	sub-14	2.0	2.0	042_neutral	0.0		208.0689875941439	
30.0	181.3028976980995	pulse	1.0	t		27.0	male	black	3.5523278949462798	neutral	042	sub-14	2.0	2.0	042_neutral	0.0		208.76896625313793	
30.0	182.00288450712424	pulse	1.0	t		27.0	male	black	3.5523278949462798	neutral	042	sub-14	2.0	2.0	042_neutral	0.0		209.46895306216265	
30.0	182.70286709020684	pulse	1.0	t		27.0	male	black	3.5523278949462798	neutral	042	sub-14	2.0	2.0	042_neutral	0.0		210.16893564524526	
31.0	183.26939080936154	face	0.0		145	25.0	female	black	3.858336649423	smiling	126	sub-14	2.0	2.0	126_smiling	0.0		210.73545936439996	1.2333166609869295
31.0	183.40285299367224	pulse	0.0	t		25.0	female	black	3.858336649423	smiling	126	sub-14	2.0	2.0	126_smiling	0.0		210.86892154871066	
31.0	184.1028235026356	pulse	0.0	t		25.0	female	black	3.858336649423	smiling	126	sub-14	2.0	2.0	126_smiling	0.0		211.56889205767402	
31.0	184.50270747034847	fix	1.0		443	25.0	female	black	3.858336649423	smiling	126	sub-14	2.0	2.0	126_smiling	0.0		211.9687760253869	3.766528488431959
31.0	184.80281272648426	pulse	1.0	t		25.0	female	black	3.858336649423	smiling	126	sub-14	2.0	2.0	126_smiling	0.0		212.26888128152268	
31.0	185.4861161210324	response	1.0	y		25.0	female	black	3.858336649423	smiling	126	sub-14	2.0	2.0	126_smiling	0.0		212.95218467607083	
31.0	185.50278565027156	pulse	1.0	t		25.0	female	black	3.858336649423	smiling	126	sub-14	2.0	2.0	126_smiling	0.0		212.96885420530998	
31.0	186.20277879820878	pulse	1.0	t		25.0	female	black	3.858336649423	smiling	126	sub-14	2.0	2.0	126_smiling	0.0		213.6688473532472	
31.0	186.90274840161328	pulse	1.0	t		25.0	female	black	3.858336649423	smiling	126	sub-14	2.0	2.0	126_smiling	0.0		214.3688169566517	
31.0	187.6027264569011	pulse	1.0	t		25.0	female	black	3.858336649423	smiling	126	sub-14	2.0	2.0	126_smiling	0.0		215.06879501193953	
32.0	188.26923595878043	face	0.0		145	31.0	female	west_asian	2.364902506963788	neutral	006	sub-14	2.0	2.0	006_neutral	0.0		215.73530451381885	1.2333383944014713
32.0	188.3027241326331	pulse	0.0	t		31.0	female	west_asian	2.364902506963788	neutral	006	sub-14	2.0	2.0	006_neutral	0.0		215.76879268767152	
32.0	189.0026934341845	pulse	0.0	t		31.0	female	west_asian	2.364902506963788	neutral	006	sub-14	2.0	2.0	006_neutral	0.0		216.4687619892229	
32.0	189.5025743531819	fix	1.0		443	31.0	female	west_asian	2.364902506963788	neutral	006	sub-14	2.0	2.0	006_neutral	0.0		216.96864290822032	3.7665508255531677
32.0	189.70268084691497	pulse	1.0	t		31.0	female	west_asian	2.364902506963788	neutral	006	sub-14	2.0	2.0	006_neutral	0.0		217.1687494019534	
32.0	190.40265678923242	pulse	1.0	t		31.0	female	west_asian	2.364902506963788	neutral	006	sub-14	2.0	2.0	006_neutral	0.0		217.86872534427084	
32.0	191.10264480566866	pulse	1.0	t		31.0	female	west_asian	2.364902506963788	neutral	006	sub-14	2.0	2.0	006_neutral	0.0		218.56871336070708	
32.0	191.80263734990012	pulse	1.0	t		31.0	female	west_asian	2.364902506963788	neutral	006	sub-14	2.0	2.0	006_neutral	0.0		219.26870590493854	
32.0	192.50260031253856	pulse	1.0	t		31.0	female	west_asian	2.364902506963788	neutral	006	sub-14	2.0	2.0	006_neutral	0.0		219.96866886757698	
32.0	193.2025844048867	pulse	1.0	t		31.0	female	west_asian	2.364902506963788	neutral	006	sub-14	2.0	2.0	006_neutral	0.0		220.6686529599251	
33.0	193.26912517873507	face	0.0		146	23.0	male	white	2.6275368085953046	neutral	141	sub-14	2.0	2.0	141_neutral	0.0		220.73519373377349	1.2333070016911734
33.0	193.90255581940892	pulse	0.0	t		23.0	male	white	2.6275368085953046	neutral	141	sub-14	2.0	2.0	141_neutral	0.0		221.36862437444734	
33.0	194.50243218042624	fix	1.0		443	23.0	male	white	2.6275368085953046	neutral	141	sub-14	2.0	2.0	141_neutral	0.0		221.96850073546466	3.766562295966196
33.0	194.60253749693265	pulse	1.0	t		23.0	male	white	2.6275368085953046	neutral	141	sub-14	2.0	2.0	141_neutral	0.0		222.06860605197107	
33.0	195.30253819119434	pulse	1.0	t		23.0	male	white	2.6275368085953046	neutral	141	sub-14	2.0	2.0	141_neutral	0.0		222.76860674623276	
33.0	196.00250960571702	pulse	1.0	t		23.0	male	white	2.6275368085953046	neutral	141	sub-14	2.0	2.0	141_neutral	0.0		223.46857816075544	
33.0	196.7024915850934	pulse	1.0	t		23.0	male	white	2.6275368085953046	neutral	141	sub-14	2.0	2.0	141_neutral	0.0		224.16856014013183	
33.0	197.4024723570583	pulse	1.0	t		23.0	male	white	2.6275368085953046	neutral	141	sub-14	2.0	2.0	141_neutral	0.0		224.8685409120967	
33.0	198.1024489030815	pulse	1.0	t		23.0	male	white	2.6275368085953046	neutral	141	sub-14	2.0	2.0	141_neutral	0.0		225.5685174581199	
34.0	198.26899447639244	face	0.0		146	24.0	male	white	3.1153999204138483	smiling	012	sub-14	2.0	2.0	012_smiling	0.0		225.73506303143085	1.2333142461629905
34.0	198.80244265472493	pulse	0.0	t		24.0	male	white	3.1153999204138483	smiling	012	sub-14	2.0	2.0	012_smiling	0.0		226.26851120976335	
34.0	199.50230872255543	fix	1.0		444	24.0	male	white	3.1153999204138483	smiling	012	sub-14	2.0	2.0	012_smiling	0.0		226.96837727759385	3.766550825552713
34.0	199.50992960486565	pulse	1.0	t		24.0	male	white	3.1153999204138483	smiling	012	sub-14	2.0	2.0	012_smiling	0.0		226.97599815990407	
34.0	200.2024123486849	pulse	1.0	t		24.0	male	white	3.1153999204138483	smiling	012	sub-14	2.0	2.0	012_smiling	0.0		227.66848090372332	
34.0	200.9023825557956	pulse	1.0	t		24.0	male	white	3.1153999204138483	smiling	012	sub-14	2.0	2.0	012_smiling	0.0		228.36845111083403	
34.0	201.60236604443708	pulse	1.0	t		24.0	male	white	3.1153999204138483	smiling	012	sub-14	2.0	2.0	012_smiling	0.0		229.0684345994755	
34.0	202.29421882107727	pulse	1.0	t		24.0	male	white	3.1153999204138483	smiling	012	sub-14	2.0	2.0	012_smiling	0.0		229.76028737611568	
34.0	203.00232004204236	pulse	1.0	t		24.0	male	white	3.1153999204138483	smiling	012	sub-14	2.0	2.0	012_smiling	0.0		230.46838859708078	
35.0	203.26885954810814	face	0.0		145	30.0	female	black	2.7345801830481498	smiling	062	sub-14	2.0	2.0	062_smiling	1.0	dominance	230.73492810314656	1.233315151721854
35.0	203.7023113788614	pulse	0.0	t		30.0	female	black	2.7345801830481498	smiling	062	sub-14	2.0	2.0	062_smiling	1.0	dominance	231.1683799338998	
35.0	204.40228852859082	pulse	0.0	t		30.0	female	black	2.7345801830481498	smiling	062	sub-14	2.0	2.0	062_smiling	1.0	dominance	231.86835708362923	
35.0	204.50217469983	fix	1.0		177	30.0	female	black	2.7345801830481498	smiling	062	sub-14	2.0	2.0	062_smiling	1.0	dominance	231.9682432548684	1.499963928568377
35.0	205.10227292279114	pulse	1.0	t		30.0	female	black	2.7345801830481498	smiling	062	sub-14	2.0	2.0	062_smiling	1.0	dominance	232.56834147782956	
35.0	205.80224977066746	pulse	1.0	t		30.0	female	black	2.7345801830481498	smiling	062	sub-14	2.0	2.0	062_smiling	1.0	dominance	233.26831832570588	
35.0	206.00213862839837	rating	2.0		295	30.0	female	black	2.7345801830481498	smiling	062	sub-14	2.0	2.0	062_smiling	1.0	dominance	233.4682071834368	2.4999310265930035
35.0	206.49700878784597	pulse	2.0	t		30.0	female	black	2.7345801830481498	smiling	062	sub-14	2.0	2.0	062_smiling	1.0	dominance	233.9630773428844	
35.0	207.19698291904524	pulse	2.0	t		30.0	female	black	2.7345801830481498	smiling	062	sub-14	2.0	2.0	062_smiling	1.0	dominance	234.66305147408366	
35.0	207.21892612178408	response	2.0	g		30.0	female	black	2.7345801830481498	smiling	062	sub-14	2.0	2.0	062_smiling	1.0	dominance	234.6849946768225	
35.0	207.8940556393536	pulse	2.0	t		30.0	female	black	2.7345801830481498	smiling	062	sub-14	2.0	2.0	062_smiling	1.0	dominance	235.36012419439203	
35.0	208.50206965499137	fix	3.0		443	30.0	female	black	2.7345801830481498	smiling	062	sub-14	2.0	2.0	062_smiling	1.0	dominance	235.9681382100298	3.7665520329646824
35.0	208.5940496928497	pulse	3.0	t		30.0	female	black	2.7345801830481498	smiling	062	sub-14	2.0	2.0	062_smiling	1.0	dominance	236.0601182478881	
35.0	209.29401808884222	pulse	3.0	t		30.0	female	black	2.7345801830481498	smiling	062	sub-14	2.0	2.0	062_smiling	1.0	dominance	236.76008664388064	
35.0	209.99402572572262	pulse	3.0	t		30.0	female	black	2.7345801830481498	smiling	062	sub-14	2.0	2.0	062_smiling	1.0	dominance	237.46009428076104	
35.0	210.6939817457428	pulse	3.0	t		30.0	female	black	2.7345801830481498	smiling	062	sub-14	2.0	2.0	062_smiling	1.0	dominance	238.16005030078122	
35.0	211.39396281956078	pulse	3.0	t		30.0	female	black	2.7345801830481498	smiling	062	sub-14	2.0	2.0	062_smiling	1.0	dominance	238.8600313745992	
35.0	212.09404229745178	pulse	3.0	t		30.0	female	black	2.7345801830481498	smiling	062	sub-14	2.0	2.0	062_smiling	1.0	dominance	239.5601108524902	
36.0	212.26862168795606	face	0.0		146	21.0	male	east_asian/white	3.501790688420215	neutral	036	sub-14	2.0	2.0	036_neutral	0.0		239.73469024299447	1.233315151721854
36.0	212.80206865887658	pulse	0.0	t		21.0	male	east_asian/white	3.501790688420215	neutral	036	sub-14	2.0	2.0	036_neutral	0.0		240.268137213915	
36.0	213.5019368396779	fix	1.0		444	21.0	male	east_asian/white	3.501790688420215	neutral	036	sub-14	2.0	2.0	036_neutral	0.0		240.96800539471633	3.75825017032048
36.0	213.49400052099827	pulse	1.0	t		21.0	male	east_asian/white	3.501790688420215	neutral	036	sub-14	2.0	2.0	036_neutral	0.0		240.9600690760367	
36.0	214.1939121686296	pulse	1.0	t		21.0	male	east_asian/white	3.501790688420215	neutral	036	sub-14	2.0	2.0	036_neutral	0.0		241.659980723668	
36.0	214.89388599797576	pulse	1.0	t		21.0	male	east_asian/white	3.501790688420215	neutral	036	sub-14	2.0	2.0	036_neutral	0.0		242.35995455301418	
36.0	215.59386043102813	pulse	1.0	t		21.0	male	east_asian/white	3.501790688420215	neutral	036	sub-14	2.0	2.0	036_neutral	0.0		243.05992898606655	
36.0	216.29383939187528	pulse	1.0	t		21.0	male	east_asian/white	3.501790688420215	neutral	036	sub-14	2.0	2.0	036_neutral	0.0		243.7599079469137	
36.0	216.9938292194297	pulse	1.0	t		21.0	male	east_asian/white	3.501790688420215	neutral	036	sub-14	2.0	2.0	036_neutral	0.0		244.45989777446812	
37.0	217.2601870099984	face	0.0		146	31.0	female	east_asian	3.395941106247513	smiling	087	sub-14	2.0	2.0	087_smiling	0.0		244.7262555650368	1.2416176180722687
37.0	217.70193859042502	pulse	0.0	t		31.0	female	east_asian	3.395941106247513	smiling	087	sub-14	2.0	2.0	087_smiling	0.0		245.16800714546343	
37.0	218.4019163438602	pulse	0.0	t		31.0	female	east_asian	3.395941106247513	smiling	087	sub-14	2.0	2.0	087_smiling	0.0		245.8679848988986	
37.0	218.50180462807066	fix	1.0		444	31.0	female	east_asian	3.395941106247513	smiling	087	sub-14	2.0	2.0	087_smiling	0.0		245.96787318310908	3.7665158106065064
37.0	219.0937709316181	pulse	1.0	t		31.0	female	east_asian	3.395941106247513	smiling	087	sub-14	2.0	2.0	087_smiling	0.0		246.55983948665653	
37.0	219.79374989246526	pulse	1.0	t		31.0	female	east_asian	3.395941106247513	smiling	087	sub-14	2.0	2.0	087_smiling	0.0		247.25981844750368	
37.0	220.49372341995831	pulse	1.0	t		31.0	female	east_asian	3.395941106247513	smiling	087	sub-14	2.0	2.0	087_smiling	0.0		247.95979197499673	
37.0	221.19370871971796	pulse	1.0	t		31.0	female	east_asian	3.395941106247513	smiling	087	sub-14	2.0	2.0	087_smiling	0.0		248.65977727475638	
37.0	221.89368436018185	pulse	1.0	t		31.0	female	east_asian	3.395941106247513	smiling	087	sub-14	2.0	2.0	087_smiling	0.0		249.35975291522027	
38.0	222.26832043867716	face	0.0		145	20.0	female	white	3.9502586549940313	neutral	091	sub-14	2.0	2.0	091_neutral	0.0		249.73438899371558	1.233354090757075
38.0	222.60180972938588	pulse	0.0	t		20.0	female	white	3.9502586549940313	neutral	091	sub-14	2.0	2.0	091_neutral	0.0		250.0678782844243	
38.0	223.2935930798394	pulse	0.0	t		20.0	female	white	3.9502586549940313	neutral	091	sub-14	2.0	2.0	091_neutral	0.0		250.75966163487783	
38.0	223.50167452943424	fix	1.0		444	20.0	female	white	3.9502586549940313	neutral	091	sub-14	2.0	2.0	091_neutral	0.0		250.96774308447266	3.7665381477272604
38.0	223.99363361869518	pulse	1.0	t		20.0	female	white	3.9502586549940313	neutral	091	sub-14	2.0	2.0	091_neutral	0.0		251.4597021737336	
38.0	224.6936134851012	pulse	1.0	t		20.0	female	white	3.9502586549940313	neutral	091	sub-14	2.0	2.0	091_neutral	0.0		252.15968204013961	
38.0	225.3935933515072	pulse	1.0	t		20.0	female	white	3.9502586549940313	neutral	091	sub-14	2.0	2.0	091_neutral	0.0		252.85966190654563	
38.0	226.09357140679504	pulse	1.0	t		20.0	female	white	3.9502586549940313	neutral	091	sub-14	2.0	2.0	091_neutral	0.0		253.55963996183345	
38.0	226.79358326961756	pulse	1.0	t		20.0	female	white	3.9502586549940313	neutral	091	sub-14	2.0	2.0	091_neutral	0.0		254.25965182465598	
39.0	227.2682126771615	face	0.0		145	25.0	female	west_asian	2.6756864305610826	neutral	064	sub-14	2.0	2.0	064_neutral	0.0		254.73428123219992	1.2333121331921575
39.0	227.49348495610002	pulse	0.0	t		25.0	female	west_asian	2.6756864305610826	neutral	064	sub-14	2.0	2.0	064_neutral	0.0		254.95955351113844	
39.0	228.19345003170974	pulse	0.0	t		25.0	female	west_asian	2.6756864305610826	neutral	064	sub-14	2.0	2.0	064_neutral	0.0		255.65951858674816	
39.0	228.50152481035366	fix	1.0		444	25.0	female	west_asian	2.6756864305610826	neutral	064	sub-14	2.0	2.0	064_neutral	0.0		255.96759336539208	3.7498942759916645
39.0	228.89351019100968	pulse	1.0	t		25.0	female	west_asian	2.6756864305610826	neutral	064	sub-14	2.0	2.0	064_neutral	0.0		256.3595787460481	
39.0	229.59348130367925	pulse	1.0	t		25.0	female	west_asian	2.6756864305610826	neutral	064	sub-14	2.0	2.0	064_neutral	0.0		257.0595498587177	
39.0	230.293457849702	pulse	1.0	t		25.0	female	west_asian	2.6756864305610826	neutral	064	sub-14	2.0	2.0	064_neutral	0.0		257.7595264047404	
39.0	230.99344435687362	pulse	1.0	t		25.0	female	west_asian	2.6756864305610826	neutral	064	sub-14	2.0	2.0	064_neutral	0.0		258.45951291191204	
39.0	231.69355854785772	pulse	1.0	t		25.0	female	west_asian	2.6756864305610826	neutral	064	sub-14	2.0	2.0	064_neutral	0.0		259.15962710289614	
40.0	232.25141908634532	fix	0.0		720													259.71748764138374	5.99986144948025
40.0	232.3935145678779	pulse	0.0	t														259.8595831229163	
40.0	233.09338697462135	pulse	0.0	t														260.5594555296598	
40.0	233.79336804843933	pulse	0.0	t														261.25943660347775	
40.0	234.493348216698	pulse	0.0	t														261.9594167717364	
40.0	235.19333261089878	pulse	0.0	t														262.6594011659372	
40.0	235.89331489212873	pulse	0.0	t														263.35938344716715	
40.0	236.59319061925453	pulse	0.0	t														264.05925917429295	
40.0	237.2932812657059	pulse	0.0	t														264.7593498207443	
40.0	237.99325268022812	pulse	0.0	t														265.45932123526654	
