trial_nr	onset	event_type	phase	response	nr_frames	rating_type	face_id	repetition	session	rating	onset_abs	duration
0.0	0.00997364188708616	cue	0.0		479						25.32392949597204	3.9921472021520685
0.0	1.676961584529522	response	0.0	return							26.990917438614474	
0.0	4.002120844039155	fix	1.0		120						29.316076698124107	1.075159561366263
0.0	5.077280405405418	face	0.0		140	dominance	117	1.0	1		30.39123625949037	1.2670633464057346
0.0	6.344343751811152	rating	1.0		221	dominance	117	1.0	1		31.658299605896104	1.849952548152146
0.0	8.194296299963298	fix	2.0		60	dominance	117	1.0	1	0.5800000000000001	33.50825215404825	0.5167536415972336
1.0	8.711049941560532	face	0.0		147	dominance	038	1.0	1		34.025005795645484	1.233472448950124
1.0	9.944522390510656	rating	1.0		68	dominance	038	1.0	1		35.25847824459561	0.575052704151517
1.0	10.519575094662173	fix	2.0		60	dominance	038	1.0	1	-1.9300000000000002	35.833530948747125	0.5167596787281354
2.0	11.036334773390308	face	0.0		147	dominance	144	1.0	1		36.35029062747526	1.2334649025365252
2.0	12.269799675926834	rating	1.0		61	dominance	144	1.0	1		37.583755530011786	0.5167270782218338
2.0	12.786526754148667	fix	2.0		60	dominance	144	1.0	1	-0.7799999999999998	38.10048260823362	0.516745189614312
3.0	13.30327194376298	face	0.0		147	dominance	124	1.0	1		38.61722779784793	1.2334627895406811
3.0	14.53673473330366	rating	1.0		70	dominance	124	1.0	1		39.85069058738861	0.5917348057492973
3.0	15.128469539052958	fix	2.0		60	dominance	124	1.0	1	0.6900000000000004	40.44242539313791	0.5167581694454384
4.0	15.645227708498396	face	0.0		147	dominance	141	1.0	1		40.95918356258335	1.233458865405737
4.0	16.878686573904133	rating	1.0		75	dominance	141	1.0	1		42.192642427989085	0.6334048934567136
4.0	17.512091467360847	fix	2.0		60	dominance	141	1.0	1	-0.8999999999999999	42.8260473214458	0.5167717529895981
5.0	18.028863220350445	face	0.0		147	dominance	024	1.0	1		43.3428190744354	1.2334425651527
5.0	19.262305785503145	rating	1.0		70	dominance	024	1.0	1		44.5762616395881	0.5917387298842414
5.0	19.854044515387386	fix	2.0		60	dominance	024	1.0	1	1.0899999999999999	45.16800036947234	0.5167551508800443
6.0	20.37079966626743	face	0.0		147	dominance	091	1.0	1		45.68475552035238	1.23345735612304
6.0	21.60425702239047	rating	1.0		56	dominance	091	1.0	1		46.91821287647542	0.47505668865801454
6.0	22.079313711048485	fix	2.0		60	dominance	091	1.0	1	-0.71	47.39326956513344	0.5167599805845384
7.0	22.596073691633023	face	0.0		147	dominance	033	1.0	1		47.910029545717975	1.2334528282750625
7.0	23.829526519908086	rating	1.0		88	dominance	033	1.0	1		49.14348237399304	0.7334217370515717
7.0	24.562948256959658	fix	2.0		60	dominance	033	1.0	1	-1.7799999999999998	49.87690411104461	0.5167545471668973
8.0	25.079702804126555	face	0.0		147	dominance	092	1.0	1		50.39365865821151	1.23345735612304
8.0	26.313160160249595	rating	1.0		68	dominance	092	1.0	1		51.62711601433455	0.5667362546606682
8.0	26.879896414910263	fix	2.0		60	dominance	092	1.0	1	-1.2200000000000002	52.193852268995215	0.5167599805845384
9.0	27.3966563954948	face	0.0		147	dominance	036	1.0	1		52.71061224957975	1.2334552431274233
9.0	28.630111638622225	rating	1.0		59	dominance	036	1.0	1		53.94406749270718	0.5000621824468681
9.0	29.130173821069093	fix	2.0		60	dominance	036	1.0	1	-0.5699999999999998	54.444129675154045	0.5167491137492561
10.0	29.64692293481835	face	0.0		147	dominance	043	1.0	1		54.9608787889033	1.233458865405737
10.0	30.880381800224086	rating	1.0		67	dominance	043	1.0	1		56.19433765430904	0.5667383676563986
10.0	31.447120167880485	fix	2.0		60	dominance	043	1.0	1	-0.8300000000000001	56.76107602196544	0.516756962019258
11.0	31.963877129899743	face	0.0		147	dominance	011	1.0	1		57.277832983984695	1.2334525264184322
11.0	33.197329656318175	rating	1.0		61	dominance	011	1.0	1		58.51128551040313	0.5167415673357709
11.0	33.714071223653946	fix	2.0		60	dominance	011	1.0	1	2.1799999999999997	59.0280270777389	0.5167623954368992
12.0	34.230833619090845	face	0.0		147	dominance	042	1.0	1		59.5447894731758	1.2334371317350588
12.0	35.464270750825904	rating	1.0		70	dominance	042	1.0	1		60.778226604910856	0.5834038671445114
12.0	36.047674617970415	fix	2.0		60	dominance	042	1.0	1	1.25	61.36163047205537	0.5167590750148747
13.0	36.56443369298529	face	0.0		147	dominance	087	1.0	1		61.87838954707024	1.2334561486969733
13.0	37.79788984168226	rating	1.0		64	dominance	087	1.0	1		63.111845695767215	0.5417283460193403
13.0	38.3396181877016	fix	2.0		60	dominance	087	1.0	1	0.9400000000000004	63.653574041786555	0.5167524341711669
14.0	38.85637062187277	face	0.0		147	dominance	102	1.0	1		64.17032647595772	1.233461883971131
14.0	40.0898325058439	rating	1.0		63	dominance	102	1.0	1		65.40378835992885	0.5250619409617912
14.0	40.61489444680569	fix	2.0		60	dominance	102	1.0	1	-1.5699999999999998	65.92885030089064	0.5167796012594863
15.0	41.13167404806518	face	0.0		147	dominance	172	1.0	1		66.44562990215013	1.233433811313148
15.0	42.36510785937833	rating	1.0		50	dominance	172	1.0	1		67.67906371346328	0.42505022892794386
15.0	42.79015808830627	fix	2.0		60	dominance	172	1.0	1	-1.87	68.10411394239122	0.516756962019258
16.0	43.30691505032553	face	0.0		147	dominance	064	1.0	1		68.62087090441048	1.2334555449838263
16.0	44.540370595309355	rating	1.0		53	dominance	064	1.0	1		69.8543264493943	0.4500527041516307
16.0	44.990423299460986	fix	2.0		60	dominance	064	1.0	1	1.8200000000000003	70.30437915354594	0.5167566601627414
17.0	45.50717995962373	face	0.0		147	dominance	012	1.0	1		70.82113581370868	1.2334600728319174
17.0	46.740640032455644	rating	1.0		50	dominance	012	1.0	1		72.0545958865406	0.4250496252149105
17.0	47.165689657670555	fix	2.0		60	dominance	012	1.0	1	1.25	72.4796455117555	0.5167536415972336
18.0	47.68244329926779	face	0.0		147	dominance	044	1.0	1		72.99639915335274	1.2334597709754007
18.0	48.91590307024319	rating	1.0		46	dominance	044	1.0	1		74.22985892432814	0.3917107779689104
18.0	49.3076138482121	fix	2.0		60	dominance	044	1.0	1	-1.88	74.62156970229705	0.5084257215578418
19.0	49.81603956976994	face	0.0		148	dominance	034	1.0	1		75.1299954238549	1.2417895021540062
19.0	51.05782907192395	rating	1.0		47	dominance	034	1.0	1		76.3717849260089	0.4000462444216737
19.0	51.45787531634562	fix	2.0		60	dominance	034	1.0	1	-1.1400000000000001	76.77183117043057	0.5084175714313233
20.0	51.966292887776945	face	0.0		148	dominance	061	1.0	1		77.2802487418619	1.241796444854458
20.0	53.2080893326314	rating	1.0		58	dominance	061	1.0	1		78.52204518671635	0.49172520671140774
20.0	53.69981453934281	fix	2.0		60	dominance	061	1.0	1	-0.6299999999999999	79.01377039342776	0.5167636028629659
21.0	54.216578142205776	face	0.0		147	dominance	070	1.0	1		79.53053399629073	1.233454035701243
21.0	55.45003217790702	rating	1.0		76	dominance	070	1.0	1		80.76398803199197	0.6417427747618376
21.0	56.09177495266886	fix	2.0		60	dominance	070	1.0	1	-1.2400000000000002	81.40573080675381	0.5168019386434253
22.0	56.60857689131228	face	0.0		147	dominance	039	1.0	1		81.92253274539723	1.2334078516508953
22.0	57.84198474296318	rating	1.0		36	dominance	039	1.0	1		83.15594059704813	0.30837965825003266
22.0	58.15036440121321	fix	2.0		60	dominance	039	1.0	1	-1.2599999999999998	83.46432025529816	0.5167442840446483
23.0	58.66710868525786	face	0.0		147	dominance	130	1.0	1		83.98106453934281	1.2334639969668615
23.0	59.90057268222472	rating	1.0		41	dominance	130	1.0	1		85.21452853630967	0.35003435127407556
23.0	60.250607033498795	fix	2.0		60	dominance	130	1.0	1	-1.0299999999999998	85.56456288758375	0.5167732622722951
24.0	60.76738029577109	face	0.0		147	dominance	121	1.0	1		86.08133614985604	1.2334413577266332
24.0	62.000821653497724	rating	1.0		51	dominance	121	1.0	1		87.31477750758268	0.43339626035970014
24.0	62.434217913857424	fix	2.0		60	dominance	121	1.0	1	-1.0499999999999998	87.74817376794238	0.5167934866602764
25.0	62.9510114005177	face	0.0		147	dominance	101	1.0	1		88.26496725460265	1.2334099646466257
25.0	64.18442136516433	rating	1.0		44	dominance	101	1.0	1		89.49837721924928	0.37504316548495353
25.0	64.55946453064928	fix	2.0		60	dominance	101	1.0	1	-1.4	89.87342038473423	0.5167512267449865
26.0	65.07621575739427	face	0.0		147	dominance	082	1.0	1		90.39017161147922	1.2334600728319174
26.0	66.30967583022618	rating	1.0		40	dominance	082	1.0	1		91.62363168431114	0.3417082423738975
26.0	66.65138407260008	fix	2.0		60	dominance	082	1.0	1	-1.92	91.96533992668503	0.5167542453103806
27.0	67.16813831791046	face	0.0		147	dominance	018	1.0	1		92.48209417199541	1.2334621858277615
27.0	68.40160050373822	rating	1.0		36	dominance	018	1.0	1		93.71555635782317	0.30836637656238963
27.0	68.70996688030061	fix	2.0		60	dominance	018	1.0	1	-0.9900000000000002	94.02392273438556	0.5167536415972336
28.0	69.22672052189785	face	0.0		147	dominance	066	1.0	1		94.5406763759828	1.2334627895407948
28.0	70.46018331143864	rating	1.0		36	dominance	066	1.0	1		95.7741391655236	0.30836909327126705
28.0	70.76855240470991	fix	2.0		60	dominance	066	1.0	1	-0.8900000000000001	96.08250825879486	0.5167512267449865
29.0	71.2853036314549	face	0.0		147	dominance	099	1.0	1		96.59925948553985	1.2334606765450644
29.0	72.51876430799996	rating	1.0		37	dominance	099	1.0	1		97.83272016208491	0.31670335229796365
29.0	72.83546766029792	fix	2.0		60	dominance	099	1.0	1	1.5099999999999998	98.14942351438287	0.5167542453103806
30.0	73.3522219056083	face	0.0		147	dominance	030	1.0	1		98.66617775969326	1.2334597709754007
30.0	74.5856816765837	rating	1.0		93	dominance	030	1.0	1		99.89963753066866	0.7834260837855709
30.0	75.36910776036927	fix	2.0		60	dominance	030	1.0	1	-2.16	100.68306361445423	0.5167521323146502
31.0	75.88585989268392	face	0.0		147	dominance	006	1.0	1		101.19981574676888	1.2334633932539418
31.0	77.11932328593787	rating	1.0		48	dominance	006	1.0	1		102.43327914002282	0.4083802015918536
31.0	77.52770348752972	fix	2.0		60	dominance	006	1.0	1	-0.6499999999999999	102.84165934161467	0.5167596787280218
32.0	78.04446316625774	face	0.0		147	dominance	062	1.0	1		103.3584190203427	1.2334688266714693
32.0	79.27793199292921	rating	1.0		48	dominance	062	1.0	1		104.59188784701416	0.4083639013388165
32.0	79.68629589426803	fix	2.0		60	dominance	062	1.0	1	-1.6400000000000001	105.00025174835298	0.5167572638758884
33.0	80.20305315814392	face	0.0		147	dominance	137	1.0	1		105.51700901222887	1.2334591672622537
33.0	81.43651232540617	rating	1.0		49	dominance	137	1.0	1		106.75046817949112	0.4167147624750669
33.0	81.85322708788124	fix	2.0		60	dominance	137	1.0	1	1.33	107.16718294196619	0.5167539434539776
34.0	82.36998103133521	face	0.0		147	dominance	100	1.0	1		107.68393688542017	1.2334612802580978
34.0	83.60344231159331	rating	1.0		48	dominance	100	1.0	1		108.91739816567826	0.40837899416555956
34.0	84.01182130575887	fix	2.0		60	dominance	100	1.0	1	1.4699999999999998	109.32577715984382	0.516755452736561
35.0	84.52857675849543	face	0.0		147	dominance	136	1.0	1		109.84253261258038	1.233460072832031
35.0	85.76203683132746	rating	1.0		48	dominance	136	1.0	1		111.07599268541242	0.4083792960223036
35.0	86.17041612734977	fix	2.0		60	dominance	136	1.0	1	-0.2599999999999998	111.48437198143472	0.5167569620191443
36.0	86.68717308936891	face	0.0		147	dominance	126	1.0	1		112.00112894345386	1.233456752409893
36.0	87.9206298417788	rating	1.0		67	dominance	126	1.0	1		113.23458569586376	0.5667317268125771
36.0	88.48736156859138	fix	2.0		60	dominance	126	1.0	1	0.0	113.80131742267633	0.5167551508800443
37.0	89.00411671947143	face	0.0		147	dominance	009	1.0	1		114.31807257355638	1.2334606765450644
37.0	90.23757739601649	rating	1.0		45	dominance	009	1.0	1		115.55153325010144	0.3833786319378305
37.0	90.62095602795432	fix	2.0		60	dominance	009	1.0	1	-0.69	115.93491188203927	0.5167557545930777
38.0	91.1377117825474	face	0.0		147	dominance	027	1.0	1		116.45166763663235	1.233460978401581
38.0	92.37117276094898	rating	1.0		40	dominance	027	1.0	1		117.68512861503393	0.34170129967355933
38.0	92.71287406062254	fix	2.0		60	dominance	027	1.0	1	0.8499999999999996	118.02682991470749	0.5167575657321777
39.0	93.22963162635472	face	0.0		147	dominance	005	1.0	1		118.54358748043967	1.233458865405737
39.0	94.46309049176045	rating	1.0		49	dominance	005	1.0	1		119.7770463458454	0.4167153661883276
39.0	94.87980585794878	fix	2.0		60	dominance	005	1.0	1	-1.44	120.19376171203373	0.5000609750206877
40.0	95.37986683296947	cue	0.0		480						120.69382268705442	4.000485385313823
40.0	99.38035221828329	fix	1.0		120						124.69430807236824	1.0168158240442153
40.0	100.39716804232751	face	0.0		147	trustworthiness	005	1.0	1		125.71112389641246	1.2334597709755144
40.0	101.63062781330302	rating	1.0		54	trustworthiness	005	1.0	1		126.94458366738797	0.4583866613218106
40.0	102.08901447462483	fix	2.0		60	trustworthiness	005	1.0	1	0.46999999999999975	127.40297032870978	0.5167551508798169
41.0	102.60576962550465	face	0.0		147	trustworthiness	070	1.0	1		127.9197254795896	1.233457054266637
41.0	103.83922667977129	rating	1.0		37	trustworthiness	070	1.0	1		129.15318253385624	0.3167133135636959
41.0	104.15593999333498	fix	2.0		60	trustworthiness	070	1.0	1	0.7699999999999996	129.46989584741993	0.5167424729054346
42.0	104.67268246624042	face	0.0		147	trustworthiness	039	1.0	1		129.98663832032537	1.2334778823676515
42.0	105.90616034860807	rating	1.0		38	trustworthiness	039	1.0	1		131.22011620269302	0.3250237259239839
42.0	106.23118407453205	fix	2.0		60	trustworthiness	039	1.0	1	0.0	131.545139928617	0.5167542453102669
43.0	106.74793831984232	face	0.0		147	trustworthiness	121	1.0	1		132.06189417392727	1.233456148697087
43.0	107.9813944685394	rating	1.0		36	trustworthiness	121	1.0	1		133.29535032262436	0.3083887139462149
43.0	108.28978318248562	fix	2.0		60	trustworthiness	121	1.0	1	0.0	133.60373903657057	0.5167409636226239
44.0	108.80652414610825	face	0.0		147	trustworthiness	006	1.0	1		134.1204800001932	1.2334525264184322
44.0	110.03997667252668	rating	1.0		37	trustworthiness	006	1.0	1		135.35393252661163	0.31671029499830183
44.0	110.35668696752498	fix	2.0		60	trustworthiness	006	1.0	1	0.0	135.67064282160993	0.5167500193188062
45.0	110.87343698684379	face	0.0		147	trustworthiness	030	1.0	1		136.18739284092874	1.233460072832031
45.0	112.10689705967582	rating	1.0		54	trustworthiness	030	1.0	1		137.42085291376077	0.45838454832596653
45.0	112.56528160800178	fix	2.0		60	trustworthiness	030	1.0	1	-0.3500000000000001	137.87923746208673	0.5167539434539776
46.0	113.08203555145576	face	0.0		147	trustworthiness	024	1.0	1		138.3959914055407	1.2334603746883204
46.0	114.31549592614408	rating	1.0		45	trustworthiness	024	1.0	1		139.62945178022903	0.38337833008131383
46.0	114.6988742562254	fix	2.0		60	trustworthiness	024	1.0	1	1.7999999999999998	140.01283011031035	0.5167551508800443
47.0	115.21562940710544	face	0.0		147	trustworthiness	042	1.0	1		140.5295852611904	1.233457959836187
47.0	116.44908736694163	rating	1.0		36	trustworthiness	042	1.0	1		141.76304322102658	0.3083696969843004
47.0	116.75745706392593	fix	2.0		60	trustworthiness	042	1.0	1	-1.21	142.07141291801088	0.5167596787280218
48.0	117.27421674265395	face	0.0		147	trustworthiness	034	1.0	1		142.5881725967389	1.2334869380638338
48.0	118.50770368071778	rating	1.0		36	trustworthiness	034	1.0	1		143.82165953480273	0.30833528533912613
48.0	118.81603896605691	fix	2.0		60	trustworthiness	034	1.0	1	0.0	144.12999482014186	0.5167608861540884
49.0	119.332799852211	face	0.0		147	trustworthiness	141	1.0	1		144.64675570629595	1.2334537338447262
49.0	120.56625358605572	rating	1.0		36	trustworthiness	141	1.0	1		145.88020944014067	0.3083823749589101
49.0	120.87463596101463	fix	2.0		61	trustworthiness	141	1.0	1	0.0	146.18859181509958	0.5250725059404431
50.0	121.39970846695508	face	0.0		147	trustworthiness	172	1.0	1		146.71366432104003	1.2334642988234918
50.0	122.63317276577857	rating	1.0		46	trustworthiness	172	1.0	1		147.94712861986352	0.3917098723993604
50.0	123.02488263817793	fix	2.0		60	trustworthiness	172	1.0	1	1.08	148.33883849226288	0.5167645084325159
51.0	123.54164714661044	face	0.0		147	trustworthiness	012	1.0	1		148.8556030006954	1.233454941270793
51.0	124.77510208788124	rating	1.0		36	trustworthiness	012	1.0	1		150.0890579419662	0.3083657728493563
51.0	125.0834678607306	fix	2.0		60	trustworthiness	012	1.0	1	1.2000000000000002	150.39742371481555	0.5167485100362228
52.0	125.60021637076682	face	0.0		147	trustworthiness	044	1.0	1		150.91417222485177	1.2334642988234918
52.0	126.83368066959031	rating	1.0		45	trustworthiness	044	1.0	1		152.14763652367526	0.3833825560727746
52.0	127.21706322566308	fix	2.0		60	trustworthiness	044	1.0	1	0.8700000000000001	152.53101907974803	0.5167476044664454
53.0	127.73381083012953	face	0.0		147	trustworthiness	011	1.0	1		153.04776668421448	1.2334621858278751
53.0	128.9672730159574	rating	1.0		49	trustworthiness	011	1.0	1		154.28122887004236	0.4167156680446169
53.0	129.38398868400202	fix	2.0		60	trustworthiness	011	1.0	1	-0.8399999999999999	154.69794453808697	0.5167693381372374
54.0	129.90075802213926	face	0.0		147	trustworthiness	062	1.0	1		155.2147138762242	1.2334534319882096
54.0	131.13421145412747	rating	1.0		37	trustworthiness	062	1.0	1		156.44816730821242	0.31669490031481473
54.0	131.45090635444228	fix	2.0		60	trustworthiness	062	1.0	1	1.8200000000000003	156.76486220852723	0.5167684325676873
55.0	131.96767478700997	face	0.0		147	trustworthiness	009	1.0	1		157.28163064109492	1.2334440744355106
55.0	133.20111886144548	rating	1.0		47	trustworthiness	009	1.0	1		158.51507471553043	0.40004382956931295
55.0	133.6011626910148	fix	2.0		60	trustworthiness	009	1.0	1	0.33000000000000007	158.91511854509974	0.5167557545930777
56.0	134.11791844560787	face	0.0		147	trustworthiness	061	1.0	1		159.43187429969282	1.2334603746885477
56.0	135.35137882029642	rating	1.0		49	trustworthiness	061	1.0	1		160.66533467438137	0.4167214033188884
56.0	135.7681002236153	fix	2.0		61	trustworthiness	061	1.0	1	-0.6099999999999999	161.08205607770026	0.5250824672064027
57.0	136.2931826908217	face	0.0		146	trustworthiness	137	1.0	1		161.60713854490666	1.225132152792412
57.0	137.51831484361412	rating	1.0		39	trustworthiness	137	1.0	1		162.83227069769907	0.33337277592113423
57.0	137.85168761953526	fix	2.0		61	trustworthiness	137	1.0	1	1.3499999999999996	163.1656434736202	0.5250773356451646
58.0	138.37676495518042	face	0.0		146	trustworthiness	087	1.0	1		163.69072080926537	1.2251285305139845
58.0	139.6018934856944	rating	1.0		51	trustworthiness	087	1.0	1		164.91584933977936	0.43338358238520414
58.0	140.0352770680796	fix	2.0		60	trustworthiness	087	1.0	1	-0.9300000000000002	165.34923292216456	0.5167569620191443
59.0	140.55203403009875	face	0.0		147	trustworthiness	136	1.0	1		165.8659898841837	1.233457959836187
59.0	141.78549198993494	rating	1.0		37	trustworthiness	136	1.0	1		167.0994478440199	0.3167108987113352
59.0	142.10220288864627	fix	2.0		60	trustworthiness	136	1.0	1	1.2800000000000002	167.41615874273123	0.5167581694454384
60.0	142.6189610580917	face	0.0		147	trustworthiness	102	1.0	1		167.93291691217667	1.2334479985704547
60.0	143.85240905666217	rating	1.0		49	trustworthiness	102	1.0	1		169.16636491074712	0.41672502559731583
60.0	144.26913408225948	fix	2.0		60	trustworthiness	102	1.0	1	0.9500000000000002	169.58308993634444	0.5167448877577954
61.0	144.78587897001728	face	0.0		147	trustworthiness	117	1.0	1		170.09983482410223	1.233457959836187
61.0	146.01933692985347	rating	1.0		43	trustworthiness	117	1.0	1		171.33329278393842	0.366710415740954
61.0	146.38604734559442	fix	2.0		61	trustworthiness	117	1.0	1	1.4299999999999997	171.70000319967937	0.5250948433242684
62.0	146.9111421889187	face	0.0		146	trustworthiness	101	1.0	1		172.22509804300364	1.2251279268009512
62.0	148.13627011571964	rating	1.0		48	trustworthiness	101	1.0	1		173.4502259698046	0.4083714477524154
62.0	148.54464156347206	fix	2.0		60	trustworthiness	101	1.0	1	1.33	173.858597417557	0.5167898643817352
63.0	149.0614314278538	face	0.0		147	trustworthiness	033	1.0	1		174.37538728193874	1.2334253593301128
63.0	150.2948567871839	rating	1.0		56	trustworthiness	033	1.0	1		175.60881264126886	0.4750636313583527
63.0	150.76992041854226	fix	2.0		61	trustworthiness	033	1.0	1	-1.5499999999999998	176.0838762726272	0.5250791467842646
64.0	151.29499956532652	face	0.0		146	trustworthiness	126	1.0	1		176.60895541941147	1.2251252100923011
64.0	152.52012477541882	rating	1.0		47	trustworthiness	126	1.0	1		177.83408062950377	0.40004654627819036
64.0	152.920171321697	fix	2.0		60	trustworthiness	126	1.0	1	0.4900000000000002	178.23412717578196	0.5167654140022933
65.0	153.4369367356993	face	0.0		147	trustworthiness	092	1.0	1		178.75089258978426	1.2334489041400047
65.0	154.6703856398393	rating	1.0		50	trustworthiness	092	1.0	1		179.98434149392426	0.4250490215017635
65.0	155.09543466134107	fix	2.0		60	trustworthiness	092	1.0	1	1.7000000000000002	180.40939051542603	0.5167717529895981
66.0	155.61220641433067	face	0.0		147	trustworthiness	027	1.0	1		180.92616226841562	1.2334479985704547
66.0	156.84565441290113	rating	1.0		50	trustworthiness	027	1.0	1		182.15961026698608	0.4250490215017635
66.0	157.2707034344029	fix	2.0		60	trustworthiness	027	1.0	1	-0.7599999999999998	182.58465928848784	0.5167614898673492
67.0	157.78746492427024	face	0.0		147	trustworthiness	144	1.0	1		183.1014207783552	1.2334470930006773
67.0	159.02091201727092	rating	1.0		42	trustworthiness	144	1.0	1		184.33486787135587	0.35837434557515735
67.0	159.37928636284607	fix	2.0		60	trustworthiness	144	1.0	1	-0.5499999999999998	184.69324221693103	0.5167657158588099
68.0	159.89605207870488	face	0.0		147	trustworthiness	038	1.0	1		185.21000793278984	1.2334498097095548
68.0	161.12950188841444	rating	1.0		49	trustworthiness	038	1.0	1		186.4434577424994	0.4167123476229335
68.0	161.54621423603737	fix	2.0		60	trustworthiness	038	1.0	1	-0.6499999999999999	186.86017009012232	0.5167557545930777
69.0	162.06296999063045	face	0.0		147	trustworthiness	100	1.0	1		187.3769258447154	1.2334630913971978
69.0	163.29643308202765	rating	1.0		40	trustworthiness	100	1.0	1		188.6103889361126	0.341713072078619
69.0	163.63814615410627	fix	2.0		60	trustworthiness	100	1.0	1	1.0899999999999999	188.95210200819122	0.516746095183862
70.0	164.15489224929013	face	0.0		147	trustworthiness	130	1.0	1		189.46884810337508	1.233457959836187
70.0	165.38835020912632	rating	1.0		36	trustworthiness	130	1.0	1		190.70230606321127	0.3083748285453112
70.0	165.69672503767163	fix	2.0		60	trustworthiness	130	1.0	1	-1.0699999999999998	191.01068089175658	0.5167533397407169
71.0	166.21347837741234	face	0.0		147	trustworthiness	043	1.0	1		191.5274342314973	1.233460072832031
71.0	167.44693845024437	rating	1.0		48	trustworthiness	043	1.0	1		192.76089430432933	0.4083814090181477
71.0	167.85531985926252	fix	2.0		60	trustworthiness	043	1.0	1	0.9699999999999998	193.16927571334747	0.5167512267448728
72.0	168.3720710860074	face	0.0		147	trustworthiness	018	1.0	1		193.68602694009235	1.2334603746885477
72.0	169.60553146069594	rating	1.0		51	trustworthiness	018	1.0	1		194.9194873147809	0.4333929399376757
72.0	170.03892440063362	fix	2.0		60	trustworthiness	018	1.0	1	1.13	195.35288025471857	0.5167482081797061
73.0	170.55567260881332	face	0.0		147	trustworthiness	036	1.0	1		195.86962846289828	1.2334531301314655
73.0	171.7891257389448	rating	1.0		60	trustworthiness	036	1.0	1		197.10308159302974	0.5083952340476117
73.0	172.2975209729924	fix	2.0		60	trustworthiness	036	1.0	1	1.0599999999999996	197.61147682707735	0.516756358306111
74.0	172.8142773312985	face	0.0		147	trustworthiness	066	1.0	1		198.12823318538346	1.2334573561229263
74.0	174.04773468742144	rating	1.0		68	trustworthiness	066	1.0	1		199.3616905415064	0.575065683982757
74.0	174.6228003714042	fix	2.0		60	trustworthiness	066	1.0	1	-0.009999999999999787	199.93675622548915	0.5167626972934158
75.0	175.1395630686976	face	0.0		147	trustworthiness	091	1.0	1		200.45351892278256	1.2334531301316929
75.0	176.3730161988293	rating	1.0		37	trustworthiness	091	1.0	1		201.68697205291426	0.3167057671503244
75.0	176.68972196597963	fix	2.0		60	trustworthiness	091	1.0	1	-1.3199999999999998	202.00367782006458	0.5167527360276836
76.0	177.2064747020073	face	0.0		147	trustworthiness	082	1.0	1		202.52043055609226	1.233468222958436
76.0	178.43994292496575	rating	1.0		36	trustworthiness	082	1.0	1		203.7538987790507	0.3083573208662074
76.0	178.74830024583196	fix	2.0		60	trustworthiness	082	1.0	1	2.0700000000000003	204.0622560999169	0.5167521323146502
77.0	179.2650523781466	face	0.0		147	trustworthiness	124	1.0	1		204.57900823223156	1.2334639969669752
77.0	180.49851637511358	rating	1.0		51	trustworthiness	124	1.0	1		205.81247222919853	0.43338086567609935
77.0	180.93189724078968	fix	2.0		60	trustworthiness	124	1.0	1	0.009999999999999787	206.24585309487463	0.5167557545930777
78.0	181.44865299538276	face	0.0		147	trustworthiness	099	1.0	1		206.7626088494677	1.2334646006800085
78.0	182.68211759606277	rating	1.0		36	trustworthiness	099	1.0	1		207.99607345014772	0.3083657728493563
78.0	182.99048336891212	fix	2.0		60	trustworthiness	099	1.0	1	0.9000000000000004	208.30443922299708	0.5167623954368992
79.0	183.50724576434902	face	0.0		147	trustworthiness	064	1.0	1		208.82120161843397	1.2334537338447262
79.0	184.74069949819375	rating	1.0		46	trustworthiness	064	1.0	1		210.0546553522787	0.39174609518386205
79.0	185.1324455933776	fix	2.0		60	trustworthiness	064	1.0	1	-1.3599999999999999	210.44640144746256	0.5000247522359587
80.0	185.63247034561357	cue	0.0		480						210.94642619969852	4.0004829704616895
80.0	189.63295331607526	fix	1.0		120						214.9469091701602	1.0168251815969143
80.0	190.64977849767217	face	0.0		147	attractiveness	172	1.0	1		215.96373435175713	1.2334522245619155
80.0	191.8832307222341	rating	1.0		93	attractiveness	172	1.0	1		217.19718657631904	0.7834263856420876
80.0	192.66665710787618	fix	2.0		60	attractiveness	172	1.0	1	-0.6200000000000001	217.98061296196113	0.5167569620193717
81.0	193.18341406989555	face	0.0		147	attractiveness	141	1.0	1		218.4973699239805	1.2334591672622537
81.0	194.4168732371578	rating	1.0		57	attractiveness	141	1.0	1		219.73082909124275	0.48339306068032784
81.0	194.90026629783813	fix	2.0		60	attractiveness	141	1.0	1	0.9100000000000001	220.21422215192308	0.5167491137492561
82.0	195.41701541158739	face	0.0		147	attractiveness	042	1.0	1		220.73097126567234	1.2334730526631574
82.0	196.65048846425054	rating	1.0		56	attractiveness	042	1.0	1		221.9644443183355	0.4750524626663264
82.0	197.12554092691687	fix	2.0		60	attractiveness	042	1.0	1	1.25	222.43949678100182	0.5167466988968954
83.0	197.64228762581376	face	0.0		147	attractiveness	061	1.0	1		222.95624347989872	1.2334706378107967
83.0	198.87575826362456	rating	1.0		53	attractiveness	061	1.0	1		224.1897141177095	0.4500361020420769
83.0	199.32579436566664	fix	2.0		60	attractiveness	061	1.0	1	1.08	224.6397502197516	0.5167602824410551
84.0	199.8425546481077	face	0.0		147	attractiveness	039	1.0	1		225.15651050219265	1.2334516208488822
84.0	201.07600626895658	rating	1.0		41	attractiveness	039	1.0	1		226.38996212304153	0.35004219954407745
84.0	201.42604846850065	fix	2.0		60	attractiveness	039	1.0	1	0.0	226.7400043225856	0.516745189614312
85.0	201.94279365811497	face	0.0		147	attractiveness	030	1.0	1		227.25674951219992	1.2334739582327074
85.0	203.17626761634767	rating	1.0		40	attractiveness	030	1.0	1		228.49022347043262	0.34170311081265936
85.0	203.51797072716033	fix	2.0		60	attractiveness	030	1.0	1	-1.4	228.83192658124528	0.5167509248883562
86.0	204.0347216520487	face	0.0		147	attractiveness	038	1.0	1		229.34867750613364	1.2334679211019193
86.0	205.2681895731506	rating	1.0		60	attractiveness	038	1.0	1		230.58214542723556	0.5084021767479499
86.0	205.77659174989856	fix	2.0		60	attractiveness	038	1.0	1	-1.96	231.0905476039835	0.5167530378842002
87.0	206.29334478778276	face	0.0		147	attractiveness	144	1.0	1		231.6073006418677	1.2334504134228155
87.0	207.52679520120557	rating	1.0		48	attractiveness	144	1.0	1		232.84075105529053	0.40837507003061546
87.0	207.9351702712362	fix	2.0		60	attractiveness	144	1.0	1	1.5300000000000002	233.24912612532114	0.516768734424204
88.0	208.4519390056604	face	0.0		147	attractiveness	064	1.0	1		233.76589485974534	1.2334543375577596
88.0	209.68539334321815	rating	1.0		82	attractiveness	064	1.0	1		234.9993491973031	0.6917459140697702
88.0	210.37713925728792	fix	2.0		60	attractiveness	064	1.0	1	0.8799999999999999	235.69109511137287	0.5167587731584717
89.0	210.8938980304464	face	0.0		147	attractiveness	092	1.0	1		236.20785388453135	1.2334495078532655
89.0	212.12734753829966	rating	1.0		61	attractiveness	092	1.0	1		237.4413033923846	0.5167382469137465
89.0	212.6440857852134	fix	2.0		60	attractiveness	092	1.0	1	1.08	237.95804163929836	0.5167587731584717
90.0	213.16084455837188	face	0.0		147	attractiveness	011	1.0	1		238.47480041245683	1.23344347072225
90.0	214.39428802909413	rating	1.0		73	attractiveness	011	1.0	1		239.70824388317908	0.6167409032514115
90.0	215.01102893234554	fix	2.0		60	attractiveness	011	1.0	1	-0.9700000000000002	240.3249847864305	0.5167515286013895
91.0	215.52778046094693	face	0.0		147	attractiveness	006	1.0	1		240.84173631503188	1.2334700340977633
91.0	216.7612504950447	rating	1.0		70	attractiveness	006	1.0	1		242.07520634912964	0.5917311834707562
91.0	217.35298167851545	fix	2.0		60	attractiveness	006	1.0	1	-0.31000000000000005	242.6669375326004	0.5167572638758884
92.0	217.86973894239134	face	0.0		147	attractiveness	102	1.0	1		243.1836947964763	1.2334760712283241
92.0	219.10321501361966	rating	1.0		46	attractiveness	102	1.0	1		244.4171708677046	0.3917068538339663
92.0	219.49492186745363	fix	2.0		60	attractiveness	102	1.0	1	-2.4	244.80887772153858	0.516734624635319
93.0	220.01165649208895	face	0.0		147	attractiveness	137	1.0	1		245.3256123461739	1.2334630913974252
93.0	221.24511958348637	rating	1.0		50	attractiveness	137	1.0	1		246.55907543757132	0.42504751221895276
93.0	221.67016709570532	fix	2.0		60	attractiveness	137	1.0	1	2.09	246.98412294979028	0.5167560564495943
94.0	222.18692315215492	face	0.0		147	attractiveness	044	1.0	1		247.50087900623987	1.2334721470936074
94.0	223.42039529924853	rating	1.0		81	attractiveness	044	1.0	1		248.73435115333348	0.6834004863512746
94.0	224.1037957855998	fix	2.0		60	attractiveness	044	1.0	1	2.1900000000000004	249.41775163968475	0.5167587731584717
95.0	224.62055455875827	face	0.0		147	attractiveness	005	1.0	1		249.93451041284322	1.233457959836187
95.0	225.85401251859446	rating	1.0		75	attractiveness	005	1.0	1		251.1679683726794	0.6334057990261499
95.0	226.4874183176206	fix	2.0		60	attractiveness	005	1.0	1	-1.1099999999999999	251.80137417170556	0.5167599805847658
96.0	227.00417829820537	face	0.0		147	attractiveness	009	1.0	1		252.31813415229033	1.2334507152791048
96.0	228.23762901348448	rating	1.0		118	attractiveness	009	1.0	1		253.55158486756943	0.9917904077237836
96.0	229.22941942120826	fix	2.0		60	attractiveness	009	1.0	1	-0.81	254.54337527529322	0.5167681307111707
97.0	229.74618755191943	face	0.0		147	attractiveness	130	1.0	1		255.06014340600439	1.2334413577264058
97.0	230.97962890964584	rating	1.0		49	attractiveness	130	1.0	1		256.2935847637308	0.4167503815467626
97.0	231.3963792911926	fix	2.0		60	attractiveness	130	1.0	1	0.6699999999999999	256.71033514527755	0.5167186262387986
98.0	231.9130979174314	face	0.0		147	attractiveness	099	1.0	1		257.22705377151635	1.233461883971131
98.0	233.14655980140253	rating	1.0		323	attractiveness	099	1.0	1		258.4605156554875	2.7003237713231556
98.0	235.8468835727257	fix	2.0		60	attractiveness	099	1.0	1	-0.5299999999999998	261.16083942681064	0.5167714511330814
99.0	236.36365502385877	face	0.0		147	attractiveness	070	1.0	1		261.6776108779437	1.2334410558698892
99.0	237.59709607972866	rating	1.0		58	attractiveness	070	1.0	1		262.9110519338136	0.49172671599421847
99.0	238.08882279572288	fix	2.0		60	attractiveness	070	1.0	1	-2.19	263.40277864980783	0.5167551508798169
100.0	238.6055779466027	face	0.0		147	attractiveness	012	1.0	1		263.91953380068765	1.2334585635494477
100.0	239.83903651015214	rating	1.0		51	attractiveness	012	1.0	1		265.1529923642371	0.4333832805284601
100.0	240.2724197906806	fix	2.0		60	attractiveness	012	1.0	1	2.2800000000000002	265.58637564476555	0.5167530378842002
101.0	240.7891728285648	face	0.0		147	attractiveness	043	1.0	1		266.10312868264975	1.2334636951104585
101.0	242.02263652367526	rating	1.0		77	attractiveness	043	1.0	1		267.3365923777602	0.6500755245058372
101.0	242.6727120481811	fix	2.0		60	attractiveness	043	1.0	1	1.1399999999999997	267.98666790226605	0.5167605842977991
102.0	243.1894726324789	face	0.0		147	attractiveness	124	1.0	1		268.50342848656385	1.2334513189921381
102.0	244.42292395147103	rating	1.0		50	attractiveness	124	1.0	1		269.736879805556	0.42504751221918013
102.0	244.84797146369021	fix	2.0		60	attractiveness	124	1.0	1	1.0599999999999996	270.16192731777517	0.5167551508800443
103.0	245.36472661457026	face	0.0		147	attractiveness	034	1.0	1		270.6786824686552	1.2334594691187704
103.0	246.59818608368903	rating	1.0		51	attractiveness	034	1.0	1		271.912141937774	0.4334004863512746
103.0	247.0315865700403	fix	2.0		60	attractiveness	034	1.0	1	-1.54	272.34554242412526	0.516743982188018
104.0	247.54833055222832	face	0.0		147	attractiveness	126	1.0	1		272.8622864063133	1.233457959836187
104.0	248.7817885120645	rating	1.0		48	attractiveness	126	1.0	1		274.09574436614946	0.4083877480054525
104.0	249.19017626006996	fix	2.0		60	attractiveness	126	1.0	1	1.8099999999999996	274.5041321141549	0.5167633010064492
105.0	249.7069395610764	face	0.0		147	attractiveness	101	1.0	1		275.02089541516136	1.2334519227053988
105.0	250.9403914837818	rating	1.0		44	attractiveness	101	1.0	1		276.25434733786676	0.37503592092821236
105.0	251.31542740471002	fix	2.0		60	attractiveness	101	1.0	1	1.4100000000000001	276.629383258795	0.5167584713017277
106.0	251.83218587601175	face	0.0		147	attractiveness	082	1.0	1		277.1461417300967	1.2334531301316929
106.0	253.06563900614344	rating	1.0		71	attractiveness	082	1.0	1		278.3795948602284	0.6000784223285791
106.0	253.66571742847202	fix	2.0		60	attractiveness	082	1.0	1	-2.01	278.979673282557	0.5167470007534121
107.0	254.18246442922543	face	0.0		147	attractiveness	018	1.0	1		279.4964202833104	1.2334603746885477
107.0	255.41592480391398	rating	1.0		46	attractiveness	018	1.0	1		280.72988065799893	0.3917119853949771
107.0	255.80763678930896	fix	2.0		60	attractiveness	018	1.0	1	2.5999999999999996	281.1215926433939	0.5167660177153266
108.0	256.3244028070243	face	0.0		147	attractiveness	100	1.0	1		281.63835866110924	1.2334513189923655
108.0	257.55785412601665	rating	1.0		45	attractiveness	100	1.0	1		282.8718099801016	0.38337833008131383
108.0	257.94123245609796	fix	2.0		60	attractiveness	100	1.0	1	0.9699999999999998	283.2551883101829	0.516755452736561
109.0	258.4579879088345	face	0.0		147	attractiveness	121	1.0	1		283.7719437629195	1.2334501115660714
109.0	259.6914380204006	rating	1.0		36	attractiveness	121	1.0	1		285.00539387448555	0.30836909327126705
109.0	259.99980711367186	fix	2.0		61	attractiveness	121	1.0	1	0.0	285.3137629677568	0.5250888061937076
110.0	260.52489591986557	face	0.0		146	attractiveness	036	1.0	1		285.8388517739505	1.2251288323705012
110.0	261.7500247522361	rating	1.0		47	attractiveness	036	1.0	1		287.063980606321	0.40004564070864035
110.0	262.1500703929447	fix	2.0		60	attractiveness	036	1.0	1	1.8600000000000003	287.46402624702966	0.516754547167011
111.0	262.6668249401117	face	0.0		147	attractiveness	117	1.0	1		287.9807807941967	1.2334646006800085
111.0	263.90028954079173	rating	1.0		49	attractiveness	117	1.0	1		289.2142453948767	0.4167201958928217
111.0	264.31700973668455	fix	2.0		60	attractiveness	117	1.0	1	-0.8300000000000001	289.6309655907695	0.5167412654791406
112.0	264.8337510021637	face	0.0		147	attractiveness	091	1.0	1		290.14770685624865	1.233460978401581
112.0	266.0672119805653	rating	1.0		39	attractiveness	091	1.0	1		291.3811678346502	0.3333712666383235
112.0	266.4005832472036	fix	2.0		60	attractiveness	091	1.0	1	1.0700000000000003	291.71453910128855	0.5167551508800443
113.0	266.91733839808364	face	0.0		147	attractiveness	136	1.0	1		292.2312942521686	1.2334646006800085
113.0	268.15080299876365	rating	1.0		44	attractiveness	136	1.0	1		293.4647588528486	0.3750428636283232
113.0	268.525845862392	fix	2.0		60	attractiveness	136	1.0	1	0.5700000000000003	293.8398017164769	0.5167518304581336
114.0	269.0425976928501	face	0.0		147	attractiveness	024	1.0	1		294.35655354693506	1.233457054266637
114.0	270.27605474711675	rating	1.0		72	attractiveness	024	1.0	1		295.5900106012017	0.6084087572203316
114.0	270.8844635043371	fix	2.0		60	attractiveness	024	1.0	1	2.2800000000000002	296.19841935842203	0.5167548490235276
115.0	271.4012183533606	face	0.0		147	attractiveness	033	1.0	1		296.71517420744556	1.2334573561229263
115.0	272.63467570948353	rating	1.0		48	attractiveness	033	1.0	1		297.9486315635685	0.40837899416578693
115.0	273.0430547036493	fix	2.0		60	attractiveness	033	1.0	1	-2.08	298.35701055773427	0.5167542453102669
116.0	273.5598089489596	face	0.0		147	attractiveness	027	1.0	1		298.87376480304454	1.2334624876843918
116.0	274.793271436644	rating	1.0		37	attractiveness	027	1.0	1		300.10722729072893	0.31670244672841363
116.0	275.1099738833724	fix	2.0		60	attractiveness	027	1.0	1	0.0	300.42392973745734	0.516768734424204
117.0	275.6267426177966	face	0.0		142	attractiveness	066	1.0	1		300.94069847188155	1.2334458855746107
117.0	276.8601885033712	rating	1.0		52	attractiveness	066	1.0	1		302.17414435745616	0.44171633212909
117.0	277.3019048355003	fix	2.0		60	attractiveness	066	1.0	1	-0.3900000000000001	302.61586068958525	0.5167518304579062
118.0	277.8186566659582	face	0.0		147	attractiveness	062	1.0	1		303.13261252004315	1.2334633932539418
118.0	279.05212005921214	rating	1.0		51	attractiveness	062	1.0	1		304.3660759132971	0.43338177124587673
118.0	279.485501830458	fix	2.0		60	attractiveness	062	1.0	1	-0.4900000000000002	304.799457684543	0.5167539434537503
119.0	280.00225577391177	face	0.0		147	attractiveness	087	1.0	1		305.3162116279967	1.2334688266716967
119.0	281.23572460058347	rating	1.0		61	attractiveness	087	1.0	1		306.5496804546684	0.5167177206692486
119.0	281.7524423212527	fix	2.0		60	attractiveness	087	1.0	1	-1.58	307.06639817533767	0.5000682195775425
120.0	282.25251054083026	cue	0.0		3600						307.5664663949152	30.003620769178724
120.0	312.256131310009	fix	1.0		120						337.57008716409393	1.0001352317292458
120.0	313.2562665417382	cue	0.0		480						338.5702223958232	4.0004705943435965
120.0	317.2567371360818	fix	1.0		120						342.5706929901668	1.0168224648880368
120.0	318.27355960096986	face	0.0		147	dominance	018	2.0	1		343.5875154550548	1.2334546394142762
120.0	319.50701424038414	rating	1.0		236	dominance	018	2.0	1		344.8209700944691	1.9752353877286168
120.0	321.48224962811275	fix	2.0		60	dominance	018	2.0	1	-1.04	346.7962054821977	0.5167648102892599
121.0	321.999014438402	face	0.0		147	dominance	033	2.0	1		347.31297029248697	1.2334498097095548
121.0	323.23246424811157	rating	1.0		107	dominance	033	2.0	1		348.5464201021965	0.9001123510035995
121.0	324.13257659911517	fix	2.0		60	dominance	033	2.0	1	-0.79	349.4465324532001	0.5167539434537503
122.0	324.6493305425689	face	0.0		147	dominance	044	2.0	1		349.96328639665387	1.2334567524101203
122.0	325.88278729497904	rating	1.0		76	dominance	044	2.0	1		351.196743149064	0.6417361339181298
122.0	326.52452342889717	fix	2.0		60	dominance	044	2.0	1	0.9400000000000004	351.8384792829821	0.5167548490233003
123.0	327.04127827792047	face	0.0		147	dominance	124	2.0	1		352.3552341320054	1.23346852481518
123.0	328.27474680273565	rating	1.0		58	dominance	124	2.0	1		353.5887026568206	0.4917267159939911
123.0	328.76647351872964	fix	2.0		60	dominance	124	2.0	1	1.6900000000000004	354.0804293728146	0.5167451896140847
124.0	329.2832187083437	face	0.0		147	dominance	130	2.0	1		354.5971745624287	1.2334887492031612
124.0	330.5167074575469	rating	1.0		40	dominance	130	2.0	1		355.83066331163184	0.34168590499007223
124.0	330.85839336253696	fix	2.0		60	dominance	130	2.0	1	-1.7200000000000002	356.1723492166219	0.5167473026099287
125.0	331.3751406651469	face	0.0		147	dominance	099	2.0	1		356.68909651923184	1.23347124152383
125.0	332.6086119066707	rating	1.0		46	dominance	099	2.0	1		357.92256776075567	0.3917020241292448
125.0	333.00031393079996	fix	2.0		60	dominance	099	2.0	1	-1.4300000000000002	358.3142697848849	0.5167524341711669
126.0	333.51706636497113	face	0.0		147	dominance	137	2.0	1		358.8310222190561	1.2334679211019193
126.0	334.75053428607305	rating	1.0		70	dominance	137	2.0	1		360.064490140158	0.5917293723316561
126.0	335.3422636584047	fix	2.0		60	dominance	137	2.0	1	-0.5299999999999998	360.65621951248966	0.5167533397407169
127.0	335.8590169981454	face	0.0		147	dominance	042	2.0	1		361.1729728522304	1.2334585635492203
127.0	337.09247556169464	rating	1.0		43	dominance	042	2.0	1		362.4064314157796	0.3667061897494932
127.0	337.45918175144413	fix	2.0		60	dominance	042	2.0	1	-1.4300000000000002	362.7731376055291	0.5167962033690401
128.0	337.9759779548132	face	0.0		147	dominance	082	2.0	1		363.2899338088981	1.2334244537605628
128.0	339.20940240857374	rating	1.0		61	dominance	082	2.0	1		364.5233582626587	0.5167500193188062
128.0	339.72615242789254	fix	2.0		61	dominance	082	2.0	1	1.2999999999999998	365.0401082819775	0.5250601298223501
129.0	340.2512125577149	face	0.0		146	dominance	102	2.0	1		365.56516841179985	1.2251481511891598
129.0	341.47636070890405	rating	1.0		40	dominance	102	2.0	1		366.790316562989	0.3416853012770389
129.0	341.8180460101811	fix	2.0		60	dominance	102	2.0	1	-1.92	367.13200186426604	0.516756358306111
130.0	342.3348023684872	face	0.0		147	dominance	121	2.0	1		367.64875822257216	1.2334552431273096
130.0	343.5682576116145	rating	1.0		48	dominance	121	2.0	1		368.88221346569946	0.4083795978788203
130.0	343.97663720949333	fix	2.0		60	dominance	121	2.0	1	-1.31	369.2905930635783	0.51676752699791
131.0	344.49340473649124	face	0.0		147	dominance	066	2.0	1		369.8073605905762	1.2334449800050606
131.0	345.7268497164963	rating	1.0		45	dominance	066	2.0	1		371.04080557058126	0.38338587649491274
131.0	346.1102355929912	fix	2.0		60	dominance	066	2.0	1	1.7999999999999998	371.42419144707617	0.5167521323144229
132.0	346.62698772530564	face	0.0		147	dominance	070	2.0	1		371.9409435793906	1.2334646006800085
132.0	347.86045232598565	rating	1.0		41	dominance	070	2.0	1		373.1744081800706	0.3500415958310441
132.0	348.2104939218167	fix	2.0		60	dominance	070	2.0	1	-2.16	373.52444977590164	0.5167424729054346
133.0	348.7272363947221	face	0.0		147	dominance	091	2.0	1		374.0411922488071	1.2334591672622537
133.0	349.9606955619844	rating	1.0		44	dominance	091	2.0	1		375.27465141606933	0.37504286362855055
133.0	350.33573842561293	fix	2.0		60	dominance	091	2.0	1	0.8700000000000001	375.6496942796979	0.5167626972934158
134.0	350.85250112290635	face	0.0		147	dominance	064	2.0	1		376.1664569769913	1.2334561486968596
134.0	352.0859572716032	rating	1.0		46	dominance	064	2.0	1		377.39991312568816	0.391708061260033
134.0	352.47766533286324	fix	2.0		60	dominance	064	2.0	1	-1.2400000000000002	377.7916211869482	0.5167620935803825
135.0	352.9944274264436	face	0.0		147	dominance	012	2.0	1		378.3083832805286	1.2334573561231537
135.0	354.2278847825668	rating	1.0		50	dominance	012	2.0	1		379.5418406366517	0.425054756776035
135.0	354.6529395393428	fix	2.0		61	dominance	012	2.0	1	1.2599999999999998	379.96689539342776	0.5250773356451646
136.0	355.178016874988	face	0.0		146	dominance	043	2.0	1		380.4919727290729	1.2251261156616238
136.0	356.4031429906496	rating	1.0		41	dominance	043	2.0	1		381.71709884473455	0.3500485385313823
136.0	356.753191529181	fix	2.0		60	dominance	043	2.0	1	-1.87	382.06714738326593	0.5167424729054346
137.0	357.2699340020864	face	0.0		147	dominance	092	2.0	1		382.58388985617137	1.2334636951104585
137.0	358.5033976971969	rating	1.0		63	dominance	092	2.0	1		383.8173535512818	0.5334049538280397
137.0	359.0368026510249	fix	2.0		60	dominance	092	2.0	1	-2.46	384.35075850510987	0.5167463970403787
138.0	359.5535490480653	face	0.0		147	dominance	117	2.0	1		384.86750490215024	1.2334624876841644
138.0	360.78701153574946	rating	1.0		54	dominance	117	2.0	1		386.1009673898344	0.45839209473956544
138.0	361.245403630489	fix	2.0		60	dominance	117	2.0	1	1.3200000000000003	386.559359484574	0.5167503211753228
139.0	361.76215395166435	face	0.0		147	dominance	005	2.0	1		387.0761098057493	1.2334546394142762
139.0	362.9956085910786	rating	1.0		75	dominance	005	2.0	1		388.3095644451636	0.6334064027394106
139.0	363.62901499381803	fix	2.0		60	dominance	005	2.0	1	-1.3199999999999998	388.942970847903	0.5167515286013895
140.0	364.1457665224194	face	0.0		147	dominance	101	2.0	1		389.4597223765044	1.233467317388886
140.0	365.3792338398083	rating	1.0		47	dominance	101	2.0	1		390.69318969389326	0.400044131426057
140.0	365.77927797123436	fix	2.0		60	dominance	101	2.0	1	1.7599999999999998	391.0932338253193	0.5167602824410551
141.0	366.2960382536754	face	0.0		147	dominance	036	2.0	1		391.6099941077604	1.233458865405737
141.0	367.52949711908116	rating	1.0		45	dominance	036	2.0	1		392.8434529731661	0.3834009693216558
141.0	367.9128980884028	fix	2.0		61	dominance	036	2.0	1	0.6200000000000001	393.22685394248776	0.5250537908352726
142.0	368.4379518792381	face	0.0		146	dominance	006	2.0	1		393.75190773332304	1.2251309453663453
142.0	369.66308282460443	rating	1.0		136	dominance	006	2.0	1		394.9770386786894	1.1418016367870223
142.0	370.80488446139145	fix	2.0		60	dominance	006	2.0	1	-0.5699999999999998	396.1188403154764	0.5167626972934158
143.0	371.32164715868487	face	0.0		147	dominance	062	2.0	1		396.6356030127698	1.2334516208488822
143.0	372.55509877953375	rating	1.0		57	dominance	062	2.0	1		397.8690546336187	0.48338702354953966
143.0	373.0384858030833	fix	2.0		60	dominance	062	2.0	1	-1.25	398.35244165716824	0.5167593768715051
144.0	373.5552451799548	face	0.0		147	dominance	141	2.0	1		398.86920103403975	1.23347124152383
144.0	374.7887164214786	rating	1.0		105	dominance	141	2.0	1		400.1026722755636	0.8834217974228977
144.0	375.6721382189015	fix	2.0		60	dominance	141	2.0	1	-1.92	400.9860940729865	0.5167536415972336
145.0	376.18889186049876	face	0.0		147	dominance	024	2.0	1		401.5028477145837	1.2334615821146144
145.0	377.42235344261337	rating	1.0		43	dominance	024	2.0	1		402.7363092966983	0.3667070953190432
145.0	377.7890605379324	fix	2.0		60	dominance	024	2.0	1	2.01	403.10301639201737	0.5167551508800443
146.0	378.30581568881246	face	0.0		147	dominance	030	2.0	1		403.6197715428974	1.2335050494561983
146.0	379.53932073826866	rating	1.0		74	dominance	030	2.0	1		404.8532765923536	0.6250307893669742
146.0	380.16435152763563	fix	2.0		60	dominance	030	2.0	1	-1.92	405.4783073817206	0.5167569620191443
147.0	380.6811084896548	face	0.0		147	dominance	038	2.0	1		405.9950643437397	1.2334552431273096
147.0	381.9145637327821	rating	1.0		70	dominance	038	2.0	1		407.22851958686704	0.5917492948631207
147.0	382.5063130276452	fix	2.0		60	dominance	038	2.0	1	-2.37	407.82026888173016	0.5167470007534121
148.0	383.0230600283986	face	0.0		147	dominance	172	2.0	1		408.33701588248357	1.2334513189923655
148.0	384.256511347391	rating	1.0		62	dominance	172	2.0	1		409.57046720147594	0.5250616391051608
148.0	384.78157298649614	fix	2.0		60	dominance	172	2.0	1	-2.51	410.0955288405811	0.5167551508800443
149.0	385.2983281373762	face	0.0		147	dominance	027	2.0	1		410.61228399146114	1.2334615821146144
149.0	386.5317897194908	rating	1.0		57	dominance	027	2.0	1		411.84574557357575	0.4833897402584171
149.0	387.0151794597492	fix	2.0		60	dominance	027	2.0	1	-1.38	412.3291353138342	0.5167611880108325
150.0	387.53194064776005	face	0.0		147	dominance	039	2.0	1		412.845896501845	1.233454941270793
150.0	388.76539558903085	rating	1.0		69	dominance	039	2.0	1		414.0793514431158	0.5833960188745095
150.0	389.34879160790535	fix	2.0		60	dominance	039	2.0	1	0.0	414.6627474619903	0.5167569620191443
151.0	389.8655485699245	face	0.0		147	dominance	034	2.0	1		415.17950442400945	1.2334576579796703
151.0	391.09900622790417	rating	1.0		41	dominance	034	2.0	1		416.4129620819891	0.35004129397430006
151.0	391.44904752187847	fix	2.0		60	dominance	034	2.0	1	-1.9700000000000002	416.7630033759634	0.516755452736561
152.0	391.96580297461503	face	0.0		147	dominance	087	2.0	1		417.2797588287	1.2334585635492203
152.0	393.19926153816425	rating	1.0		105	dominance	087	2.0	1		418.5132173922492	0.8834447385199837
152.0	394.08270627668423	fix	2.0		60	dominance	087	2.0	1	-0.8599999999999999	419.3966621307692	0.5167485100359954
153.0	394.59945478672023	face	0.0		147	dominance	136	2.0	1		419.9134106408052	1.2334679211019193
153.0	395.83292270782215	rating	1.0		47	dominance	136	2.0	1		421.1468785619071	0.40003869800830216
153.0	396.23296140583045	fix	2.0		60	dominance	136	2.0	1	-2.4699999999999998	421.5469172599154	0.5167503211753228
154.0	396.7497117270058	face	0.0		147	dominance	061	2.0	1		422.0636675810907	1.2334621858276478
154.0	397.9831739128334	rating	1.0		99	dominance	061	2.0	1		423.2971297669184	0.833436769507216
154.0	398.81661068234064	fix	2.0		60	dominance	061	2.0	1	0.54	424.1305665364256	0.5167560564495943
155.0	399.33336673879023	face	0.0		147	dominance	100	2.0	1		424.6473225928752	1.2334597709755144
155.0	400.56682650976575	rating	1.0		40	dominance	100	2.0	1		425.8807823638507	0.341701601530076
155.0	400.9085281112958	fix	2.0		60	dominance	100	2.0	1	-1.44	426.2224839653808	0.5167515286013895
156.0	401.4252796398972	face	0.0		147	dominance	009	2.0	1		426.73923549398216	1.2335011253212542
156.0	402.65878076521847	rating	1.0		62	dominance	009	2.0	1		427.9727366193034	0.525021190328971
156.0	403.18380195554744	fix	2.0		60	dominance	009	2.0	1	1.7199999999999998	428.4977578096324	0.5167503211753228
157.0	403.70055227672276	face	0.0		147	dominance	126	2.0	1		429.0145081308077	1.2334642988234918
157.0	404.93401657554625	rating	1.0		37	dominance	126	2.0	1		430.2479724296312	0.316704861580547
157.0	405.2507214371268	fix	2.0		61	dominance	126	2.0	1	0.0	430.56467729121175	0.52512563269147
158.0	405.77584706981827	face	0.0		146	dominance	144	2.0	1		431.0898029239032	1.2250901947336388
158.0	407.0009372645519	rating	1.0		55	dominance	144	2.0	1		432.31489311863686	0.4667182036396298
158.0	407.46765546819154	fix	2.0		60	dominance	144	2.0	1	0.0	432.7816113222765	0.5167512267451002
159.0	407.98440669493664	face	0.0		147	dominance	011	2.0	1		433.2983625490216	1.2334624876841644
159.0	409.2178691826208	rating	1.0		36	dominance	011	2.0	1		434.53182503670575	0.3083657728493563
159.0	409.52623495547016	fix	2.0		60	dominance	011	2.0	1	0.9699999999999998	434.8401908095551	0.5000664084384425
160.0	410.0263013639086	cue	0.0		480						435.34025721799355	4.000519495102708
160.0	414.0268208590113	fix	1.0		120						439.34077671309626	1.0167708474198207
160.0	415.04359170643113	face	0.0		147	trustworthiness	044	2.0	1		440.3575475605161	1.2334627895409085
160.0	416.27705449597204	rating	1.0		249	trustworthiness	044	2.0	1		441.591010350057	2.0835831699282608
160.0	418.3606376659003	fix	2.0		60	trustworthiness	044	2.0	1	1.71	443.67459351998525	0.5167617917238658
161.0	418.87739945762416	face	0.0		147	trustworthiness	066	2.0	1		444.1913553117091	1.2334552431273096
161.0	420.1108547007515	rating	1.0		37	trustworthiness	066	2.0	1		445.4248105548364	0.31670788014616846
161.0	420.42756258089764	fix	2.0		60	trustworthiness	066	2.0	1	0.8499999999999996	445.7415184349826	0.5167412654791406
162.0	420.9443038463768	face	0.0		147	trustworthiness	117	2.0	1		446.25825970046174	1.233473354519674
162.0	422.17777720089646	rating	1.0		47	trustworthiness	117	2.0	1		447.4917330549814	0.40003899986481883
162.0	422.5778162007613	fix	2.0		60	trustworthiness	117	2.0	1	0.009999999999999787	447.89177205484623	0.5167518304579062
163.0	423.0945680312192	face	0.0		147	trustworthiness	100	2.0	1		448.40852388530413	1.2334658081063026
163.0	424.3280338393255	rating	1.0		46	trustworthiness	100	2.0	1		449.64198969341044	0.39170504269441153
163.0	424.7197388820199	fix	2.0		60	trustworthiness	100	2.0	1	-0.94	450.03369473610485	0.5167524341711669
164.0	425.23649131619106	face	0.0		147	trustworthiness	141	2.0	1		450.550447170276	1.23346943038473
164.0	426.4699607465758	rating	1.0		58	trustworthiness	141	2.0	1		451.78391660066075	0.4917239992851137
164.0	426.9616847458609	fix	2.0		61	trustworthiness	141	2.0	1	2.17	452.27564059994586	0.5250854857717968
165.0	427.4867702316327	face	0.0		146	trustworthiness	062	2.0	1		452.80072608571766	1.2251224933831963
165.0	428.7118927250159	rating	1.0		62	trustworthiness	062	2.0	1		454.02584857910085	0.5250634502444882
165.0	429.2369561752604	fix	2.0		60	trustworthiness	062	2.0	1	0.0	454.55091202934534	0.5167548490233003
166.0	429.7537110242837	face	0.0		147	trustworthiness	082	2.0	1		455.06766687836864	1.2334552431273096
166.0	430.987166267411	rating	1.0		46	trustworthiness	082	2.0	1		456.30112212149595	0.39171228725149376
166.0	431.3788785546625	fix	2.0		60	trustworthiness	082	2.0	1	0.9900000000000002	456.69283440874744	0.5167542453104943
167.0	431.895632799973	face	0.0		147	trustworthiness	012	2.0	1		457.20958865405794	1.2334621858276478
167.0	433.12909498580063	rating	1.0		36	trustworthiness	012	2.0	1		458.4430508398856	0.30837301740621115
167.0	433.43746800320685	fix	2.0		60	trustworthiness	012	2.0	1	1.4000000000000004	458.7514238572918	0.5167506230320669
168.0	433.9542186262389	face	0.0		147	trustworthiness	011	2.0	1		459.26817448032386	1.233460676544837
168.0	435.18767930278375	rating	1.0		46	trustworthiness	011	2.0	1		460.5016351568687	0.39171530581688785
168.0	435.57939460860064	fix	2.0		60	trustworthiness	011	2.0	1	1.5300000000000002	460.8933504626856	0.5167521323146502
169.0	436.0961467409153	face	0.0		147	trustworthiness	030	2.0	1		461.41010259500024	1.233454035701243
169.0	437.32960077661653	rating	1.0		52	trustworthiness	030	2.0	1		462.6435566307015	0.44172085997706745
169.0	437.7713216365936	fix	2.0		60	trustworthiness	030	2.0	1	1.1600000000000001	463.08527749067855	0.5167569620193717
170.0	438.28807859861297	face	0.0		147	trustworthiness	099	2.0	1		463.6020344526979	1.2334570542664096
170.0	439.5215356528794	rating	1.0		39	trustworthiness	099	2.0	1		464.83549150696433	0.33341111170147997
170.0	439.85494676458086	fix	2.0		60	trustworthiness	099	2.0	1	-0.8300000000000001	465.1689026186658	0.5167156076734045
171.0	440.37166237225426	face	0.0		147	trustworthiness	121	2.0	1		465.6856182263392	1.2334564505536036
171.0	441.60511882280787	rating	1.0		38	trustworthiness	121	2.0	1		466.9190746768928	0.3250361020418495
171.0	441.9301549248497	fix	2.0		60	trustworthiness	121	2.0	1	-2.3200000000000003	467.24411077893467	0.516756358306111
172.0	442.4469112831558	face	0.0		147	trustworthiness	018	2.0	1		467.7608671372408	1.2334612802580978
172.0	443.6803725634139	rating	1.0		53	trustworthiness	018	2.0	1		468.9943284174989	0.4500659858395011
172.0	444.1304385492534	fix	2.0		60	trustworthiness	018	2.0	1	2.4699999999999998	469.4443944033384	0.5167400580528465
173.0	444.6471786073063	face	0.0		147	trustworthiness	034	2.0	1		469.9611344613912	1.233460072832031
173.0	445.8806386801383	rating	1.0		42	trustworthiness	034	2.0	1		471.19459453422326	0.358374647431674
173.0	446.23901332757	fix	2.0		60	trustworthiness	034	2.0	1	0.0	471.55296918165493	0.5167672251413933
174.0	446.75578055271137	face	0.0		147	trustworthiness	092	2.0	1		472.0697364067963	1.23344347072225
174.0	447.9892240234336	rating	1.0		40	trustworthiness	092	2.0	1		473.3031798775186	0.3417043182389534
174.0	448.3309283416726	fix	2.0		60	trustworthiness	092	2.0	1	1.4900000000000002	473.6448841957575	0.5167596787280218
175.0	448.8476880204006	face	0.0		147	trustworthiness	005	2.0	1		474.16164387448555	1.2334594691189977
175.0	450.0811474895196	rating	1.0		93	trustworthiness	005	2.0	1		475.39510334360455	0.7834635139963666
175.0	450.86461100351596	fix	2.0		60	trustworthiness	005	2.0	1	0.7800000000000002	476.1785668576009	0.5167255689393642
176.0	451.3813365724553	face	0.0		147	trustworthiness	033	2.0	1		476.6952924265403	1.2334603746883204
176.0	452.61479694714365	rating	1.0		46	trustworthiness	033	2.0	1		477.9287528012286	0.39170353341205555
176.0	453.0065004805557	fix	2.0		60	trustworthiness	033	2.0	1	-1.96	478.32045633464065	0.5167527360276836
177.0	453.5232532165834	face	0.0		147	trustworthiness	130	2.0	1		478.83720907066834	1.2334573561229263
177.0	454.7567105727063	rating	1.0		75	trustworthiness	130	2.0	1		480.07066642679126	0.6334076101657047
177.0	455.390118182872	fix	2.0		60	trustworthiness	130	2.0	1	-1.12	480.70407403695697	0.5167545471667836
178.0	455.9068727300388	face	0.0		147	trustworthiness	101	2.0	1		481.22082858412375	1.2334627895409085
178.0	457.1403355195797	rating	1.0		43	trustworthiness	101	2.0	1		482.45429137366466	0.36673486612039596
178.0	457.5070703857001	fix	2.0		60	trustworthiness	101	2.0	1	2.0999999999999996	482.82102623978506	0.5167210410911593
179.0	458.02379142679126	face	0.0		147	trustworthiness	038	2.0	1		483.3377472808762	1.233467317388886
179.0	459.25725874418015	rating	1.0		52	trustworthiness	038	2.0	1		484.5712145982651	0.4417229729731389
179.0	459.6989817171533	fix	2.0		60	trustworthiness	038	2.0	1	1.25	485.01293757123824	0.5167551508798169
180.0	460.2157368680331	face	0.0		147	trustworthiness	102	2.0	1		485.52969272211806	1.2334507152793321
180.0	461.44918758331244	rating	1.0		51	trustworthiness	102	2.0	1		486.7631434373974	0.4333829786719434
180.0	461.8825705619844	fix	2.0		60	trustworthiness	102	2.0	1	1.67	487.19652641606933	0.5167488118927395
181.0	462.3993193738771	face	0.0		147	trustworthiness	126	2.0	1		487.7132752279621	1.2334633932539418
181.0	463.63278276713106	rating	1.0		61	trustworthiness	126	2.0	1		488.946738621216	0.5167503211753228
181.0	464.1495330883064	fix	2.0		60	trustworthiness	126	2.0	1	0.0	489.46348894239134	0.5167403599095906
182.0	464.666273448216	face	0.0		147	trustworthiness	091	2.0	1		489.9802293023009	1.2334570542664096
182.0	465.8997305024824	rating	1.0		50	trustworthiness	091	2.0	1		491.21368635656734	0.4250565679153624
182.0	466.32478707039775	fix	2.0		60	trustworthiness	091	2.0	1	-1.2799999999999998	491.6387429244827	0.516745189614312
183.0	466.84153226001206	face	0.0		147	trustworthiness	144	2.0	1		492.155488114097	1.2334582616927037
183.0	468.07499052170476	rating	1.0		63	trustworthiness	144	2.0	1		493.3889463757897	0.5334227633636601
183.0	468.6084132850684	fix	2.0		60	trustworthiness	144	2.0	1	0.79	493.9223691391534	0.5167463970403787
184.0	469.1251596821088	face	0.0		147	trustworthiness	064	2.0	1		494.43911553619375	1.2334395465873058
184.0	470.3585992286961	rating	1.0		66	trustworthiness	064	2.0	1		495.67255508278106	0.5583980714989139
184.0	470.916997300195	fix	2.0		60	trustworthiness	064	2.0	1	-1.06	496.23095315428	0.5167512267451002
185.0	471.4337485269401	face	0.0		147	trustworthiness	039	2.0	1		496.7477043810251	1.2334685248149526
185.0	472.6672170517551	rating	1.0		72	trustworthiness	039	2.0	1		497.98117290584	0.6084060405116816
185.0	473.27562309226676	fix	2.0		60	trustworthiness	039	2.0	1	0.0	498.5895789463517	0.5167442840445347
186.0	473.7923673763113	face	0.0		147	trustworthiness	137	2.0	1		499.10632323039624	1.2334630913971978
186.0	475.0258304677085	rating	1.0		55	trustworthiness	137	2.0	1		500.33978632179344	0.4667169962135631
186.0	475.49254746392205	fix	2.0		60	trustworthiness	137	2.0	1	1.04	500.806503318007	0.5167636028631932
187.0	476.00931106678524	face	0.0		147	trustworthiness	087	2.0	1		501.3232669208702	1.2334534319879822
187.0	477.2427644987732	rating	1.0		42	trustworthiness	087	2.0	1		502.5567203528582	0.35837434557515735
187.0	477.6011388443484	fix	2.0		60	trustworthiness	087	2.0	1	-1.33	502.91509469843334	0.516756358306111
188.0	478.1178952026545	face	0.0		147	trustworthiness	024	2.0	1		503.43185105673945	1.233460676544837
188.0	479.35135587919933	rating	1.0		45	trustworthiness	024	2.0	1		504.6653117332843	0.38338285792951865
188.0	479.73473873712885	fix	2.0		60	trustworthiness	024	2.0	1	2.6500000000000004	505.0486945912138	0.516743076618468
189.0	480.2514818137473	face	0.0		147	trustworthiness	027	2.0	1		505.56543766783227	1.2334636951104585
189.0	481.4849455088578	rating	1.0		48	trustworthiness	027	2.0	1		506.79890136294273	0.4083989166972515
189.0	481.89334442555503	fix	2.0		60	trustworthiness	027	2.0	1	-0.1200000000000001	507.20730027964	0.5167494156055454
190.0	482.4100938411606	face	0.0		147	trustworthiness	070	2.0	1		507.7240496952455	1.2334452818615773
190.0	483.64353912302215	rating	1.0		36	trustworthiness	070	2.0	1		508.9574949771071	0.3083706025540778
190.0	483.95190972557623	fix	2.0		60	trustworthiness	070	2.0	1	-0.7599999999999998	509.2658655796612	0.5167548490233003
191.0	484.46866457459953	face	0.0		147	trustworthiness	124	2.0	1		509.7826204286845	1.2334597709755144
191.0	485.70212434557504	rating	1.0		55	trustworthiness	124	2.0	1		511.01608019966	0.4667266556227787
191.0	486.1688510011978	fix	2.0		60	trustworthiness	124	2.0	1	-0.6400000000000001	511.4828068552828	0.5167476044664454
192.0	486.68559860566427	face	0.0		147	trustworthiness	136	2.0	1		511.9995544597492	1.2334573561231537
192.0	487.9190559617874	rating	1.0		59	trustworthiness	136	2.0	1		513.2330118158724	0.5000621824469818
192.0	488.4191181442344	fix	2.0		60	trustworthiness	136	2.0	1	-1.08	513.7330739983194	0.5167503211753228
193.0	488.9358684654097	face	0.0		147	trustworthiness	009	2.0	1		514.2498243194947	1.2334585635492203
193.0	490.16932702895895	rating	1.0		50	trustworthiness	009	2.0	1		515.4832828830439	0.4250529456367076
193.0	490.59437997459565	fix	2.0		60	trustworthiness	009	2.0	1	1.9900000000000002	515.9083358286806	0.5167626972936432
194.0	491.1111426718893	face	0.0		147	trustworthiness	042	2.0	1		516.4250985259742	1.2334513189921381
194.0	492.34459399088144	rating	1.0		37	trustworthiness	042	2.0	1		517.6585498449664	0.31670908757223515
194.0	492.66130307845367	fix	2.0		60	trustworthiness	042	2.0	1	0.9400000000000004	517.9752589325386	0.5167506230318395
195.0	493.1780537014855	face	0.0		147	trustworthiness	036	2.0	1		518.4920095555705	1.2334679211021466
195.0	494.41152162258766	rating	1.0		55	trustworthiness	036	2.0	1		519.7254774766726	0.4667079405171535
195.0	494.8782295631048	fix	2.0		60	trustworthiness	036	2.0	1	1.5099999999999998	520.1921854171898	0.5167557545930777
196.0	495.3949853176979	face	0.0		147	trustworthiness	043	2.0	1		520.7089411717828	1.2334621858278751
196.0	496.62844750352576	rating	1.0		72	trustworthiness	043	2.0	1		521.9424033576107	0.6084006070936994
196.0	497.23684811061946	fix	2.0		60	trustworthiness	043	2.0	1	1.42	522.5508039647044	0.5167506230320669
197.0	497.75359873365153	face	0.0		147	trustworthiness	172	2.0	1		523.0675545877365	1.2334658081060752
197.0	498.9870645417576	rating	1.0		37	trustworthiness	172	2.0	1		524.3010203958426	0.31671029499830183
197.0	499.3037748367559	fix	2.0		60	trustworthiness	172	2.0	1	1.3600000000000003	524.6177306908409	0.5167479063231895
198.0	499.8205227430791	face	0.0		147	trustworthiness	006	2.0	1		525.134478597164	1.2334670155323693
198.0	501.05398975861146	rating	1.0		42	trustworthiness	006	2.0	1		526.3679456126964	0.3583643843091977
198.0	501.41235414292066	fix	2.0		60	trustworthiness	006	2.0	1	0.8899999999999997	526.7263099970056	0.5167512267448728
199.0	501.92910536966554	face	0.0		147	trustworthiness	061	2.0	1		527.2430612237505	1.233461883971131
199.0	503.16256725363667	rating	1.0		50	trustworthiness	061	2.0	1		528.4765231077216	0.4250517382108683
199.0	503.58761899184753	fix	2.0		60	trustworthiness	061	2.0	1	0.8300000000000001	528.9015748459325	0.500058560168327
200.0	504.08767755201586	cue	0.0		480						529.4016334061008	4.000491120588094
200.0	508.08816867260396	fix	1.0		120						533.4021245266889	1.0168085794873605
200.0	509.1049772520913	face	0.0		147	attractiveness	038	2.0	1		534.4189331061763	1.233456752409893
200.0	510.3384340045012	rating	1.0		73	attractiveness	038	2.0	1		535.6523898585862	0.6167433181037723
200.0	510.955177322605	fix	2.0		60	attractiveness	038	2.0	1	-0.020000000000000018	536.2691331766899	0.5167566601626277
201.0	511.4719339827676	face	0.0		147	attractiveness	009	2.0	1		536.7858898368526	1.2334649025365252
201.0	512.7053988853041	rating	1.0		92	attractiveness	009	2.0	1		538.0193547393891	0.7750806560670753
201.0	513.4804795413712	fix	2.0		60	attractiveness	009	2.0	1	1.1399999999999997	538.7944353954562	0.5167512267451002
202.0	513.9972307681163	face	0.0		147	attractiveness	070	2.0	1		539.3111866222013	1.2334630913971978
202.0	515.2306938595135	rating	1.0		57	attractiveness	070	2.0	1		540.5446497135985	0.4833921551107778
202.0	515.7140860146243	fix	2.0		60	attractiveness	070	2.0	1	-1.6600000000000001	541.0280418687092	0.5167485100362228
203.0	516.2308345246605	face	0.0		147	attractiveness	172	2.0	1		541.5447903787455	1.2334984086123768
203.0	517.4643329332729	rating	1.0		58	attractiveness	172	2.0	1		542.7782887873578	0.4916880783571287
203.0	517.95602101163	fix	2.0		60	attractiveness	172	2.0	1	-1.7599999999999998	543.269976865715	0.516758169445211
204.0	518.4727791810752	face	0.0		147	attractiveness	136	2.0	1		543.7867350351602	1.2334636951104585
204.0	519.7062428761857	rating	1.0		45	attractiveness	136	2.0	1		545.0201987302706	0.38337259480704233
204.0	520.0896154709927	fix	2.0		60	attractiveness	136	2.0	1	-1.0699999999999998	545.4035713250777	0.516801938643539
205.0	520.6064174096363	face	0.0		147	attractiveness	126	2.0	1		545.9203732637212	1.2334181147730305
205.0	521.8398355244093	rating	1.0		78	attractiveness	126	2.0	1		547.1537913784942	0.6584043501150063
205.0	522.4982398745243	fix	2.0		60	attractiveness	126	2.0	1	-1.2400000000000002	547.8121957286093	0.5167488118927395
206.0	523.014988686417	face	0.0		147	attractiveness	102	2.0	1		548.328944540502	1.2334661099625919
206.0	524.2484547963796	rating	1.0		127	attractiveness	102	2.0	1		549.5624106504646	1.0667939092595589
206.0	525.3152487056392	fix	2.0		60	attractiveness	102	2.0	1	0.7199999999999998	550.6292045597241	0.5167608861540884
207.0	525.8320095917933	face	0.0		147	attractiveness	043	2.0	1		551.1459654458782	1.2334546394142762
207.0	527.0654642312076	rating	1.0		53	attractiveness	043	2.0	1		552.3794200852925	0.45005210043859734
207.0	527.5155163316462	fix	2.0		60	attractiveness	043	2.0	1	0.6900000000000004	552.8294721857311	0.5167608861543158
208.0	528.0322772178005	face	0.0		147	attractiveness	005	2.0	1		553.3462330718854	1.2334570542664096
208.0	529.2657342720669	rating	1.0		49	attractiveness	005	2.0	1		554.5796901261518	0.4167078197747287
208.0	529.6824420918416	fix	2.0		60	attractiveness	005	2.0	1	-1.38	554.9963979459266	0.5167533397407169
209.0	530.1991954315823	face	0.0		147	attractiveness	030	2.0	1		555.5131512856673	1.2334636951104585
209.0	531.4326591266928	rating	1.0		65	attractiveness	030	2.0	1		556.7466149807777	0.5500626050461506
209.0	531.9827217317389	fix	2.0		60	attractiveness	030	2.0	1	2.0300000000000002	557.2966775858239	0.5167690362807207
210.0	532.4994907680197	face	0.0		147	attractiveness	144	2.0	1		557.8134466221046	1.2334479985704547
210.0	533.7329387665901	rating	1.0		51	attractiveness	144	2.0	1		559.0468946206751	0.43337875268048265
210.0	534.1663175192706	fix	2.0		60	attractiveness	144	2.0	1	-1.2200000000000002	559.4802733733555	0.51676752699791
211.0	534.6830850462685	face	0.0		147	attractiveness	130	2.0	1		559.9970409003535	1.2334516208488822
211.0	535.9165366671174	rating	1.0		74	attractiveness	130	2.0	1		561.2304925212023	0.6250685214342866
211.0	536.5416051885517	fix	2.0		60	attractiveness	130	2.0	1	0.0	561.8555610426366	0.5167847328207245
212.0	537.0583899213724	face	0.0		147	attractiveness	064	2.0	1		562.3723457754573	1.2334338113130343
212.0	538.2918237326854	rating	1.0		38	attractiveness	064	2.0	1		563.6057795867704	0.32505964685196886
212.0	538.6168833795374	fix	2.0		60	attractiveness	064	2.0	1	-1.4500000000000002	563.9308392336224	0.5167388506270072
213.0	539.1336222301644	face	0.0		147	attractiveness	006	2.0	1		564.4475780842494	1.2334461874311273
213.0	540.3670684175955	rating	1.0		94	attractiveness	006	2.0	1		565.6810242716805	0.7917609465255282
213.0	541.1588293641211	fix	2.0		60	attractiveness	006	2.0	1	1.1900000000000004	566.472785218206	0.5167506230318395
214.0	541.6755799871529	face	0.0		147	attractiveness	101	2.0	1		566.9895358412379	1.233472448950124
214.0	542.909052436103	rating	1.0		60	attractiveness	101	2.0	1		568.223008290188	0.5083855746381687
214.0	543.4174380107412	fix	2.0		60	attractiveness	101	2.0	1	1.12	568.7313938648261	0.5167494156057728
215.0	543.934187426347	face	0.0		147	attractiveness	066	2.0	1		569.2481432804319	1.2334688266716967
215.0	545.1676562530187	rating	1.0		36	attractiveness	066	2.0	1		570.4816121071036	0.3083696969843004
215.0	545.476025950003	fix	2.0		60	attractiveness	066	2.0	1	1.5899999999999999	570.7899818040879	0.5167494156057728
216.0	545.9927753656087	face	0.0		147	attractiveness	087	2.0	1		571.3067312196937	1.23347124152383
216.0	547.2262466071326	rating	1.0		62	attractiveness	087	2.0	1		572.5402024612175	0.5250465462781904
216.0	547.7512931534108	fix	2.0		60	attractiveness	087	2.0	1	-1.25	573.0652490074957	0.5167530378842002
217.0	548.268046191295	face	0.0		147	attractiveness	100	2.0	1		573.5820020453799	1.2334633932539418
217.0	549.5015095845489	rating	1.0		54	attractiveness	100	2.0	1		574.8154654386339	0.4583896798872047
217.0	549.9598992644361	fix	2.0		60	attractiveness	100	2.0	1	-0.8700000000000001	575.273855118521	0.5167454914706013
218.0	550.4766447559067	face	0.0		147	attractiveness	141	2.0	1		575.7906006099917	1.2334636951104585
218.0	551.7101084510172	rating	1.0		86	attractiveness	141	2.0	1		577.0240643051021	0.7250935151555495
218.0	552.4352019661727	fix	2.0		60	attractiveness	141	2.0	1	1.54	577.7491578202577	0.5167436803315013
219.0	552.9519456465042	face	0.0		147	attractiveness	033	2.0	1		578.2659015005892	1.2334636951104585
219.0	554.1854093416147	rating	1.0		84	attractiveness	033	2.0	1		579.4993651956996	0.7084147339799074
219.0	554.8938240755946	fix	2.0		60	attractiveness	033	2.0	1	-2.8899999999999997	580.2077799296795	0.516758169445211
220.0	555.4105822450398	face	0.0		147	attractiveness	061	2.0	1		580.7245380991247	1.2334676192454026
220.0	556.6440498642852	rating	1.0		41	attractiveness	061	2.0	1		581.9580057183701	0.3500283141434011
220.0	556.9940781784286	fix	2.0		60	attractiveness	061	2.0	1	1.9000000000000004	582.3080340325135	0.5167509248883562
221.0	557.510829103317	face	0.0		147	attractiveness	137	2.0	1		582.8247849574019	1.2334709396673134
221.0	558.7443000429843	rating	1.0		56	attractiveness	137	2.0	1		584.0582558970692	0.47504974595767635
221.0	559.2193497889419	fix	2.0		60	attractiveness	137	2.0	1	2.7199999999999998	584.5333056430269	0.5168251815969143
222.0	559.7361749705389	face	0.0		147	attractiveness	024	2.0	1		585.0501308246238	1.233413586925053
222.0	560.9695885574639	rating	1.0		98	attractiveness	024	2.0	1		586.2835444115489	0.8250729285396119
222.0	561.7946614860035	fix	2.0		60	attractiveness	024	2.0	1	2.76	587.1086173400885	0.5167569620191443
223.0	562.3114184480227	face	0.0		147	attractiveness	044	2.0	1		587.6253743021076	1.2334543375577596
223.0	563.5448727855804	rating	1.0		91	attractiveness	044	2.0	1		588.8588286396654	0.7667599805845384
223.0	564.311632766165	fix	2.0		60	attractiveness	044	2.0	1	-1.2599999999999998	589.6255886202499	0.516754547167011
224.0	564.828387313332	face	0.0		147	attractiveness	036	2.0	1		590.1423431674169	1.2334594691187704
224.0	566.0618467824507	rating	1.0		39	attractiveness	036	2.0	1		591.3758026365357	0.3333703610687735
224.0	566.3952171435195	fix	2.0		60	attractiveness	036	2.0	1	1.0999999999999996	591.7091729976045	0.5167633010064492
225.0	566.911980444526	face	0.0		147	attractiveness	099	2.0	1		592.2259362986109	1.2334489041400047
225.0	568.145429348666	rating	1.0		81	attractiveness	099	2.0	1		593.4593852027509	0.6834122587563343
225.0	568.8288416074223	fix	2.0		60	attractiveness	099	2.0	1	0.8300000000000001	594.1427974615073	0.516755452736561
226.0	569.3455970601589	face	0.0		147	attractiveness	042	2.0	1		594.6595529142438	1.2334624876841644
226.0	570.579059547843	rating	1.0		37	attractiveness	042	2.0	1		595.893015401928	0.316703956010997
226.0	570.895763503854	fix	2.0		60	attractiveness	042	2.0	1	0.7400000000000002	596.209719357939	0.5167572638758884
227.0	571.4125207677299	face	0.0		147	attractiveness	121	2.0	1		596.7264766218149	1.233456752409893
227.0	572.6459775201398	rating	1.0		44	attractiveness	121	2.0	1		597.9599333742248	0.3750416562022565
227.0	573.0210191763421	fix	2.0		60	attractiveness	121	2.0	1	-0.71	598.334975030427	0.5167518304581336
228.0	573.5377710068002	face	0.0		147	attractiveness	039	2.0	1		598.8517268608852	1.233460072832031
228.0	574.7712310796322	rating	1.0		37	attractiveness	039	2.0	1		600.0851869337172	0.316704861580547
228.0	575.0879359412128	fix	2.0		60	attractiveness	039	2.0	1	0.8499999999999996	600.4018917952977	0.516756358306111
229.0	575.6046922995189	face	0.0		147	attractiveness	124	2.0	1		600.9186481536038	1.2334624876843918
229.0	576.8381547872033	rating	1.0		49	attractiveness	124	2.0	1		602.1521106412882	0.4167078197747287
229.0	577.254862606978	fix	2.0		60	attractiveness	124	2.0	1	2.59	602.568818461063	0.5167599805845384
230.0	577.7716225875625	face	0.0		147	attractiveness	091	2.0	1		603.0855784416475	1.2335020308908042
230.0	579.0051246184534	rating	1.0		36	attractiveness	091	2.0	1		604.3190804725383	0.30833437976934874
230.0	579.3134589982227	fix	2.0		60	attractiveness	091	2.0	1	1.3200000000000003	604.6274148523077	0.5167433784749846
231.0	579.8302023766977	face	0.0		147	attractiveness	082	2.0	1		605.1441582307826	1.233458865405737
231.0	581.0636612421034	rating	1.0		45	attractiveness	082	2.0	1		606.3776170961884	0.3833816505032246
231.0	581.4470428926066	fix	2.0		60	attractiveness	082	2.0	1	0.6500000000000004	606.7609987466916	0.5167560564495943
232.0	581.9637989490562	face	0.0		147	attractiveness	027	2.0	1		607.2777548031412	1.233456148697087
232.0	583.1972550977533	rating	1.0		94	attractiveness	027	2.0	1		608.5112109518383	0.7917576261033901
232.0	583.9890127238567	fix	2.0		60	attractiveness	027	2.0	1	-1.0899999999999999	609.3029685779417	0.516755452736561
233.0	584.5057681765933	face	0.0		147	attractiveness	062	2.0	1		609.8197240306782	1.233457054266637
233.0	585.7392252308599	rating	1.0		36	attractiveness	062	2.0	1		611.0531810849449	0.30836909327126705
233.0	586.0475943241312	fix	2.0		60	attractiveness	062	2.0	1	0.0	611.3615501782161	0.5167636028629659
234.0	586.5643579269941	face	0.0		147	attractiveness	018	2.0	1		611.8783137810791	1.2334501115662988
234.0	587.7978080385604	rating	1.0		40	attractiveness	018	2.0	1		613.1117638926454	0.34170703494760346
234.0	588.139515073508	fix	2.0		60	attractiveness	018	2.0	1	2.24	613.453470927593	0.5167497174622895
235.0	588.6562647909703	face	0.0		147	attractiveness	034	2.0	1		613.9702206450553	1.233460978401581
235.0	589.8897257693719	rating	1.0		71	attractiveness	034	2.0	1		615.2036816234569	0.6000708759152076
235.0	590.4897966452871	fix	2.0		60	attractiveness	034	2.0	1	0.6699999999999999	615.8037524993721	0.5167611880108325
236.0	591.006557833298	face	0.0		147	attractiveness	012	2.0	1		616.3205136873829	1.233456752409893
236.0	592.2400145857079	rating	1.0		62	attractiveness	012	2.0	1		617.5539704397928	0.5250622428184215
236.0	592.7650768285263	fix	2.0		60	attractiveness	012	2.0	1	1.04	618.0790326826112	0.5167482081794788
237.0	593.2818250367058	face	0.0		147	attractiveness	092	2.0	1		618.5957808907907	1.233461883971131
237.0	594.5152869206769	rating	1.0		48	attractiveness	092	2.0	1		619.8292427747618	0.40837899416578693
237.0	594.9236659148427	fix	2.0		60	attractiveness	092	2.0	1	1.92	620.2376217689276	0.5167551508800443
238.0	595.4404210657227	face	0.0		147	attractiveness	117	2.0	1		620.7543769198077	1.2334664118191085
238.0	596.6738874775418	rating	1.0		36	attractiveness	117	2.0	1		621.9878433316268	0.30836396171025626
238.0	596.9822514392521	fix	2.0		60	attractiveness	117	2.0	1	1.42	622.296207293337	0.5167575657321777
239.0	597.4990090049843	face	0.0		147	attractiveness	011	2.0	1		622.8129648590692	1.2334561486968596
239.0	598.7324651536811	rating	1.0		45	attractiveness	011	2.0	1		624.0464210077661	0.3833765189422138
239.0	599.1158416726233	fix	2.0		60	attractiveness	011	2.0	1	1.2000000000000002	624.4297975267083	0.5000658047254092
