trial_nr	onset	event_type	phase	response	nr_frames	face_age	face_sex	face_eth	attractiveness	expression	face_id	sub_id	ses	run	trial_type	catch	rating_type	onset_abs	duration
-1.0	0.054828274327519466	fix	0.0		714													19.246220574238578	5.966299925352359
-1.0	0.7047376731543409	pulse	0.0	t														19.8961299730654	
-1.0	1.4046789023786914	pulse	0.0	t														20.59607120228975	
-1.0	2.1046663151091707	pulse	0.0	t														21.29605861502023	
-1.0	2.8046416537199548	pulse	0.0	t														21.996033953631013	
-1.0	3.50462936830354	pulse	0.0	t														22.6960216682146	
-1.0	4.204629157006821	pulse	0.0	t														23.39602145691788	
-1.0	4.904589101115562	pulse	0.0	t														24.09598140102662	
-1.0	5.60456957122733	pulse	0.0	t														24.79596187113839	
0.0	6.021128199679879	face	0.0		144	28.0	male	east_asian	1.5563072025467568	smiling	005	sub-01	1.0	2.0	005_smiling	0.0		25.212520499590937	1.2332916071891304
0.0	6.304562719164096	pulse	0.0	t		28.0	male	east_asian	1.5563072025467568	smiling	005	sub-01	1.0	2.0	005_smiling	0.0		25.495955019075154	
0.0	7.004534737392532	pulse	0.0	t		28.0	male	east_asian	1.5563072025467568	smiling	005	sub-01	1.0	2.0	005_smiling	0.0		26.19592703730359	
0.0	7.254419806869009	fix	1.0		445	28.0	male	east_asian	1.5563072025467568	smiling	005	sub-01	1.0	2.0	005_smiling	0.0		26.445812106780068	3.7582308517294223
0.0	7.704517924181346	pulse	1.0	t		28.0	male	east_asian	1.5563072025467568	smiling	005	sub-01	1.0	2.0	005_smiling	0.0		26.895910224092404	
0.0	8.404499903558644	pulse	1.0	t		28.0	male	east_asian	1.5563072025467568	smiling	005	sub-01	1.0	2.0	005_smiling	0.0		27.595892203469703	
0.0	9.104488221847532	pulse	1.0	t		28.0	male	east_asian	1.5563072025467568	smiling	005	sub-01	1.0	2.0	005_smiling	0.0		28.29588052175859	
0.0	9.804463560459226	pulse	1.0	t		28.0	male	east_asian	1.5563072025467568	smiling	005	sub-01	1.0	2.0	005_smiling	0.0		28.995855860370284	
0.0	10.50443889907001	pulse	1.0	t		28.0	male	east_asian	1.5563072025467568	smiling	005	sub-01	1.0	2.0	005_smiling	0.0		29.695831198981068	
1.0	11.012650658598432	face	0.0		146	22.0	female	white	4.614007162753682	smiling	009	sub-01	1.0	2.0	009_smiling	0.0		30.20404295850949	1.2416396533399165
1.0	11.204427519212004	pulse	0.0	t		22.0	female	white	4.614007162753682	smiling	009	sub-01	1.0	2.0	009_smiling	0.0		30.395819819123062	
1.0	11.904400744852865	pulse	0.0	t		22.0	female	white	4.614007162753682	smiling	009	sub-01	1.0	2.0	009_smiling	0.0		31.095793044763923	
1.0	12.254290311938348	fix	1.0		445	22.0	female	white	4.614007162753682	smiling	009	sub-01	1.0	2.0	009_smiling	0.0		31.445682611849406	3.7582293424648014
1.0	12.60438996870107	pulse	1.0	t		22.0	female	white	4.614007162753682	smiling	009	sub-01	1.0	2.0	009_smiling	0.0		31.79578226861213	
1.0	13.304369231401324	pulse	1.0	t		22.0	female	white	4.614007162753682	smiling	009	sub-01	1.0	2.0	009_smiling	0.0		32.49576153131238	
1.0	14.004344871865214	pulse	1.0	t		22.0	female	white	4.614007162753682	smiling	009	sub-01	1.0	2.0	009_smiling	0.0		33.19573717177627	
1.0	14.704365790276825	pulse	1.0	t		22.0	female	white	4.614007162753682	smiling	009	sub-01	1.0	2.0	009_smiling	0.0		33.89575809018788	
1.0	15.404314565825189	pulse	1.0	t		22.0	female	white	4.614007162753682	smiling	009	sub-01	1.0	2.0	009_smiling	0.0		34.59570686573625	
2.0	16.01251965440315	face	0.0		146	31.0	female	west_asian	2.364902506963788	smiling	006	sub-01	1.0	2.0	006_smiling	0.0		35.20391195431421	1.2416399551921131
2.0	16.10430801561597	pulse	0.0	t		31.0	female	west_asian	2.364902506963788	smiling	006	sub-01	1.0	2.0	006_smiling	0.0		35.29570031552703	
2.0	16.804276109754937	pulse	0.0	t		31.0	female	west_asian	2.364902506963788	smiling	006	sub-01	1.0	2.0	006_smiling	0.0		35.995668409665996	
2.0	17.254159609595263	fix	1.0		444	31.0	female	west_asian	2.364902506963788	smiling	006	sub-01	1.0	2.0	006_smiling	0.0		36.44555190950632	3.7582245128169234
2.0	17.504263522485417	pulse	1.0	t		31.0	female	west_asian	2.364902506963788	smiling	006	sub-01	1.0	2.0	006_smiling	0.0		36.695655822396475	
2.0	18.20424037036173	pulse	1.0	t		31.0	female	west_asian	2.364902506963788	smiling	006	sub-01	1.0	2.0	006_smiling	0.0		37.39563267027279	
2.0	18.904218123796454	pulse	1.0	t		31.0	female	west_asian	2.364902506963788	smiling	006	sub-01	1.0	2.0	006_smiling	0.0		38.09561042370751	
2.0	19.604210064321705	pulse	1.0	t		31.0	female	west_asian	2.364902506963788	smiling	006	sub-01	1.0	2.0	006_smiling	0.0		38.795602364232764	
2.0	20.30418389366787	pulse	1.0	t		31.0	female	west_asian	2.364902506963788	smiling	006	sub-01	1.0	2.0	006_smiling	0.0		39.49557619357893	
3.0	21.012384122412186	face	0.0		147	26.0	female	white	4.854755272582572	smiling	027	sub-01	1.0	2.0	027_smiling	0.0		40.203776422323244	1.2416426718700677
3.0	21.0053624182774	pulse	0.0	t		26.0	female	white	4.854755272582572	smiling	027	sub-01	1.0	2.0	027_smiling	0.0		40.19675471818846	
3.0	21.704150870951707	pulse	0.0	t		26.0	female	white	4.854755272582572	smiling	027	sub-01	1.0	2.0	027_smiling	0.0		40.895543170862766	
3.0	22.254026794282254	fix	1.0		443	26.0	female	white	4.854755272582572	smiling	027	sub-01	1.0	2.0	027_smiling	0.0		41.44541909419331	3.7582317572887405
3.0	22.404137679975975	pulse	1.0	t		26.0	female	white	4.854755272582572	smiling	027	sub-01	1.0	2.0	027_smiling	0.0		41.59552997988703	
3.0	23.10410426485123	pulse	1.0	t		26.0	female	white	4.854755272582572	smiling	027	sub-01	1.0	2.0	027_smiling	0.0		42.29549656476229	
3.0	23.804091073875497	pulse	1.0	t		26.0	female	white	4.854755272582572	smiling	027	sub-01	1.0	2.0	027_smiling	0.0		42.995483373786556	
3.0	24.504078788459083	pulse	1.0	t		26.0	female	white	4.854755272582572	smiling	027	sub-01	1.0	2.0	027_smiling	0.0		43.69547108837014	
3.0	25.204071332690546	pulse	1.0	t		26.0	female	white	4.854755272582572	smiling	027	sub-01	1.0	2.0	027_smiling	0.0		44.395463632601604	
3.0	25.904032484210802	pulse	1.0	t		26.0	female	white	4.854755272582572	smiling	027	sub-01	1.0	2.0	027_smiling	0.0		45.09542478412186	
4.0	26.012258551570994	face	0.0		147	20.0	female	white	3.9502586549940313	smiling	091	sub-01	1.0	2.0	091_smiling	0.0		45.20365085148205	1.2416384459274923
4.0	26.604023519177645	pulse	0.0	t		20.0	female	white	3.9502586549940313	smiling	091	sub-01	1.0	2.0	091_smiling	0.0		45.7954158190887	
4.0	27.253896997498487	fix	1.0		444	20.0	female	white	3.9502586549940313	smiling	091	sub-01	1.0	2.0	091_smiling	0.0		46.445289297409545	3.7582287387585893
4.0	27.304006705966458	pulse	1.0	t		20.0	female	white	3.9502586549940313	smiling	091	sub-01	1.0	2.0	091_smiling	0.0		46.495399005877516	
4.0	28.003983251989666	pulse	1.0	t		20.0	female	white	3.9502586549940313	smiling	091	sub-01	1.0	2.0	091_smiling	0.0		47.195375551900725	
4.0	28.7039679480431	pulse	1.0	t		20.0	female	white	3.9502586549940313	smiling	091	sub-01	1.0	2.0	091_smiling	0.0		47.89536024795416	
4.0	29.403948116301763	pulse	1.0	t		20.0	female	white	3.9502586549940313	smiling	091	sub-01	1.0	2.0	091_smiling	0.0		48.59534041621282	
4.0	30.10392798270732	pulse	1.0	t		20.0	female	white	3.9502586549940313	smiling	091	sub-01	1.0	2.0	091_smiling	0.0		49.29532028261838	
4.0	30.80390664170136	pulse	1.0	t		20.0	female	white	3.9502586549940313	smiling	091	sub-01	1.0	2.0	091_smiling	0.0		49.99529894161242	
5.0	31.012125736257076	face	0.0		146	24.0	female	east_asian	4.409868682849185	neutral	030	sub-01	1.0	2.0	030_neutral	0.0		50.203518036168134	1.2416330125743116
5.0	31.503901600756762	pulse	0.0	t		24.0	female	east_asian	4.409868682849185	neutral	030	sub-01	1.0	2.0	030_neutral	0.0		50.69529390066782	
5.0	32.20387905233929	pulse	0.0	t		24.0	female	east_asian	4.409868682849185	neutral	030	sub-01	1.0	2.0	030_neutral	0.0		51.39527135225035	
5.0	32.25375874883139	fix	1.0		445	24.0	female	east_asian	4.409868682849185	neutral	030	sub-01	1.0	2.0	030_neutral	0.0		51.445151048742446	3.7582344739657856
5.0	32.90385861689174	pulse	1.0	t		24.0	female	east_asian	4.409868682849185	neutral	030	sub-01	1.0	2.0	030_neutral	0.0		52.0952509168028	
5.0	33.60383667217957	pulse	1.0	t		24.0	female	east_asian	4.409868682849185	neutral	030	sub-01	1.0	2.0	030_neutral	0.0		52.79522897209063	
5.0	34.303821066380806	pulse	1.0	t		24.0	female	east_asian	4.409868682849185	neutral	030	sub-01	1.0	2.0	030_neutral	0.0		53.495213366291864	
5.0	35.003797612403105	pulse	1.0	t		24.0	female	east_asian	4.409868682849185	neutral	030	sub-01	1.0	2.0	030_neutral	0.0		54.19518991231416	
5.0	35.703781704751236	pulse	1.0	t		24.0	female	east_asian	4.409868682849185	neutral	030	sub-01	1.0	2.0	030_neutral	0.0		54.895174004662294	
6.0	36.01199322279717	face	0.0		146	32.0	male	white	2.389176283326701	smiling	092	sub-01	1.0	2.0	092_smiling	0.0		55.20338552270823	1.2416390496337044
6.0	36.403761269303686	pulse	0.0	t		32.0	male	white	2.389176283326701	smiling	092	sub-01	1.0	2.0	092_smiling	0.0		55.595153569214744	
6.0	37.103744757945606	pulse	0.0	t		32.0	male	white	2.389176283326701	smiling	092	sub-01	1.0	2.0	092_smiling	0.0		56.295137057856664	
6.0	37.25363227243088	fix	1.0		445	32.0	male	white	2.389176283326701	smiling	092	sub-01	1.0	2.0	092_smiling	0.0		56.445024572341936	3.7665616922604386
6.0	37.80372402064586	pulse	1.0	t		32.0	male	white	2.389176283326701	smiling	092	sub-01	1.0	2.0	092_smiling	0.0		56.99511632055692	
6.0	38.5037090185524	pulse	1.0	t		32.0	male	white	2.389176283326701	smiling	092	sub-01	1.0	2.0	092_smiling	0.0		57.69510131846346	
6.0	39.2036979405475	pulse	1.0	t		32.0	male	white	2.389176283326701	smiling	092	sub-01	1.0	2.0	092_smiling	0.0		58.39509024045856	
6.0	39.90366905321753	pulse	1.0	t		32.0	male	white	2.389176283326701	smiling	092	sub-01	1.0	2.0	092_smiling	0.0		59.095061353128585	
6.0	40.60365133444702	pulse	1.0	t		32.0	male	white	2.389176283326701	smiling	092	sub-01	1.0	2.0	092_smiling	0.0		59.79504363435808	
7.0	41.020193964691316	face	0.0		145	26.0	male	white	2.7966573816155993	smiling	117	sub-01	1.0	2.0	117_smiling	0.0		60.211586264602374	1.2333054924265525
7.0	41.3036387471775	pulse	0.0	t		26.0	male	white	2.7966573816155993	smiling	117	sub-01	1.0	2.0	117_smiling	0.0		60.49503104708856	
7.0	42.00361227467056	pulse	0.0	t		26.0	male	white	2.7966573816155993	smiling	117	sub-01	1.0	2.0	117_smiling	0.0		61.19500457458162	
7.0	42.25349945711787	fix	1.0		445	26.0	male	white	2.7966573816155993	smiling	117	sub-01	1.0	2.0	117_smiling	0.0		61.44489175702893	3.7583096353582732
7.0	42.703599989254144	pulse	1.0	t		26.0	male	white	2.7966573816155993	smiling	117	sub-01	1.0	2.0	117_smiling	0.0		61.8949922891652	
7.0	43.40358287418985	pulse	1.0	t		26.0	male	white	2.7966573816155993	smiling	117	sub-01	1.0	2.0	117_smiling	0.0		62.59497517410091	
7.0	44.10355700538912	pulse	1.0	t		26.0	male	white	2.7966573816155993	smiling	117	sub-01	1.0	2.0	117_smiling	0.0		63.29494930530018	
7.0	44.80354743664975	pulse	1.0	t		26.0	male	white	2.7966573816155993	smiling	117	sub-01	1.0	2.0	117_smiling	0.0		63.99493973656081	
7.0	45.503517341907354	pulse	1.0	t		26.0	male	white	2.7966573816155993	smiling	117	sub-01	1.0	2.0	117_smiling	0.0		64.69490964181841	
8.0	46.01180909247614	face	0.0		146	19.0	male	white	2.243931555909272	neutral	130	sub-01	1.0	2.0	130_neutral	0.0		65.2032013923872	1.2415602660048535
8.0	46.20350807502018	pulse	0.0	t		19.0	male	white	2.243931555909272	neutral	130	sub-01	1.0	2.0	130_neutral	0.0		65.39490037493124	
8.0	46.903474961747634	pulse	0.0	t		19.0	male	white	2.243931555909272	neutral	130	sub-01	1.0	2.0	130_neutral	0.0		66.09486726165869	
8.0	47.253369358480995	fix	1.0		444	19.0	male	white	2.243931555909272	neutral	130	sub-01	1.0	2.0	130_neutral	0.0		66.44476165839205	3.7665625978197568
8.0	47.603466902272885	pulse	1.0	t		19.0	male	white	2.243931555909272	neutral	130	sub-01	1.0	2.0	130_neutral	0.0		66.79485920218394	
8.0	48.303454918709576	pulse	1.0	t		19.0	male	white	2.243931555909272	neutral	130	sub-01	1.0	2.0	130_neutral	0.0		67.49484721862063	
8.0	49.00342240914324	pulse	1.0	t		19.0	male	white	2.243931555909272	neutral	130	sub-01	1.0	2.0	130_neutral	0.0		68.1948147090543	
8.0	49.703415557080916	pulse	1.0	t		19.0	male	white	2.243931555909272	neutral	130	sub-01	1.0	2.0	130_neutral	0.0		68.89480785699197	
8.0	50.40339874386882	pulse	1.0	t		19.0	male	white	2.243931555909272	neutral	130	sub-01	1.0	2.0	130_neutral	0.0		69.59479104377988	
9.0	51.01993195630075	face	0.0		145	27.0	female	white	4.181058495821727	neutral	039	sub-01	1.0	2.0	039_neutral	0.0		70.21132425621181	1.233305794278749
9.0	51.103384043628466	pulse	0.0	t		27.0	female	white	4.181058495821727	neutral	039	sub-01	1.0	2.0	039_neutral	0.0		70.29477634353952	
9.0	51.803351232209025	pulse	0.0	t		27.0	female	white	4.181058495821727	neutral	039	sub-01	1.0	2.0	039_neutral	0.0		70.99474353212008	
9.0	52.2532377505795	fix	1.0		444	27.0	female	white	4.181058495821727	neutral	039	sub-01	1.0	2.0	039_neutral	0.0		71.44463005049056	3.7665622959666507
9.0	52.503340757911246	pulse	1.0	t		27.0	female	white	4.181058495821727	neutral	039	sub-01	1.0	2.0	039_neutral	0.0		71.6947330578223	
9.0	53.203325152111574	pulse	1.0	t		27.0	female	white	4.181058495821727	neutral	039	sub-01	1.0	2.0	039_neutral	0.0		72.39471745202263	
9.0	53.90329867960463	pulse	1.0	t		27.0	female	white	4.181058495821727	neutral	039	sub-01	1.0	2.0	039_neutral	0.0		73.09469097951569	
9.0	54.60328669604132	pulse	1.0	t		27.0	female	white	4.181058495821727	neutral	039	sub-01	1.0	2.0	039_neutral	0.0		73.79467899595238	
9.0	55.303264449476046	pulse	1.0	t		27.0	female	white	4.181058495821727	neutral	039	sub-01	1.0	2.0	039_neutral	0.0		74.4946567493871	
10.0	56.01980004654615	face	0.0		146	47.0	male	east_asian	2.171110226820533	neutral	024	sub-01	1.0	2.0	024_neutral	0.0		75.21119234645721	1.2333042850141283
10.0	56.00603072078593	pulse	0.0	t		47.0	male	east_asian	2.171110226820533	neutral	024	sub-01	1.0	2.0	024_neutral	0.0		75.19742302069699	
10.0	56.7032320304661	pulse	0.0	t		47.0	male	east_asian	2.171110226820533	neutral	024	sub-01	1.0	2.0	024_neutral	0.0		75.89462433037716	
10.0	57.25310433156028	fix	1.0		443	47.0	male	east_asian	2.171110226820533	neutral	024	sub-01	1.0	2.0	024_neutral	0.0		76.44449663147134	3.7665650126427863
10.0	57.403213406136274	pulse	1.0	t		47.0	male	east_asian	2.171110226820533	neutral	024	sub-01	1.0	2.0	024_neutral	0.0		76.59460570604733	
10.0	58.10318542436471	pulse	1.0	t		47.0	male	east_asian	2.171110226820533	neutral	024	sub-01	1.0	2.0	024_neutral	0.0		77.29457772427577	
10.0	58.803169214859736	pulse	1.0	t		47.0	male	east_asian	2.171110226820533	neutral	024	sub-01	1.0	2.0	024_neutral	0.0		77.9945615147708	
10.0	59.50315481647249	pulse	1.0	t		47.0	male	east_asian	2.171110226820533	neutral	024	sub-01	1.0	2.0	024_neutral	0.0		78.69454711638355	
10.0	60.203131966201	pulse	1.0	t		47.0	male	east_asian	2.171110226820533	neutral	024	sub-01	1.0	2.0	024_neutral	0.0		79.39452426611206	
10.0	60.903110323341934	pulse	1.0	t		47.0	male	east_asian	2.171110226820533	neutral	024	sub-01	1.0	2.0	024_neutral	0.0		80.09450262325299	
11.0	61.019669344203066	face	0.0		146	40.0	female	west_asian	1.5777954635893354	smiling	038	sub-01	1.0	2.0	038_smiling	0.0		80.21106164411412	1.2333076053973855
11.0	61.60310347127961	pulse	0.0	t		40.0	female	west_asian	1.5777954635893354	smiling	038	sub-01	1.0	2.0	038_smiling	0.0		80.79449577119067	
11.0	62.25297694960045	fix	1.0		443	40.0	female	west_asian	1.5777954635893354	smiling	038	sub-01	1.0	2.0	038_smiling	0.0		81.44436924951151	3.7665592774364995
11.0	62.30308062100812	pulse	1.0	t		40.0	female	west_asian	1.5777954635893354	smiling	038	sub-01	1.0	2.0	038_smiling	0.0		81.49447292091918	
11.0	63.00305294108966	pulse	1.0	t		40.0	female	west_asian	1.5777954635893354	smiling	038	sub-01	1.0	2.0	038_smiling	0.0		82.19444524100072	
11.0	63.70304578717423	pulse	1.0	t		40.0	female	west_asian	1.5777954635893354	smiling	038	sub-01	1.0	2.0	038_smiling	0.0		82.89443808708529	
11.0	64.40302504987358	pulse	1.0	t		40.0	female	west_asian	1.5777954635893354	smiling	038	sub-01	1.0	2.0	038_smiling	0.0		83.59441734978464	
11.0	65.10300340701451	pulse	1.0	t		40.0	female	west_asian	1.5777954635893354	smiling	038	sub-01	1.0	2.0	038_smiling	0.0		84.29439570692557	
11.0	65.80298417897939	pulse	1.0	t		40.0	female	west_asian	1.5777954635893354	smiling	038	sub-01	1.0	2.0	038_smiling	0.0		84.99437647889044	
12.0	66.01953622703695	face	0.0		145	19.0	male	white	3.2522881018702745	neutral	018	sub-01	1.0	2.0	018_neutral	1.0	trustworthiness	85.21092852694801	1.2333027757495074
12.0	66.5029673657682	pulse	0.0	t		19.0	male	white	3.2522881018702745	neutral	018	sub-01	1.0	2.0	018_neutral	1.0	trustworthiness	85.69435966567926	
12.0	67.20295115626323	pulse	0.0	t		19.0	male	white	3.2522881018702745	neutral	018	sub-01	1.0	2.0	018_neutral	1.0	trustworthiness	86.39434345617428	
12.0	67.25283900278646	fix	1.0		177	19.0	male	white	3.2522881018702745	neutral	018	sub-01	1.0	2.0	018_neutral	1.0	trustworthiness	86.44423130269752	1.508321634015374
12.0	67.90293072081568	pulse	1.0	t		19.0	male	white	3.2522881018702745	neutral	018	sub-01	1.0	2.0	018_neutral	1.0	trustworthiness	87.09432302072673	
12.0	68.60291692613464	pulse	1.0	t		19.0	male	white	3.2522881018702745	neutral	018	sub-01	1.0	2.0	018_neutral	1.0	trustworthiness	87.7943092260457	
12.0	68.76116063680183	rating	2.0		294	19.0	male	white	3.2522881018702745	neutral	018	sub-01	1.0	2.0	018_neutral	1.0	trustworthiness	87.95255293671289	2.491576339675703
12.0	69.29772484349724	pulse	2.0	t		19.0	male	white	3.2522881018702745	neutral	018	sub-01	1.0	2.0	018_neutral	1.0	trustworthiness	88.4891171434083	
12.0	69.62789012913618	response	2.0	y		19.0	male	white	3.2522881018702745	neutral	018	sub-01	1.0	2.0	018_neutral	1.0	trustworthiness	88.81928242904723	
12.0	70.00286247185613	pulse	2.0	t		19.0	male	white	3.2522881018702745	neutral	018	sub-01	1.0	2.0	018_neutral	1.0	trustworthiness	89.19425477176719	
12.0	70.70285652535222	pulse	2.0	t		19.0	male	white	3.2522881018702745	neutral	018	sub-01	1.0	2.0	018_neutral	1.0	trustworthiness	89.89424882526328	
12.0	71.25273697647754	fix	3.0		443	19.0	male	white	3.2522881018702745	neutral	018	sub-01	1.0	2.0	018_neutral	1.0	trustworthiness	90.4441292763886	3.7665653144958924
12.0	71.40284514549512	pulse	3.0	t		19.0	male	white	3.2522881018702745	neutral	018	sub-01	1.0	2.0	018_neutral	1.0	trustworthiness	90.59423744540618	
12.0	72.10282380448916	pulse	3.0	t		19.0	male	white	3.2522881018702745	neutral	018	sub-01	1.0	2.0	018_neutral	1.0	trustworthiness	91.29421610440022	
12.0	72.80280518015934	pulse	3.0	t		19.0	male	white	3.2522881018702745	neutral	018	sub-01	1.0	2.0	018_neutral	1.0	trustworthiness	91.9941974800704	
12.0	73.5027850465658	pulse	3.0	t		19.0	male	white	3.2522881018702745	neutral	018	sub-01	1.0	2.0	018_neutral	1.0	trustworthiness	92.69417734647686	
12.0	74.20276310185363	pulse	3.0	t		19.0	male	white	3.2522881018702745	neutral	018	sub-01	1.0	2.0	018_neutral	1.0	trustworthiness	93.39415540176469	
12.0	74.90274809976017	pulse	3.0	t		19.0	male	white	3.2522881018702745	neutral	018	sub-01	1.0	2.0	018_neutral	1.0	trustworthiness	94.09414039967123	
13.0	75.01930229097343	face	0.0		146	30.0	female	black	2.7345801830481498	neutral	062	sub-01	1.0	2.0	062_neutral	0.0		94.21069459088449	1.2333015683379926
13.0	75.60273490878444	pulse	0.0	t		30.0	female	black	2.7345801830481498	neutral	062	sub-01	1.0	2.0	062_neutral	0.0		94.7941272086955	
13.0	76.25260385931142	fix	1.0		443	30.0	female	black	2.7345801830481498	neutral	062	sub-01	1.0	2.0	062_neutral	0.0		95.44399615922248	3.7582202868752574
13.0	76.30271749186795	pulse	1.0	t		30.0	female	black	2.7345801830481498	neutral	062	sub-01	1.0	2.0	062_neutral	0.0		95.49410979177901	
13.0	77.00270701756926	pulse	1.0	t		30.0	female	black	2.7345801830481498	neutral	062	sub-01	1.0	2.0	062_neutral	0.0		96.19409931748032	
13.0	77.70267088576657	pulse	1.0	t		30.0	female	black	2.7345801830481498	neutral	062	sub-01	1.0	2.0	062_neutral	0.0		96.89406318567762	
13.0	78.40265618552621	pulse	1.0	t		30.0	female	black	2.7345801830481498	neutral	062	sub-01	1.0	2.0	062_neutral	0.0		97.59404848543727	
13.0	79.1026375611973	pulse	1.0	t		30.0	female	black	2.7345801830481498	neutral	062	sub-01	1.0	2.0	062_neutral	0.0		98.29402986110836	
13.0	79.80261229610278	pulse	1.0	t		30.0	female	black	2.7345801830481498	neutral	062	sub-01	1.0	2.0	062_neutral	0.0		98.99400459601384	
14.0	80.01082414618668	face	0.0		146	22.0	female	west_asian	3.8205332272184642	smiling	066	sub-01	1.0	2.0	066_smiling	0.0		99.20221644609774	1.2416665182554425
14.0	80.50260484033333	pulse	0.0	t		22.0	female	west_asian	3.8205332272184642	smiling	066	sub-01	1.0	2.0	066_smiling	0.0		99.69399714024439	
14.0	81.20258199006275	pulse	0.0	t		22.0	female	west_asian	3.8205332272184642	smiling	066	sub-01	1.0	2.0	066_smiling	0.0		100.39397428997381	
14.0	81.25249066444212	fix	1.0		444	22.0	female	west_asian	3.8205332272184642	smiling	066	sub-01	1.0	2.0	066_smiling	0.0		100.44388296435318	3.7582510758793433
14.0	81.90256427129225	pulse	1.0	t		22.0	female	west_asian	3.8205332272184642	smiling	066	sub-01	1.0	2.0	066_smiling	0.0		101.09395657120331	
14.0	82.60255047661121	pulse	1.0	t		22.0	female	west_asian	3.8205332272184642	smiling	066	sub-01	1.0	2.0	066_smiling	0.0		101.79394277652227	
14.0	83.30252068372101	pulse	1.0	t		22.0	female	west_asian	3.8205332272184642	smiling	066	sub-01	1.0	2.0	066_smiling	0.0		102.49391298363207	
14.0	84.00250055012748	pulse	1.0	t		22.0	female	west_asian	3.8205332272184642	smiling	066	sub-01	1.0	2.0	066_smiling	0.0		103.19389285003854	
14.0	84.70249339621114	pulse	1.0	t		22.0	female	west_asian	3.8205332272184642	smiling	066	sub-01	1.0	2.0	066_smiling	0.0		103.8938856961222	
15.0	85.01074174032146	face	0.0		146	20.0	male	black	3.1070433744528456	smiling	082	sub-01	1.0	2.0	082_smiling	1.0	dominance	104.20213404023252	1.2416164106598444
15.0	85.40247688485306	pulse	0.0	t		20.0	male	black	3.1070433744528456	smiling	082	sub-01	1.0	2.0	082_smiling	1.0	dominance	104.59386918476412	
15.0	86.10245343087627	pulse	0.0	t		20.0	male	black	3.1070433744528456	smiling	082	sub-01	1.0	2.0	082_smiling	1.0	dominance	105.29384573078733	
15.0	86.25235815098131	fix	1.0		177	20.0	male	black	3.1070433744528456	smiling	082	sub-01	1.0	2.0	082_smiling	1.0	dominance	105.44375045089237	1.4999452136835316
15.0	86.80243510840046	pulse	1.0	t		20.0	male	black	3.1070433744528456	smiling	082	sub-01	1.0	2.0	082_smiling	1.0	dominance	105.99382740831152	
15.0	87.50241527665912	pulse	1.0	t		20.0	male	black	3.1070433744528456	smiling	082	sub-01	1.0	2.0	082_smiling	1.0	dominance	106.69380757657018	
15.0	87.75230336466484	rating	2.0		295	20.0	male	black	3.1070433744528456	smiling	082	sub-01	1.0	2.0	082_smiling	1.0	dominance	106.9436956645759	2.4999340451231546
15.0	88.19733427592018	pulse	2.0	t		20.0	male	black	3.1070433744528456	smiling	082	sub-01	1.0	2.0	082_smiling	1.0	dominance	107.38872657583124	
15.0	88.89729663485286	pulse	2.0	t		20.0	male	black	3.1070433744528456	smiling	082	sub-01	1.0	2.0	082_smiling	1.0	dominance	108.08868893476392	
15.0	89.04403038935106	response	2.0	w		20.0	male	black	3.1070433744528456	smiling	082	sub-01	1.0	2.0	082_smiling	1.0	dominance	108.23542268926212	
15.0	89.60236000737768	pulse	2.0	t		20.0	male	black	3.1070433744528456	smiling	082	sub-01	1.0	2.0	082_smiling	1.0	dominance	108.79375230728874	
15.0	90.252237409788	fix	3.0		443	20.0	male	black	3.1070433744528456	smiling	082	sub-01	1.0	2.0	082_smiling	1.0	dominance	109.44362970969905	3.7665568626125605
15.0	90.30234621269574	pulse	3.0	t		20.0	male	black	3.1070433744528456	smiling	082	sub-01	1.0	2.0	082_smiling	1.0	dominance	109.4937385126068	
15.0	91.00231641980645	pulse	3.0	t		20.0	male	black	3.1070433744528456	smiling	082	sub-01	1.0	2.0	082_smiling	1.0	dominance	110.1937087197175	
15.0	91.70230413439003	pulse	3.0	t		20.0	male	black	3.1070433744528456	smiling	082	sub-01	1.0	2.0	082_smiling	1.0	dominance	110.89369643430109	
15.0	92.40228732117885	pulse	3.0	t		20.0	male	black	3.1070433744528456	smiling	082	sub-01	1.0	2.0	082_smiling	1.0	dominance	111.5936796210899	
15.0	93.10227443205622	pulse	3.0	t		20.0	male	black	3.1070433744528456	smiling	082	sub-01	1.0	2.0	082_smiling	1.0	dominance	112.29366673196728	
15.0	93.8022488651086	pulse	3.0	t		20.0	male	black	3.1070433744528456	smiling	082	sub-01	1.0	2.0	082_smiling	1.0	dominance	112.99364116501965	
16.0	94.01879427240056	face	0.0		145	21.0	male	east_asian/white	3.501790688420215	smiling	036	sub-01	1.0	2.0	036_smiling	0.0		113.21018657231161	1.2333091146620063
16.0	94.50223748525059	pulse	0.0	t		21.0	male	east_asian/white	3.501790688420215	smiling	036	sub-01	1.0	2.0	036_smiling	0.0		113.69362978516165	
16.0	95.20221312571539	pulse	0.0	t		21.0	male	east_asian/white	3.501790688420215	smiling	036	sub-01	1.0	2.0	036_smiling	0.0		114.39360542562645	
16.0	95.25210338706256	fix	1.0		445	21.0	male	east_asian/white	3.501790688420215	smiling	036	sub-01	1.0	2.0	036_smiling	0.0		114.44349568697362	3.7583739300443995
16.0	95.90220989588852	pulse	1.0	t		21.0	male	east_asian/white	3.501790688420215	smiling	036	sub-01	1.0	2.0	036_smiling	0.0		115.09360219579958	
16.0	96.60218915858786	pulse	1.0	t		21.0	male	east_asian/white	3.501790688420215	smiling	036	sub-01	1.0	2.0	036_smiling	0.0		115.79358145849892	
16.0	97.30216178052251	pulse	1.0	t		21.0	male	east_asian/white	3.501790688420215	smiling	036	sub-01	1.0	2.0	036_smiling	0.0		116.49355408043357	
16.0	98.00213591172178	pulse	1.0	t		21.0	male	east_asian/white	3.501790688420215	smiling	036	sub-01	1.0	2.0	036_smiling	0.0		117.19352821163284	
16.0	98.70212151333453	pulse	1.0	t		21.0	male	east_asian/white	3.501790688420215	smiling	036	sub-01	1.0	2.0	036_smiling	0.0		117.89351381324559	
17.0	99.01047731710696	face	0.0		146	24.0	female	black	3.0955033824114606	smiling	099	sub-01	1.0	2.0	099_smiling	0.0		118.20186961701802	1.2414905379655465
17.0	99.4021083223588	pulse	0.0	t		24.0	female	black	3.0955033824114606	smiling	099	sub-01	1.0	2.0	099_smiling	0.0		118.59350062226986	
17.0	100.10208064244034	pulse	0.0	t		24.0	female	black	3.0955033824114606	smiling	099	sub-01	1.0	2.0	099_smiling	0.0		119.2934729423514	
17.0	100.25196785507251	fix	1.0		444	24.0	female	black	3.0955033824114606	smiling	099	sub-01	1.0	2.0	099_smiling	0.0		119.44336015498357	3.7665514292584703
17.0	100.80206896072923	pulse	1.0	t		24.0	female	black	3.0955033824114606	smiling	099	sub-01	1.0	2.0	099_smiling	0.0		119.99346126064029	
17.0	101.50204822342948	pulse	1.0	t		24.0	female	black	3.0955033824114606	smiling	099	sub-01	1.0	2.0	099_smiling	0.0		120.69344052334054	
17.0	102.20203473060064	pulse	1.0	t		24.0	female	black	3.0955033824114606	smiling	099	sub-01	1.0	2.0	099_smiling	0.0		121.3934270305117	
17.0	102.9020076543884	pulse	1.0	t		24.0	female	black	3.0955033824114606	smiling	099	sub-01	1.0	2.0	099_smiling	0.0		122.09339995429946	
17.0	103.60199506711888	pulse	1.0	t		24.0	female	black	3.0955033824114606	smiling	099	sub-01	1.0	2.0	099_smiling	0.0		122.79338736702994	
18.0	104.01851928433098	face	0.0		145	25.0	female	black	3.858336649423	smiling	126	sub-01	1.0	2.0	126_smiling	0.0		123.20991158424204	1.2333245091640492
18.0	104.30198187614315	pulse	0.0	t		25.0	female	black	3.858336649423	smiling	126	sub-01	1.0	2.0	126_smiling	0.0		123.4933741760542	
18.0	105.00195419622469	pulse	0.0	t		25.0	female	black	3.858336649423	smiling	126	sub-01	1.0	2.0	126_smiling	0.0		124.19334649613575	
18.0	105.25184379349503	fix	1.0		444	25.0	female	black	3.858336649423	smiling	126	sub-01	1.0	2.0	126_smiling	0.0		124.44323609340609	3.766563201525969
18.0	105.70194040154365	pulse	1.0	t		25.0	female	black	3.858336649423	smiling	126	sub-01	1.0	2.0	126_smiling	0.0		124.89333270145471	
18.0	106.40191724941906	pulse	1.0	t		25.0	female	black	3.858336649423	smiling	126	sub-01	1.0	2.0	126_smiling	0.0		125.59330954933012	
18.0	107.10190466214954	pulse	1.0	t		25.0	female	black	3.858336649423	smiling	126	sub-01	1.0	2.0	126_smiling	0.0		126.2932969620606	
18.0	107.80187637852487	pulse	1.0	t		25.0	female	black	3.858336649423	smiling	126	sub-01	1.0	2.0	126_smiling	0.0		126.99326867843592	
18.0	108.50186530052088	pulse	1.0	t		25.0	female	black	3.858336649423	smiling	126	sub-01	1.0	2.0	126_smiling	0.0		127.69325760043193	
19.0	109.018406995021	face	0.0		145	25.0	female	west_asian	2.6756864305610826	neutral	064	sub-01	1.0	2.0	064_neutral	0.0		128.20979929493205	1.2333027757495074
19.0	109.20184999657431	pulse	0.0	t		25.0	female	west_asian	2.6756864305610826	neutral	064	sub-01	1.0	2.0	064_neutral	0.0		128.39324229648537	
19.0	109.90183016483297	pulse	0.0	t		25.0	female	west_asian	2.6756864305610826	neutral	064	sub-01	1.0	2.0	064_neutral	0.0		129.09322246474403	
19.0	110.2517097707705	fix	1.0		444	25.0	female	west_asian	2.6756864305610826	neutral	064	sub-01	1.0	2.0	064_neutral	0.0		129.44310207068156	3.7665656163489984
19.0	110.60181184235717	pulse	1.0	t		25.0	female	west_asian	2.6756864305610826	neutral	064	sub-01	1.0	2.0	064_neutral	0.0		129.79320414226822	
19.0	111.30179744396992	pulse	1.0	t		25.0	female	west_asian	2.6756864305610826	neutral	064	sub-01	1.0	2.0	064_neutral	0.0		130.49318974388098	
19.0	112.00181292902744	pulse	1.0	t		25.0	female	west_asian	2.6756864305610826	neutral	064	sub-01	1.0	2.0	064_neutral	0.0		131.1932052289385	
19.0	112.70175596936951	pulse	1.0	t		25.0	female	west_asian	2.6756864305610826	neutral	064	sub-01	1.0	2.0	064_neutral	0.0		131.89314826928057	
19.0	113.40174247654068	pulse	1.0	t		25.0	female	west_asian	2.6756864305610826	neutral	064	sub-01	1.0	2.0	064_neutral	0.0		132.59313477645173	
20.0	114.0182753871195	face	0.0		145	27.0	female	white	4.181058495821727	smiling	039	sub-01	1.0	2.0	039_smiling	0.0		133.20966768703056	1.2333027757495074
20.0	114.10170845770972	pulse	0.0	t		27.0	female	white	4.181058495821727	smiling	039	sub-01	1.0	2.0	039_smiling	0.0		133.29310075762078	
20.0	114.80171911312027	pulse	0.0	t		27.0	female	white	4.181058495821727	smiling	039	sub-01	1.0	2.0	039_smiling	0.0		133.99311141303133	
20.0	115.25157816286901	fix	1.0		1185	27.0	female	white	4.181058495821727	smiling	039	sub-01	1.0	2.0	039_smiling	0.0		134.44297046278007	10.01636918551867
20.0	115.50168750911234	pulse	1.0	t		27.0	female	white	4.181058495821727	smiling	039	sub-01	1.0	2.0	039_smiling	0.0		134.6930798090234	
20.0	116.20166586625328	pulse	1.0	t		27.0	female	white	4.181058495821727	smiling	039	sub-01	1.0	2.0	039_smiling	0.0		135.39305816616434	
20.0	116.90163818633482	pulse	1.0	t		27.0	female	white	4.181058495821727	smiling	039	sub-01	1.0	2.0	039_smiling	0.0		136.09303048624588	
20.0	117.60162348609447	pulse	1.0	t		27.0	female	white	4.181058495821727	smiling	039	sub-01	1.0	2.0	039_smiling	0.0		136.79301578600553	
20.0	118.30160848400101	pulse	1.0	t		27.0	female	white	4.181058495821727	smiling	039	sub-01	1.0	2.0	039_smiling	0.0		137.49300078391207	
20.0	119.00158231334717	pulse	1.0	t		27.0	female	white	4.181058495821727	smiling	039	sub-01	1.0	2.0	039_smiling	0.0		138.19297461325823	
20.0	119.70157063163697	pulse	1.0	t		27.0	female	white	4.181058495821727	smiling	039	sub-01	1.0	2.0	039_smiling	0.0		138.89296293154803	
20.0	120.40155049804252	pulse	1.0	t		27.0	female	white	4.181058495821727	smiling	039	sub-01	1.0	2.0	039_smiling	0.0		139.59294279795358	
20.0	121.10152825147725	pulse	1.0	t		27.0	female	white	4.181058495821727	smiling	039	sub-01	1.0	2.0	039_smiling	0.0		140.2929205513883	
20.0	121.80150660861818	pulse	1.0	t		27.0	female	white	4.181058495821727	smiling	039	sub-01	1.0	2.0	039_smiling	0.0		140.99289890852924	
20.0	122.50149703987881	pulse	1.0	t		27.0	female	white	4.181058495821727	smiling	039	sub-01	1.0	2.0	039_smiling	0.0		141.69288933978987	
20.0	123.20147449146134	pulse	1.0	t		27.0	female	white	4.181058495821727	smiling	039	sub-01	1.0	2.0	039_smiling	0.0		142.3928667913724	
20.0	123.90146582828038	pulse	1.0	t		27.0	female	white	4.181058495821727	smiling	039	sub-01	1.0	2.0	039_smiling	0.0		143.09285812819144	
20.0	124.60144629839215	pulse	1.0	t		27.0	female	white	4.181058495821727	smiling	039	sub-01	1.0	2.0	039_smiling	0.0		143.7928385983032	
21.0	125.26794734838768	face	0.0		145	19.0	female	white	4.298846000795861	neutral	100	sub-01	1.0	2.0	100_neutral	0.0		144.45933964829874	1.2333347721660175
21.0	125.30144095559444	pulse	0.0	t		19.0	female	white	4.298846000795861	neutral	100	sub-01	1.0	2.0	100_neutral	0.0		144.4928332555055	
21.0	126.00140089970319	pulse	0.0	t		19.0	female	white	4.298846000795861	neutral	100	sub-01	1.0	2.0	100_neutral	0.0		145.19279319961424	
21.0	126.5012821205537	fix	1.0		443	19.0	female	white	4.298846000795861	neutral	100	sub-01	1.0	2.0	100_neutral	0.0		145.69267442046475	3.7665665219083166
21.0	126.70138861428677	pulse	1.0	t		19.0	female	white	4.298846000795861	neutral	100	sub-01	1.0	2.0	100_neutral	0.0		145.89278091419783	
21.0	127.40136576401619	pulse	1.0	t		19.0	female	white	4.298846000795861	neutral	100	sub-01	1.0	2.0	100_neutral	0.0		146.59275806392725	
21.0	128.1013432155978	pulse	1.0	t		19.0	female	white	4.298846000795861	neutral	100	sub-01	1.0	2.0	100_neutral	0.0		147.29273551550887	
21.0	128.80132851535745	pulse	1.0	t		19.0	female	white	4.298846000795861	neutral	100	sub-01	1.0	2.0	100_neutral	0.0		147.9927208152685	
21.0	129.50131683364725	pulse	1.0	t		19.0	female	white	4.298846000795861	neutral	100	sub-01	1.0	2.0	100_neutral	0.0		148.6927091335583	
21.0	130.20129187040493	pulse	1.0	t		19.0	female	white	4.298846000795861	neutral	100	sub-01	1.0	2.0	100_neutral	0.0		149.392684170316	
22.0	130.267848642462	face	0.0		146	31.0	female	east_asian	3.395941106247513	neutral	087	sub-01	1.0	2.0	087_neutral	0.0		149.45924094237307	1.2332991535131441
22.0	130.9012786794301	pulse	0.0	t		31.0	female	east_asian	3.395941106247513	neutral	087	sub-01	1.0	2.0	087_neutral	0.0		150.09267097934116	
22.0	131.50114779597516	fix	1.0		443	31.0	female	east_asian	3.395941106247513	neutral	087	sub-01	1.0	2.0	087_neutral	0.0		150.69254009588622	3.766569842291574
22.0	131.60125794212945	pulse	1.0	t		31.0	female	east_asian	3.395941106247513	neutral	087	sub-01	1.0	2.0	087_neutral	0.0		150.7926502420405	
22.0	132.30124837339008	pulse	1.0	t		31.0	female	east_asian	3.395941106247513	neutral	087	sub-01	1.0	2.0	087_neutral	0.0		151.49264067330114	
22.0	133.00121193973428	pulse	1.0	t		31.0	female	east_asian	3.395941106247513	neutral	087	sub-01	1.0	2.0	087_neutral	0.0		152.19260423964533	
22.0	133.7012020691418	pulse	1.0	t		31.0	female	east_asian	3.395941106247513	neutral	087	sub-01	1.0	2.0	087_neutral	0.0		152.89259436905286	
22.0	134.4011846522253	pulse	1.0	t		31.0	female	east_asian	3.395941106247513	neutral	087	sub-01	1.0	2.0	087_neutral	0.0		153.59257695213637	
22.0	135.10116300936625	pulse	1.0	t		31.0	female	east_asian	3.395941106247513	neutral	087	sub-01	1.0	2.0	087_neutral	0.0		154.2925553092773	
23.0	135.26771763826673	face	0.0		146	28.0	male	white	3.9076800636689217	smiling	033	sub-01	1.0	2.0	033_smiling	0.0		154.4591099381778	1.233302775748598
23.0	135.80115223321445	pulse	0.0	t		28.0	male	white	3.9076800636689217	smiling	033	sub-01	1.0	2.0	033_smiling	0.0		154.9925445331255	
23.0	136.50102041401533	fix	1.0		444	28.0	male	white	3.9076800636689217	smiling	033	sub-01	1.0	2.0	033_smiling	0.0		155.6924127139264	3.766567427467635
23.0	136.5084879550095	pulse	1.0	t		28.0	male	white	3.9076800636689217	smiling	033	sub-01	1.0	2.0	033_smiling	0.0		155.69988025492057	
23.0	137.2011134752911	pulse	1.0	t		28.0	male	white	3.9076800636689217	smiling	033	sub-01	1.0	2.0	033_smiling	0.0		156.39250577520215	
23.0	137.901083984254	pulse	1.0	t		28.0	male	white	3.9076800636689217	smiling	033	sub-01	1.0	2.0	033_smiling	0.0		157.09247628416506	
23.0	138.6010723025438	pulse	1.0	t		28.0	male	white	3.9076800636689217	smiling	033	sub-01	1.0	2.0	033_smiling	0.0		157.79246460245486	
23.0	139.30105639489193	pulse	1.0	t		28.0	male	white	3.9076800636689217	smiling	033	sub-01	1.0	2.0	033_smiling	0.0		158.492448694803	
23.0	140.0010308279434	pulse	1.0	t		28.0	male	white	3.9076800636689217	smiling	033	sub-01	1.0	2.0	033_smiling	0.0		159.19242312785445	
24.0	140.26758784148296	face	0.0		145	22.0	female	white	4.614007162753682	neutral	009	sub-01	1.0	2.0	009_neutral	0.0		159.45898014139402	1.2332747034215572
24.0	140.70102246661645	pulse	0.0	t		22.0	female	white	4.614007162753682	neutral	009	sub-01	1.0	2.0	009_neutral	0.0		159.8924147665275	
24.0	141.40100022005117	pulse	0.0	t		22.0	female	white	4.614007162753682	neutral	009	sub-01	1.0	2.0	009_neutral	0.0		160.59239251996223	
24.0	141.50086254490452	fix	1.0		444	22.0	female	white	4.614007162753682	neutral	009	sub-01	1.0	2.0	009_neutral	0.0		160.69225484481558	3.7665912738530096
24.0	142.10098974575249	pulse	1.0	t		22.0	female	white	4.614007162753682	neutral	009	sub-01	1.0	2.0	009_neutral	0.0		161.29238204566354	
24.0	142.8009605565685	pulse	1.0	t		22.0	female	white	4.614007162753682	neutral	009	sub-01	1.0	2.0	009_neutral	0.0		161.99235285647956	
24.0	143.50094132853337	pulse	1.0	t		22.0	female	white	4.614007162753682	neutral	009	sub-01	1.0	2.0	009_neutral	0.0		162.69233362844443	
24.0	144.20092059123363	pulse	1.0	t		22.0	female	white	4.614007162753682	neutral	009	sub-01	1.0	2.0	009_neutral	0.0		163.39231289114468	
24.0	144.90091132434736	pulse	1.0	t		22.0	female	white	4.614007162753682	neutral	009	sub-01	1.0	2.0	009_neutral	0.0		164.09230362425842	
25.0	145.26745381875753	face	0.0		145	26.0	male	white	2.7966573816155993	neutral	117	sub-01	1.0	2.0	117_neutral	0.0		164.4588461186686	1.2333042850141283
25.0	145.60089390742996	pulse	0.0	t		26.0	male	white	2.7966573816155993	neutral	117	sub-01	1.0	2.0	117_neutral	0.0		164.79228620734102	
25.0	146.3008665293637	pulse	0.0	t		26.0	male	white	2.7966573816155993	neutral	117	sub-01	1.0	2.0	117_neutral	0.0		165.49225882927476	
25.0	146.50075810377166	fix	1.0		444	26.0	male	white	2.7966573816155993	neutral	117	sub-01	1.0	2.0	117_neutral	0.0		165.69215040368272	3.7665635033781655
25.0	147.00085364024198	pulse	1.0	t		26.0	male	white	2.7966573816155993	neutral	117	sub-01	1.0	2.0	117_neutral	0.0		166.19224594015304	
25.0	147.7008313936767	pulse	1.0	t		26.0	male	white	2.7966573816155993	neutral	117	sub-01	1.0	2.0	117_neutral	0.0		166.89222369358777	
25.0	148.4008006952281	pulse	1.0	t		26.0	male	white	2.7966573816155993	neutral	117	sub-01	1.0	2.0	117_neutral	0.0		167.59219299513916	
25.0	149.10079384316487	pulse	1.0	t		26.0	male	white	2.7966573816155993	neutral	117	sub-01	1.0	2.0	117_neutral	0.0		168.29218614307592	
25.0	149.8007833688671	pulse	1.0	t		26.0	male	white	2.7966573816155993	neutral	117	sub-01	1.0	2.0	117_neutral	0.0		168.99217566877815	
26.0	150.26732160714982	face	0.0		145	54.0	female	white	2.286908077994429	neutral	136	sub-01	1.0	2.0	136_neutral	0.0		169.45871390706088	1.2333045868672343
26.0	150.50076836677363	pulse	0.0	t		54.0	female	white	2.286908077994429	neutral	136	sub-01	1.0	2.0	136_neutral	0.0		169.69216066668469	
26.0	151.20074038500206	pulse	0.0	t		54.0	female	white	2.286908077994429	neutral	136	sub-01	1.0	2.0	136_neutral	0.0		170.39213268491312	
26.0	151.50062619401706	fix	1.0		444	54.0	female	white	2.286908077994429	neutral	136	sub-01	1.0	2.0	136_neutral	0.0		170.69201849392812	3.766565012643696
26.0	151.900731419968	pulse	1.0	t		54.0	female	white	2.286908077994429	neutral	136	sub-01	1.0	2.0	136_neutral	0.0		171.09212371987905	
26.0	152.60070555116727	pulse	1.0	t		54.0	female	white	2.286908077994429	neutral	136	sub-01	1.0	2.0	136_neutral	0.0		171.79209785107832	
26.0	153.30068783239676	pulse	1.0	t		54.0	female	white	2.286908077994429	neutral	136	sub-01	1.0	2.0	136_neutral	0.0		172.49208013230782	
26.0	154.00067011362717	pulse	1.0	t		54.0	female	white	2.286908077994429	neutral	136	sub-01	1.0	2.0	136_neutral	0.0		173.19206241353822	
26.0	154.7006542059744	pulse	1.0	t		54.0	female	white	2.286908077994429	neutral	136	sub-01	1.0	2.0	136_neutral	0.0		173.89204650588545	
27.0	155.26719120666075	face	0.0		145	31.0	female	west_asian	2.364902506963788	neutral	006	sub-01	1.0	2.0	006_neutral	0.0		174.4585835065718	1.2333006627786745
27.0	155.40073549498356	pulse	0.0	t		31.0	female	west_asian	2.364902506963788	neutral	006	sub-01	1.0	2.0	006_neutral	0.0		174.59212779489462	
27.0	156.1006196739927	pulse	0.0	t		31.0	female	west_asian	2.364902506963788	neutral	006	sub-01	1.0	2.0	006_neutral	0.0		175.29201197390375	
27.0	156.50049186943943	fix	1.0		444	31.0	female	west_asian	2.364902506963788	neutral	006	sub-01	1.0	2.0	006_neutral	0.0		175.6918841693505	3.7583624596309164
27.0	156.8005962200159	pulse	1.0	t		31.0	female	west_asian	2.364902506963788	neutral	006	sub-01	1.0	2.0	006_neutral	0.0		175.99198851992696	
27.0	157.5005658234204	pulse	1.0	t		31.0	female	west_asian	2.364902506963788	neutral	006	sub-01	1.0	2.0	006_neutral	0.0		176.69195812333146	
27.0	158.20054659538528	pulse	1.0	t		31.0	female	west_asian	2.364902506963788	neutral	006	sub-01	1.0	2.0	006_neutral	0.0		177.39193889529633	
27.0	158.90053581923348	pulse	1.0	t		31.0	female	west_asian	2.364902506963788	neutral	006	sub-01	1.0	2.0	006_neutral	0.0		178.09192811914454	
27.0	159.6005256467879	pulse	1.0	t		31.0	female	west_asian	2.364902506963788	neutral	006	sub-01	1.0	2.0	006_neutral	0.0		178.79191794669896	
28.0	160.25885432907035	face	0.0		146	37.0	male	white	3.898925586947871	neutral	101	sub-01	1.0	2.0	101_neutral	0.0		179.4502466289814	1.2415059324675894
28.0	160.30051004098914	pulse	0.0	t		37.0	male	white	3.898925586947871	neutral	101	sub-01	1.0	2.0	101_neutral	0.0		179.4919023409002	
28.0	161.00048024809894	pulse	0.0	t		37.0	male	white	3.898925586947871	neutral	101	sub-01	1.0	2.0	101_neutral	0.0		180.19187254801	
28.0	161.50036026153794	fix	1.0		443	37.0	male	white	3.898925586947871	neutral	101	sub-01	1.0	2.0	101_neutral	0.0		180.691752561449	3.766568936731346
28.0	161.70046856638874	pulse	1.0	t		37.0	male	white	3.898925586947871	neutral	101	sub-01	1.0	2.0	101_neutral	0.0		180.8918608662998	
28.0	162.40044994205982	pulse	1.0	t		37.0	male	white	3.898925586947871	neutral	101	sub-01	1.0	2.0	101_neutral	0.0		181.59184224197088	
28.0	163.10041018802167	pulse	1.0	t		37.0	male	white	3.898925586947871	neutral	101	sub-01	1.0	2.0	101_neutral	0.0		182.29180248793273	
28.0	163.8004078637532	pulse	1.0	t		37.0	male	white	3.898925586947871	neutral	101	sub-01	1.0	2.0	101_neutral	0.0		182.99180016366427	
28.0	164.50039376721907	pulse	1.0	t		37.0	male	white	3.898925586947871	neutral	101	sub-01	1.0	2.0	101_neutral	0.0		183.69178606713012	
28.0	165.20037302991932	pulse	1.0	t		37.0	male	white	3.898925586947871	neutral	101	sub-01	1.0	2.0	101_neutral	0.0		184.39176532983038	
29.0	165.26692919826928	face	0.0		146	20.0	male	black	3.1070433744528456	neutral	082	sub-01	1.0	2.0	082_neutral	0.0		184.45832149818034	1.2333039831619317
29.0	165.90036527229768	pulse	0.0	t		20.0	male	black	3.1070433744528456	neutral	082	sub-01	1.0	2.0	082_neutral	0.0		185.09175757220873	
29.0	166.5002331814312	fix	1.0		443	20.0	male	black	3.1070433744528456	neutral	082	sub-01	1.0	2.0	082_neutral	0.0		185.69162548134227	3.7665677293198314
29.0	166.60037019250103	pulse	1.0	t		20.0	male	black	3.1070433744528456	neutral	082	sub-01	1.0	2.0	082_neutral	0.0		185.7917624924121	
29.0	167.30031836434318	pulse	1.0	t		20.0	male	black	3.1070433744528456	neutral	082	sub-01	1.0	2.0	082_neutral	0.0		186.49171066425424	
29.0	168.0002885714539	pulse	1.0	t		20.0	male	black	3.1070433744528456	neutral	082	sub-01	1.0	2.0	082_neutral	0.0		187.19168087136495	
29.0	168.70027960641983	pulse	1.0	t		20.0	male	black	3.1070433744528456	neutral	082	sub-01	1.0	2.0	082_neutral	0.0		187.89167190633088	
29.0	169.4002658117388	pulse	1.0	t		20.0	male	black	3.1070433744528456	neutral	082	sub-01	1.0	2.0	082_neutral	0.0		188.59165811164985	
29.0	170.1002429614682	pulse	1.0	t		20.0	male	black	3.1070433744528456	neutral	082	sub-01	1.0	2.0	082_neutral	0.0		189.29163526137927	
30.0	170.26680091075104	face	0.0		146	22.0	male	black	2.767608436132113	neutral	044	sub-01	1.0	2.0	044_neutral	1.0	attractiveness	189.4581932106621	1.2332976442485233
30.0	170.80022977049248	pulse	0.0	t		22.0	male	black	2.767608436132113	neutral	044	sub-01	1.0	2.0	044_neutral	1.0	attractiveness	189.99162207040354	
30.0	171.50009855499957	fix	1.0		176	22.0	male	black	2.767608436132113	neutral	044	sub-01	1.0	2.0	044_neutral	1.0	attractiveness	190.69149085491063	1.4999618155979988
30.0	171.50804332556254	pulse	1.0	t		22.0	male	black	2.767608436132113	neutral	044	sub-01	1.0	2.0	044_neutral	1.0	attractiveness	190.6994356254736	
30.0	172.20019221998064	pulse	1.0	t		22.0	male	black	2.767608436132113	neutral	044	sub-01	1.0	2.0	044_neutral	1.0	attractiveness	191.3915845198917	
30.0	172.90016936971006	pulse	1.0	t		22.0	male	black	2.767608436132113	neutral	044	sub-01	1.0	2.0	044_neutral	1.0	attractiveness	192.09156166962111	
30.0	173.00006037059757	rating	2.0		295	22.0	male	black	2.767608436132113	neutral	044	sub-01	1.0	2.0	044_neutral	1.0	attractiveness	192.19145267050862	2.4999325358576243
30.0	173.6001607065291	pulse	2.0	t		22.0	male	black	2.767608436132113	neutral	044	sub-01	1.0	2.0	044_neutral	1.0	attractiveness	192.79155300644015	
30.0	174.30013996922935	pulse	2.0	t		22.0	male	black	2.767608436132113	neutral	044	sub-01	1.0	2.0	044_neutral	1.0	attractiveness	193.4915322691404	
30.0	174.8834551662294	response	2.0	y		22.0	male	black	2.767608436132113	neutral	044	sub-01	1.0	2.0	044_neutral	1.0	attractiveness	194.07484746614045	
30.0	175.0001059503984	pulse	2.0	t		22.0	male	black	2.767608436132113	neutral	044	sub-01	1.0	2.0	044_neutral	1.0	attractiveness	194.19149825030945	
30.0	175.4999929064552	fix	3.0		443	22.0	male	black	2.767608436132113	neutral	044	sub-01	1.0	2.0	044_neutral	1.0	attractiveness	194.69138520636625	3.7665644089374837
30.0	175.70010332427682	pulse	3.0	t		22.0	male	black	2.767608436132113	neutral	044	sub-01	1.0	2.0	044_neutral	1.0	attractiveness	194.89149562418788	
30.0	176.4000777573292	pulse	3.0	t		22.0	male	black	2.767608436132113	neutral	044	sub-01	1.0	2.0	044_neutral	1.0	attractiveness	195.59147005724026	
30.0	177.10006124597112	pulse	3.0	t		22.0	male	black	2.767608436132113	neutral	044	sub-01	1.0	2.0	044_neutral	1.0	attractiveness	196.29145354588218	
30.0	177.8000353771704	pulse	3.0	t		22.0	male	black	2.767608436132113	neutral	044	sub-01	1.0	2.0	044_neutral	1.0	attractiveness	196.99142767708145	
30.0	178.50002188434155	pulse	3.0	t		22.0	male	black	2.767608436132113	neutral	044	sub-01	1.0	2.0	044_neutral	1.0	attractiveness	197.6914141842526	
30.0	179.2000135230137	pulse	3.0	t		22.0	male	black	2.767608436132113	neutral	044	sub-01	1.0	2.0	044_neutral	1.0	attractiveness	198.39140582292475	
31.0	179.26655731539267	face	0.0		146	24.0	male	white	3.1153999204138483	smiling	012	sub-01	1.0	2.0	012_smiling	0.0		198.45794961530373	1.2333036813079161
31.0	179.8999897671838	pulse	0.0	t		24.0	male	white	3.1153999204138483	smiling	012	sub-01	1.0	2.0	012_smiling	0.0		199.09138206709486	
31.0	180.4998609967006	fix	1.0		443	24.0	male	white	3.1153999204138483	smiling	012	sub-01	1.0	2.0	012_smiling	0.0		199.69125329661165	3.7665435810813506
31.0	180.5999729539726	pulse	1.0	t		24.0	male	white	3.1153999204138483	smiling	012	sub-01	1.0	2.0	012_smiling	0.0		199.79136525388367	
31.0	181.2999485944365	pulse	1.0	t		24.0	male	white	3.1153999204138483	smiling	012	sub-01	1.0	2.0	012_smiling	0.0		200.49134089434756	
31.0	181.99992182007736	pulse	1.0	t		24.0	male	white	3.1153999204138483	smiling	012	sub-01	1.0	2.0	012_smiling	0.0		201.19131411998842	
31.0	182.69988599012777	pulse	1.0	t		24.0	male	white	3.1153999204138483	smiling	012	sub-01	1.0	2.0	012_smiling	0.0		201.89127829003883	
31.0	183.3999020788915	pulse	1.0	t		24.0	male	white	3.1153999204138483	smiling	012	sub-01	1.0	2.0	012_smiling	0.0		202.59129437880256	
31.0	184.09987288970842	pulse	1.0	t		24.0	male	white	3.1153999204138483	smiling	012	sub-01	1.0	2.0	012_smiling	0.0		203.29126518961948	
32.0	184.26640457778194	face	0.0		146	31.0	female	white	2.1822522881018704	neutral	102	sub-01	1.0	2.0	102_neutral	0.0		203.457796877693	1.2333263202826856
32.0	184.79986241540973	pulse	0.0	t		31.0	female	white	2.1822522881018704	neutral	102	sub-01	1.0	2.0	102_neutral	0.0		203.9912547153208	
32.0	185.49973089806463	fix	1.0		444	31.0	female	white	2.1822522881018704	neutral	102	sub-01	1.0	2.0	102_neutral	0.0		204.69112319797568	3.758325029860316
32.0	185.5072355669754	pulse	1.0	t		31.0	female	white	2.1822522881018704	neutral	102	sub-01	1.0	2.0	102_neutral	0.0		204.69862786688645	
32.0	186.19982033710403	pulse	1.0	t		31.0	female	white	2.1822522881018704	neutral	102	sub-01	1.0	2.0	102_neutral	0.0		205.3912126370151	
32.0	186.89979627942103	pulse	1.0	t		31.0	female	white	2.1822522881018704	neutral	102	sub-01	1.0	2.0	102_neutral	0.0		206.09118857933208	
32.0	187.5997845977099	pulse	1.0	t		31.0	female	white	2.1822522881018704	neutral	102	sub-01	1.0	2.0	102_neutral	0.0		206.79117689762097	
32.0	188.2997653696748	pulse	1.0	t		31.0	female	white	2.1822522881018704	neutral	102	sub-01	1.0	2.0	102_neutral	0.0		207.49115766958585	
32.0	188.99974070828648	pulse	1.0	t		31.0	female	white	2.1822522881018704	neutral	102	sub-01	1.0	2.0	102_neutral	0.0		208.19113300819754	
33.0	189.25805592792494	face	0.0		146	23.0	male	white	2.6275368085953046	neutral	141	sub-01	1.0	2.0	141_neutral	1.0	dominance	208.449448227836	1.2415424566788715
33.0	189.69973295066484	pulse	0.0	t		23.0	male	white	2.6275368085953046	neutral	141	sub-01	1.0	2.0	141_neutral	1.0	dominance	208.8911252505759	
33.0	190.39970828927562	pulse	0.0	t		23.0	male	white	2.6275368085953046	neutral	141	sub-01	1.0	2.0	141_neutral	1.0	dominance	209.59110058918668	
33.0	190.49959838460381	fix	1.0		177	23.0	male	white	2.6275368085953046	neutral	141	sub-01	1.0	2.0	141_neutral	1.0	dominance	209.69099068451487	1.4999630230095136
33.0	191.09972166136322	pulse	1.0	t		23.0	male	white	2.6275368085953046	neutral	141	sub-01	1.0	2.0	141_neutral	1.0	dominance	210.29111396127428	
33.0	191.79966832394075	pulse	1.0	t		23.0	male	white	2.6275368085953046	neutral	141	sub-01	1.0	2.0	141_neutral	1.0	dominance	210.9910606238518	
33.0	191.99956140761333	rating	2.0		295	23.0	male	white	2.6275368085953046	neutral	141	sub-01	1.0	2.0	141_neutral	1.0	dominance	211.1909537075244	2.499931630298306
33.0	192.4996789793504	pulse	2.0	t		23.0	male	white	2.6275368085953046	neutral	141	sub-01	1.0	2.0	141_neutral	1.0	dominance	211.69107127926145	
33.0	193.19456115254707	pulse	2.0	t		23.0	male	white	2.6275368085953046	neutral	141	sub-01	1.0	2.0	141_neutral	1.0	dominance	212.38595345245812	
33.0	193.35795900293124	response	2.0	w		23.0	male	white	2.6275368085953046	neutral	141	sub-01	1.0	2.0	141_neutral	1.0	dominance	212.5493513028423	
33.0	193.89959283050848	pulse	2.0	t		23.0	male	white	2.6275368085953046	neutral	141	sub-01	1.0	2.0	141_neutral	1.0	dominance	213.09098513041954	
33.0	194.49949303791163	fix	3.0		443	23.0	male	white	2.6275368085953046	neutral	141	sub-01	1.0	2.0	141_neutral	1.0	dominance	213.6908853378227	3.76654750517082
33.0	194.59960318406593	pulse	3.0	t		23.0	male	white	2.6275368085953046	neutral	141	sub-01	1.0	2.0	141_neutral	1.0	dominance	213.79099548397699	
33.0	195.29957882453073	pulse	3.0	t		23.0	male	white	2.6275368085953046	neutral	141	sub-01	1.0	2.0	141_neutral	1.0	dominance	214.49097112444178	
33.0	195.9995532575822	pulse	3.0	t		23.0	male	white	2.6275368085953046	neutral	141	sub-01	1.0	2.0	141_neutral	1.0	dominance	215.19094555749325	
33.0	196.69954127401888	pulse	3.0	t		23.0	male	white	2.6275368085953046	neutral	141	sub-01	1.0	2.0	141_neutral	1.0	dominance	215.89093357392994	
33.0	197.3995235552493	pulse	3.0	t		23.0	male	white	2.6275368085953046	neutral	141	sub-01	1.0	2.0	141_neutral	1.0	dominance	216.59091585516035	
33.0	198.09950161053712	pulse	3.0	t		23.0	male	white	2.6275368085953046	neutral	141	sub-01	1.0	2.0	141_neutral	1.0	dominance	217.29089391044818	
34.0	198.26604054308245	face	0.0		146	24.0	male	white	3.1153999204138483	neutral	012	sub-01	1.0	2.0	012_neutral	0.0		217.4574328429935	1.2333163591338234
34.0	198.79949355106237	pulse	0.0	t		24.0	male	white	3.1153999204138483	neutral	012	sub-01	1.0	2.0	012_neutral	0.0		217.99088585097343	
34.0	199.49935690221628	fix	1.0		444	24.0	male	white	3.1153999204138483	neutral	012	sub-01	1.0	2.0	012_neutral	0.0		218.69074920212734	3.758219079462833
34.0	199.50700706426596	pulse	1.0	t		24.0	male	white	3.1153999204138483	neutral	012	sub-01	1.0	2.0	012_neutral	0.0		218.69839936417702	
34.0	200.1994544912859	pulse	1.0	t		24.0	male	white	3.1153999204138483	neutral	012	sub-01	1.0	2.0	012_neutral	0.0		219.39084679119696	
34.0	200.89942560395502	pulse	1.0	t		24.0	male	white	3.1153999204138483	neutral	012	sub-01	1.0	2.0	012_neutral	0.0		220.09081790386608	
34.0	201.59941694077497	pulse	1.0	t		24.0	male	white	3.1153999204138483	neutral	012	sub-01	1.0	2.0	012_neutral	0.0		220.79080924068603	
34.0	202.29941522021272	pulse	1.0	t		24.0	male	white	3.1153999204138483	neutral	012	sub-01	1.0	2.0	012_neutral	0.0		221.49080752012378	
34.0	202.9993712402329	pulse	1.0	t		24.0	male	white	3.1153999204138483	neutral	012	sub-01	1.0	2.0	012_neutral	0.0		222.19076354014396	
35.0	203.2575759816791	face	0.0		146	40.0	male	white	1.868682849184242	neutral	172	sub-01	1.0	2.0	172_neutral	0.0		222.44896828159017	1.2416553496950655
35.0	203.69936438816967	pulse	0.0	t		40.0	male	white	1.868682849184242	neutral	172	sub-01	1.0	2.0	172_neutral	0.0		222.89075668808073	
35.0	204.39934546198765	pulse	0.0	t		40.0	male	white	1.868682849184242	neutral	172	sub-01	1.0	2.0	172_neutral	0.0		223.5907377618987	
35.0	204.49923133137418	fix	1.0		444	40.0	male	white	1.868682849184242	neutral	172	sub-01	1.0	2.0	172_neutral	0.0		223.69062363128523	3.7665638052312715
35.0	205.09932230986396	pulse	1.0	t		40.0	male	white	1.868682849184242	neutral	172	sub-01	1.0	2.0	172_neutral	0.0		224.29071460977502	
35.0	205.799300968858	pulse	1.0	t		40.0	male	white	1.868682849184242	neutral	172	sub-01	1.0	2.0	172_neutral	0.0		224.99069326876906	
35.0	206.499282042676	pulse	1.0	t		40.0	male	white	1.868682849184242	neutral	172	sub-01	1.0	2.0	172_neutral	0.0		225.69067434258704	
35.0	207.19926764428783	pulse	1.0	t		40.0	male	white	1.868682849184242	neutral	172	sub-01	1.0	2.0	172_neutral	0.0		226.3906599441989	
35.0	207.89924056807558	pulse	1.0	t		40.0	male	white	1.868682849184242	neutral	172	sub-01	1.0	2.0	172_neutral	0.0		227.09063286798664	
36.0	208.26579513660545	face	0.0		146	47.0	male	east_asian	2.171110226820533	smiling	024	sub-01	1.0	2.0	024_smiling	0.0		227.4571874365165	1.2416321070149934
36.0	208.59923522527788	pulse	0.0	t		47.0	male	east_asian	2.171110226820533	smiling	024	sub-01	1.0	2.0	024_smiling	0.0		227.79062752518894	
36.0	209.29921388427192	pulse	0.0	t		47.0	male	east_asian	2.171110226820533	smiling	024	sub-01	1.0	2.0	024_smiling	0.0		228.49060618418298	
36.0	209.50742724362044	fix	1.0		444	47.0	male	east_asian	2.171110226820533	smiling	024	sub-01	1.0	2.0	024_smiling	0.0		228.6988195435315	3.7665659182021045
36.0	209.99919858032536	pulse	1.0	t		47.0	male	east_asian	2.171110226820533	smiling	024	sub-01	1.0	2.0	024_smiling	0.0		229.1905908802364	
36.0	210.6991715041122	pulse	1.0	t		47.0	male	east_asian	2.171110226820533	smiling	024	sub-01	1.0	2.0	024_smiling	0.0		229.89056380402326	
36.0	211.3991543890479	pulse	1.0	t		47.0	male	east_asian	2.171110226820533	smiling	024	sub-01	1.0	2.0	024_smiling	0.0		230.59054668895897	
36.0	212.09913455730748	pulse	1.0	t		47.0	male	east_asian	2.171110226820533	smiling	024	sub-01	1.0	2.0	024_smiling	0.0		231.29052685721854	
36.0	212.7991186496547	pulse	1.0	t		47.0	male	east_asian	2.171110226820533	smiling	024	sub-01	1.0	2.0	024_smiling	0.0		231.99051094956576	
37.0	213.27399316182255	face	0.0		145	31.0	male	west_asian	1.9538400318344609	smiling	070	sub-01	1.0	2.0	070_smiling	0.0		232.4653854617336	1.2333060961327647
37.0	213.49910425126745	pulse	0.0	t		31.0	male	west_asian	1.9538400318344609	smiling	070	sub-01	1.0	2.0	070_smiling	0.0		232.6904965511785	
37.0	214.1990774769074	pulse	0.0	t		31.0	male	west_asian	1.9538400318344609	smiling	070	sub-01	1.0	2.0	070_smiling	0.0		233.39046977681846	
37.0	214.5072992579553	fix	1.0		444	31.0	male	west_asian	1.9538400318344609	smiling	070	sub-01	1.0	2.0	070_smiling	0.0		233.69869155786637	3.7665514292584703
37.0	214.8990654933441	pulse	1.0	t		31.0	male	west_asian	1.9538400318344609	smiling	070	sub-01	1.0	2.0	070_smiling	0.0		234.09045779325515	
37.0	215.59904475604435	pulse	1.0	t		31.0	male	west_asian	1.9538400318344609	smiling	070	sub-01	1.0	2.0	070_smiling	0.0		234.7904370559554	
37.0	216.29902703727385	pulse	1.0	t		31.0	male	west_asian	1.9538400318344609	smiling	070	sub-01	1.0	2.0	070_smiling	0.0		235.4904193371849	
37.0	216.99901445000432	pulse	1.0	t		31.0	male	west_asian	1.9538400318344609	smiling	070	sub-01	1.0	2.0	070_smiling	0.0		236.19040674991538	
37.0	217.69900397570564	pulse	1.0	t		31.0	male	west_asian	1.9538400318344609	smiling	070	sub-01	1.0	2.0	070_smiling	0.0		236.8903962756167	
38.0	218.27385068721378	face	0.0		145	24.0	female	east_asian	2.9076800636689217	smiling	034	sub-01	1.0	2.0	034_smiling	1.0	trustworthiness	237.46524298712484	1.2333154535745052
38.0	218.39897478652256	pulse	0.0	t		24.0	female	east_asian	2.9076800636689217	smiling	034	sub-01	1.0	2.0	034_smiling	1.0	trustworthiness	237.59036708643362	
38.0	219.09894982328024	pulse	0.0	t		24.0	female	east_asian	2.9076800636689217	smiling	034	sub-01	1.0	2.0	034_smiling	1.0	trustworthiness	238.2903421231913	
38.0	219.50716614078829	fix	1.0		177	24.0	female	east_asian	2.9076800636689217	smiling	034	sub-01	1.0	2.0	034_smiling	1.0	trustworthiness	238.69855844069934	1.499964532275044
38.0	219.79893934898155	pulse	1.0	t		24.0	female	east_asian	2.9076800636689217	smiling	034	sub-01	1.0	2.0	034_smiling	1.0	trustworthiness	238.9903316488926	
38.0	220.49891408388703	pulse	1.0	t		24.0	female	east_asian	2.9076800636689217	smiling	034	sub-01	1.0	2.0	034_smiling	1.0	trustworthiness	239.6903063837981	
38.0	221.00713067306333	rating	2.0		294	24.0	female	east_asian	2.9076800636689217	smiling	034	sub-01	1.0	2.0	034_smiling	1.0	trustworthiness	240.1985229729744	2.499940987740956
38.0	221.19383640353044	pulse	2.0	t		24.0	female	east_asian	2.9076800636689217	smiling	034	sub-01	1.0	2.0	034_smiling	1.0	trustworthiness	240.3852287034415	
38.0	221.89378095313714	pulse	2.0	t		24.0	female	east_asian	2.9076800636689217	smiling	034	sub-01	1.0	2.0	034_smiling	1.0	trustworthiness	241.0851732530482	
38.0	222.28220839266032	response	2.0	y		24.0	female	east_asian	2.9076800636689217	smiling	034	sub-01	1.0	2.0	034_smiling	1.0	trustworthiness	241.47360069257138	
38.0	222.5988530793984	pulse	2.0	t		24.0	female	east_asian	2.9076800636689217	smiling	034	sub-01	1.0	2.0	034_smiling	1.0	trustworthiness	241.79024537930945	
38.0	223.29884381251213	pulse	2.0	t		24.0	female	east_asian	2.9076800636689217	smiling	034	sub-01	1.0	2.0	034_smiling	1.0	trustworthiness	242.4902361124232	
38.0	223.50707166080429	fix	3.0		444	24.0	female	east_asian	2.9076800636689217	smiling	034	sub-01	1.0	2.0	034_smiling	1.0	trustworthiness	242.69846396071534	3.7665583718771813
38.0	223.99882186779996	pulse	3.0	t		24.0	female	east_asian	2.9076800636689217	smiling	034	sub-01	1.0	2.0	034_smiling	1.0	trustworthiness	243.19021416771102	
38.0	224.69881531759074	pulse	3.0	t		24.0	female	east_asian	2.9076800636689217	smiling	034	sub-01	1.0	2.0	034_smiling	1.0	trustworthiness	243.8902076175018	
38.0	225.39879035434842	pulse	3.0	t		24.0	female	east_asian	2.9076800636689217	smiling	034	sub-01	1.0	2.0	034_smiling	1.0	trustworthiness	244.59018265425948	
38.0	226.09876388184148	pulse	3.0	t		24.0	female	east_asian	2.9076800636689217	smiling	034	sub-01	1.0	2.0	034_smiling	1.0	trustworthiness	245.29015618175254	
38.0	226.79875008716044	pulse	3.0	t		24.0	female	east_asian	2.9076800636689217	smiling	034	sub-01	1.0	2.0	034_smiling	1.0	trustworthiness	245.9901423870715	
39.0	227.27363003268147	face	0.0		145	19.0	male	white	3.2522881018702745	smiling	018	sub-01	1.0	2.0	018_smiling	0.0		246.46502233259253	1.2332964368370085
39.0	227.4987368961847	pulse	0.0	t		19.0	male	white	3.2522881018702745	smiling	018	sub-01	1.0	2.0	018_smiling	0.0		246.69012919609577	
39.0	228.19871706444337	pulse	0.0	t		19.0	male	white	3.2522881018702745	smiling	018	sub-01	1.0	2.0	018_smiling	0.0		247.39010936435443	
39.0	228.50692646951848	fix	1.0		444	19.0	male	white	3.2522881018702745	smiling	018	sub-01	1.0	2.0	018_smiling	0.0		247.69831876942953	3.7499069538180265
39.0	228.89869693084984	pulse	1.0	t		19.0	male	white	3.2522881018702745	smiling	018	sub-01	1.0	2.0	018_smiling	0.0		248.0900892307609	
39.0	229.59868464543342	pulse	1.0	t		19.0	male	white	3.2522881018702745	smiling	018	sub-01	1.0	2.0	018_smiling	0.0		248.79007694534448	
39.0	230.2986654173983	pulse	1.0	t		19.0	male	white	3.2522881018702745	smiling	018	sub-01	1.0	2.0	018_smiling	0.0		249.49005771730936	
39.0	230.99862505965393	pulse	1.0	t		19.0	male	white	3.2522881018702745	smiling	018	sub-01	1.0	2.0	018_smiling	0.0		250.190017359565	
39.0	231.69861458535524	pulse	1.0	t		19.0	male	white	3.2522881018702745	smiling	018	sub-01	1.0	2.0	018_smiling	0.0		250.8900068852663	
40.0	232.2568334233365	fix	0.0		720													251.44822572324756	5.999835791975784
40.0	232.39860954441065	pulse	0.0	t														251.5900018443217	
40.0	233.09858397746302	pulse	0.0	t														252.28997627737408	
40.0	233.79856324016237	pulse	0.0	t														252.98995554007342	
40.0	234.4985482380689	pulse	0.0	t														253.68994053797996	
40.0	235.19852659520984	pulse	0.0	t														254.3899188951209	
40.0	235.89850102826222	pulse	0.0	t														255.08989332817328	
40.0	236.59849085581664	pulse	0.0	t														255.7898831557277	
40.0	237.29847857040022	pulse	0.0	t														256.4898708703113	
40.0	237.99847715169108	pulse	0.0	t														257.18986945160214	
