trial_nr	onset	event_type	phase	response	nr_frames	face_age	face_sex	face_eth	attractiveness	expression	face_id	sub_id	ses	run	trial_type	catch	rating_type	onset_abs	duration
-1.0	0.060000464858148916	fix	0.0		713													24.58530216210238	5.95796327079961
-1.0	0.7015018227557448	pulse	0.0	t														25.226803519999976	
-1.0	1.4014862168151012	pulse	0.0	t														25.926787914059332	
-1.0	2.1014706108744576	pulse	0.0	t														26.62677230811869	
-1.0	2.801455608645483	pulse	0.0	t														27.326757305889714	
-1.0	3.5014487565208583	pulse	0.0	t														28.02675045376509	
-1.0	4.201432546868546	pulse	0.0	t														28.726734244112777	
-1.0	4.901426298455135	pulse	0.0	t														29.426727995699366	
-1.0	5.601417635195958	pulse	0.0	t														30.12671933244019	
0.0	6.017963735657759	face	0.0		144	54.0	female	white	2.286908077994429	smiling	136	sub-13	2.0	2.0	136_smiling	0.0		30.54326543290199	1.2333199812487692
0.0	6.30141682018575	pulse	0.0	t		54.0	female	white	2.286908077994429	smiling	136	sub-13	2.0	2.0	136_smiling	0.0		30.82671851742998	
0.0	7.001377367643272	pulse	0.0	t		54.0	female	white	2.286908077994429	smiling	136	sub-13	2.0	2.0	136_smiling	0.0		31.526679064887503	
0.0	7.251283716906528	fix	1.0		444	54.0	female	white	2.286908077994429	smiling	136	sub-13	2.0	2.0	136_smiling	0.0		31.77658541415076	3.7582624701881286
0.0	7.7013726285085795	pulse	1.0	t		54.0	female	white	2.286908077994429	smiling	136	sub-13	2.0	2.0	136_smiling	0.0		32.22667432575281	
0.0	8.401370304219654	pulse	1.0	t		54.0	female	white	2.286908077994429	smiling	136	sub-13	2.0	2.0	136_smiling	0.0		32.926672001463885	
0.0	9.101351679721574	pulse	1.0	t		54.0	female	white	2.286908077994429	smiling	136	sub-13	2.0	2.0	136_smiling	0.0		33.626653376965805	
0.0	9.801335168213882	pulse	1.0	t		54.0	female	white	2.286908077994429	smiling	136	sub-13	2.0	2.0	136_smiling	0.0		34.32663686545811	
0.0	10.501326806810539	pulse	1.0	t		54.0	female	white	2.286908077994429	smiling	136	sub-13	2.0	2.0	136_smiling	0.0		35.02662850405477	
1.0	11.009546187094656	face	0.0		146	28.0	female	white	5.676880222841227	smiling	124	sub-13	2.0	2.0	124_smiling	0.0		35.53484788433889	1.2416394267033866
1.0	11.201313615715662	pulse	0.0	t		28.0	female	white	5.676880222841227	smiling	124	sub-13	2.0	2.0	124_smiling	0.0		35.72661531295989	
1.0	11.90129287822765	pulse	0.0	t		28.0	female	white	5.676880222841227	smiling	124	sub-13	2.0	2.0	124_smiling	0.0		36.42659457547188	
1.0	12.251185613798043	fix	1.0		444	28.0	female	white	5.676880222841227	smiling	124	sub-13	2.0	2.0	124_smiling	0.0		36.776487311042274	3.7582672998796625
1.0	12.601286931670074	pulse	1.0	t		28.0	female	white	5.676880222841227	smiling	124	sub-13	2.0	2.0	124_smiling	0.0		37.126588628914305	
1.0	13.301273438719363	pulse	1.0	t		28.0	female	white	5.676880222841227	smiling	124	sub-13	2.0	2.0	124_smiling	0.0		37.826575135963594	
1.0	14.001252399375971	pulse	1.0	t		28.0	female	white	5.676880222841227	smiling	124	sub-13	2.0	2.0	124_smiling	0.0		38.5265540966202	
1.0	14.701253093644027	pulse	1.0	t		28.0	female	white	5.676880222841227	smiling	124	sub-13	2.0	2.0	124_smiling	0.0		39.22655479088826	
1.0	15.4012362802805	pulse	1.0	t		28.0	female	white	5.676880222841227	smiling	124	sub-13	2.0	2.0	124_smiling	0.0		39.92653797752473	
2.0	16.009452913677706	face	0.0		146	40.0	male	white	1.868682849184242	smiling	172	sub-13	2.0	2.0	172_smiling	0.0		40.53475461092194	1.241643652683706
2.0	16.101229428155875	pulse	0.0	t		40.0	male	white	1.868682849184242	smiling	172	sub-13	2.0	2.0	172_smiling	0.0		40.626531125400106	
2.0	16.80121201108068	pulse	0.0	t		40.0	male	white	1.868682849184242	smiling	172	sub-13	2.0	2.0	172_smiling	0.0		41.32651370832491	
2.0	17.25109656636141	fix	1.0		444	40.0	male	white	1.868682849184242	smiling	172	sub-13	2.0	2.0	172_smiling	0.0		41.77639826360564	3.7582579423519746
2.0	17.50120395153317	pulse	1.0	t		40.0	male	white	1.868682849184242	smiling	172	sub-13	2.0	2.0	172_smiling	0.0		42.0265056487774	
2.0	18.20118623260214	pulse	1.0	t		40.0	male	white	1.868682849184242	smiling	172	sub-13	2.0	2.0	172_smiling	0.0		42.72648792984637	
2.0	18.901165495114583	pulse	1.0	t		40.0	male	white	1.868682849184242	smiling	172	sub-13	2.0	2.0	172_smiling	0.0		43.426467192358814	
2.0	19.60116105783527	pulse	1.0	t		40.0	male	white	1.868682849184242	smiling	172	sub-13	2.0	2.0	172_smiling	0.0		44.1264627550795	
2.0	20.301152092720713	pulse	1.0	t		40.0	male	white	1.868682849184242	smiling	172	sub-13	2.0	2.0	172_smiling	0.0		44.826453789964944	
3.0	21.009354508713386	face	0.0		147	25.0	female	black	3.858336649423	smiling	126	sub-13	2.0	2.0	126_smiling	0.0		45.53465620595762	1.2416518027880556
3.0	21.002343607797684	pulse	0.0	t		25.0	female	black	3.858336649423	smiling	126	sub-13	2.0	2.0	126_smiling	0.0		45.527645305041915	
3.0	21.701123295685193	pulse	0.0	t		25.0	female	black	3.858336649423	smiling	126	sub-13	2.0	2.0	126_smiling	0.0		46.226424992929424	
3.0	22.251006311501442	fix	1.0		443	25.0	female	black	3.858336649423	smiling	126	sub-13	2.0	2.0	126_smiling	0.0		46.77630800874567	3.7582491885364107
3.0	22.40111795283883	pulse	1.0	t		25.0	female	black	3.858336649423	smiling	126	sub-13	2.0	2.0	126_smiling	0.0		46.92641965008306	
3.0	23.101094498649672	pulse	1.0	t		25.0	female	black	3.858336649423	smiling	126	sub-13	2.0	2.0	126_smiling	0.0		47.6263961958939	
3.0	23.801094891061894	pulse	1.0	t		25.0	female	black	3.858336649423	smiling	126	sub-13	2.0	2.0	126_smiling	0.0		48.326396588306125	
3.0	24.501072946151453	pulse	1.0	t		25.0	female	black	3.858336649423	smiling	126	sub-13	2.0	2.0	126_smiling	0.0		49.026374643395684	
3.0	25.201067905160926	pulse	1.0	t		25.0	female	black	3.858336649423	smiling	126	sub-13	2.0	2.0	126_smiling	0.0		49.72636960240516	
3.0	25.90104958251868	pulse	1.0	t		25.0	female	black	3.858336649423	smiling	126	sub-13	2.0	2.0	126_smiling	0.0		50.42635127976291	
4.0	26.009255500037852	face	0.0		147	24.0	female	east_asian	4.409868682849185	neutral	030	sub-13	2.0	2.0	030_neutral	0.0		50.53455719728208	1.2416635751610556
4.0	26.601045145239368	pulse	0.0	t		24.0	female	east_asian	4.409868682849185	neutral	030	sub-13	2.0	2.0	030_neutral	0.0		51.1263468424836	
4.0	27.250919075198908	fix	1.0		443	24.0	female	east_asian	4.409868682849185	neutral	030	sub-13	2.0	2.0	030_neutral	0.0		51.77622077244314	3.758264885033441
4.0	27.301032256000326	pulse	1.0	t		24.0	female	east_asian	4.409868682849185	neutral	030	sub-13	2.0	2.0	030_neutral	0.0		51.82633395324456	
4.0	28.00100940552238	pulse	1.0	t		24.0	female	east_asian	4.409868682849185	neutral	030	sub-13	2.0	2.0	030_neutral	0.0		52.52631110276661	
4.0	28.70100104411904	pulse	1.0	t		24.0	female	east_asian	4.409868682849185	neutral	030	sub-13	2.0	2.0	030_neutral	0.0		53.22630274136327	
4.0	29.400986041890064	pulse	1.0	t		24.0	female	east_asian	4.409868682849185	neutral	030	sub-13	2.0	2.0	030_neutral	0.0		53.926287739134295	
4.0	30.100977378630887	pulse	1.0	t		24.0	female	east_asian	4.409868682849185	neutral	030	sub-13	2.0	2.0	030_neutral	0.0		54.62627907587512	
4.0	30.80096509310306	pulse	1.0	t		24.0	female	east_asian	4.409868682849185	neutral	030	sub-13	2.0	2.0	030_neutral	0.0		55.32626679034729	
5.0	31.00918396023235	face	0.0		146	27.0	female	white	3.504576203740549	neutral	144	sub-13	2.0	2.0	144_neutral	0.0		55.53448565747658	1.241647576808191
5.0	31.50095733541093	pulse	0.0	t		27.0	female	white	3.504576203740549	neutral	144	sub-13	2.0	2.0	144_neutral	0.0		56.02625903265516	
5.0	32.20094957771926	pulse	0.0	t		27.0	female	white	3.504576203740549	neutral	144	sub-13	2.0	2.0	144_neutral	0.0		56.72625127496349	
5.0	32.25083153704054	fix	1.0		445	27.0	female	white	3.504576203740549	neutral	144	sub-13	2.0	2.0	144_neutral	0.0		56.77613323428477	3.7665994232743287
5.0	32.90092370868388	pulse	1.0	t		27.0	female	white	3.504576203740549	neutral	144	sub-13	2.0	2.0	144_neutral	0.0		57.42622540592811	
5.0	33.600922289962	pulse	1.0	t		27.0	female	white	3.504576203740549	neutral	144	sub-13	2.0	2.0	144_neutral	0.0		58.12622398720623	
5.0	34.300900646907394	pulse	1.0	t		27.0	female	white	3.504576203740549	neutral	144	sub-13	2.0	2.0	144_neutral	0.0		58.826202344151625	
5.0	35.00089168179238	pulse	1.0	t		27.0	female	white	3.504576203740549	neutral	144	sub-13	2.0	2.0	144_neutral	0.0		59.52619337903661	
5.0	35.700877886985836	pulse	1.0	t		27.0	female	white	3.504576203740549	neutral	144	sub-13	2.0	2.0	144_neutral	0.0		60.22617958423007	
6.0	36.01743096031487	face	0.0		145	34.0	male	white	2.651014723438122	smiling	121	sub-13	2.0	2.0	121_smiling	0.0		60.5427326575591	1.2333109255773707
6.0	36.400867714448395	pulse	0.0	t		34.0	male	white	2.651014723438122	smiling	121	sub-13	2.0	2.0	121_smiling	0.0		60.92616941169263	
6.0	37.10085663634345	pulse	0.0	t		34.0	male	white	2.651014723438122	smiling	121	sub-13	2.0	2.0	121_smiling	0.0		61.62615833358768	
6.0	37.25074188589224	fix	1.0		444	34.0	male	white	2.651014723438122	smiling	121	sub-13	2.0	2.0	121_smiling	0.0		61.77604358313647	3.7666018381200956
6.0	37.800842841536905	pulse	1.0	t		34.0	male	white	2.651014723438122	smiling	121	sub-13	2.0	2.0	121_smiling	0.0		62.326144538781136	
6.0	38.500828443019145	pulse	1.0	t		34.0	male	white	2.651014723438122	smiling	121	sub-13	2.0	2.0	121_smiling	0.0		63.026130140263376	
6.0	39.200814648213054	pulse	1.0	t		34.0	male	white	2.651014723438122	smiling	121	sub-13	2.0	2.0	121_smiling	0.0		63.726116345457285	
6.0	39.90079723113786	pulse	1.0	t		34.0	male	white	2.651014723438122	smiling	121	sub-13	2.0	2.0	121_smiling	0.0		64.42609892838209	
6.0	40.60079128458028	pulse	1.0	t		34.0	male	white	2.651014723438122	smiling	121	sub-13	2.0	2.0	121_smiling	0.0		65.12609298182451	
7.0	41.017343724012335	face	0.0		145	25.0	female	west_asian	2.6756864305610826	neutral	064	sub-13	2.0	2.0	064_neutral	1.0	dominance	65.54264542125657	1.2333066995970512
7.0	41.300783225032774	pulse	0.0	t		25.0	female	west_asian	2.6756864305610826	neutral	064	sub-13	2.0	2.0	064_neutral	1.0	dominance	65.826084922277	
7.0	42.00076188383355	pulse	0.0	t		25.0	female	west_asian	2.6756864305610826	neutral	064	sub-13	2.0	2.0	064_neutral	1.0	dominance	66.52606358107778	
7.0	42.250650423609386	fix	1.0		177	25.0	female	west_asian	2.6756864305610826	neutral	064	sub-13	2.0	2.0	064_neutral	1.0	dominance	66.77595212085362	1.508339518860339
7.0	42.700760163255836	pulse	1.0	t		25.0	female	west_asian	2.6756864305610826	neutral	064	sub-13	2.0	2.0	064_neutral	1.0	dominance	67.22606186050007	
7.0	43.40073882205661	pulse	1.0	t		25.0	female	west_asian	2.6756864305610826	neutral	064	sub-13	2.0	2.0	064_neutral	1.0	dominance	67.92604051930084	
7.0	43.758989942469725	rating	2.0		293	25.0	female	west_asian	2.6756864305610826	neutral	064	sub-13	2.0	2.0	064_neutral	1.0	dominance	68.28429163971396	2.491594676593195
7.0	44.1007470627178	pulse	2.0	t		25.0	female	west_asian	2.6756864305610826	neutral	064	sub-13	2.0	2.0	064_neutral	1.0	dominance	68.62604875996203	
7.0	44.800725721518575	pulse	2.0	t		25.0	female	west_asian	2.6756864305610826	neutral	064	sub-13	2.0	2.0	064_neutral	1.0	dominance	69.3260274187628	
7.0	45.112112232371146	response	2.0	b		25.0	female	west_asian	2.6756864305610826	neutral	064	sub-13	2.0	2.0	064_neutral	1.0	dominance	69.63741392961538	
7.0	45.500699852483194	pulse	2.0	t		25.0	female	west_asian	2.6756864305610826	neutral	064	sub-13	2.0	2.0	064_neutral	1.0	dominance	70.02600154972743	
7.0	46.200692698502735	pulse	2.0	t		25.0	female	west_asian	2.6756864305610826	neutral	064	sub-13	2.0	2.0	064_neutral	1.0	dominance	70.72599439574697	
7.0	46.25058461906292	fix	3.0		444	25.0	female	west_asian	2.6756864305610826	neutral	064	sub-13	2.0	2.0	064_neutral	1.0	dominance	70.77588631630715	3.7665801045081935
7.0	46.90067950740786	pulse	3.0	t		25.0	female	west_asian	2.6756864305610826	neutral	064	sub-13	2.0	2.0	064_neutral	1.0	dominance	71.42598120465209	
7.0	47.60066903301458	pulse	3.0	t		25.0	female	west_asian	2.6756864305610826	neutral	064	sub-13	2.0	2.0	064_neutral	1.0	dominance	72.12597073025881	
7.0	48.30065282336227	pulse	3.0	t		25.0	female	west_asian	2.6756864305610826	neutral	064	sub-13	2.0	2.0	064_neutral	1.0	dominance	72.8259545206065	
7.0	49.000634198864645	pulse	3.0	t		25.0	female	west_asian	2.6756864305610826	neutral	064	sub-13	2.0	2.0	064_neutral	1.0	dominance	73.52593589610888	
7.0	49.700627044884186	pulse	3.0	t		25.0	female	west_asian	2.6756864305610826	neutral	064	sub-13	2.0	2.0	064_neutral	1.0	dominance	74.22592874212842	
8.0	50.01716472357111	face	0.0		145	20.0	male	black	3.1070433744528456	neutral	082	sub-13	2.0	2.0	082_neutral	0.0		74.54246642081534	1.2333260183631864
8.0	50.40062592801769	pulse	0.0	t		20.0	male	black	3.1070433744528456	neutral	082	sub-13	2.0	2.0	082_neutral	0.0		74.92592762526192	
8.0	51.10059975712693	pulse	0.0	t		20.0	male	black	3.1070433744528456	neutral	082	sub-13	2.0	2.0	082_neutral	0.0		75.62590145437116	
8.0	51.2504907419343	fix	1.0		445	20.0	male	black	3.1070433744528456	neutral	082	sub-13	2.0	2.0	082_neutral	0.0		75.77579243917853	3.758388344022478
8.0	51.80059049015654	pulse	1.0	t		20.0	male	black	3.1070433744528456	neutral	082	sub-13	2.0	2.0	082_neutral	0.0		76.32589218740077	
8.0	52.50058031761864	pulse	1.0	t		20.0	male	black	3.1070433744528456	neutral	082	sub-13	2.0	2.0	082_neutral	0.0		77.02588201486287	
8.0	53.20057708776267	pulse	1.0	t		20.0	male	black	3.1070433744528456	neutral	082	sub-13	2.0	2.0	082_neutral	0.0		77.7258787850069	
8.0	53.900544577901655	pulse	1.0	t		20.0	male	black	3.1070433744528456	neutral	082	sub-13	2.0	2.0	082_neutral	0.0		78.42584627514589	
8.0	54.60054225361273	pulse	1.0	t		20.0	male	black	3.1070433744528456	neutral	082	sub-13	2.0	2.0	082_neutral	0.0		79.12584395085696	
9.0	55.00887908595678	face	0.0		146	40.0	male	white	1.868682849184242	neutral	172	sub-13	2.0	2.0	172_neutral	0.0		79.53418078320101	1.2415265326649205
9.0	55.30053389220939	pulse	0.0	t		40.0	male	white	1.868682849184242	neutral	172	sub-13	2.0	2.0	172_neutral	0.0		79.82583558945362	
9.0	56.00052522895021	pulse	0.0	t		40.0	male	white	1.868682849184242	neutral	172	sub-13	2.0	2.0	172_neutral	0.0		80.52582692619444	
9.0	56.2504056186217	fix	1.0		445	40.0	male	white	1.868682849184242	neutral	172	sub-13	2.0	2.0	172_neutral	0.0		80.77570731586593	3.7583321988590797
9.0	56.7005072081638	pulse	1.0	t		40.0	male	white	1.868682849184242	neutral	172	sub-13	2.0	2.0	172_neutral	0.0		81.22580890540803	
9.0	57.40049854490462	pulse	1.0	t		40.0	male	white	1.868682849184242	neutral	172	sub-13	2.0	2.0	172_neutral	0.0		81.92580024214885	
9.0	58.100473581436745	pulse	1.0	t		40.0	male	white	1.868682849184242	neutral	172	sub-13	2.0	2.0	172_neutral	0.0		82.62577527868098	
9.0	58.800462805187635	pulse	1.0	t		40.0	male	white	1.868682849184242	neutral	172	sub-13	2.0	2.0	172_neutral	0.0		83.32576450243187	
9.0	59.500455651207176	pulse	1.0	t		40.0	male	white	1.868682849184242	neutral	172	sub-13	2.0	2.0	172_neutral	0.0		84.0257573484514	
10.0	60.00873781748078	face	0.0		146	34.0	male	white	2.651014723438122	neutral	121	sub-13	2.0	2.0	121_neutral	0.0		84.53403951472501	1.2415799611271723
10.0	60.200449402793765	pulse	0.0	t		34.0	male	white	2.651014723438122	neutral	121	sub-13	2.0	2.0	121_neutral	0.0		84.725751100038	
10.0	60.900446172937336	pulse	0.0	t		34.0	male	white	2.651014723438122	neutral	121	sub-13	2.0	2.0	121_neutral	0.0		85.42574787018157	
10.0	61.25031777860795	fix	1.0		445	34.0	male	white	2.651014723438122	neutral	121	sub-13	2.0	2.0	121_neutral	0.0		85.77561947585218	3.7583518194805947
10.0	61.60042332245985	pulse	1.0	t		34.0	male	white	2.651014723438122	neutral	121	sub-13	2.0	2.0	121_neutral	0.0		86.12572501970408	
10.0	62.30041284806612	pulse	1.0	t		34.0	male	white	2.651014723438122	neutral	121	sub-13	2.0	2.0	121_neutral	0.0		86.82571454531035	
10.0	63.00038486604126	pulse	1.0	t		34.0	male	white	2.651014723438122	neutral	121	sub-13	2.0	2.0	121_neutral	0.0		87.52568656328549	
10.0	63.70038646587636	pulse	1.0	t		34.0	male	white	2.651014723438122	neutral	121	sub-13	2.0	2.0	121_neutral	0.0		88.2256881631206	
10.0	64.40036844508995	pulse	1.0	t		34.0	male	white	2.651014723438122	neutral	121	sub-13	2.0	2.0	121_neutral	0.0		88.92567014233418	
11.0	65.00866959808855	face	0.0		146	21.0	male	east_asian/white	3.501790688420215	smiling	036	sub-13	2.0	2.0	036_smiling	0.0		89.53397129533278	1.2415612460722514
11.0	65.10036370595526	pulse	0.0	t		21.0	male	east_asian/white	3.501790688420215	smiling	036	sub-13	2.0	2.0	036_smiling	0.0		89.62566540319949	
11.0	65.80034598702468	pulse	0.0	t		21.0	male	east_asian/white	3.501790688420215	smiling	036	sub-13	2.0	2.0	036_smiling	0.0		90.32564768426892	
11.0	66.2502308441608	fix	1.0		444	21.0	male	east_asian/white	3.501790688420215	smiling	036	sub-13	2.0	2.0	036_smiling	0.0		90.77553254140503	3.7665719544042986
11.0	66.50033521077557	pulse	1.0	t		21.0	male	east_asian/white	3.501790688420215	smiling	036	sub-13	2.0	2.0	036_smiling	0.0		91.0256369080198	
11.0	67.20032503823768	pulse	1.0	t		21.0	male	east_asian/white	3.501790688420215	smiling	036	sub-13	2.0	2.0	036_smiling	0.0		91.72562673548191	
11.0	67.90029765992404	pulse	1.0	t		21.0	male	east_asian/white	3.501790688420215	smiling	036	sub-13	2.0	2.0	036_smiling	0.0		92.42559935716827	
11.0	68.60029261893351	pulse	1.0	t		21.0	male	east_asian/white	3.501790688420215	smiling	036	sub-13	2.0	2.0	036_smiling	0.0		93.12559431617774	
11.0	69.30029452062445	pulse	1.0	t		21.0	male	east_asian/white	3.501790688420215	smiling	036	sub-13	2.0	2.0	036_smiling	0.0		93.82559621786868	
12.0	70.0168027985651	face	0.0		146	26.0	male	white	2.7966573816155993	smiling	117	sub-13	2.0	2.0	117_smiling	1.0	trustworthiness	94.54210449580933	1.2333383944474008
12.0	70.00294701737903	pulse	0.0	t		26.0	male	white	2.7966573816155993	smiling	117	sub-13	2.0	2.0	117_smiling	1.0	trustworthiness	94.52824871462326	
12.0	70.70026572358893	pulse	0.0	t		26.0	male	white	2.7966573816155993	smiling	117	sub-13	2.0	2.0	117_smiling	1.0	trustworthiness	95.22556742083316	
12.0	71.2501411930125	fix	1.0		177	26.0	male	white	2.7966573816155993	smiling	117	sub-13	2.0	2.0	117_smiling	1.0	trustworthiness	95.77544289025673	1.4999753987590339
12.0	71.4002489102254	pulse	1.0	t		26.0	male	white	2.7966573816155993	smiling	117	sub-13	2.0	2.0	117_smiling	1.0	trustworthiness	95.92555060746963	
12.0	72.10023028572778	pulse	1.0	t		26.0	male	white	2.7966573816155993	smiling	117	sub-13	2.0	2.0	117_smiling	1.0	trustworthiness	96.625531982972	
12.0	72.75011659177153	rating	2.0		294	26.0	male	white	2.7966573816155993	smiling	117	sub-13	2.0	2.0	117_smiling	1.0	trustworthiness	97.27541828901576	2.4999491373114324
12.0	72.80022403731436	pulse	2.0	t		26.0	male	white	2.7966573816155993	smiling	117	sub-13	2.0	2.0	117_smiling	1.0	trustworthiness	97.3255257345586	
12.0	73.50021839261262	pulse	2.0	t		26.0	male	white	2.7966573816155993	smiling	117	sub-13	2.0	2.0	117_smiling	1.0	trustworthiness	98.02552008985685	
12.0	73.77519808526904	response	2.0	g		26.0	male	white	2.7966573816155993	smiling	117	sub-13	2.0	2.0	117_smiling	1.0	trustworthiness	98.30049978251327	
12.0	74.20018648646283	pulse	2.0	t		26.0	male	white	2.7966573816155993	smiling	117	sub-13	2.0	2.0	117_smiling	1.0	trustworthiness	98.72548818370706	
12.0	74.90018748258672	pulse	2.0	t		26.0	male	white	2.7966573816155993	smiling	117	sub-13	2.0	2.0	117_smiling	1.0	trustworthiness	99.42548917983095	
12.0	75.25006572908296	fix	3.0		444	26.0	male	white	2.7966573816155993	smiling	117	sub-13	2.0	2.0	117_smiling	1.0	trustworthiness	99.7753674263272	3.7666051585329114
12.0	75.60017881932754	pulse	3.0	t		26.0	male	white	2.7966573816155993	smiling	117	sub-13	2.0	2.0	117_smiling	1.0	trustworthiness	100.12548051657177	
12.0	76.30016743936721	pulse	3.0	t		26.0	male	white	2.7966573816155993	smiling	117	sub-13	2.0	2.0	117_smiling	1.0	trustworthiness	100.82546913661145	
12.0	77.0001421740435	pulse	3.0	t		26.0	male	white	2.7966573816155993	smiling	117	sub-13	2.0	2.0	117_smiling	1.0	trustworthiness	101.52544387128773	
12.0	77.70014075532163	pulse	3.0	t		26.0	male	white	2.7966573816155993	smiling	117	sub-13	2.0	2.0	117_smiling	1.0	trustworthiness	102.22544245256586	
12.0	78.4001239419581	pulse	3.0	t		26.0	male	white	2.7966573816155993	smiling	117	sub-13	2.0	2.0	117_smiling	1.0	trustworthiness	102.92542563920233	
13.0	79.01667088761587	face	0.0		145	24.0	male	white	3.1153999204138483	smiling	012	sub-13	2.0	2.0	012_smiling	0.0		103.5419725848601	1.2333133404231376
13.0	79.10011558055476	pulse	0.0	t		24.0	male	white	3.1153999204138483	smiling	012	sub-13	2.0	2.0	012_smiling	0.0		103.62541727779899	
13.0	79.80010178574821	pulse	0.0	t		24.0	male	white	3.1153999204138483	smiling	012	sub-13	2.0	2.0	012_smiling	0.0		104.32540348299244	
13.0	80.24998422803901	fix	1.0		444	24.0	male	white	3.1153999204138483	smiling	012	sub-13	2.0	2.0	012_smiling	0.0		104.77528592528324	3.7665924805928626
13.0	80.50008950022084	pulse	1.0	t		24.0	male	white	3.1153999204138483	smiling	012	sub-13	2.0	2.0	012_smiling	0.0		105.02539119746507	
13.0	81.20007691283718	pulse	1.0	t		24.0	male	white	3.1153999204138483	smiling	012	sub-13	2.0	2.0	012_smiling	0.0		105.7253786100814	
13.0	81.90005949576243	pulse	1.0	t		24.0	male	white	3.1153999204138483	smiling	012	sub-13	2.0	2.0	012_smiling	0.0		106.42536119300667	
13.0	82.60005143621447	pulse	1.0	t		24.0	male	white	3.1153999204138483	smiling	012	sub-13	2.0	2.0	012_smiling	0.0		107.1253531334587	
13.0	83.30003613212966	pulse	1.0	t		24.0	male	white	3.1153999204138483	smiling	012	sub-13	2.0	2.0	012_smiling	0.0		107.8253378293739	
14.0	84.01657670863187	face	0.0		146	32.0	male	white	2.389176283326701	smiling	092	sub-13	2.0	2.0	092_smiling	0.0		108.5418784058761	1.233321792382867
14.0	84.00278190230074	pulse	0.0	t		32.0	male	white	2.389176283326701	smiling	092	sub-13	2.0	2.0	092_smiling	0.0		108.52808359954497	
14.0	84.70001608891016	pulse	0.0	t		32.0	male	white	2.389176283326701	smiling	092	sub-13	2.0	2.0	092_smiling	0.0		109.22531778615439	
14.0	85.24989850101474	fix	1.0		443	32.0	male	white	2.389176283326701	smiling	092	sub-13	2.0	2.0	092_smiling	0.0		109.77520019825897	3.7665973102843964
14.0	85.40000410523817	pulse	1.0	t		32.0	male	white	2.389176283326701	smiling	092	sub-13	2.0	2.0	092_smiling	0.0		109.9253058024824	
14.0	86.09998034919272	pulse	1.0	t		32.0	male	white	2.389176283326701	smiling	092	sub-13	2.0	2.0	092_smiling	0.0		110.62528204643695	
14.0	86.7999707803665	pulse	1.0	t		32.0	male	white	2.389176283326701	smiling	092	sub-13	2.0	2.0	092_smiling	0.0		111.32527247761072	
14.0	87.49996392824187	pulse	1.0	t		32.0	male	white	2.389176283326701	smiling	092	sub-13	2.0	2.0	092_smiling	0.0		112.0252656254861	
14.0	88.19995013343532	pulse	1.0	t		32.0	male	white	2.389176283326701	smiling	092	sub-13	2.0	2.0	092_smiling	0.0		112.72525183067955	
14.0	88.89992547182328	pulse	1.0	t		32.0	male	white	2.389176283326701	smiling	092	sub-13	2.0	2.0	092_smiling	0.0		113.42522716906751	
15.0	89.01649581129914	face	0.0		146	22.0	female	west_asian	3.8205332272184642	smiling	066	sub-13	2.0	2.0	066_smiling	0.0		113.54179750854337	1.233310623721536
15.0	89.5999240531014	pulse	0.0	t		22.0	female	west_asian	3.8205332272184642	smiling	066	sub-13	2.0	2.0	066_smiling	0.0		114.12522575034563	
15.0	90.24980643502067	fix	1.0		443	22.0	female	west_asian	3.8205332272184642	smiling	066	sub-13	2.0	2.0	066_smiling	0.0		114.7751081322649	3.758393777425681
15.0	90.29994195314566	pulse	1.0	t		22.0	female	west_asian	3.8205332272184642	smiling	066	sub-13	2.0	2.0	066_smiling	0.0		114.8252436503899	
15.0	90.99988348369288	pulse	1.0	t		22.0	female	west_asian	3.8205332272184642	smiling	066	sub-13	2.0	2.0	066_smiling	0.0		115.52518518093711	
15.0	91.69990379858291	pulse	1.0	t		22.0	female	west_asian	3.8205332272184642	smiling	066	sub-13	2.0	2.0	066_smiling	0.0		116.22520549582714	
15.0	92.39987702398048	pulse	1.0	t		22.0	female	west_asian	3.8205332272184642	smiling	066	sub-13	2.0	2.0	066_smiling	0.0		116.92517872122471	
15.0	93.0998620217515	pulse	1.0	t		22.0	female	west_asian	3.8205332272184642	smiling	066	sub-13	2.0	2.0	066_smiling	0.0		117.62516371899574	
15.0	93.79984732137791	pulse	1.0	t		22.0	female	west_asian	3.8205332272184642	smiling	066	sub-13	2.0	2.0	066_smiling	0.0		118.32514901862214	
16.0	94.00820021244635	face	0.0		146	20.0	male	black	2.609629924393156	neutral	043	sub-13	2.0	2.0	043_neutral	0.0		118.53350190969059	1.241516873281853
16.0	94.49984137482033	pulse	0.0	t		20.0	male	black	2.609629924393156	neutral	043	sub-13	2.0	2.0	043_neutral	0.0		119.02514307206457	
16.0	95.19983029671539	pulse	0.0	t		20.0	male	black	2.609629924393156	neutral	043	sub-13	2.0	2.0	043_neutral	0.0		119.72513199395962	
16.0	95.24971708572821	fix	1.0		445	20.0	male	black	2.609629924393156	neutral	043	sub-13	2.0	2.0	043_neutral	0.0		119.77501878297244	3.766599121418494
16.0	95.89981740747635	pulse	1.0	t		20.0	male	black	2.609629924393156	neutral	043	sub-13	2.0	2.0	043_neutral	0.0		120.42511910472058	
16.0	96.59980210339108	pulse	1.0	t		20.0	male	black	2.609629924393156	neutral	043	sub-13	2.0	2.0	043_neutral	0.0		121.12510380063532	
16.0	97.29979042157493	pulse	1.0	t		20.0	male	black	2.609629924393156	neutral	043	sub-13	2.0	2.0	043_neutral	0.0		121.82509211881916	
16.0	97.99977149522147	pulse	1.0	t		20.0	male	black	2.609629924393156	neutral	043	sub-13	2.0	2.0	043_neutral	0.0		122.5250731924657	
16.0	98.69976373752934	pulse	1.0	t		20.0	male	black	2.609629924393156	neutral	043	sub-13	2.0	2.0	043_neutral	0.0		123.22506543477357	
17.0	99.0163162071467	face	0.0		145	27.0	male	black	3.5523278949462798	neutral	042	sub-13	2.0	2.0	042_neutral	0.0		123.54161790439093	1.2333148497018556
17.0	99.39975416870311	pulse	0.0	t		27.0	male	black	3.5523278949462798	neutral	042	sub-13	2.0	2.0	042_neutral	0.0		123.92505586594734	
17.0	100.09973977018535	pulse	0.0	t		27.0	male	black	3.5523278949462798	neutral	042	sub-13	2.0	2.0	042_neutral	0.0		124.62504146742958	
17.0	100.24963105684856	fix	1.0		444	27.0	male	black	3.5523278949462798	neutral	042	sub-13	2.0	2.0	042_neutral	0.0		124.77493275409279	3.766600630697212
17.0	100.79972989950329	pulse	1.0	t		27.0	male	black	3.5523278949462798	neutral	042	sub-13	2.0	2.0	042_neutral	0.0		125.32503159674752	
17.0	101.49971399170681	pulse	1.0	t		27.0	male	black	3.5523278949462798	neutral	042	sub-13	2.0	2.0	042_neutral	0.0		126.02501568895104	
17.0	102.19970442288059	pulse	1.0	t		27.0	male	black	3.5523278949462798	neutral	042	sub-13	2.0	2.0	042_neutral	0.0		126.72500612012482	
17.0	102.89968096869143	pulse	1.0	t		27.0	male	black	3.5523278949462798	neutral	042	sub-13	2.0	2.0	042_neutral	0.0		127.42498266593566	
17.0	103.59967985182539	pulse	1.0	t		27.0	male	black	3.5523278949462798	neutral	042	sub-13	2.0	2.0	042_neutral	0.0		128.12498154906962	
18.0	104.01623168754577	face	0.0		145	20.0	female	white	3.9502586549940313	neutral	091	sub-13	2.0	2.0	091_neutral	0.0		128.54153338479	1.2333070014528857
18.0	104.29967118856621	pulse	0.0	t		20.0	female	white	3.9502586549940313	neutral	091	sub-13	2.0	2.0	091_neutral	0.0		128.82497288581044	
18.0	104.9996549789139	pulse	0.0	t		20.0	female	white	3.9502586549940313	neutral	091	sub-13	2.0	2.0	091_neutral	0.0		129.52495667615813	
18.0	105.24953868899865	fix	1.0		444	20.0	female	white	3.9502586549940313	neutral	091	sub-13	2.0	2.0	091_neutral	0.0		129.7748403862429	3.7666018381200956
18.0	105.69966231400804	pulse	1.0	t		20.0	female	white	3.9502586549940313	neutral	091	sub-13	2.0	2.0	091_neutral	0.0		130.22496401125227	
18.0	106.399625880023	pulse	1.0	t		20.0	female	white	3.9502586549940313	neutral	091	sub-13	2.0	2.0	091_neutral	0.0		130.92492757726723	
18.0	107.09961087779357	pulse	1.0	t		20.0	female	white	3.9502586549940313	neutral	091	sub-13	2.0	2.0	091_neutral	0.0		131.6249125750378	
18.0	107.79959979968862	pulse	1.0	t		20.0	female	white	3.9502586549940313	neutral	091	sub-13	2.0	2.0	091_neutral	0.0		132.32490149693285	
18.0	108.49958721230541	pulse	1.0	t		20.0	female	white	3.9502586549940313	neutral	091	sub-13	2.0	2.0	091_neutral	0.0		133.02488890954965	
19.0	109.01614052711875	face	0.0		145	28.0	male	east_asian	1.5563072025467568	neutral	005	sub-13	2.0	2.0	005_neutral	0.0		133.54144222436298	1.2333145478455663
19.0	109.19958579358354	pulse	0.0	t		28.0	male	east_asian	1.5563072025467568	neutral	005	sub-13	2.0	2.0	005_neutral	0.0		133.72488749082777	
19.0	109.89956958393122	pulse	0.0	t		28.0	male	east_asian	1.5563072025467568	neutral	005	sub-13	2.0	2.0	005_neutral	0.0		134.42487128117546	
19.0	110.24945507496432	fix	1.0		444	28.0	male	east_asian	1.5563072025467568	neutral	005	sub-13	2.0	2.0	005_neutral	0.0		134.77475677220855	3.7665979139960655
19.0	110.59956152438372	pulse	1.0	t		28.0	male	east_asian	1.5563072025467568	neutral	005	sub-13	2.0	2.0	005_neutral	0.0		135.12486322162795	
19.0	111.2995407868957	pulse	1.0	t		28.0	male	east_asian	1.5563072025467568	neutral	005	sub-13	2.0	2.0	005_neutral	0.0		135.82484248413994	
19.0	111.999527293945	pulse	1.0	t		28.0	male	east_asian	1.5563072025467568	neutral	005	sub-13	2.0	2.0	005_neutral	0.0		136.52482899118922	
19.0	112.69952195109909	pulse	1.0	t		28.0	male	east_asian	1.5563072025467568	neutral	005	sub-13	2.0	2.0	005_neutral	0.0		137.22482364834332	
19.0	113.39950302474563	pulse	1.0	t		28.0	male	east_asian	1.5563072025467568	neutral	005	sub-13	2.0	2.0	005_neutral	0.0		137.92480472198986	
20.0	114.01605298896038	face	0.0		145	21.0	male	black	2.969757262236371	smiling	137	sub-13	2.0	2.0	137_smiling	1.0	dominance	138.5413546862046	1.233312133000254
20.0	114.09949888932215	pulse	0.0	t		21.0	male	black	2.969757262236371	smiling	137	sub-13	2.0	2.0	137_smiling	1.0	dominance	138.62480058656638	
20.0	114.79947905740119	pulse	0.0	t		21.0	male	black	2.969757262236371	smiling	137	sub-13	2.0	2.0	137_smiling	1.0	dominance	139.32478075464542	
20.0	115.24936512196064	fix	1.0		177	21.0	male	black	2.969757262236371	smiling	137	sub-13	2.0	2.0	137_smiling	1.0	dominance	139.77466681920487	1.4999741913356957
20.0	115.49947099785368	pulse	1.0	t		21.0	male	black	2.969757262236371	smiling	137	sub-13	2.0	2.0	137_smiling	1.0	dominance	140.0247726950979	
20.0	116.19945297706727	pulse	1.0	t		21.0	male	black	2.969757262236371	smiling	137	sub-13	2.0	2.0	137_smiling	1.0	dominance	140.7247546743115	
20.0	116.74933931329633	rating	2.0		294	21.0	male	black	2.969757262236371	smiling	137	sub-13	2.0	2.0	137_smiling	1.0	dominance	141.27464101054056	2.4999539670029662
20.0	116.8994503509225	pulse	2.0	t		21.0	male	black	2.969757262236371	smiling	137	sub-13	2.0	2.0	137_smiling	1.0	dominance	141.42475204816674	
20.0	117.59943595240475	pulse	2.0	t		21.0	male	black	2.969757262236371	smiling	137	sub-13	2.0	2.0	137_smiling	1.0	dominance	142.12473764964898	
20.0	118.29942185574282	pulse	2.0	t		21.0	male	black	2.969757262236371	smiling	137	sub-13	2.0	2.0	137_smiling	1.0	dominance	142.82472355298705	
20.0	118.64940575174023	response	2.0	n		21.0	male	black	2.969757262236371	smiling	137	sub-13	2.0	2.0	137_smiling	1.0	dominance	143.17470744898446	
20.0	118.99938330876739	pulse	2.0	t		21.0	male	black	2.969757262236371	smiling	137	sub-13	2.0	2.0	137_smiling	1.0	dominance	143.52468500601162	
20.0	119.2492932802993	fix	3.0		1185	21.0	male	black	2.969757262236371	smiling	137	sub-13	2.0	2.0	137_smiling	1.0	dominance	143.77459497754353	10.016487359339408
20.0	119.69939969953293	pulse	3.0	t		21.0	male	black	2.969757262236371	smiling	137	sub-13	2.0	2.0	137_smiling	1.0	dominance	144.22470139677716	
20.0	120.3993828861694	pulse	3.0	t		21.0	male	black	2.969757262236371	smiling	137	sub-13	2.0	2.0	137_smiling	1.0	dominance	144.92468458341364	
20.0	121.09936818579581	pulse	3.0	t		21.0	male	black	2.969757262236371	smiling	137	sub-13	2.0	2.0	137_smiling	1.0	dominance	145.62466988304004	
20.0	121.79935257985517	pulse	3.0	t		21.0	male	black	2.969757262236371	smiling	137	sub-13	2.0	2.0	137_smiling	1.0	dominance	146.3246542770994	
20.0	122.49934391659644	pulse	3.0	t		21.0	male	black	2.969757262236371	smiling	137	sub-13	2.0	2.0	137_smiling	1.0	dominance	147.02464561384068	
20.0	123.19933676261553	pulse	3.0	t		21.0	male	black	2.969757262236371	smiling	137	sub-13	2.0	2.0	137_smiling	1.0	dominance	147.72463845985976	
20.0	123.89930847873484	pulse	3.0	t		21.0	male	black	2.969757262236371	smiling	137	sub-13	2.0	2.0	137_smiling	1.0	dominance	148.42461017597907	
20.0	124.59929589135163	pulse	3.0	t		21.0	male	black	2.969757262236371	smiling	137	sub-13	2.0	2.0	137_smiling	1.0	dominance	149.12459758859586	
20.0	125.29928873737072	pulse	3.0	t		21.0	male	black	2.969757262236371	smiling	137	sub-13	2.0	2.0	137_smiling	1.0	dominance	149.82459043461495	
20.0	125.99928399823602	pulse	3.0	t		21.0	male	black	2.969757262236371	smiling	137	sub-13	2.0	2.0	137_smiling	1.0	dominance	150.52458569548025	
20.0	126.69926658116128	pulse	3.0	t		21.0	male	black	2.969757262236371	smiling	137	sub-13	2.0	2.0	137_smiling	1.0	dominance	151.2245682784055	
20.0	127.39926033274787	pulse	3.0	t		21.0	male	black	2.969757262236371	smiling	137	sub-13	2.0	2.0	137_smiling	1.0	dominance	151.9245620299921	
20.0	128.0992380859816	pulse	3.0	t		21.0	male	black	2.969757262236371	smiling	137	sub-13	2.0	2.0	137_smiling	1.0	dominance	152.62453978322583	
20.0	128.79924300622952	pulse	3.0	t		21.0	male	black	2.969757262236371	smiling	137	sub-13	2.0	2.0	137_smiling	1.0	dominance	153.32454470347375	
21.0	129.2657806396387	face	0.0		146	31.0	male	west_asian	1.9538400318344609	neutral	070	sub-13	2.0	2.0	070_neutral	0.0		153.79108233688294	1.2416358044347362
21.0	129.499226192866	pulse	0.0	t		31.0	male	west_asian	1.9538400318344609	neutral	070	sub-13	2.0	2.0	070_neutral	0.0		154.02452789011022	
21.0	130.1992123980599	pulse	0.0	t		31.0	male	west_asian	1.9538400318344609	neutral	070	sub-13	2.0	2.0	070_neutral	0.0		154.72451409530413	
21.0	130.50741644407344	fix	1.0		444	31.0	male	west_asian	1.9538400318344609	neutral	070	sub-13	2.0	2.0	070_neutral	0.0		155.03271814131767	3.758258244207809
21.0	130.8991995088204	pulse	1.0	t		31.0	male	west_asian	1.9538400318344609	neutral	070	sub-13	2.0	2.0	070_neutral	0.0		155.42450120606463	
21.0	131.5991811861786	pulse	1.0	t		31.0	male	west_asian	1.9538400318344609	neutral	070	sub-13	2.0	2.0	070_neutral	0.0		156.12448288342284	
21.0	132.29916890065078	pulse	1.0	t		31.0	male	west_asian	1.9538400318344609	neutral	070	sub-13	2.0	2.0	070_neutral	0.0		156.82447059789502	
21.0	132.99915087986437	pulse	1.0	t		31.0	male	west_asian	1.9538400318344609	neutral	070	sub-13	2.0	2.0	070_neutral	0.0		157.5244525771086	
21.0	133.69914161289398	pulse	1.0	t		31.0	male	west_asian	1.9538400318344609	neutral	070	sub-13	2.0	2.0	070_neutral	0.0		158.2244433101382	
22.0	134.26567468828125	face	0.0		146	27.0	female	white	4.181058495821727	neutral	039	sub-13	2.0	2.0	039_neutral	0.0		158.79097638552548	1.2416641788727247
22.0	134.39914230716204	pulse	0.0	t		27.0	female	white	4.181058495821727	neutral	039	sub-13	2.0	2.0	039_neutral	0.0		158.92444400440627	
22.0	135.09912489008684	pulse	0.0	t		27.0	female	white	4.181058495821727	neutral	039	sub-13	2.0	2.0	039_neutral	0.0		159.62442658733107	
22.0	135.50733886715398	fix	1.0		444	27.0	female	white	4.181058495821727	neutral	039	sub-13	2.0	2.0	039_neutral	0.0		160.0326405643982	3.766603045542979
22.0	135.79911290641485	pulse	1.0	t		27.0	female	white	4.181058495821727	neutral	039	sub-13	2.0	2.0	039_neutral	0.0		160.32441460365908	
22.0	136.4990927726385	pulse	1.0	t		27.0	female	white	4.181058495821727	neutral	039	sub-13	2.0	2.0	039_neutral	0.0		161.02439446988274	
22.0	137.1990865242251	pulse	1.0	t		27.0	female	white	4.181058495821727	neutral	039	sub-13	2.0	2.0	039_neutral	0.0		161.72438822146933	
22.0	137.89906035333433	pulse	1.0	t		27.0	female	white	4.181058495821727	neutral	039	sub-13	2.0	2.0	039_neutral	0.0		162.42436205057857	
22.0	138.59905772718957	pulse	1.0	t		27.0	female	white	4.181058495821727	neutral	039	sub-13	2.0	2.0	039_neutral	0.0		163.1243594244338	
23.0	139.27394191269696	face	0.0		145	40.0	female	west_asian	1.5777954635893354	smiling	038	sub-13	2.0	2.0	038_smiling	0.0		163.7992436099412	1.233310925576916
23.0	139.2990653641391	pulse	0.0	t		40.0	female	west_asian	1.5777954635893354	smiling	038	sub-13	2.0	2.0	038_smiling	0.0		163.82436706138333	
23.0	139.99903768397007	pulse	0.0	t		40.0	female	west_asian	1.5777954635893354	smiling	038	sub-13	2.0	2.0	038_smiling	0.0		164.5243393812143	
23.0	140.50725283827387	fix	1.0		443	40.0	female	west_asian	1.5777954635893354	smiling	038	sub-13	2.0	2.0	038_smiling	0.0		165.0325545355181	3.7665973102843964
23.0	140.69902479473058	pulse	1.0	t		40.0	female	west_asian	1.5777954635893354	smiling	038	sub-13	2.0	2.0	038_smiling	0.0		165.2243264919748	
23.0	141.39900888693455	pulse	1.0	t		40.0	female	west_asian	1.5777954635893354	smiling	038	sub-13	2.0	2.0	038_smiling	0.0		165.92431058417878	
23.0	142.09897818820764	pulse	1.0	t		40.0	female	west_asian	1.5777954635893354	smiling	038	sub-13	2.0	2.0	038_smiling	0.0		166.62427988545187	
23.0	142.79898341031185	pulse	1.0	t		40.0	female	west_asian	1.5777954635893354	smiling	038	sub-13	2.0	2.0	038_smiling	0.0		167.32428510755608	
23.0	143.49897293591812	pulse	1.0	t		40.0	female	west_asian	1.5777954635893354	smiling	038	sub-13	2.0	2.0	038_smiling	0.0		168.02427463316235	
23.0	144.198962159669	pulse	1.0	t		40.0	female	west_asian	1.5777954635893354	smiling	038	sub-13	2.0	2.0	038_smiling	0.0		168.72426385691324	
24.0	144.27385014855827	face	0.0		146	22.0	male	black	2.767608436132113	smiling	044	sub-13	2.0	2.0	044_smiling	0.0		168.7991518458025	1.23330368104007
24.0	144.8989640613604	pulse	0.0	t		22.0	male	black	2.767608436132113	smiling	044	sub-13	2.0	2.0	044_smiling	0.0		169.42426575860463	
24.0	145.50715382959834	fix	1.0		443	22.0	male	black	2.767608436132113	smiling	044	sub-13	2.0	2.0	044_smiling	0.0		170.03245552684257	3.7666087808020166
24.0	145.59894573871816	pulse	1.0	t		22.0	male	black	2.767608436132113	smiling	044	sub-13	2.0	2.0	044_smiling	0.0		170.1242474359624	
24.0	146.29892832164296	pulse	1.0	t		22.0	male	black	2.767608436132113	smiling	044	sub-13	2.0	2.0	044_smiling	0.0		170.8242300188872	
24.0	146.99890547116547	pulse	1.0	t		22.0	male	black	2.767608436132113	smiling	044	sub-13	2.0	2.0	044_smiling	0.0		171.5242071684097	
24.0	147.69889710976167	pulse	1.0	t		22.0	male	black	2.767608436132113	smiling	044	sub-13	2.0	2.0	044_smiling	0.0		172.2241988070059	
24.0	148.39888512608968	pulse	1.0	t		22.0	male	black	2.767608436132113	smiling	044	sub-13	2.0	2.0	044_smiling	0.0		172.9241868233339	
24.0	149.0988668034479	pulse	1.0	t		22.0	male	black	2.767608436132113	smiling	044	sub-13	2.0	2.0	044_smiling	0.0		173.62416850069212	
25.0	149.27376261040035	face	0.0		146	47.0	male	east_asian	2.171110226820533	neutral	024	sub-13	2.0	2.0	024_neutral	0.0		173.79906430764458	1.2416466712406873
25.0	149.79886357359146	pulse	0.0	t		47.0	male	east_asian	2.171110226820533	neutral	024	sub-13	2.0	2.0	024_neutral	0.0		174.3241652708357	
25.0	150.49885400476524	pulse	0.0	t		47.0	male	east_asian	2.171110226820533	neutral	024	sub-13	2.0	2.0	024_neutral	0.0		175.02415570200947	
25.0	150.51540928164104	fix	1.0		444	47.0	male	east_asian	2.171110226820533	neutral	024	sub-13	2.0	2.0	024_neutral	0.0		175.04071097888527	3.7582651868892754
25.0	151.1988383988246	pulse	1.0	t		47.0	male	east_asian	2.171110226820533	neutral	024	sub-13	2.0	2.0	024_neutral	0.0		175.72414009606882	
25.0	151.89881886875946	pulse	1.0	t		47.0	male	east_asian	2.171110226820533	neutral	024	sub-13	2.0	2.0	024_neutral	0.0		176.4241205660037	
25.0	152.59881141292362	pulse	1.0	t		47.0	male	east_asian	2.171110226820533	neutral	024	sub-13	2.0	2.0	024_neutral	0.0		177.12411311016785	
25.0	153.29879761811708	pulse	1.0	t		47.0	male	east_asian	2.171110226820533	neutral	024	sub-13	2.0	2.0	024_neutral	0.0		177.8240993153613	
25.0	153.99877899361945	pulse	1.0	t		47.0	male	east_asian	2.171110226820533	neutral	024	sub-13	2.0	2.0	024_neutral	0.0		178.52408069086368	
26.0	154.27367446853032	face	0.0		145	19.0	male	white	3.2522881018702745	smiling	018	sub-13	2.0	2.0	018_smiling	1.0	attractiveness	178.79897616577455	1.23331545341307
26.0	154.69877757489758	pulse	0.0	t		19.0	male	white	3.2522881018702745	smiling	018	sub-13	2.0	2.0	018_smiling	1.0	attractiveness	179.2240792721418	
26.0	155.39876196895693	pulse	0.0	t		19.0	male	white	3.2522881018702745	smiling	018	sub-13	2.0	2.0	018_smiling	1.0	attractiveness	179.92406366620116	
26.0	155.5069899219434	fix	1.0		177	19.0	male	white	3.2522881018702745	smiling	018	sub-13	2.0	2.0	018_smiling	1.0	attractiveness	180.03229161918762	1.4999735876244813
26.0	156.09875330569776	pulse	1.0	t		19.0	male	white	3.2522881018702745	smiling	018	sub-13	2.0	2.0	018_smiling	1.0	attractiveness	180.624055002942	
26.0	156.7987334737768	pulse	1.0	t		19.0	male	white	3.2522881018702745	smiling	018	sub-13	2.0	2.0	018_smiling	1.0	attractiveness	181.32403517102102	
26.0	157.00696350956787	rating	2.0		295	19.0	male	white	3.2522881018702745	smiling	018	sub-13	2.0	2.0	018_smiling	1.0	attractiveness	181.5322652068121	2.4999500428784813
26.0	157.49873205505492	pulse	2.0	t		19.0	male	white	3.2522881018702745	smiling	018	sub-13	2.0	2.0	018_smiling	1.0	attractiveness	182.02403375229915	
26.0	158.19871856210466	pulse	2.0	t		19.0	male	white	3.2522881018702745	smiling	018	sub-13	2.0	2.0	018_smiling	1.0	attractiveness	182.7240202593489	
26.0	158.3600809697782	response	2.0	d		19.0	male	white	3.2522881018702745	smiling	018	sub-13	2.0	2.0	018_smiling	1.0	attractiveness	182.88538266702244	
26.0	158.89868393925371	pulse	2.0	t		19.0	male	white	3.2522881018702745	smiling	018	sub-13	2.0	2.0	018_smiling	1.0	attractiveness	183.42398563649795	
26.0	159.50691355244635	fix	3.0		443	19.0	male	white	3.2522881018702745	smiling	018	sub-13	2.0	2.0	018_smiling	1.0	attractiveness	184.03221524969058	3.7665843304889677
26.0	159.5986861428005	pulse	3.0	t		19.0	male	white	3.2522881018702745	smiling	018	sub-13	2.0	2.0	018_smiling	1.0	attractiveness	184.12398784004472	
26.0	160.29867838510836	pulse	3.0	t		19.0	male	white	3.2522881018702745	smiling	018	sub-13	2.0	2.0	018_smiling	1.0	attractiveness	184.8239800823526	
26.0	160.99866187360067	pulse	3.0	t		19.0	male	white	3.2522881018702745	smiling	018	sub-13	2.0	2.0	018_smiling	1.0	attractiveness	185.5239635708449	
26.0	161.69864807879412	pulse	3.0	t		19.0	male	white	3.2522881018702745	smiling	018	sub-13	2.0	2.0	018_smiling	1.0	attractiveness	186.22394977603835	
26.0	162.39864092481366	pulse	3.0	t		19.0	male	white	3.2522881018702745	smiling	018	sub-13	2.0	2.0	018_smiling	1.0	attractiveness	186.9239426220579	
26.0	163.0986232058831	pulse	3.0	t		19.0	male	white	3.2522881018702745	smiling	018	sub-13	2.0	2.0	018_smiling	1.0	attractiveness	187.62392490312732	
27.0	163.27349788293532	face	0.0		146	24.0	female	black	3.0955033824114606	neutral	099	sub-13	2.0	2.0	099_neutral	0.0		187.79879958017955	1.241662669593552
27.0	163.79862118344954	pulse	0.0	t		24.0	female	black	3.0955033824114606	neutral	099	sub-13	2.0	2.0	099_neutral	0.0		188.32392288069377	
27.0	164.49860346451896	pulse	0.0	t		24.0	female	black	3.0955033824114606	neutral	099	sub-13	2.0	2.0	099_neutral	0.0		189.0239051617632	
27.0	164.51516055252887	fix	1.0		443	24.0	female	black	3.0955033824114606	neutral	099	sub-13	2.0	2.0	099_neutral	0.0		189.0404622497731	3.7582688091583805
27.0	165.19859449940395	pulse	1.0	t		24.0	female	black	3.0955033824114606	neutral	099	sub-13	2.0	2.0	099_neutral	0.0		189.72389619664818	
27.0	165.898576478618	pulse	1.0	t		24.0	female	black	3.0955033824114606	neutral	099	sub-13	2.0	2.0	099_neutral	0.0		190.42387817586223	
27.0	166.59856087267735	pulse	1.0	t		24.0	female	black	3.0955033824114606	neutral	099	sub-13	2.0	2.0	099_neutral	0.0		191.12386256992158	
27.0	167.2985573409651	pulse	1.0	t		24.0	female	black	3.0955033824114606	neutral	099	sub-13	2.0	2.0	099_neutral	0.0		191.82385903820932	
27.0	167.99853026450728	pulse	1.0	t		24.0	female	black	3.0955033824114606	neutral	099	sub-13	2.0	2.0	099_neutral	0.0		192.5238319617515	
28.0	168.27342936168725	face	0.0		145	21.0	male	black	2.969757262236371	neutral	137	sub-13	2.0	2.0	137_neutral	0.0		192.79873105893148	1.2333097181540325
28.0	168.69853246805405	pulse	0.0	t		21.0	male	black	2.969757262236371	neutral	137	sub-13	2.0	2.0	137_neutral	0.0		193.22383416529829	
28.0	169.39851384355643	pulse	0.0	t		21.0	male	black	2.969757262236371	neutral	137	sub-13	2.0	2.0	137_neutral	0.0		193.92381554080066	
28.0	169.50673907984128	fix	1.0		444	21.0	male	black	2.969757262236371	neutral	137	sub-13	2.0	2.0	137_neutral	0.0		194.0320407770855	3.766599121418949
28.0	170.09850850071007	pulse	1.0	t		21.0	male	black	2.969757262236371	neutral	137	sub-13	2.0	2.0	137_neutral	0.0		194.6238101979543	
28.0	170.7984895743566	pulse	1.0	t		21.0	male	black	2.969757262236371	neutral	137	sub-13	2.0	2.0	137_neutral	0.0		195.32379127160084	
28.0	171.49847396841596	pulse	1.0	t		21.0	male	black	2.969757262236371	neutral	137	sub-13	2.0	2.0	137_neutral	0.0		196.0237756656602	
28.0	172.1984595698982	pulse	1.0	t		21.0	male	black	2.969757262236371	neutral	137	sub-13	2.0	2.0	137_neutral	0.0		196.72376126714244	
28.0	172.89844426581294	pulse	1.0	t		21.0	male	black	2.969757262236371	neutral	137	sub-13	2.0	2.0	137_neutral	0.0		197.42374596305717	
29.0	173.27333820126023	face	0.0		145	19.0	female	white	4.298846000795861	smiling	100	sub-13	2.0	2.0	100_smiling	0.0		197.79863989850446	1.233302171761352
29.0	173.5984431489469	pulse	0.0	t		19.0	female	white	4.298846000795861	smiling	100	sub-13	2.0	2.0	100_smiling	0.0		198.12374484619113	
29.0	174.29842603372754	pulse	0.0	t		19.0	female	white	4.298846000795861	smiling	100	sub-13	2.0	2.0	100_smiling	0.0		198.82372773097177	
29.0	174.50664037302158	fix	1.0		444	19.0	female	white	4.298846000795861	smiling	100	sub-13	2.0	2.0	100_smiling	0.0		199.0319420702658	3.7582618664764595
29.0	174.9984231057274	pulse	1.0	t		19.0	female	white	4.298846000795861	smiling	100	sub-13	2.0	2.0	100_smiling	0.0		199.52372480297163	
29.0	175.69841172576662	pulse	1.0	t		19.0	female	white	4.298846000795861	smiling	100	sub-13	2.0	2.0	100_smiling	0.0		200.22371342301085	
29.0	176.39838374374176	pulse	1.0	t		19.0	female	white	4.298846000795861	smiling	100	sub-13	2.0	2.0	100_smiling	0.0		200.923685440986	
29.0	177.09837326934803	pulse	1.0	t		19.0	female	white	4.298846000795861	smiling	100	sub-13	2.0	2.0	100_smiling	0.0		201.62367496659226	
29.0	177.79836581351174	pulse	1.0	t		19.0	female	white	4.298846000795861	smiling	100	sub-13	2.0	2.0	100_smiling	0.0		202.32366751075597	
30.0	178.26490223949804	face	0.0		146	31.0	female	west_asian	2.364902506963788	neutral	006	sub-13	2.0	2.0	006_neutral	0.0		202.79020393674227	1.2416569343349693
30.0	178.4983589613871	pulse	0.0	t		31.0	female	west_asian	2.364902506963788	neutral	006	sub-13	2.0	2.0	006_neutral	0.0		203.02366065863134	
30.0	179.19834244987942	pulse	0.0	t		31.0	female	west_asian	2.364902506963788	neutral	006	sub-13	2.0	2.0	006_neutral	0.0		203.72364414712365	
30.0	179.506559173833	fix	1.0		444	31.0	female	west_asian	2.364902506963788	neutral	006	sub-13	2.0	2.0	006_neutral	0.0		204.03186087107724	3.766603649254648
30.0	179.89833861631178	pulse	1.0	t		31.0	female	west_asian	2.364902506963788	neutral	006	sub-13	2.0	2.0	006_neutral	0.0		204.423640313556	
30.0	180.5983187843908	pulse	1.0	t		31.0	female	west_asian	2.364902506963788	neutral	006	sub-13	2.0	2.0	006_neutral	0.0		205.12362048163504	
30.0	181.29830559329594	pulse	1.0	t		31.0	female	west_asian	2.364902506963788	neutral	006	sub-13	2.0	2.0	006_neutral	0.0		205.82360729054017	
30.0	181.9982887799324	pulse	1.0	t		31.0	female	west_asian	2.364902506963788	neutral	006	sub-13	2.0	2.0	006_neutral	0.0		206.52359047717664	
30.0	182.69828313523067	pulse	1.0	t		31.0	female	west_asian	2.364902506963788	neutral	006	sub-13	2.0	2.0	006_neutral	0.0		207.2235848324749	
31.0	183.27316282308766	face	0.0		145	26.0	female	white	4.854755272582572	smiling	027	sub-13	2.0	2.0	027_smiling	0.0		207.7984645203319	1.233311529288585
31.0	183.39827235898156	pulse	0.0	t		26.0	female	white	4.854755272582572	smiling	027	sub-13	2.0	2.0	027_smiling	0.0		207.9235740562258	
31.0	184.0982552437622	pulse	0.0	t		26.0	female	white	4.854755272582572	smiling	027	sub-13	2.0	2.0	027_smiling	0.0		208.62355694100643	
31.0	184.50647435237624	fix	1.0		444	26.0	female	white	4.854755272582572	smiling	027	sub-13	2.0	2.0	027_smiling	0.0		209.03177604962048	3.766600026985998
31.0	184.79824748607052	pulse	1.0	t		26.0	female	white	4.854755272582572	smiling	027	sub-13	2.0	2.0	027_smiling	0.0		209.32354918331475	
31.0	185.4982358042539	pulse	1.0	t		26.0	female	white	4.854755272582572	smiling	027	sub-13	2.0	2.0	027_smiling	0.0		210.02353750149814	
31.0	186.19821929274622	pulse	1.0	t		26.0	female	white	4.854755272582572	smiling	027	sub-13	2.0	2.0	027_smiling	0.0		210.72352098999045	
31.0	186.89819764969116	pulse	1.0	t		26.0	female	white	4.854755272582572	smiling	027	sub-13	2.0	2.0	027_smiling	0.0		211.4234993469354	
31.0	187.59819683468095	pulse	1.0	t		26.0	female	white	4.854755272582572	smiling	027	sub-13	2.0	2.0	027_smiling	0.0		212.12349853192518	
32.0	188.27307437936224	face	0.0		145	20.0	male	black	3.1070433744528456	smiling	082	sub-13	2.0	2.0	082_smiling	0.0		212.79837607660647	1.233309114442818
32.0	188.29820054750599	pulse	0.0	t		20.0	male	black	3.1070433744528456	smiling	082	sub-13	2.0	2.0	082_smiling	0.0		212.82350224475022	
32.0	188.9981710562024	pulse	0.0	t		20.0	male	black	3.1070433744528456	smiling	082	sub-13	2.0	2.0	082_smiling	0.0		213.52347275344664	
32.0	189.50638349380506	fix	1.0		443	20.0	male	black	3.1070433744528456	smiling	082	sub-13	2.0	2.0	082_smiling	0.0		214.0316851910493	3.766594291727415
32.0	189.69815816696337	pulse	1.0	t		20.0	male	black	3.1070433744528456	smiling	082	sub-13	2.0	2.0	082_smiling	0.0		214.2234598642076	
32.0	190.3981495037042	pulse	1.0	t		20.0	male	black	3.1070433744528456	smiling	082	sub-13	2.0	2.0	082_smiling	0.0		214.92345120094842	
32.0	191.09814868869353	pulse	1.0	t		20.0	male	black	3.1070433744528456	smiling	082	sub-13	2.0	2.0	082_smiling	0.0		215.62345038593776	
32.0	191.79811980110162	pulse	1.0	t		20.0	male	black	3.1070433744528456	smiling	082	sub-13	2.0	2.0	082_smiling	0.0		216.32342149834585	
32.0	192.49810600629507	pulse	1.0	t		20.0	male	black	3.1070433744528456	smiling	082	sub-13	2.0	2.0	082_smiling	0.0		217.0234077035393	
32.0	193.19810126716038	pulse	1.0	t		20.0	male	black	3.1070433744528456	smiling	082	sub-13	2.0	2.0	082_smiling	0.0		217.7234029644046	
33.0	193.27297778553248	face	0.0		146	27.0	female	white	4.181058495821727	smiling	039	sub-13	2.0	2.0	039_smiling	0.0		217.7982794827767	1.2333190756812655
33.0	193.89809622616986	pulse	0.0	t		27.0	female	white	4.181058495821727	smiling	039	sub-13	2.0	2.0	039_smiling	0.0		218.4233979234141	
33.0	194.50629686121374	fix	1.0		443	27.0	female	white	4.181058495821727	smiling	039	sub-13	2.0	2.0	039_smiling	0.0		219.03159855845797	3.766581010075697
33.0	194.598075186826	pulse	1.0	t		27.0	female	white	4.181058495821727	smiling	039	sub-13	2.0	2.0	039_smiling	0.0		219.12337688407024	
33.0	195.29805867531832	pulse	1.0	t		27.0	female	white	4.181058495821727	smiling	039	sub-13	2.0	2.0	039_smiling	0.0		219.82336037256255	
33.0	195.99804488051223	pulse	1.0	t		27.0	female	white	4.181058495821727	smiling	039	sub-13	2.0	2.0	039_smiling	0.0		220.52334657775646	
33.0	196.69803078384984	pulse	1.0	t		27.0	female	white	4.181058495821727	smiling	039	sub-13	2.0	2.0	039_smiling	0.0		221.22333248109408	
33.0	197.39802121502362	pulse	1.0	t		27.0	female	white	4.181058495821727	smiling	039	sub-13	2.0	2.0	039_smiling	0.0		221.92332291226785	
33.0	198.0980071183617	pulse	1.0	t		27.0	female	white	4.181058495821727	smiling	039	sub-13	2.0	2.0	039_smiling	0.0		222.62330881560592	
34.0	198.27287787128944	face	0.0		146	26.0	female	white	4.854755272582572	neutral	027	sub-13	2.0	2.0	027_neutral	0.0		222.79817956853367	1.2416650844397736
34.0	198.79799754953547	pulse	0.0	t		26.0	female	white	4.854755272582572	neutral	027	sub-13	2.0	2.0	027_neutral	0.0		223.3232992467797	
34.0	199.49798466029642	pulse	0.0	t		26.0	female	white	4.854755272582572	neutral	027	sub-13	2.0	2.0	027_neutral	0.0		224.02328635754066	
34.0	199.5145429557292	fix	1.0		443	26.0	female	white	4.854755272582572	neutral	027	sub-13	2.0	2.0	027_neutral	0.0		224.03984465297344	3.758248886680576
34.0	200.1979723747686	pulse	1.0	t		26.0	female	white	4.854755272582572	neutral	027	sub-13	2.0	2.0	027_neutral	0.0		224.72327407201283	
34.0	200.8979531465593	pulse	1.0	t		26.0	female	white	4.854755272582572	neutral	027	sub-13	2.0	2.0	027_neutral	0.0		225.42325484380353	
34.0	201.5979411628873	pulse	1.0	t		26.0	female	white	4.854755272582572	neutral	027	sub-13	2.0	2.0	027_neutral	0.0		226.12324286013154	
34.0	202.29793642375262	pulse	1.0	t		26.0	female	white	4.854755272582572	neutral	027	sub-13	2.0	2.0	027_neutral	0.0		226.82323812099685	
34.0	202.9979184029662	pulse	1.0	t		26.0	female	white	4.854755272582572	neutral	027	sub-13	2.0	2.0	027_neutral	0.0		227.52322010021044	
35.0	203.2727918424098	face	0.0		145	24.0	female	east_asian	2.9076800636689217	neutral	034	sub-13	2.0	2.0	034_neutral	0.0		227.79809353965402	1.2333293387760023
35.0	203.69791034341824	pulse	0.0	t		24.0	female	east_asian	2.9076800636689217	neutral	034	sub-13	2.0	2.0	034_neutral	0.0		228.22321204066247	
35.0	204.397896850468	pulse	0.0	t		24.0	female	east_asian	2.9076800636689217	neutral	034	sub-13	2.0	2.0	034_neutral	0.0		228.92319854771222	
35.0	204.5061211811858	fix	1.0		444	24.0	female	east_asian	2.9076800636689217	neutral	034	sub-13	2.0	2.0	034_neutral	0.0		229.03142287843002	3.7666018381200956
35.0	205.09789211133284	pulse	1.0	t		24.0	female	east_asian	2.9076800636689217	neutral	034	sub-13	2.0	2.0	034_neutral	0.0		229.62319380857707	
35.0	205.79787559982515	pulse	1.0	t		24.0	female	east_asian	2.9076800636689217	neutral	034	sub-13	2.0	2.0	034_neutral	0.0		230.32317729706938	
35.0	206.49786331429732	pulse	1.0	t		24.0	female	east_asian	2.9076800636689217	neutral	034	sub-13	2.0	2.0	034_neutral	0.0		231.02316501154155	
35.0	207.19784770835668	pulse	1.0	t		24.0	female	east_asian	2.9076800636689217	neutral	034	sub-13	2.0	2.0	034_neutral	0.0		231.7231494056009	
35.0	207.89783180056065	pulse	1.0	t		24.0	female	east_asian	2.9076800636689217	neutral	034	sub-13	2.0	2.0	034_neutral	0.0		232.42313349780488	
36.0	208.2727230193059	face	0.0		145	25.0	female	west_asian	2.6756864305610826	smiling	064	sub-13	2.0	2.0	064_smiling	0.0		232.79802471655012	1.2333054921741677
36.0	208.59782766513717	pulse	0.0	t		25.0	female	west_asian	2.6756864305610826	smiling	064	sub-13	2.0	2.0	064_smiling	0.0		233.1231293623814	
36.0	209.2978090406391	pulse	0.0	t		25.0	female	west_asian	2.6756864305610826	smiling	064	sub-13	2.0	2.0	064_smiling	0.0		233.82311073788333	
36.0	209.50602851148005	fix	1.0		444	25.0	female	west_asian	2.6756864305610826	smiling	064	sub-13	2.0	2.0	064_smiling	0.0		234.03133020872428	3.758266998023828
36.0	209.99780037738037	pulse	1.0	t		25.0	female	west_asian	2.6756864305610826	smiling	064	sub-13	2.0	2.0	064_smiling	0.0		234.5231020746246	
36.0	210.69778084731524	pulse	1.0	t		25.0	female	west_asian	2.6756864305610826	smiling	064	sub-13	2.0	2.0	064_smiling	0.0		235.22308254455947	
36.0	211.39776916549908	pulse	1.0	t		25.0	female	west_asian	2.6756864305610826	smiling	064	sub-13	2.0	2.0	064_smiling	0.0		235.92307086274332	
36.0	212.09776412450856	pulse	1.0	t		25.0	female	west_asian	2.6756864305610826	smiling	064	sub-13	2.0	2.0	064_smiling	0.0		236.6230658217528	
36.0	212.79775002784618	pulse	1.0	t		25.0	female	west_asian	2.6756864305610826	smiling	064	sub-13	2.0	2.0	064_smiling	0.0		237.3230517250904	
37.0	213.26429550950388	face	0.0		146	31.0	female	white	2.1822522881018704	smiling	102	sub-13	2.0	2.0	102_smiling	1.0	attractiveness	237.7895972067481	1.2416478786635707
37.0	213.49774136458745	pulse	0.0	t		31.0	female	white	2.1822522881018704	smiling	102	sub-13	2.0	2.0	102_smiling	1.0	attractiveness	238.0230430618317	
37.0	214.19772092895528	pulse	0.0	t		31.0	female	white	2.1822522881018704	smiling	102	sub-13	2.0	2.0	102_smiling	1.0	attractiveness	238.7230226261995	
37.0	214.50594338816745	fix	1.0		177	31.0	female	white	2.1822522881018704	smiling	102	sub-13	2.0	2.0	102_smiling	1.0	attractiveness	239.03124508541168	1.4999548725704699
37.0	214.8977186046659	pulse	1.0	t		31.0	female	white	2.1822522881018704	smiling	102	sub-13	2.0	2.0	102_smiling	1.0	attractiveness	239.42302030191013	
37.0	215.59769816903417	pulse	1.0	t		31.0	female	white	2.1822522881018704	smiling	102	sub-13	2.0	2.0	102_smiling	1.0	attractiveness	240.1229998662784	
37.0	216.00589826073792	rating	2.0		294	31.0	female	white	2.1822522881018704	smiling	102	sub-13	2.0	2.0	102_smiling	1.0	attractiveness	240.53119995798215	2.499976002470248
37.0	216.29769101505326	pulse	2.0	t		31.0	female	white	2.1822522881018704	smiling	102	sub-13	2.0	2.0	102_smiling	1.0	attractiveness	240.8229927122975	
37.0	216.99767057942108	pulse	2.0	t		31.0	female	white	2.1822522881018704	smiling	102	sub-13	2.0	2.0	102_smiling	1.0	attractiveness	241.5229722766653	
37.0	217.69766493471934	pulse	2.0	t		31.0	female	white	2.1822522881018704	smiling	102	sub-13	2.0	2.0	102_smiling	1.0	attractiveness	242.22296663196357	
37.0	217.71436691347435	response	2.0	w		31.0	female	white	2.1822522881018704	smiling	102	sub-13	2.0	2.0	102_smiling	1.0	attractiveness	242.23966861071858	
37.0	218.39764781949998	pulse	2.0	t		31.0	female	white	2.1822522881018704	smiling	102	sub-13	2.0	2.0	102_smiling	1.0	attractiveness	242.9229495167442	
37.0	218.50587426320817	fix	3.0		444	31.0	female	white	2.1822522881018704	smiling	102	sub-13	2.0	2.0	102_smiling	1.0	attractiveness	243.0311759604524	3.766595499149844
37.0	219.097644589644	pulse	3.0	t		31.0	female	white	2.1822522881018704	smiling	102	sub-13	2.0	2.0	102_smiling	1.0	attractiveness	243.62294628688824	
37.0	219.79763924679764	pulse	3.0	t		31.0	female	white	2.1822522881018704	smiling	102	sub-13	2.0	2.0	102_smiling	1.0	attractiveness	244.32294094404187	
37.0	220.49761579260849	pulse	3.0	t		31.0	female	white	2.1822522881018704	smiling	102	sub-13	2.0	2.0	102_smiling	1.0	attractiveness	245.02291748985272	
37.0	221.1975980736779	pulse	3.0	t		31.0	female	white	2.1822522881018704	smiling	102	sub-13	2.0	2.0	102_smiling	1.0	attractiveness	245.72289977092214	
37.0	221.8975818640256	pulse	3.0	t		31.0	female	white	2.1822522881018704	smiling	102	sub-13	2.0	2.0	102_smiling	1.0	attractiveness	246.42288356126983	
38.0	222.272469762358	face	0.0		145	28.0	male	white	3.9076800636689217	neutral	033	sub-13	2.0	2.0	033_neutral	0.0		246.79777145960225	1.2333163589801188
38.0	222.59757772860212	pulse	0.0	t		28.0	male	white	3.9076800636689217	neutral	033	sub-13	2.0	2.0	033_neutral	0.0		247.12287942584635	
38.0	223.29756393379603	pulse	0.0	t		28.0	male	white	3.9076800636689217	neutral	033	sub-13	2.0	2.0	033_neutral	0.0		247.82286563104026	
38.0	223.50578612133813	fix	1.0		444	28.0	male	white	3.9076800636689217	neutral	033	sub-13	2.0	2.0	033_neutral	0.0		248.03108781858236	3.7583958904156134
38.0	223.9975498371341	pulse	1.0	t		28.0	male	white	3.9076800636689217	neutral	033	sub-13	2.0	2.0	033_neutral	0.0		248.52285153437833	
38.0	224.6975381553175	pulse	1.0	t		28.0	male	white	3.9076800636689217	neutral	033	sub-13	2.0	2.0	033_neutral	0.0		249.22283985256172	
38.0	225.3975316050487	pulse	1.0	t		28.0	male	white	3.9076800636689217	neutral	033	sub-13	2.0	2.0	033_neutral	0.0		249.92283330229293	
38.0	226.09751298055062	pulse	1.0	t		28.0	male	white	3.9076800636689217	neutral	033	sub-13	2.0	2.0	033_neutral	0.0		250.62281467779485	
38.0	226.7974931486301	pulse	1.0	t		28.0	male	white	3.9076800636689217	neutral	033	sub-13	2.0	2.0	033_neutral	0.0		251.32279484587434	
39.0	227.26418201175375	face	0.0		146	31.0	female	white	2.1822522881018704	neutral	102	sub-13	2.0	2.0	102_neutral	0.0		251.78948370899798	1.2415141565807062
39.0	227.49747935382356	pulse	0.0	t		31.0	female	white	2.1822522881018704	neutral	102	sub-13	2.0	2.0	102_neutral	0.0		252.0227810510678	
39.0	228.19747552025592	pulse	0.0	t		31.0	female	white	2.1822522881018704	neutral	102	sub-13	2.0	2.0	102_neutral	0.0		252.72277721750015	
39.0	228.50569616833445	fix	1.0		444	31.0	female	white	2.1822522881018704	neutral	102	sub-13	2.0	2.0	102_neutral	0.0		253.03099786557868	3.74992098926532
39.0	228.89747229039995	pulse	1.0	t		31.0	female	white	2.1822522881018704	neutral	102	sub-13	2.0	2.0	102_neutral	0.0		253.42277398764418	
39.0	229.59744974177784	pulse	1.0	t		31.0	female	white	2.1822522881018704	neutral	102	sub-13	2.0	2.0	102_neutral	0.0		254.12275143902207	
39.0	230.29744288965276	pulse	1.0	t		31.0	female	white	2.1822522881018704	neutral	102	sub-13	2.0	2.0	102_neutral	0.0		254.822744586897	
39.0	230.9974239632993	pulse	1.0	t		31.0	female	white	2.1822522881018704	neutral	102	sub-13	2.0	2.0	102_neutral	0.0		255.52272566054353	
39.0	231.6974092629257	pulse	1.0	t		31.0	female	white	2.1822522881018704	neutral	102	sub-13	2.0	2.0	102_neutral	0.0		256.22271096016993	
40.0	232.25561715759977	fix	0.0		720													256.780918854844	5.9999079340059325
40.0	232.39740512750268	pulse	0.0	t														256.9227068247469	
40.0	233.09738952156204	pulse	0.0	t														257.62269121880627	
40.0	233.79737602861132	pulse	0.0	t														258.32267772585556	
40.0	234.49736042267068	pulse	0.0	t														259.0226621199149	
40.0	235.1973590039488	pulse	0.0	t														259.72266070119304	
40.0	235.89734007759535	pulse	0.0	t														260.4226417748396	
40.0	236.59732266052015	pulse	0.0	t														261.1226243577644	
40.0	237.29731671396257	pulse	0.0	t														261.8226184112068	
40.0	237.99729537276335	pulse	0.0	t														262.5225970700076	
