trial_nr	onset	event_type	phase	response	nr_frames	face_age	face_sex	face_eth	attractiveness	expression	face_id	sub_id	ses	run	trial_type	catch	rating_type	onset_abs	duration
-1.0	0.06042088696176506	fix	0.0		713													24.427244910064474	5.957906474192441
-1.0	0.7019192776274394	pulse	0.0	t														25.068743300730148	
-1.0	1.4018900883556853	pulse	0.0	t														25.768714111458394	
-1.0	2.1018823307108505	pulse	0.0	t														26.46870635381356	
-1.0	2.8018588766631183	pulse	0.0	t														27.168682899765827	
-1.0	3.5018438745241838	pulse	0.0	t														27.868667897626892	
-1.0	4.2018285705316885	pulse	0.0	t														28.568652593634397	
-1.0	4.901810851707978	pulse	0.0	t														29.268634874810687	
-1.0	5.6017916236150995	pulse	0.0	t														29.968615646717808	
0.0	6.018327361154206	face	0.0		144	20.0	male	black	2.609629924393156	neutral	043	sub-13	1.0	3.0	043_neutral	0.0		30.385151384256915	1.2333252134635586
0.0	6.301780545577003	pulse	0.0	t		20.0	male	black	2.609629924393156	neutral	043	sub-13	1.0	3.0	043_neutral	0.0		30.66860456867971	
0.0	7.001760713776093	pulse	0.0	t		20.0	male	black	2.609629924393156	neutral	043	sub-13	1.0	3.0	043_neutral	0.0		31.368584736878802	
0.0	7.251652574617765	fix	1.0		445	20.0	male	black	2.609629924393156	neutral	043	sub-13	1.0	3.0	043_neutral	0.0		31.618476597720473	3.7582213681766916
0.0	7.701744806075567	pulse	1.0	t		20.0	male	black	2.609629924393156	neutral	043	sub-13	1.0	3.0	043_neutral	0.0		32.068568829178275	
0.0	8.401722861297458	pulse	1.0	t		20.0	male	black	2.609629924393156	neutral	043	sub-13	1.0	3.0	043_neutral	0.0		32.768546884400166	
0.0	9.101713594382545	pulse	1.0	t		20.0	male	black	2.609629924393156	neutral	043	sub-13	1.0	3.0	043_neutral	0.0		33.468537617485254	
0.0	9.801691649604436	pulse	1.0	t		20.0	male	black	2.609629924393156	neutral	043	sub-13	1.0	3.0	043_neutral	0.0		34.168515672707144	
0.0	10.501677854881564	pulse	1.0	t		20.0	male	black	2.609629924393156	neutral	043	sub-13	1.0	3.0	043_neutral	0.0		34.86850187798427	
1.0	11.009873942794457	face	0.0		146	28.0	female	white	5.676880222841227	neutral	124	sub-13	1.0	3.0	124_neutral	0.0		35.376697965897165	1.24165909768044
1.0	11.201664663866268	pulse	0.0	t		28.0	female	white	5.676880222841227	neutral	124	sub-13	1.0	3.0	124_neutral	0.0		35.568488686968976	
1.0	11.901639096841336	pulse	0.0	t		28.0	female	white	5.676880222841227	neutral	124	sub-13	1.0	3.0	124_neutral	0.0		36.268463119944045	
1.0	12.251533040474897	fix	1.0		444	28.0	female	white	5.676880222841227	neutral	124	sub-13	1.0	3.0	124_neutral	0.0		36.618357063577605	3.758225594131545
1.0	12.601635263296885	pulse	1.0	t		28.0	female	white	5.676880222841227	neutral	124	sub-13	1.0	3.0	124_neutral	0.0		36.96845928639959	
1.0	13.301606979586722	pulse	1.0	t		28.0	female	white	5.676880222841227	neutral	124	sub-13	1.0	3.0	124_neutral	0.0		37.66843100268943	
1.0	14.001597712672265	pulse	1.0	t		28.0	female	white	5.676880222841227	neutral	124	sub-13	1.0	3.0	124_neutral	0.0		38.36842173577497	
1.0	14.701576673455293	pulse	1.0	t		28.0	female	white	5.676880222841227	neutral	124	sub-13	1.0	3.0	124_neutral	0.0		39.068400696558	
1.0	15.401565293563635	pulse	1.0	t		28.0	female	white	5.676880222841227	neutral	124	sub-13	1.0	3.0	124_neutral	0.0		39.768389316666344	
2.0	16.00975863460644	face	0.0		146	40.0	male	white	1.868682849184242	neutral	172	sub-13	1.0	3.0	172_neutral	0.0		40.37658265770915	1.2416530606019478
2.0	16.101550593278716	pulse	0.0	t		40.0	male	white	1.868682849184242	neutral	172	sub-13	1.0	3.0	172_neutral	0.0		40.468374616381425	
2.0	16.801532572601445	pulse	0.0	t		40.0	male	white	1.868682849184242	neutral	172	sub-13	1.0	3.0	172_neutral	0.0		41.168356595704154	
2.0	17.25141169520839	fix	1.0		444	40.0	male	white	1.868682849184242	neutral	172	sub-13	1.0	3.0	172_neutral	0.0		41.6182357183111	3.7582231793003302
2.0	17.50151968343971	pulse	1.0	t		40.0	male	white	1.868682849184242	neutral	172	sub-13	1.0	3.0	172_neutral	0.0		41.86834370654242	
2.0	18.201488984898788	pulse	1.0	t		40.0	male	white	1.868682849184242	neutral	172	sub-13	1.0	3.0	172_neutral	0.0		42.568313008001496	
2.0	18.90148273652312	pulse	1.0	t		40.0	male	white	1.868682849184242	neutral	172	sub-13	1.0	3.0	172_neutral	0.0		43.26830675962583	
2.0	19.60147679000147	pulse	1.0	t		40.0	male	white	1.868682849184242	neutral	172	sub-13	1.0	3.0	172_neutral	0.0		43.96830081310418	
2.0	20.301451222976084	pulse	1.0	t		40.0	male	white	1.868682849184242	neutral	172	sub-13	1.0	3.0	172_neutral	0.0		44.66827524607879	
3.0	21.00963487450872	face	0.0		146	24.0	female	black	3.0955033824114606	smiling	099	sub-13	1.0	3.0	099_smiling	0.0		45.37645889761143	1.2416545698720256
3.0	21.003189690120053	pulse	0.0	t		24.0	female	black	3.0955033824114606	smiling	099	sub-13	1.0	3.0	099_smiling	0.0		45.37001371322276	
3.0	21.701420313137533	pulse	0.0	t		24.0	female	black	3.0955033824114606	smiling	099	sub-13	1.0	3.0	099_smiling	0.0		46.06824433624024	
3.0	22.251289444380745	fix	1.0		443	24.0	female	black	3.0955033824114606	smiling	099	sub-13	1.0	3.0	099_smiling	0.0		46.618113467483454	3.7582328386247355
3.0	22.401402896167383	pulse	1.0	t		24.0	female	black	3.0955033824114606	smiling	099	sub-13	1.0	3.0	099_smiling	0.0		46.76822691927009	
3.0	23.101369179087214	pulse	1.0	t		24.0	female	black	3.0955033824114606	smiling	099	sub-13	1.0	3.0	099_smiling	0.0		47.46819320218992	
3.0	23.80135387509472	pulse	1.0	t		24.0	female	black	3.0955033824114606	smiling	099	sub-13	1.0	3.0	099_smiling	0.0		48.16817789819743	
3.0	24.50132408211539	pulse	1.0	t		24.0	female	black	3.0955033824114606	smiling	099	sub-13	1.0	3.0	099_smiling	0.0		48.8681481052181	
3.0	25.20132598379496	pulse	1.0	t		24.0	female	black	3.0955033824114606	smiling	099	sub-13	1.0	3.0	099_smiling	0.0		49.56815000689767	
3.0	25.90130705755564	pulse	1.0	t		24.0	female	black	3.0955033824114606	smiling	099	sub-13	1.0	3.0	099_smiling	0.0		50.26813108065835	
4.0	26.00952228300548	face	0.0		147	28.0	male	white	3.9076800636689217	neutral	033	sub-13	1.0	3.0	033_neutral	0.0		50.37634630610819	1.241653362456418
4.0	26.601306544403997	pulse	0.0	t		28.0	male	white	3.9076800636689217	neutral	033	sub-13	1.0	3.0	033_neutral	0.0		50.968130567506705	
4.0	27.2511756454619	fix	1.0		443	28.0	male	white	3.9076800636689217	neutral	033	sub-13	1.0	3.0	033_neutral	0.0		51.61799966856461	3.7582068791898564
4.0	27.301282184794673	pulse	1.0	t		28.0	male	white	3.9076800636689217	neutral	033	sub-13	1.0	3.0	033_neutral	0.0		51.66810620789738	
4.0	28.00126174928573	pulse	1.0	t		28.0	male	white	3.9076800636689217	neutral	033	sub-13	1.0	3.0	033_neutral	0.0		52.36808577238844	
4.0	28.70125006754006	pulse	1.0	t		28.0	male	white	3.9076800636689217	neutral	033	sub-13	1.0	3.0	033_neutral	0.0		53.06807409064277	
4.0	29.401222387537473	pulse	1.0	t		28.0	male	white	3.9076800636689217	neutral	033	sub-13	1.0	3.0	033_neutral	0.0		53.76804641064018	
4.0	30.10122036511666	pulse	1.0	t		28.0	male	white	3.9076800636689217	neutral	033	sub-13	1.0	3.0	033_neutral	0.0		54.46804438821937	
4.0	30.80119298696809	pulse	1.0	t		28.0	male	white	3.9076800636689217	neutral	033	sub-13	1.0	3.0	033_neutral	0.0		55.1680170100708	
5.0	31.009382524651755	face	0.0		146	31.0	female	west_asian	2.364902506963788	neutral	006	sub-13	1.0	3.0	006_neutral	0.0		55.376206547754464	1.2416735866672752
5.0	31.50117315516718	pulse	0.0	t		31.0	female	west_asian	2.364902506963788	neutral	006	sub-13	1.0	3.0	006_neutral	0.0		55.86799717826989	
5.0	32.201155134489454	pulse	0.0	t		31.0	female	west_asian	2.364902506963788	neutral	006	sub-13	1.0	3.0	006_neutral	0.0		56.56797915759216	
5.0	32.25105611131903	fix	1.0		445	31.0	female	west_asian	2.364902506963788	neutral	006	sub-13	1.0	3.0	006_neutral	0.0		56.61788013442174	3.7583541838912424
5.0	32.90115522504584	pulse	1.0	t		31.0	female	west_asian	2.364902506963788	neutral	006	sub-13	1.0	3.0	006_neutral	0.0		57.26797924814855	
5.0	33.60113116729008	pulse	1.0	t		31.0	female	west_asian	2.364902506963788	neutral	006	sub-13	1.0	3.0	006_neutral	0.0		57.967955190392786	
5.0	34.30111707071319	pulse	1.0	t		31.0	female	west_asian	2.364902506963788	neutral	006	sub-13	1.0	3.0	006_neutral	0.0		58.6679410938159	
5.0	35.00109935188948	pulse	1.0	t		31.0	female	west_asian	2.364902506963788	neutral	006	sub-13	1.0	3.0	006_neutral	0.0		59.36792337499219	
5.0	35.70109310351381	pulse	1.0	t		31.0	female	west_asian	2.364902506963788	neutral	006	sub-13	1.0	3.0	006_neutral	0.0		60.06791712661652	
6.0	36.00941029521027	face	0.0		146	21.0	male	east_asian/white	3.501790688420215	smiling	036	sub-13	1.0	3.0	036_smiling	0.0		60.37623431831298	1.241519943034291
6.0	36.4010657253657	pulse	0.0	t		21.0	male	east_asian/white	3.501790688420215	smiling	036	sub-13	1.0	3.0	036_smiling	0.0		60.767889748468406	
6.0	37.101061891821246	pulse	0.0	t		21.0	male	east_asian/white	3.501790688420215	smiling	036	sub-13	1.0	3.0	036_smiling	0.0		61.467885914923954	
6.0	37.250930238244564	fix	1.0		445	21.0	male	east_asian/white	3.501790688420215	smiling	036	sub-13	1.0	3.0	036_smiling	0.0		61.61775426134727	3.7583647487772396
6.0	37.80103421181866	pulse	1.0	t		21.0	male	east_asian/white	3.501790688420215	smiling	036	sub-13	1.0	3.0	036_smiling	0.0		62.16785823492137	
6.0	38.50102675602784	pulse	1.0	t		21.0	male	east_asian/white	3.501790688420215	smiling	036	sub-13	1.0	3.0	036_smiling	0.0		62.86785077913055	
6.0	39.20100330198011	pulse	1.0	t		21.0	male	east_asian/white	3.501790688420215	smiling	036	sub-13	1.0	3.0	036_smiling	0.0		63.56782732508282	
6.0	39.90098860169519	pulse	1.0	t		21.0	male	east_asian/white	3.501790688420215	smiling	036	sub-13	1.0	3.0	036_smiling	0.0		64.2678126247979	
6.0	40.60097480697232	pulse	1.0	t		21.0	male	east_asian/white	3.501790688420215	smiling	036	sub-13	1.0	3.0	036_smiling	0.0		64.96779883007503	
7.0	41.0092949870218	face	0.0		146	26.0	male	white	2.7966573816155993	smiling	117	sub-13	1.0	3.0	117_smiling	0.0		65.37611901012451	1.241546506177201
7.0	41.30095980483338	pulse	0.0	t		26.0	male	white	2.7966573816155993	smiling	117	sub-13	1.0	3.0	117_smiling	0.0		65.66778382793609	
7.0	42.00092216365283	pulse	0.0	t		26.0	male	white	2.7966573816155993	smiling	117	sub-13	1.0	3.0	117_smiling	0.0		66.36774618675554	
7.0	42.250841493199005	fix	1.0		445	26.0	male	white	2.7966573816155993	smiling	117	sub-13	1.0	3.0	117_smiling	0.0		66.61766551630171	3.7665314059358934
7.0	42.70092708387119	pulse	1.0	t		26.0	male	white	2.7966573816155993	smiling	117	sub-13	1.0	3.0	117_smiling	0.0		67.0677511069739	
7.0	43.400894272352616	pulse	1.0	t		26.0	male	white	2.7966573816155993	smiling	117	sub-13	1.0	3.0	117_smiling	0.0		67.76771829545532	
7.0	44.1008985888634	pulse	1.0	t		26.0	male	white	2.7966573816155993	smiling	117	sub-13	1.0	3.0	117_smiling	0.0		68.46772261196611	
7.0	44.80087422925408	pulse	1.0	t		26.0	male	white	2.7966573816155993	smiling	117	sub-13	1.0	3.0	117_smiling	0.0		69.16769825235679	
7.0	45.5008667734628	pulse	1.0	t		26.0	male	white	2.7966573816155993	smiling	117	sub-13	1.0	3.0	117_smiling	0.0		69.86769079656551	
8.0	46.0173728991349	face	0.0		145	34.0	male	white	2.651014723438122	smiling	121	sub-13	1.0	3.0	121_smiling	0.0		70.3841969222376	1.2333140448690756
8.0	46.200837886045065	pulse	0.0	t		34.0	male	white	2.651014723438122	smiling	121	sub-13	1.0	3.0	121_smiling	0.0		70.56766190914777	
8.0	46.900810507896495	pulse	0.0	t		34.0	male	white	2.651014723438122	smiling	121	sub-13	1.0	3.0	121_smiling	0.0		71.2676345309992	
8.0	47.250686944003974	fix	1.0		444	34.0	male	white	2.651014723438122	smiling	121	sub-13	1.0	3.0	121_smiling	0.0		71.61751096710668	3.766581211828907
8.0	47.600800637274006	pulse	1.0	t		34.0	male	white	2.651014723438122	smiling	121	sub-13	1.0	3.0	121_smiling	0.0		71.96762466037671	
8.0	48.30077356097945	pulse	1.0	t		34.0	male	white	2.651014723438122	smiling	121	sub-13	1.0	3.0	121_smiling	0.0		72.66759758408216	
8.0	49.000793875746695	pulse	1.0	t		34.0	male	white	2.651014723438122	smiling	121	sub-13	1.0	3.0	121_smiling	0.0		73.3676178988494	
8.0	49.700752310465305	pulse	1.0	t		34.0	male	white	2.651014723438122	smiling	121	sub-13	1.0	3.0	121_smiling	0.0		74.06757633356801	
8.0	50.40074183613524	pulse	1.0	t		34.0	male	white	2.651014723438122	smiling	121	sub-13	1.0	3.0	121_smiling	0.0		74.76756585923795	
9.0	51.01726815583288	face	0.0		145	27.0	female	white	4.181058495821727	neutral	039	sub-13	1.0	3.0	039_neutral	0.0		75.38409217893559	1.2333146485771067
9.0	51.10076758427249	pulse	0.0	t		27.0	female	white	4.181058495821727	neutral	039	sub-13	1.0	3.0	039_neutral	0.0		75.4675916073752	
9.0	51.800712435565856	pulse	0.0	t		27.0	female	white	4.181058495821727	neutral	039	sub-13	1.0	3.0	039_neutral	0.0		76.16753645866856	
9.0	52.25058280440999	fix	1.0		444	27.0	female	white	4.181058495821727	neutral	039	sub-13	1.0	3.0	039_neutral	0.0		76.6174068275127	3.7665492153155355
9.0	52.50070799831337	pulse	1.0	t		27.0	female	white	4.181058495821727	neutral	039	sub-13	1.0	3.0	039_neutral	0.0		76.86753202141608	
9.0	53.200671262694414	pulse	1.0	t		27.0	female	white	4.181058495821727	neutral	039	sub-13	1.0	3.0	039_neutral	0.0		77.56749528579712	
9.0	53.90079632076322	pulse	1.0	t		27.0	female	white	4.181058495821727	neutral	039	sub-13	1.0	3.0	039_neutral	0.0		78.26762034386593	
9.0	54.600629787968955	pulse	1.0	t		27.0	female	white	4.181058495821727	neutral	039	sub-13	1.0	3.0	039_neutral	0.0		78.96745381107166	
9.0	55.30063621745694	pulse	1.0	t		27.0	female	white	4.181058495821727	neutral	039	sub-13	1.0	3.0	039_neutral	0.0		79.66746024055965	
10.0	56.01713201972552	face	0.0		146	31.0	female	east_asian	3.395941106247513	smiling	087	sub-13	1.0	3.0	087_smiling	0.0		80.38395604282823	1.2333381931812255
10.0	56.003436908461026	pulse	0.0	t		31.0	female	east_asian	3.395941106247513	smiling	087	sub-13	1.0	3.0	087_smiling	0.0		80.37026093156373	
10.0	56.700598968686336	pulse	0.0	t		31.0	female	east_asian	3.395941106247513	smiling	087	sub-13	1.0	3.0	087_smiling	0.0		81.06742299178904	
10.0	57.25047021290675	fix	1.0		443	31.0	female	east_asian	3.395941106247513	smiling	087	sub-13	1.0	3.0	087_smiling	0.0		81.61729423600946	3.7583396949044072
10.0	57.40058004244702	pulse	1.0	t		31.0	female	east_asian	3.395941106247513	smiling	087	sub-13	1.0	3.0	087_smiling	0.0		81.76740406554973	
10.0	58.10054632536685	pulse	1.0	t		31.0	female	east_asian	3.395941106247513	smiling	087	sub-13	1.0	3.0	087_smiling	0.0		82.46737034846956	
10.0	58.80054339738399	pulse	1.0	t		31.0	female	east_asian	3.395941106247513	smiling	087	sub-13	1.0	3.0	087_smiling	0.0		83.1673674204867	
10.0	59.50051662294345	pulse	1.0	t		31.0	female	east_asian	3.395941106247513	smiling	087	sub-13	1.0	3.0	087_smiling	0.0		83.86734064604616	
10.0	60.20050946900574	pulse	1.0	t		31.0	female	east_asian	3.395941106247513	smiling	087	sub-13	1.0	3.0	087_smiling	0.0		84.56733349210845	
10.0	60.90048541125043	pulse	1.0	t		31.0	female	east_asian	3.395941106247513	smiling	087	sub-13	1.0	3.0	087_smiling	0.0		85.26730943435314	
11.0	61.008809907811155	face	0.0		147	25.0	female	west_asian	2.6756864305610826	neutral	064	sub-13	1.0	3.0	064_neutral	0.0		85.37563393091386	1.2415437894915158
11.0	61.600475842481956	pulse	0.0	t		25.0	female	west_asian	2.6756864305610826	neutral	064	sub-13	1.0	3.0	064_neutral	0.0		85.96729986558466	
11.0	62.25035369730267	fix	1.0		443	25.0	female	west_asian	2.6756864305610826	neutral	064	sub-13	1.0	3.0	064_neutral	0.0		86.61717772040538	3.766567930257679
11.0	62.30047351820713	pulse	1.0	t		25.0	female	west_asian	2.6756864305610826	neutral	064	sub-13	1.0	3.0	064_neutral	0.0		86.66729754130984	
11.0	63.00043708444173	pulse	1.0	t		25.0	female	west_asian	2.6756864305610826	neutral	064	sub-13	1.0	3.0	064_neutral	0.0		87.36726110754444	
11.0	63.700406084046335	pulse	1.0	t		25.0	female	west_asian	2.6756864305610826	neutral	064	sub-13	1.0	3.0	064_neutral	0.0		88.06723010714904	
11.0	64.40039983567067	pulse	1.0	t		25.0	female	west_asian	2.6756864305610826	neutral	064	sub-13	1.0	3.0	064_neutral	0.0		88.76722385877338	
11.0	65.10036430746732	pulse	1.0	t		25.0	female	west_asian	2.6756864305610826	neutral	064	sub-13	1.0	3.0	064_neutral	0.0		89.46718833057002	
11.0	65.80038492408858	pulse	1.0	t		25.0	female	west_asian	2.6756864305610826	neutral	064	sub-13	1.0	3.0	064_neutral	0.0		90.16720894719128	
12.0	66.01692162756035	face	0.0		145	31.0	female	white	2.1822522881018704	neutral	102	sub-13	1.0	3.0	102_neutral	0.0		90.38374565066306	1.2332989521742093
12.0	66.50090480705376	pulse	0.0	t		31.0	female	white	2.1822522881018704	neutral	102	sub-13	1.0	3.0	102_neutral	0.0		90.86772883015647	
12.0	67.20033620486947	pulse	0.0	t		31.0	female	white	2.1822522881018704	neutral	102	sub-13	1.0	3.0	102_neutral	0.0		91.56716022797218	
12.0	67.25022057973456	fix	1.0		445	31.0	female	white	2.1822522881018704	neutral	102	sub-13	1.0	3.0	102_neutral	0.0		91.61704460283727	3.7665778914361
12.0	67.90033720098745	pulse	1.0	t		31.0	female	white	2.1822522881018704	neutral	102	sub-13	1.0	3.0	102_neutral	0.0		92.26716122409016	
12.0	68.60033517856618	pulse	1.0	t		31.0	female	white	2.1822522881018704	neutral	102	sub-13	1.0	3.0	102_neutral	0.0		92.96715920166889	
12.0	69.30028757620676	pulse	1.0	t		31.0	female	white	2.1822522881018704	neutral	102	sub-13	1.0	3.0	102_neutral	0.0		93.66711159930946	
12.0	70.00027257406828	pulse	1.0	t		31.0	female	white	2.1822522881018704	neutral	102	sub-13	1.0	3.0	102_neutral	0.0		94.36709659717098	
12.0	70.7002862480499	pulse	1.0	t		31.0	female	white	2.1822522881018704	neutral	102	sub-13	1.0	3.0	102_neutral	0.0		95.06711027115261	
13.0	71.01679847117066	face	0.0		145	19.0	male	white	3.2522881018702745	smiling	018	sub-13	1.0	3.0	018_smiling	0.0		95.38362249427337	1.2333197800930975
13.0	71.40026732181059	pulse	0.0	t		19.0	male	white	3.2522881018702745	smiling	018	sub-13	1.0	3.0	018_smiling	0.0		95.7670913449133	
13.0	72.10023088804519	pulse	0.0	t		19.0	male	white	3.2522881018702745	smiling	018	sub-13	1.0	3.0	018_smiling	0.0		96.4670549111479	
13.0	72.25011825126376	fix	1.0		445	19.0	male	white	3.2522881018702745	smiling	018	sub-13	1.0	3.0	018_smiling	0.0		96.61694227436647	3.7582277071087447
13.0	72.80021105624428	pulse	1.0	t		19.0	male	white	3.2522881018702745	smiling	018	sub-13	1.0	3.0	018_smiling	0.0		97.16703507934699	
13.0	73.50020752455384	pulse	1.0	t		19.0	male	white	3.2522881018702745	smiling	018	sub-13	1.0	3.0	018_smiling	0.0		97.86703154765655	
13.0	74.20018316494406	pulse	1.0	t		19.0	male	white	3.2522881018702745	smiling	018	sub-13	1.0	3.0	018_smiling	0.0		98.56700718804677	
13.0	74.90015971089633	pulse	1.0	t		19.0	male	white	3.2522881018702745	smiling	018	sub-13	1.0	3.0	018_smiling	0.0		99.26698373399904	
13.0	75.60015074583589	pulse	1.0	t		19.0	male	white	3.2522881018702745	smiling	018	sub-13	1.0	3.0	018_smiling	0.0		99.9669747689386	
14.0	76.0083459583725	face	0.0		146	20.0	male	black	3.1070433744528456	neutral	082	sub-13	1.0	3.0	082_neutral	0.0		100.37516998147521	1.2416515513327795
14.0	76.30013846038219	pulse	0.0	t		20.0	male	black	3.1070433744528456	neutral	082	sub-13	1.0	3.0	082_neutral	0.0		100.6669624834849	
14.0	77.00010534701005	pulse	0.0	t		20.0	male	black	3.1070433744528456	neutral	082	sub-13	1.0	3.0	082_neutral	0.0		101.36692937011276	
14.0	77.24999750970528	fix	1.0		444	20.0	male	black	3.1070433744528456	neutral	082	sub-13	1.0	3.0	082_neutral	0.0		101.61682153280799	3.7665670246956324
14.0	77.70010332458878	pulse	1.0	t		20.0	male	black	3.1070433744528456	neutral	082	sub-13	1.0	3.0	082_neutral	0.0		102.06692734769149	
14.0	78.40007655014824	pulse	1.0	t		20.0	male	black	3.1070433744528456	neutral	082	sub-13	1.0	3.0	082_neutral	0.0		102.76690057325095	
14.0	79.10006939621098	pulse	1.0	t		20.0	male	black	3.1070433744528456	neutral	082	sub-13	1.0	3.0	082_neutral	0.0		103.46689341931369	
14.0	79.80004926255606	pulse	1.0	t		20.0	male	black	3.1070433744528456	neutral	082	sub-13	1.0	3.0	082_neutral	0.0		104.16687328565877	
14.0	80.5000264122159	pulse	1.0	t		20.0	male	black	3.1070433744528456	neutral	082	sub-13	1.0	3.0	082_neutral	0.0		104.86685043531861	
15.0	81.01656453440091	face	0.0		145	36.0	female	white	2.7548746518105847	neutral	011	sub-13	1.0	3.0	011_neutral	1.0	trustworthiness	105.38338855750362	1.2333001595902715
15.0	81.20001865457107	pulse	0.0	t		36.0	female	white	2.7548746518105847	neutral	011	sub-13	1.0	3.0	011_neutral	1.0	trustworthiness	105.56684267767378	
15.0	81.9000102932182	pulse	0.0	t		36.0	female	white	2.7548746518105847	neutral	011	sub-13	1.0	3.0	011_neutral	1.0	trustworthiness	106.26683431632091	
15.0	82.24986469399119	fix	1.0		177	36.0	female	white	2.7548746518105847	neutral	011	sub-13	1.0	3.0	011_neutral	1.0	trustworthiness	106.6166887170939	1.508331922166235
15.0	82.59997929282281	pulse	1.0	t		36.0	female	white	2.7548746518105847	neutral	011	sub-13	1.0	3.0	011_neutral	1.0	trustworthiness	106.96680331592552	
15.0	83.29996730922312	pulse	1.0	t		36.0	female	white	2.7548746518105847	neutral	011	sub-13	1.0	3.0	011_neutral	1.0	trustworthiness	107.66679133232583	
15.0	83.75819661615742	rating	2.0		293	36.0	female	white	2.7548746518105847	neutral	011	sub-13	1.0	3.0	011_neutral	1.0	trustworthiness	108.12502063926013	2.4915859735742742
15.0	83.99993842180538	pulse	2.0	t		36.0	female	white	2.7548746518105847	neutral	011	sub-13	1.0	3.0	011_neutral	1.0	trustworthiness	108.36676244490809	
15.0	84.69993851236131	pulse	2.0	t		36.0	female	white	2.7548746518105847	neutral	011	sub-13	1.0	3.0	011_neutral	1.0	trustworthiness	109.06676253546402	
15.0	85.19159844013984	response	2.0	b		36.0	female	white	2.7548746518105847	neutral	011	sub-13	1.0	3.0	011_neutral	1.0	trustworthiness	109.55842246324255	
15.0	85.39991777499881	pulse	2.0	t		36.0	female	white	2.7548746518105847	neutral	011	sub-13	1.0	3.0	011_neutral	1.0	trustworthiness	109.76674179810152	
15.0	86.0999178655552	pulse	2.0	t		36.0	female	white	2.7548746518105847	neutral	011	sub-13	1.0	3.0	011_neutral	1.0	trustworthiness	110.46674188865791	
15.0	86.2497825897317	fix	3.0		444	36.0	female	white	2.7548746518105847	neutral	011	sub-13	1.0	3.0	011_neutral	1.0	trustworthiness	110.6166066128344	3.766571552503592
15.0	86.79989260038383	pulse	3.0	t		36.0	female	white	2.7548746518105847	neutral	011	sub-13	1.0	3.0	011_neutral	1.0	trustworthiness	111.16671662348654	
15.0	87.49986733521291	pulse	3.0	t		36.0	female	white	2.7548746518105847	neutral	011	sub-13	1.0	3.0	011_neutral	1.0	trustworthiness	111.86669135831562	
15.0	88.19984931453519	pulse	3.0	t		36.0	female	white	2.7548746518105847	neutral	011	sub-13	1.0	3.0	011_neutral	1.0	trustworthiness	112.5666733376379	
15.0	88.89983159571148	pulse	3.0	t		36.0	female	white	2.7548746518105847	neutral	011	sub-13	1.0	3.0	011_neutral	1.0	trustworthiness	113.26665561881418	
15.0	89.59982444177422	pulse	3.0	t		36.0	female	white	2.7548746518105847	neutral	011	sub-13	1.0	3.0	011_neutral	1.0	trustworthiness	113.96664846487693	
16.0	90.01635414223529	face	0.0		145	22.0	female	west_asian	3.8205332272184642	neutral	066	sub-13	1.0	3.0	066_neutral	0.0		114.383178165338	1.2333167615547609
16.0	90.29980853407369	pulse	0.0	t		22.0	female	west_asian	3.8205332272184642	neutral	066	sub-13	1.0	3.0	066_neutral	0.0		114.6666325571764	
16.0	90.99978960783437	pulse	0.0	t		22.0	female	west_asian	3.8205332272184642	neutral	066	sub-13	1.0	3.0	066_neutral	0.0		115.36661363093708	
16.0	91.24967090379005	fix	1.0		444	22.0	female	west_asian	3.8205332272184642	neutral	066	sub-13	1.0	3.0	066_neutral	0.0		115.61649492689276	3.766564308010402
16.0	91.69978667985197	pulse	1.0	t		22.0	female	west_asian	3.8205332272184642	neutral	066	sub-13	1.0	3.0	066_neutral	0.0		116.06661070295468	
16.0	92.39974058676171	pulse	1.0	t		22.0	female	west_asian	3.8205332272184642	neutral	066	sub-13	1.0	3.0	066_neutral	0.0		116.76656460986442	
16.0	93.09972467906164	pulse	1.0	t		22.0	female	west_asian	3.8205332272184642	neutral	066	sub-13	1.0	3.0	066_neutral	0.0		117.46654870216435	
16.0	93.79973110854962	pulse	1.0	t		22.0	female	west_asian	3.8205332272184642	neutral	066	sub-13	1.0	3.0	066_neutral	0.0		118.16655513165233	
16.0	94.49971459714152	pulse	1.0	t		22.0	female	west_asian	3.8205332272184642	neutral	066	sub-13	1.0	3.0	066_neutral	0.0		118.86653862024423	
17.0	95.01623521180045	face	0.0		145	54.0	female	white	2.286908077994429	smiling	136	sub-13	1.0	3.0	136_smiling	1.0	attractiveness	119.38305923490316	1.2333164597007453
17.0	95.19969204865538	pulse	0.0	t		54.0	female	white	2.286908077994429	smiling	136	sub-13	1.0	3.0	136_smiling	1.0	attractiveness	119.56651607175809	
17.0	95.89965108708157	pulse	0.0	t		54.0	female	white	2.286908077994429	smiling	136	sub-13	1.0	3.0	136_smiling	1.0	attractiveness	120.26647511018427	
17.0	96.2495516715012	fix	1.0		177	54.0	female	white	2.286908077994429	smiling	136	sub-13	1.0	3.0	136_smiling	1.0	attractiveness	120.6163756946039	1.4999763044688734
17.0	96.59965359246917	pulse	1.0	t		54.0	female	white	2.286908077994429	smiling	136	sub-13	1.0	3.0	136_smiling	1.0	attractiveness	120.96647761557188	
17.0	97.29964372184668	pulse	1.0	t		54.0	female	white	2.286908077994429	smiling	136	sub-13	1.0	3.0	136_smiling	1.0	attractiveness	121.66646774494939	
17.0	97.74952797597007	rating	2.0		294	54.0	female	white	2.286908077994429	smiling	136	sub-13	1.0	3.0	136_smiling	1.0	attractiveness	122.11635199907278	2.499928007845938
17.0	97.99963747347101	pulse	2.0	t		54.0	female	white	2.286908077994429	smiling	136	sub-13	1.0	3.0	136_smiling	1.0	attractiveness	122.36646149657372	
17.0	98.55795579711912	response	2.0	d		54.0	female	white	2.286908077994429	smiling	136	sub-13	1.0	3.0	136_smiling	1.0	attractiveness	122.92477982022183	
17.0	98.69960375639084	pulse	2.0	t		54.0	female	white	2.286908077994429	smiling	136	sub-13	1.0	3.0	136_smiling	1.0	attractiveness	123.06642777949355	
17.0	99.39957215228787	pulse	2.0	t		54.0	female	white	2.286908077994429	smiling	136	sub-13	1.0	3.0	136_smiling	1.0	attractiveness	123.76639617539058	
17.0	100.09957737436025	pulse	2.0	t		54.0	female	white	2.286908077994429	smiling	136	sub-13	1.0	3.0	136_smiling	1.0	attractiveness	124.46640139746296	
17.0	100.249455983816	fix	3.0		444	54.0	female	white	2.286908077994429	smiling	136	sub-13	1.0	3.0	136_smiling	1.0	attractiveness	124.61628000691871	3.7583137354690734
17.0	100.79956840929935	pulse	3.0	t		54.0	female	white	2.286908077994429	smiling	136	sub-13	1.0	3.0	136_smiling	1.0	attractiveness	125.16639243240206	
17.0	101.49952805143357	pulse	3.0	t		54.0	female	white	2.286908077994429	smiling	136	sub-13	1.0	3.0	136_smiling	1.0	attractiveness	125.86635207453628	
17.0	102.19952572715874	pulse	3.0	t		54.0	female	white	2.286908077994429	smiling	136	sub-13	1.0	3.0	136_smiling	1.0	attractiveness	126.56634975026145	
17.0	102.89950800833503	pulse	3.0	t		54.0	female	white	2.286908077994429	smiling	136	sub-13	1.0	3.0	136_smiling	1.0	attractiveness	127.26633203143774	
17.0	103.59951172113779	pulse	3.0	t		54.0	female	white	2.286908077994429	smiling	136	sub-13	1.0	3.0	136_smiling	1.0	attractiveness	127.9663357442405	
18.0	104.00776971928508	face	0.0		146	28.0	male	white	3.9076800636689217	smiling	033	sub-13	1.0	3.0	033_smiling	1.0	trustworthiness	128.3745937423878	1.2415706544888963
18.0	104.29948072074285	pulse	0.0	t		28.0	male	white	3.9076800636689217	smiling	033	sub-13	1.0	3.0	033_smiling	1.0	trustworthiness	128.66630474384556	
18.0	104.99946722787354	pulse	0.0	t		28.0	male	white	3.9076800636689217	smiling	033	sub-13	1.0	3.0	033_smiling	1.0	trustworthiness	129.36629125097625	
18.0	105.24934037377398	fix	1.0		177	28.0	male	white	3.9076800636689217	smiling	033	sub-13	1.0	3.0	033_smiling	1.0	trustworthiness	129.61616439687668	1.499962117335599
18.0	105.69944709421861	pulse	1.0	t		28.0	male	white	3.9076800636689217	smiling	033	sub-13	1.0	3.0	033_smiling	1.0	trustworthiness	130.06627111732132	
18.0	106.39943601618052	pulse	1.0	t		28.0	male	white	3.9076800636689217	smiling	033	sub-13	1.0	3.0	033_smiling	1.0	trustworthiness	130.76626003928322	
18.0	106.74930249110957	rating	2.0		294	28.0	male	white	3.9076800636689217	smiling	033	sub-13	1.0	3.0	033_smiling	1.0	trustworthiness	131.11612651421228	2.4999437042483805
18.0	107.09941739179521	pulse	2.0	t		28.0	male	white	3.9076800636689217	smiling	033	sub-13	1.0	3.0	033_smiling	1.0	trustworthiness	131.46624141489792	
18.0	107.2361318509893	response	2.0	d		28.0	male	white	3.9076800636689217	smiling	033	sub-13	1.0	3.0	033_smiling	1.0	trustworthiness	131.602955874092	
18.0	107.79938669325429	pulse	2.0	t		28.0	male	white	3.9076800636689217	smiling	033	sub-13	1.0	3.0	033_smiling	1.0	trustworthiness	132.166210716357	
18.0	108.49937531336218	pulse	2.0	t		28.0	male	white	3.9076800636689217	smiling	033	sub-13	1.0	3.0	033_smiling	1.0	trustworthiness	132.8661993364649	
18.0	109.19937389464894	pulse	2.0	t		28.0	male	white	3.9076800636689217	smiling	033	sub-13	1.0	3.0	033_smiling	1.0	trustworthiness	133.56619791775165	
18.0	109.24924619535796	fix	3.0		444	28.0	male	white	3.9076800636689217	smiling	033	sub-13	1.0	3.0	033_smiling	1.0	trustworthiness	133.61607021846066	3.766551932000766
18.0	109.89935255357841	pulse	3.0	t		28.0	male	white	3.9076800636689217	smiling	033	sub-13	1.0	3.0	033_smiling	1.0	trustworthiness	134.26617657668112	
18.0	110.5993294013847	pulse	3.0	t		28.0	male	white	3.9076800636689217	smiling	033	sub-13	1.0	3.0	033_smiling	1.0	trustworthiness	134.9661534244874	
18.0	111.29931349368417	pulse	3.0	t		28.0	male	white	3.9076800636689217	smiling	033	sub-13	1.0	3.0	033_smiling	1.0	trustworthiness	135.66613751678688	
18.0	111.99929728413008	pulse	3.0	t		28.0	male	white	3.9076800636689217	smiling	033	sub-13	1.0	3.0	033_smiling	1.0	trustworthiness	136.3661213072328	
18.0	112.69927745232917	pulse	3.0	t		28.0	male	white	3.9076800636689217	smiling	033	sub-13	1.0	3.0	033_smiling	1.0	trustworthiness	137.06610147543188	
19.0	113.01579812735872	face	0.0		145	25.0	female	black	3.858336649423	smiling	126	sub-13	1.0	3.0	126_smiling	1.0	dominance	137.38262215046143	1.2333149504311223
19.0	113.39926365760584	pulse	0.0	t		25.0	female	black	3.858336649423	smiling	126	sub-13	1.0	3.0	126_smiling	1.0	dominance	137.76608768070855	
19.0	114.09924654249016	pulse	0.0	t		25.0	female	black	3.858336649423	smiling	126	sub-13	1.0	3.0	126_smiling	1.0	dominance	138.46607056559287	
19.0	114.24911307778984	fix	1.0		178	25.0	female	black	3.858336649423	smiling	126	sub-13	1.0	3.0	126_smiling	1.0	dominance	138.61593710089255	1.508310792393786
19.0	114.79925448124777	pulse	1.0	t		25.0	female	black	3.858336649423	smiling	126	sub-13	1.0	3.0	126_smiling	1.0	dominance	139.16607850435048	
19.0	115.49922106602116	pulse	1.0	t		25.0	female	black	3.858336649423	smiling	126	sub-13	1.0	3.0	126_smiling	1.0	dominance	139.86604508912387	
19.0	115.75742387018363	rating	2.0		295	25.0	female	black	3.858336649423	smiling	126	sub-13	1.0	3.0	126_smiling	1.0	dominance	140.12424789328634	2.4999268004303303
19.0	116.19919187674941	pulse	2.0	t		25.0	female	black	3.858336649423	smiling	126	sub-13	1.0	3.0	126_smiling	1.0	dominance	140.56601589985212	
19.0	116.89917113938691	pulse	2.0	t		25.0	female	black	3.858336649423	smiling	126	sub-13	1.0	3.0	126_smiling	1.0	dominance	141.26599516248962	
19.0	117.29405157656811	response	2.0	n		25.0	female	black	3.858336649423	smiling	126	sub-13	1.0	3.0	126_smiling	1.0	dominance	141.66087559967082	
19.0	117.59914406309235	pulse	2.0	t		25.0	female	black	3.858336649423	smiling	126	sub-13	1.0	3.0	126_smiling	1.0	dominance	141.96596808619506	
19.0	118.25735067061396	fix	3.0		443	25.0	female	black	3.858336649423	smiling	126	sub-13	1.0	3.0	126_smiling	1.0	dominance	142.62417469371667	3.7665830229520907
19.0	118.29914928516473	pulse	3.0	t		25.0	female	black	3.858336649423	smiling	126	sub-13	1.0	3.0	126_smiling	1.0	dominance	142.66597330826744	
19.0	118.99913579229587	pulse	3.0	t		25.0	female	black	3.858336649423	smiling	126	sub-13	1.0	3.0	126_smiling	1.0	dominance	143.36595981539858	
19.0	119.69910267892328	pulse	3.0	t		25.0	female	black	3.858336649423	smiling	126	sub-13	1.0	3.0	126_smiling	1.0	dominance	144.065926702026	
19.0	120.3990982416708	pulse	3.0	t		25.0	female	black	3.858336649423	smiling	126	sub-13	1.0	3.0	126_smiling	1.0	dominance	144.7659222647735	
19.0	121.09908837104877	pulse	3.0	t		25.0	female	black	3.858336649423	smiling	126	sub-13	1.0	3.0	126_smiling	1.0	dominance	145.46591239415147	
19.0	121.7990833300887	pulse	3.0	t		25.0	female	black	3.858336649423	smiling	126	sub-13	1.0	3.0	126_smiling	1.0	dominance	146.16590735319141	
20.0	122.02393369356605	face	0.0		145	23.0	male	white	2.6275368085953046	smiling	141	sub-13	1.0	3.0	141_smiling	0.0		146.39075771666876	1.2333074040834617
20.0	122.49905263154733	pulse	0.0	t		23.0	male	white	2.6275368085953046	smiling	141	sub-13	1.0	3.0	141_smiling	0.0		146.86587665465004	
20.0	123.19901740519754	pulse	0.0	t		23.0	male	white	2.6275368085953046	smiling	141	sub-13	1.0	3.0	141_smiling	0.0		147.56584142830025	
20.0	123.25724109764951	fix	1.0		1185	23.0	male	white	2.6275368085953046	smiling	141	sub-13	1.0	3.0	141_smiling	0.0		147.62406512075222	10.016405155543907
20.0	123.89900723272149	pulse	1.0	t		23.0	male	white	2.6275368085953046	smiling	141	sub-13	1.0	3.0	141_smiling	0.0		148.2658312558242	
20.0	124.59902754748873	pulse	1.0	t		23.0	male	white	2.6275368085953046	smiling	141	sub-13	1.0	3.0	141_smiling	0.0		148.96585157059144	
20.0	125.2989841710837	pulse	1.0	t		23.0	male	white	2.6275368085953046	smiling	141	sub-13	1.0	3.0	141_smiling	0.0		149.6658081941864	
20.0	125.99895618922756	pulse	1.0	t		23.0	male	white	2.6275368085953046	smiling	141	sub-13	1.0	3.0	141_smiling	0.0		150.36578021233026	
20.0	126.69895899646872	pulse	1.0	t		23.0	male	white	2.6275368085953046	smiling	141	sub-13	1.0	3.0	141_smiling	0.0		151.06578301957143	
20.0	127.39892165714173	pulse	1.0	t		23.0	male	white	2.6275368085953046	smiling	141	sub-13	1.0	3.0	141_smiling	0.0		151.76574568024444	
20.0	128.0989181254513	pulse	1.0	t		23.0	male	white	2.6275368085953046	smiling	141	sub-13	1.0	3.0	141_smiling	0.0		152.465742148554	
20.0	128.7989031233128	pulse	1.0	t		23.0	male	white	2.6275368085953046	smiling	141	sub-13	1.0	3.0	141_smiling	0.0		153.16572714641552	
20.0	129.49888238594986	pulse	1.0	t		23.0	male	white	2.6275368085953046	smiling	141	sub-13	1.0	3.0	141_smiling	0.0		153.86570640905256	
20.0	130.19886919493456	pulse	1.0	t		23.0	male	white	2.6275368085953046	smiling	141	sub-13	1.0	3.0	141_smiling	0.0		154.56569321803727	
20.0	130.89885358908805	pulse	1.0	t		23.0	male	white	2.6275368085953046	smiling	141	sub-13	1.0	3.0	141_smiling	0.0		155.26567761219076	
20.0	131.5988201738619	pulse	1.0	t		23.0	male	white	2.6275368085953046	smiling	141	sub-13	1.0	3.0	141_smiling	0.0		155.9656441969646	
20.0	132.29881000138585	pulse	1.0	t		23.0	male	white	2.6275368085953046	smiling	141	sub-13	1.0	3.0	141_smiling	0.0		156.66563402448855	
20.0	132.9988082808186	pulse	1.0	t		23.0	male	white	2.6275368085953046	smiling	141	sub-13	1.0	3.0	141_smiling	0.0		157.3656323039213	
21.0	133.27364625319342	face	0.0		145	20.0	male	black	2.609629924393156	smiling	043	sub-13	1.0	3.0	043_smiling	0.0		157.64047027629613	1.2333104226227078
21.0	133.6987718470532	pulse	0.0	t		20.0	male	black	2.609629924393156	smiling	043	sub-13	1.0	3.0	043_smiling	0.0		158.0655958701559	
21.0	134.39875412822948	pulse	0.0	t		20.0	male	black	2.609629924393156	smiling	043	sub-13	1.0	3.0	043_smiling	0.0		158.7655781513322	
21.0	134.50695667581613	fix	1.0		444	20.0	male	black	2.609629924393156	smiling	043	sub-13	1.0	3.0	043_smiling	0.0		158.87378069891884	3.7582775130013033
21.0	135.09874697429223	pulse	1.0	t		20.0	male	black	2.609629924393156	smiling	043	sub-13	1.0	3.0	043_smiling	0.0		159.46557099739493	
21.0	135.7987377073773	pulse	1.0	t		20.0	male	black	2.609629924393156	smiling	043	sub-13	1.0	3.0	043_smiling	0.0		160.16556173048002	
21.0	136.49936323920656	pulse	1.0	t		20.0	male	black	2.609629924393156	smiling	043	sub-13	1.0	3.0	043_smiling	0.0		160.86618726230927	
21.0	137.19874362371365	pulse	1.0	t		20.0	male	black	2.609629924393156	smiling	043	sub-13	1.0	3.0	043_smiling	0.0		161.56556764681636	
21.0	137.89868696573785	pulse	1.0	t		20.0	male	black	2.609629924393156	smiling	043	sub-13	1.0	3.0	043_smiling	0.0		162.26551098884056	
22.0	138.26523418881743	face	0.0		146	31.0	male	west_asian	1.9538400318344609	neutral	070	sub-13	1.0	3.0	070_neutral	0.0		162.63205821192014	1.2416310252683616
22.0	138.59866683208247	pulse	0.0	t		31.0	male	west_asian	1.9538400318344609	neutral	070	sub-13	1.0	3.0	070_neutral	0.0		162.96549085518518	
22.0	139.2986639040996	pulse	0.0	t		31.0	male	west_asian	1.9538400318344609	neutral	070	sub-13	1.0	3.0	070_neutral	0.0		163.66548792720232	
22.0	139.5068652140858	fix	1.0		444	31.0	male	west_asian	1.9538400318344609	neutral	070	sub-13	1.0	3.0	070_neutral	0.0		163.8736892371885	3.758360220968825
22.0	139.99863290370513	pulse	1.0	t		31.0	male	west_asian	1.9538400318344609	neutral	070	sub-13	1.0	3.0	070_neutral	0.0		164.36545692680784	
22.0	140.69862725903704	pulse	1.0	t		31.0	male	west_asian	1.9538400318344609	neutral	070	sub-13	1.0	3.0	070_neutral	0.0		165.06545128213975	
22.0	141.39862372734615	pulse	1.0	t		31.0	male	west_asian	1.9538400318344609	neutral	070	sub-13	1.0	3.0	070_neutral	0.0		165.76544775044886	
22.0	142.09859061397356	pulse	1.0	t		31.0	male	west_asian	1.9538400318344609	neutral	070	sub-13	1.0	3.0	070_neutral	0.0		166.46541463707626	
22.0	142.79856504694862	pulse	1.0	t		31.0	male	west_asian	1.9538400318344609	neutral	070	sub-13	1.0	3.0	070_neutral	0.0		167.16538907005133	
23.0	143.26522543505462	face	0.0		146	24.0	female	east_asian	4.409868682849185	smiling	030	sub-13	1.0	3.0	030_smiling	0.0		167.63204945815733	1.2415045484858638
23.0	143.49855155407977	pulse	0.0	t		24.0	female	east_asian	4.409868682849185	smiling	030	sub-13	1.0	3.0	030_smiling	0.0		167.86537557718248	
23.0	144.19854168345728	pulse	0.0	t		24.0	female	east_asian	4.409868682849185	smiling	030	sub-13	1.0	3.0	030_smiling	0.0		168.56536570656	
23.0	144.50672998354048	fix	1.0		444	24.0	female	east_asian	4.409868682849185	smiling	030	sub-13	1.0	3.0	030_smiling	0.0		168.8735540066432	3.766590871153312
23.0	144.89852517204918	pulse	1.0	t		24.0	female	east_asian	4.409868682849185	smiling	030	sub-13	1.0	3.0	030_smiling	0.0		169.26534919515188	
23.0	145.59853401636838	pulse	1.0	t		24.0	female	east_asian	4.409868682849185	smiling	030	sub-13	1.0	3.0	030_smiling	0.0		169.96535803947108	
23.0	146.2984861121554	pulse	1.0	t		24.0	female	east_asian	4.409868682849185	smiling	030	sub-13	1.0	3.0	030_smiling	0.0		170.6653101352581	
23.0	146.998465676646	pulse	1.0	t		24.0	female	east_asian	4.409868682849185	smiling	030	sub-13	1.0	3.0	030_smiling	0.0		171.3652896997487	
23.0	147.69845490046237	pulse	1.0	t		24.0	female	east_asian	4.409868682849185	smiling	030	sub-13	1.0	3.0	030_smiling	0.0		172.06527892356507	
24.0	148.2733208546938	face	0.0		145	26.0	female	white	4.854755272582572	neutral	027	sub-13	1.0	3.0	027_neutral	0.0		172.6401448777965	1.2332859724565424
24.0	148.3984326538298	pulse	0.0	t		26.0	female	white	4.854755272582572	neutral	027	sub-13	1.0	3.0	027_neutral	0.0		172.7652566769325	
24.0	149.0984248961854	pulse	0.0	t		26.0	female	white	4.854755272582572	neutral	027	sub-13	1.0	3.0	027_neutral	0.0		173.46524891928811	
24.0	149.50660682715034	fix	1.0		444	26.0	female	white	4.854755272582572	neutral	027	sub-13	1.0	3.0	027_neutral	0.0		173.87343085025304	3.7665966063777887
24.0	149.79840929033844	pulse	1.0	t		26.0	female	white	4.854755272582572	neutral	027	sub-13	1.0	3.0	027_neutral	0.0		174.16523331344115	
24.0	150.49839519376155	pulse	1.0	t		26.0	female	white	4.854755272582572	neutral	027	sub-13	1.0	3.0	027_neutral	0.0		174.86521921686426	
24.0	151.19837596566822	pulse	1.0	t		26.0	female	white	4.854755272582572	neutral	027	sub-13	1.0	3.0	027_neutral	0.0		175.56519998877093	
24.0	151.8989094320591	pulse	1.0	t		26.0	female	white	4.854755272582572	neutral	027	sub-13	1.0	3.0	027_neutral	0.0		176.2657334551618	
24.0	152.598342640998	pulse	1.0	t		26.0	female	white	4.854755272582572	neutral	027	sub-13	1.0	3.0	027_neutral	0.0		176.9651666641007	
25.0	153.27320343352812	face	0.0		145	40.0	female	west_asian	1.5777954635893354	smiling	038	sub-13	1.0	3.0	038_smiling	0.0		177.64002745663083	1.2333001595898168
25.0	153.2983324685224	pulse	0.0	t		40.0	female	west_asian	1.5777954635893354	smiling	038	sub-13	1.0	3.0	038_smiling	0.0		177.6651564916251	
25.0	153.998311731159	pulse	0.0	t		40.0	female	west_asian	1.5777954635893354	smiling	038	sub-13	1.0	3.0	038_smiling	0.0		178.3651357542617	
25.0	154.50650359311794	fix	1.0		443	40.0	female	west_asian	1.5777954635893354	smiling	038	sub-13	1.0	3.0	038_smiling	0.0		178.87332761622065	3.7665797025592838
25.0	154.6982888808193	pulse	1.0	t		40.0	female	west_asian	1.5777954635893354	smiling	038	sub-13	1.0	3.0	038_smiling	0.0		179.065112903922	
25.0	155.3982747842424	pulse	1.0	t		40.0	female	west_asian	1.5777954635893354	smiling	038	sub-13	1.0	3.0	038_smiling	0.0		179.7650988073451	
25.0	156.09827004513636	pulse	1.0	t		40.0	female	west_asian	1.5777954635893354	smiling	038	sub-13	1.0	3.0	038_smiling	0.0		180.46509406823907	
25.0	156.79823813917983	pulse	1.0	t		40.0	female	west_asian	1.5777954635893354	smiling	038	sub-13	1.0	3.0	038_smiling	0.0		181.16506216228254	
25.0	157.49821408142407	pulse	1.0	t		40.0	female	west_asian	1.5777954635893354	smiling	038	sub-13	1.0	3.0	038_smiling	0.0		181.86503810452677	
25.0	158.19820390894756	pulse	1.0	t		40.0	female	west_asian	1.5777954635893354	smiling	038	sub-13	1.0	3.0	038_smiling	0.0		182.56502793205027	
26.0	158.27308329567722	face	0.0		146	47.0	male	east_asian	2.171110226820533	smiling	024	sub-13	1.0	3.0	024_smiling	0.0		182.63990731877993	1.2333170634083217
26.0	158.89817713450748	pulse	0.0	t		47.0	male	east_asian	2.171110226820533	smiling	024	sub-13	1.0	3.0	024_smiling	0.0		183.2650011576102	
26.0	159.50640035908555	fix	1.0		443	47.0	male	east_asian	2.171110226820533	smiling	024	sub-13	1.0	3.0	024_smiling	0.0		183.87322438218825	3.758310113222251
26.0	159.59818567697266	pulse	1.0	t		47.0	male	east_asian	2.171110226820533	smiling	024	sub-13	1.0	3.0	024_smiling	0.0		183.96500970007537	
26.0	160.2981492432068	pulse	1.0	t		47.0	male	east_asian	2.171110226820533	smiling	024	sub-13	1.0	3.0	024_smiling	0.0		184.66497326630952	
26.0	160.99813544848394	pulse	1.0	t		47.0	male	east_asian	2.171110226820533	smiling	024	sub-13	1.0	3.0	024_smiling	0.0		185.36495947158664	
26.0	161.6981415761179	pulse	1.0	t		47.0	male	east_asian	2.171110226820533	smiling	024	sub-13	1.0	3.0	024_smiling	0.0		186.0649655992206	
26.0	162.3980867292653	pulse	1.0	t		47.0	male	east_asian	2.171110226820533	smiling	024	sub-13	1.0	3.0	024_smiling	0.0		186.764910752368	
26.0	163.09809496987646	pulse	1.0	t		47.0	male	east_asian	2.171110226820533	smiling	024	sub-13	1.0	3.0	024_smiling	0.0		187.46491899297916	
27.0	163.2647104723078	face	0.0		147	24.0	male	white	3.1153999204138483	neutral	012	sub-13	1.0	3.0	012_neutral	0.0		187.6315344954105	1.2498969923581171
27.0	163.7980899289164	pulse	0.0	t		24.0	male	white	3.1153999204138483	neutral	012	sub-13	1.0	3.0	012_neutral	0.0		188.1649139520191	
27.0	164.49807462492436	pulse	0.0	t		24.0	male	white	3.1153999204138483	neutral	012	sub-13	1.0	3.0	012_neutral	0.0		188.86489864802707	
27.0	164.51460746466591	fix	1.0		443	24.0	male	white	3.1153999204138483	neutral	012	sub-13	1.0	3.0	012_neutral	0.0		188.88143148776862	3.7582391775567885
27.0	165.19803879486653	pulse	1.0	t		24.0	male	white	3.1153999204138483	neutral	012	sub-13	1.0	3.0	012_neutral	0.0		189.56486281796924	
27.0	165.89802862239003	pulse	1.0	t		24.0	male	white	3.1153999204138483	neutral	012	sub-13	1.0	3.0	012_neutral	0.0		190.26485264549274	
27.0	166.59801724249837	pulse	1.0	t		24.0	male	white	3.1153999204138483	neutral	012	sub-13	1.0	3.0	012_neutral	0.0		190.96484126560108	
27.0	167.29800676816785	pulse	1.0	t		24.0	male	white	3.1153999204138483	neutral	012	sub-13	1.0	3.0	012_neutral	0.0		191.66483079127056	
27.0	167.99796308990926	pulse	1.0	t		24.0	male	white	3.1153999204138483	neutral	012	sub-13	1.0	3.0	012_neutral	0.0		192.36478711301197	
28.0	168.2728466422227	face	0.0		145	24.0	female	east_asian	4.409868682849185	neutral	030	sub-13	1.0	3.0	030_neutral	0.0		192.6396706653254	1.2333028762750473
28.0	168.6979770657449	pulse	0.0	t		24.0	female	east_asian	4.409868682849185	neutral	030	sub-13	1.0	3.0	030_neutral	0.0		193.06480108884762	
28.0	169.39794878203475	pulse	0.0	t		24.0	female	east_asian	4.409868682849185	neutral	030	sub-13	1.0	3.0	030_neutral	0.0		193.76477280513745	
28.0	169.50614951849775	fix	1.0		444	24.0	female	east_asian	4.409868682849185	neutral	030	sub-13	1.0	3.0	030_neutral	0.0		193.87297354160046	3.7582823426637333
28.0	170.09793257248066	pulse	1.0	t		24.0	female	east_asian	4.409868682849185	neutral	030	sub-13	1.0	3.0	030_neutral	0.0		194.46475659558337	
28.0	170.79790791101686	pulse	1.0	t		24.0	female	east_asian	4.409868682849185	neutral	030	sub-13	1.0	3.0	030_neutral	0.0		195.16473193411957	
28.0	171.49789743668725	pulse	1.0	t		24.0	female	east_asian	4.409868682849185	neutral	030	sub-13	1.0	3.0	030_neutral	0.0		195.86472145978996	
28.0	172.1978818308403	pulse	1.0	t		24.0	female	east_asian	4.409868682849185	neutral	030	sub-13	1.0	3.0	030_neutral	0.0		196.564705853943	
28.0	172.89786652684825	pulse	1.0	t		24.0	female	east_asian	4.409868682849185	neutral	030	sub-13	1.0	3.0	030_neutral	0.0		197.26469054995096	
29.0	173.26443186116148	face	0.0		146	23.0	male	white	2.6275368085953046	neutral	141	sub-13	1.0	3.0	141_neutral	0.0		197.6312558842642	1.2416189511122866
29.0	173.59785212841734	pulse	0.0	t		23.0	male	white	2.6275368085953046	neutral	141	sub-13	1.0	3.0	141_neutral	0.0		197.96467615152005	
29.0	174.29783259847	pulse	0.0	t		23.0	male	white	2.6275368085953046	neutral	141	sub-13	1.0	3.0	141_neutral	0.0		198.6646566215727	
29.0	174.50605081227377	fix	1.0		444	23.0	male	white	2.6275368085953046	neutral	141	sub-13	1.0	3.0	141_neutral	0.0		198.87287483537648	3.7582385738487574
29.0	174.99784717801367	pulse	1.0	t		23.0	male	white	2.6275368085953046	neutral	141	sub-13	1.0	3.0	141_neutral	0.0		199.36467120111638	
29.0	175.6977977645306	pulse	1.0	t		23.0	male	white	2.6275368085953046	neutral	141	sub-13	1.0	3.0	141_neutral	0.0		200.0646217876333	
29.0	176.39778819576213	pulse	1.0	t		23.0	male	white	2.6275368085953046	neutral	141	sub-13	1.0	3.0	141_neutral	0.0		200.76461221886484	
29.0	177.09776564727645	pulse	1.0	t		23.0	male	white	2.6275368085953046	neutral	141	sub-13	1.0	3.0	141_neutral	0.0		201.46458967037915	
29.0	177.79773826912742	pulse	1.0	t		23.0	male	white	2.6275368085953046	neutral	141	sub-13	1.0	3.0	141_neutral	0.0		202.16456229223013	
30.0	178.26428938612253	face	0.0		146	22.0	female	west_asian	3.8205332272184642	smiling	066	sub-13	1.0	3.0	066_smiling	0.0		202.63111340922524	1.2416406845932215
30.0	178.49772930406698	pulse	0.0	t		22.0	female	west_asian	3.8205332272184642	smiling	066	sub-13	1.0	3.0	066_smiling	0.0		202.8645533271697	
30.0	179.19771852788244	pulse	0.0	t		22.0	female	west_asian	3.8205332272184642	smiling	066	sub-13	1.0	3.0	066_smiling	0.0		203.56454255098515	
30.0	179.50593007071575	fix	1.0		444	22.0	female	west_asian	3.8205332272184642	smiling	066	sub-13	1.0	3.0	066_smiling	0.0		203.87275409381846	3.7665679302572244
30.0	179.89770201647434	pulse	1.0	t		22.0	female	west_asian	3.8205332272184642	smiling	066	sub-13	1.0	3.0	066_smiling	0.0		204.26452603957705	
30.0	180.59769456068307	pulse	1.0	t		22.0	female	west_asian	3.8205332272184642	smiling	066	sub-13	1.0	3.0	066_smiling	0.0		204.96451858378578	
30.0	181.29766718253495	pulse	1.0	t		22.0	female	west_asian	3.8205332272184642	smiling	066	sub-13	1.0	3.0	066_smiling	0.0		205.66449120563766	
30.0	181.99765127483488	pulse	1.0	t		22.0	female	west_asian	3.8205332272184642	smiling	066	sub-13	1.0	3.0	066_smiling	0.0		206.3644752979376	
30.0	182.69763989494322	pulse	1.0	t		22.0	female	west_asian	3.8205332272184642	smiling	066	sub-13	1.0	3.0	066_smiling	0.0		207.06446391804593	
31.0	183.27249800097297	face	0.0		145	22.0	male	black	2.767608436132113	neutral	044	sub-13	1.0	3.0	044_neutral	0.0		207.63932202407568	1.2332998577358012
31.0	183.39761402606428	pulse	0.0	t		22.0	male	black	2.767608436132113	neutral	044	sub-13	1.0	3.0	044_neutral	0.0		207.76443804916698	
31.0	184.09761441847377	pulse	0.0	t		22.0	male	black	2.767608436132113	neutral	044	sub-13	1.0	3.0	044_neutral	0.0		208.46443844157648	
31.0	184.50579785870877	fix	1.0		444	22.0	male	black	2.767608436132113	neutral	044	sub-13	1.0	3.0	044_neutral	0.0		208.87262188181148	3.766581211828452
31.0	184.7976072645365	pulse	1.0	t		22.0	male	black	2.767608436132113	neutral	044	sub-13	1.0	3.0	044_neutral	0.0		209.16443128763922	
31.0	185.49756871779437	pulse	1.0	t		22.0	male	black	2.767608436132113	neutral	044	sub-13	1.0	3.0	044_neutral	0.0		209.86439274089707	
31.0	186.19756428054234	pulse	1.0	t		22.0	male	black	2.767608436132113	neutral	044	sub-13	1.0	3.0	044_neutral	0.0		210.56438830364505	
31.0	186.8975344875621	pulse	1.0	t		22.0	male	black	2.767608436132113	neutral	044	sub-13	1.0	3.0	044_neutral	0.0		211.2643585106648	
31.0	187.59752069283923	pulse	1.0	t		22.0	male	black	2.767608436132113	neutral	044	sub-13	1.0	3.0	044_neutral	0.0		211.96434471594193	
32.0	188.27237907053723	face	0.0		145	37.0	male	white	3.898925586947871	neutral	101	sub-13	1.0	3.0	101_neutral	0.0		212.63920309363994	1.233315855993169
32.0	188.2975099166556	pulse	0.0	t		37.0	male	white	3.898925586947871	neutral	101	sub-13	1.0	3.0	101_neutral	0.0		212.6643339397583	
32.0	188.99749068856227	pulse	0.0	t		37.0	male	white	3.898925586947871	neutral	101	sub-13	1.0	3.0	101_neutral	0.0		213.36431471166497	
32.0	189.5056949265304	fix	1.0		443	37.0	male	white	3.898925586947871	neutral	101	sub-13	1.0	3.0	101_neutral	0.0		213.8725189496331	3.7665661191340405
32.0	189.69747417715416	pulse	1.0	t		37.0	male	white	3.898925586947871	neutral	101	sub-13	1.0	3.0	101_neutral	0.0		214.06429820025687	
32.0	190.39744921383635	pulse	1.0	t		37.0	male	white	3.898925586947871	neutral	101	sub-13	1.0	3.0	101_neutral	0.0		214.76427323693906	
32.0	191.09743873950674	pulse	1.0	t		37.0	male	white	3.898925586947871	neutral	101	sub-13	1.0	3.0	101_neutral	0.0		215.46426276260945	
32.0	191.79742434107584	pulse	1.0	t		37.0	male	white	3.898925586947871	neutral	101	sub-13	1.0	3.0	101_neutral	0.0		216.16424836417855	
32.0	192.49739696292772	pulse	1.0	t		37.0	male	white	3.898925586947871	neutral	101	sub-13	1.0	3.0	101_neutral	0.0		216.86422098603043	
32.0	193.19738588488917	pulse	1.0	t		37.0	male	white	3.898925586947871	neutral	101	sub-13	1.0	3.0	101_neutral	0.0		217.56420990799188	
33.0	193.27226104566444	face	0.0		146	32.0	male	white	2.389176283326701	smiling	092	sub-13	1.0	3.0	092_smiling	0.0		217.63908506876714	1.2333071022294462
33.0	193.89737661797471	pulse	0.0	t		32.0	male	white	2.389176283326701	smiling	092	sub-13	1.0	3.0	092_smiling	0.0		218.26420064107742	
33.0	194.50556814789388	fix	1.0		443	32.0	male	white	2.389176283326701	smiling	092	sub-13	1.0	3.0	092_smiling	0.0		218.8723921709966	3.7665751747508693
33.0	194.5973893863943	pulse	1.0	t		32.0	male	white	2.389176283326701	smiling	092	sub-13	1.0	3.0	092_smiling	0.0		218.964213409497	
33.0	195.29732789875607	pulse	1.0	t		32.0	male	white	2.389176283326701	smiling	092	sub-13	1.0	3.0	092_smiling	0.0		219.66415192185877	
33.0	195.99732406521116	pulse	1.0	t		32.0	male	white	2.389176283326701	smiling	092	sub-13	1.0	3.0	092_smiling	0.0		220.36414808831387	
33.0	196.69730725194904	pulse	1.0	t		32.0	male	white	2.389176283326701	smiling	092	sub-13	1.0	3.0	092_smiling	0.0		221.06413127505175	
33.0	197.3972898349798	pulse	1.0	t		32.0	male	white	2.389176283326701	smiling	092	sub-13	1.0	3.0	092_smiling	0.0		221.7641138580825	
33.0	198.09726819205525	pulse	1.0	t		32.0	male	white	2.389176283326701	smiling	092	sub-13	1.0	3.0	092_smiling	0.0		222.46409221515796	
34.0	198.27214332264475	face	0.0		146	24.0	female	black	3.0955033824114606	neutral	099	sub-13	1.0	3.0	099_neutral	0.0		222.63896734574746	1.2416560791416487
34.0	198.79727099929687	pulse	0.0	t		24.0	female	black	3.0955033824114606	neutral	099	sub-13	1.0	3.0	099_neutral	0.0		223.16409502239958	
34.0	199.49723909333943	pulse	0.0	t		24.0	female	black	3.0955033824114606	neutral	099	sub-13	1.0	3.0	099_neutral	0.0		223.86406311644214	
34.0	199.5137994017864	fix	1.0		443	24.0	female	black	3.0955033824114606	neutral	099	sub-13	1.0	3.0	099_neutral	0.0		223.8806234248891	3.7499294416511475
34.0	200.1972135263145	pulse	1.0	t		24.0	female	black	3.0955033824114606	neutral	099	sub-13	1.0	3.0	099_neutral	0.0		224.5640375494172	
34.0	200.897193090806	pulse	1.0	t		24.0	female	black	3.0955033824114606	neutral	099	sub-13	1.0	3.0	099_neutral	0.0		225.26401711390872	
34.0	201.59716420338782	pulse	1.0	t		24.0	female	black	3.0955033824114606	neutral	099	sub-13	1.0	3.0	099_neutral	0.0		225.96398822649053	
34.0	202.29715071051896	pulse	1.0	t		24.0	female	black	3.0955033824114606	neutral	099	sub-13	1.0	3.0	099_neutral	0.0		226.66397473362167	
34.0	202.99742307328916	pulse	1.0	t		24.0	female	black	3.0955033824114606	neutral	099	sub-13	1.0	3.0	099_neutral	0.0		227.36424709639186	
35.0	203.26372884343755	face	0.0		146	19.0	female	white	4.298846000795861	smiling	100	sub-13	1.0	3.0	100_smiling	0.0		227.63055286654026	1.2415938972389995
35.0	203.6971442508452	pulse	0.0	t		19.0	female	white	4.298846000795861	smiling	100	sub-13	1.0	3.0	100_smiling	0.0		228.06396827394792	
35.0	204.3971256264599	pulse	0.0	t		19.0	female	white	4.298846000795861	smiling	100	sub-13	1.0	3.0	100_smiling	0.0		228.76394964956262	
35.0	204.50532274067655	fix	1.0		444	19.0	female	white	4.298846000795861	smiling	100	sub-13	1.0	3.0	100_smiling	0.0		228.87214676377926	3.7583768229333145
35.0	205.09711394471424	pulse	1.0	t		19.0	female	white	4.298846000795861	smiling	100	sub-13	1.0	3.0	100_smiling	0.0		229.46393796781695	
35.0	205.79710679077698	pulse	1.0	t		19.0	female	white	4.298846000795861	smiling	100	sub-13	1.0	3.0	100_smiling	0.0		230.1639308138797	
35.0	206.4970609995412	pulse	1.0	t		19.0	female	white	4.298846000795861	smiling	100	sub-13	1.0	3.0	100_smiling	0.0		230.8638850226439	
35.0	207.19705203448075	pulse	1.0	t		19.0	female	white	4.298846000795861	smiling	100	sub-13	1.0	3.0	100_smiling	0.0		231.56387605758346	
35.0	207.89704156015023	pulse	1.0	t		19.0	female	white	4.298846000795861	smiling	100	sub-13	1.0	3.0	100_smiling	0.0		232.26386558325294	
36.0	208.26369956360986	face	0.0		146	21.0	male	black	2.969757262236371	smiling	137	sub-13	1.0	3.0	137_smiling	1.0	attractiveness	232.63052358671257	1.2415359412907492
36.0	208.5970286709885	pulse	0.0	t		21.0	male	black	2.969757262236371	smiling	137	sub-13	1.0	3.0	137_smiling	1.0	attractiveness	232.9638526940912	
36.0	209.29699917986318	pulse	0.0	t		21.0	male	black	2.969757262236371	smiling	137	sub-13	1.0	3.0	137_smiling	1.0	attractiveness	233.6638232029659	
36.0	209.5052355049006	fix	1.0		177	21.0	male	black	2.969757262236371	smiling	137	sub-13	1.0	3.0	137_smiling	1.0	attractiveness	233.87205952800332	1.4999560802580163
36.0	209.99700923159753	pulse	1.0	t		21.0	male	black	2.969757262236371	smiling	137	sub-13	1.0	3.0	137_smiling	1.0	attractiveness	234.36383325470024	
36.0	210.69696977929334	pulse	1.0	t		21.0	male	black	2.969757262236371	smiling	137	sub-13	1.0	3.0	137_smiling	1.0	attractiveness	235.06379380239605	
36.0	211.00519158515863	rating	2.0		295	21.0	male	black	2.969757262236371	smiling	137	sub-13	1.0	3.0	137_smiling	1.0	attractiveness	235.37201560826134	2.508264608747595
36.0	211.39696775687253	pulse	2.0	t		21.0	male	black	2.969757262236371	smiling	137	sub-13	1.0	3.0	137_smiling	1.0	attractiveness	235.76379177997524	
36.0	212.0969382657472	pulse	2.0	t		21.0	male	black	2.969757262236371	smiling	137	sub-13	1.0	3.0	137_smiling	1.0	attractiveness	236.46376228884992	
36.0	212.15009926465382	response	2.0	w		21.0	male	black	2.969757262236371	smiling	137	sub-13	1.0	3.0	137_smiling	1.0	attractiveness	236.51692328775653	
36.0	212.7969130005754	pulse	2.0	t		21.0	male	black	2.969757262236371	smiling	137	sub-13	1.0	3.0	137_smiling	1.0	attractiveness	237.1637370236781	
36.0	213.49691852450223	pulse	2.0	t		21.0	male	black	2.969757262236371	smiling	137	sub-13	1.0	3.0	137_smiling	1.0	attractiveness	237.86374254760494	
36.0	213.51345619390622	fix	3.0		443	21.0	male	black	2.969757262236371	smiling	137	sub-13	1.0	3.0	137_smiling	1.0	attractiveness	237.88028021700893	3.758239479410804
36.0	214.19689567416253	pulse	3.0	t		21.0	male	black	2.969757262236371	smiling	137	sub-13	1.0	3.0	137_smiling	1.0	attractiveness	238.56371969726524	
36.0	214.89687614421518	pulse	3.0	t		21.0	male	black	2.969757262236371	smiling	137	sub-13	1.0	3.0	137_smiling	1.0	attractiveness	239.2637001673179	
36.0	215.5968644624695	pulse	3.0	t		21.0	male	black	2.969757262236371	smiling	137	sub-13	1.0	3.0	137_smiling	1.0	attractiveness	239.96368848557222	
36.0	216.29684644179133	pulse	3.0	t		21.0	male	black	2.969757262236371	smiling	137	sub-13	1.0	3.0	137_smiling	1.0	attractiveness	240.66367046489404	
36.0	216.99682842111406	pulse	3.0	t		21.0	male	black	2.969757262236371	smiling	137	sub-13	1.0	3.0	137_smiling	1.0	attractiveness	241.36365244421677	
37.0	217.27169567331703	face	0.0		145	31.0	female	white	2.1822522881018704	smiling	102	sub-13	1.0	3.0	102_smiling	0.0		241.63851969641973	1.2333052911062623
37.0	217.696812815268	pulse	0.0	t		31.0	female	white	2.1822522881018704	smiling	102	sub-13	1.0	3.0	102_smiling	0.0		242.0636368383707	
37.0	218.396786040827	pulse	0.0	t		31.0	female	white	2.1822522881018704	smiling	102	sub-13	1.0	3.0	102_smiling	0.0		242.76361006392972	
37.0	218.5050009644233	fix	1.0		444	31.0	female	white	2.1822522881018704	smiling	102	sub-13	1.0	3.0	102_smiling	0.0		242.871824987526	3.7665815136824676
37.0	219.09676771829572	pulse	1.0	t		31.0	female	white	2.1822522881018704	smiling	102	sub-13	1.0	3.0	102_smiling	0.0		243.46359174139843	
37.0	219.79675543284202	pulse	1.0	t		31.0	female	white	2.1822522881018704	smiling	102	sub-13	1.0	3.0	102_smiling	0.0		244.16357945594473	
37.0	220.49673288435633	pulse	1.0	t		31.0	female	white	2.1822522881018704	smiling	102	sub-13	1.0	3.0	102_smiling	0.0		244.86355690745904	
37.0	221.19672180631778	pulse	1.0	t		31.0	female	white	2.1822522881018704	smiling	102	sub-13	1.0	3.0	102_smiling	0.0		245.5635458294205	
37.0	221.89672944322183	pulse	1.0	t		31.0	female	white	2.1822522881018704	smiling	102	sub-13	1.0	3.0	102_smiling	0.0		246.26355346632454	
38.0	222.27158247810576	face	0.0		145	47.0	male	east_asian	2.171110226820533	neutral	024	sub-13	1.0	3.0	024_neutral	0.0		246.63840650120846	1.2332865761645735
38.0	222.5967081021513	pulse	0.0	t		47.0	male	east_asian	2.171110226820533	neutral	024	sub-13	1.0	3.0	024_neutral	0.0		246.963532125254	
38.0	223.29668283698038	pulse	0.0	t		47.0	male	east_asian	2.171110226820533	neutral	024	sub-13	1.0	3.0	024_neutral	0.0		247.6635068600831	
38.0	223.50486905427033	fix	1.0		444	47.0	male	east_asian	2.171110226820533	neutral	024	sub-13	1.0	3.0	024_neutral	0.0		247.87169307737304	3.7583387893428153
38.0	223.99667598489623	pulse	1.0	t		47.0	male	east_asian	2.171110226820533	neutral	024	sub-13	1.0	3.0	024_neutral	0.0		248.36350000799894	
38.0	224.69664709747894	pulse	1.0	t		47.0	male	east_asian	2.171110226820533	neutral	024	sub-13	1.0	3.0	024_neutral	0.0		249.06347112058165	
38.0	225.39662183230803	pulse	1.0	t		47.0	male	east_asian	2.171110226820533	neutral	024	sub-13	1.0	3.0	024_neutral	0.0		249.76344585541074	
38.0	226.09661588578592	pulse	1.0	t		47.0	male	east_asian	2.171110226820533	neutral	024	sub-13	1.0	3.0	024_neutral	0.0		250.46343990888863	
38.0	226.79660058179297	pulse	1.0	t		47.0	male	east_asian	2.171110226820533	neutral	024	sub-13	1.0	3.0	024_neutral	0.0		251.16342460489568	
39.0	227.26320784361315	face	0.0		146	26.0	female	white	4.854755272582572	smiling	027	sub-13	1.0	3.0	027_smiling	0.0		251.63003186671585	1.2415625044332046
39.0	227.49658829634018	pulse	0.0	t		26.0	female	white	4.854755272582572	smiling	027	sub-13	1.0	3.0	027_smiling	0.0		251.8634123194429	
39.0	228.19655246628236	pulse	0.0	t		26.0	female	white	4.854755272582572	smiling	027	sub-13	1.0	3.0	027_smiling	0.0		252.56337648938506	
39.0	228.50477034804635	fix	1.0		444	26.0	female	white	4.854755272582572	smiling	027	sub-13	1.0	3.0	027_smiling	0.0		252.87159437114906	3.749910726710368
39.0	228.89655859391632	pulse	1.0	t		26.0	female	white	4.854755272582572	smiling	027	sub-13	1.0	3.0	027_smiling	0.0		253.26338261701903	
39.0	229.5965245749826	pulse	1.0	t		26.0	female	white	4.854755272582572	smiling	027	sub-13	1.0	3.0	027_smiling	0.0		253.9633485980853	
39.0	230.29650715801245	pulse	1.0	t		26.0	female	white	4.854755272582572	smiling	027	sub-13	1.0	3.0	027_smiling	0.0		254.66333118111515	
39.0	230.99648642064994	pulse	1.0	t		26.0	female	white	4.854755272582572	smiling	027	sub-13	1.0	3.0	027_smiling	0.0		255.36331044375265	
39.0	231.69649918906953	pulse	1.0	t		26.0	female	white	4.854755272582572	smiling	027	sub-13	1.0	3.0	027_smiling	0.0		256.06332321217224	
40.0	232.25468107475672	fix	0.0		720													256.6215050978594	5.9998602416462745
40.0	232.39646064232738	pulse	0.0	t														256.7632846654301	
40.0	233.09645409209725	pulse	0.0	t														257.46327811519996	
40.0	233.7964218842867	pulse	0.0	t														258.1632459073894	
40.0	234.49640718400178	pulse	0.0	t														258.8632312071045	
40.0	235.19640485972695	pulse	0.0	t														259.56322888282966	
40.0	235.89636118146836	pulse	0.0	t														260.2631852045711	
40.0	236.5963519145539	pulse	0.0	t														260.9631759376566	
40.0	237.29634264763945	pulse	0.0	t														261.66316667074216	
40.0	237.99632221213005	pulse	0.0	t														262.36314623523276	
