trial_nr	onset	event_type	phase	response	nr_frames	trial_type	stim_name	task_probe	onset_abs	duration
0.0	0.060887369294505334	baseline	0.0		700		baseline	0.0	46.769604974055255	5.841191220545625
0.0	0.7023521290147983	pulse	0.0	t			baseline	0.0	47.41106973377555	
0.0	1.4022966786214965	pulse	0.0	t			baseline	0.0	48.11101428338225	
0.0	2.102281978381143	pulse	0.0	t			baseline	0.0	48.81099958314189	
0.0	2.802270296670031	pulse	0.0	t			baseline	0.0	49.51098790143078	
0.0	3.5022519741942233	pulse	0.0	t			baseline	0.0	50.21096957895497	
0.0	4.202233953571522	pulse	0.0	t			baseline	0.0	50.91095155833227	
0.0	4.902206273652155	pulse	0.0	t			baseline	0.0	51.610923878412905	
0.0	5.602184328939984	pulse	0.0	t			baseline	0.0	52.310901933700734	
0.0	5.90207858984013	ISI	1.0		5		baseline	0.0	52.61079619460088	0.12545160979698267
1.0	6.027530199637113	house	0.0		45	place	house-64.jpg	0.0	52.73624780439786	0.37448454829609545
1.0	6.302130689665319	pulse	0.0	t		place	house-64.jpg	0.0	53.01084829442607	
1.0	6.402014747933208	ISI	1.0		356	place	house-64.jpg	0.0	53.11073235269396	3.0166043289946174
1.0	7.002111159777087	pulse	1.0	t		place	house-64.jpg	0.0	53.71082876453784	
1.0	7.70209827065446	pulse	1.0	t		place	house-64.jpg	0.0	54.41081587541521	
1.0	8.402065459235018	pulse	1.0	t		place	house-64.jpg	0.0	55.11078306399577	
1.0	9.10202932743232	pulse	1.0	t		place	house-64.jpg	0.0	55.81074693219307	
2.0	9.418619076927826	adult	0.0		46	face	adult-1.jpg	0.0	56.127336681688575	0.38330197583945846
2.0	9.801921052767284	ISI	1.0		353	face	adult-1.jpg	0.0	56.510638657528034	3.016641456911202
2.0	9.857327073707893	pulse	1.0	t		face	adult-1.jpg	0.0	56.56604467846864	
2.0	10.502014717748352	pulse	1.0	t		face	adult-1.jpg	0.0	57.2107323225091	
2.0	11.201983415593531	pulse	1.0	t		face	adult-1.jpg	0.0	57.91070102035428	
2.0	11.901970526470905	pulse	1.0	t		face	adult-1.jpg	0.0	58.610688131231655	
2.0	12.602028874653115	pulse	1.0	t		face	adult-1.jpg	0.0	59.310746479413865	
3.0	12.818562509678486	limb	0.0		46	body	limb-41.jpg	0.0	59.527280114439236	0.38326665903969115
3.0	13.201829168718177	ISI	1.0		235	body	limb-41.jpg	0.0	59.91054677347893	2.0166339105871884
3.0	13.301942937107924	pulse	1.0	t		body	limb-41.jpg	0.0	60.010660541868674	
3.0	14.001908918276968	pulse	1.0	t		body	limb-41.jpg	0.0	60.71062652303772	
3.0	14.701892406918887	pulse	1.0	t		body	limb-41.jpg	0.0	61.41061001167964	
4.0	15.218463079305366	limb	0.0		46	body	limb-64.jpg	0.0	61.927180684066116	0.3833016739863524
4.0	15.401882234473305	pulse	0.0	t		body	limb-64.jpg	0.0	62.110599839234055	
4.0	15.601764753291718	ISI	1.0		233	body	limb-64.jpg	0.0	62.31048235805247	2.016617912378024
4.0	16.101866326820527	pulse	1.0	t		body	limb-64.jpg	0.0	62.81058393158128	
4.0	16.801836533931237	pulse	1.0	t		body	limb-64.jpg	0.0	63.51055413869199	
4.0	17.501825757779443	pulse	1.0	t		body	limb-64.jpg	0.0	64.2105433625402	
5.0	17.618382665669742	number	0.0		46	character	number-115.jpg	0.0	64.32710027043049	0.38331827590081957
5.0	18.00170094157056	ISI	1.0		235	character	number-115.jpg	0.0	64.71041854633131	2.016666208855895
5.0	18.201808944568256	pulse	1.0	t		character	number-115.jpg	0.0	64.910526549329	
5.0	18.90186397236721	pulse	1.0	t		character	number-115.jpg	0.0	65.61058157712796	
5.0	19.601841725802842	pulse	1.0	t		character	number-115.jpg	0.0	66.31055933056359	
6.0	20.018367150426457	house	0.0		46	place	house-15.jpg	0.0	66.7270847551872	0.3832672627459033
6.0	20.301748241932728	pulse	0.0	t		place	house-15.jpg	0.0	67.01046584669348	
6.0	20.40163441317236	ISI	1.0		235	place	house-15.jpg	0.0	67.11035201793311	2.016625760556053
6.0	21.001731730574647	pulse	1.0	t		place	house-15.jpg	0.0	67.7104493353354	
6.0	21.701711295128007	pulse	1.0	t		place	house-15.jpg	0.0	68.41042889988876	
7.0	22.418260173728413	number	0.0		45	character	number-72.jpg	0.0	69.12697777848916	0.3833215962831673
7.0	22.410063054070633	pulse	0.0	t		character	number-72.jpg	0.0	69.11878065883138	
7.0	22.80158177001158	ISI	1.0		235	character	number-72.jpg	0.0	69.51029937477233	2.0166251568507505
7.0	23.10167887611715	pulse	1.0	t		character	number-72.jpg	0.0	69.8103964808779	
7.0	23.801650894345585	pulse	1.0	t		character	number-72.jpg	0.0	70.51036849910633	
7.0	24.501634382987504	pulse	1.0	t		character	number-72.jpg	0.0	71.21035198774825	
8.0	24.81820692686233	car	0.0		46	object	car-36.jpg	0.0	71.52692453162308	0.3832853739249913
8.0	25.201492300787322	ISI	1.0		355	object	car-36.jpg	0.0	71.91020990554807	3.016653229177791
8.0	25.23393636516539	pulse	1.0	t		object	car-36.jpg	0.0	71.94265396992614	
8.0	25.901601058417327	pulse	1.0	t		object	car-36.jpg	0.0	72.61031866317808	
8.0	26.601643408391283	pulse	1.0	t		object	car-36.jpg	0.0	73.31036101315203	
8.0	27.30161301179578	pulse	1.0	t		object	car-36.jpg	0.0	74.01033061655653	
8.0	28.001598613408532	pulse	1.0	t		object	car-36.jpg	0.0	74.71031621816928	
9.0	28.218145529965113	adult	0.0		46	face	adult-122.jpg	0.0	74.92686313472586	0.383266055333479
9.0	28.601411585298592	ISI	1.0		236	face	adult-122.jpg	0.0	75.31012919005934	2.0166357217049153
9.0	28.70152686295387	pulse	1.0	t		face	adult-122.jpg	0.0	75.41024446771462	
9.0	29.401501899712457	pulse	1.0	t		face	adult-122.jpg	0.0	76.1102195044732	
9.0	30.101476030910817	pulse	1.0	t		face	adult-122.jpg	0.0	76.81019363567157	
10.0	30.618047307003508	car	0.0		46	object	car-5.jpg	0.0	77.32676491176426	0.3833016739863524
10.0	30.801467971436978	pulse	0.0	t		object	car-5.jpg	0.0	77.51018557619773	
10.0	31.00134898098986	ISI	1.0		233	object	car-5.jpg	0.0	77.71006658575061	2.0166333068809763
10.0	31.50144663043011	pulse	1.0	t		object	car-5.jpg	0.0	78.21016423519086	
10.0	32.20142136533559	pulse	1.0	t		object	car-5.jpg	0.0	78.91013897009634	
10.0	32.901398213211905	pulse	1.0	t		object	car-5.jpg	0.0	79.61011581797266	
11.0	33.017982287870836	number	0.0		46	character	number-129.jpg	0.0	79.72669989263159	0.38330227769165504
11.0	33.40128456556249	ISI	1.0		236	character	number-129.jpg	0.0	80.11000217032324	2.0166740570339243
11.0	33.60139558709034	pulse	1.0	t		character	number-129.jpg	0.0	80.31011319185109	
11.0	34.30144910562467	pulse	1.0	t		character	number-129.jpg	0.0	81.01016671038542	
11.0	35.001406333057275	pulse	1.0	t		character	number-129.jpg	0.0	81.71012393781803	
12.0	35.417958622596416	adult	0.0		46	face	adult-97.jpg	0.0	82.12667622735717	0.3832600182749957
12.0	35.70133458260261	pulse	0.0	t		face	adult-97.jpg	0.0	82.41005218736336	
12.0	35.80121864087141	ISI	1.0		952	face	adult-97.jpg	0.0	82.50993624563216	8.01650260453789
12.0	36.40129875265302	pulse	1.0	t		face	adult-97.jpg	0.0	83.11001635741377	
12.0	37.10128978761986	pulse	1.0	t		face	adult-97.jpg	0.0	83.81000739238061	
12.0	37.801269955878524	pulse	1.0	t		face	adult-97.jpg	0.0	84.50998756063927	
12.0	38.501258877873624	pulse	1.0	t		face	adult-97.jpg	0.0	85.20997648263437	
12.0	39.2012269720135	pulse	1.0	t		face	adult-97.jpg	0.0	85.90994457677425	
12.0	39.90121438474398	pulse	1.0	t		face	adult-97.jpg	0.0	86.60993198950473	
12.0	40.60119485485575	pulse	1.0	t		face	adult-97.jpg	0.0	87.3099124596165	
12.0	41.30120943435486	pulse	1.0	t		face	adult-97.jpg	0.0	88.00992703911561	
12.0	42.001222202736244	pulse	1.0	t		face	adult-97.jpg	0.0	88.709939807497	
12.0	42.70121293584998	pulse	1.0	t		face	adult-97.jpg	0.0	89.40993054061073	
12.0	43.40119008557849	pulse	1.0	t		face	adult-97.jpg	0.0	90.10990769033924	
13.0	43.8177212454093	limb	0.0		46	body	limb-15.jpg	0.0	90.52643885017005	0.38327028127605445
13.0	44.10110505359262	pulse	0.0	t		body	limb-15.jpg	0.0	90.80982265835337	
13.0	44.20099152668536	ISI	1.0		236	body	limb-15.jpg	0.0	90.9097091314461	2.016625156849841
13.0	44.80108763667522	pulse	1.0	t		body	limb-15.jpg	0.0	91.50980524143597	
13.0	45.501065993816155	pulse	1.0	t		body	limb-15.jpg	0.0	92.2097835985769	
14.0	46.2176166835352	adult	0.0		45	face	adult-116.jpg	0.0	92.92633428829595	0.3833116351352146
14.0	46.20978812637168	pulse	0.0	t		face	adult-116.jpg	0.0	92.91850573113243	
14.0	46.60092831867041	ISI	1.0		593	face	adult-116.jpg	0.0	93.30964592343116	5.016566899224017
14.0	46.901030556276055	pulse	1.0	t		face	adult-116.jpg	0.0	93.6097481610368	
14.0	47.601008611563884	pulse	1.0	t		face	adult-116.jpg	0.0	94.30972621632463	
14.0	48.30098485573399	pulse	1.0	t		face	adult-116.jpg	0.0	95.00970246049474	
14.0	49.00096079805098	pulse	1.0	t		face	adult-116.jpg	0.0	95.70967840281173	
14.0	49.70094458854601	pulse	1.0	t		face	adult-116.jpg	0.0	96.40966219330676	
14.0	50.40099599410951	pulse	1.0	t		face	adult-116.jpg	0.0	97.10971359887026	
14.0	51.10097767163279	pulse	1.0	t		face	adult-116.jpg	0.0	97.80969527639354	
15.0	51.61749521789443	number	0.0		46	character	number-43.jpg	0.0	98.32621282265518	0.38328477021877916
15.0	51.80089958226563	pulse	0.0	t		character	number-43.jpg	0.0	98.50961718702638	
15.0	52.00077998811321	ISI	1.0		835	character	number-43.jpg	0.0	98.70949759287396	7.016531280572053
15.0	52.50087914681899	pulse	1.0	t		character	number-43.jpg	0.0	99.20959675157974	
15.0	53.2008556928422	pulse	1.0	t		character	number-43.jpg	0.0	99.90957329760295	
15.0	53.90083797407169	pulse	1.0	t		character	number-43.jpg	0.0	100.60955557883244	
15.0	54.600813312682476	pulse	1.0	t		character	number-43.jpg	0.0	101.30953091744323	
15.0	55.30078140682235	pulse	1.0	t		character	number-43.jpg	0.0	102.0094990115831	
15.0	56.00076761214132	pulse	1.0	t		character	number-43.jpg	0.0	102.70948521690207	
15.0	56.700770721226945	pulse	1.0	t		character	number-43.jpg	0.0	103.4094883259877	
15.0	57.400744852426214	pulse	1.0	t		character	number-43.jpg	0.0	104.10946245718696	
15.0	58.1007956542835	pulse	1.0	t		character	number-43.jpg	0.0	104.80951325904425	
15.0	58.80076887992345	pulse	1.0	t		character	number-43.jpg	0.0	105.5094864846842	
16.0	59.01731126868526	number	0.0		46	character	number-127.jpg	0.0	105.72602887344601	0.38326756459900935
16.0	59.40057883328427	ISI	1.0		231	character	number-127.jpg	0.0	106.10929643804502	2.0166333068809763
16.0	59.50068565905531	pulse	1.0	t		character	number-127.jpg	0.0	106.20940326381606	
16.0	60.20065888469617	pulse	1.0	t		character	number-127.jpg	0.0	106.90937648945692	
16.0	60.900642675190284	pulse	1.0	t		character	number-127.jpg	0.0	107.60936027995103	
17.0	61.41721214016525	number	0.0		46	character	number-78.jpg	0.0	108.125929744926	0.3833016739863524
17.0	61.60063099348008	pulse	0.0	t		character	number-78.jpg	0.0	108.30934859824083	
17.0	61.8005138141516	ISI	1.0		356	character	number-78.jpg	0.0	108.50923141891235	3.016602819729087
17.0	62.300613274709576	pulse	1.0	t		character	number-78.jpg	0.0	109.00933087947033	
17.0	63.00057985958392	pulse	1.0	t		character	number-78.jpg	0.0	109.70929746434467	
17.0	63.700570894550765	pulse	1.0	t		character	number-78.jpg	0.0	110.40928849931151	
17.0	64.40055257207405	pulse	1.0	t		character	number-78.jpg	0.0	111.1092701768348	
18.0	64.81711663388069	car	0.0		46	object	car-61.jpg	0.0	111.52583423864144	0.3833363870789981
18.0	65.10056715157407	pulse	0.0	t		object	car-61.jpg	0.0	111.80928475633482	
18.0	65.20045302095969	ISI	1.0		355	object	car-61.jpg	0.0	111.90917062572044	3.0166085549362833
18.0	65.80058535330863	pulse	1.0	t		object	car-61.jpg	0.0	112.50930295806938	
18.0	66.50056250303805	pulse	1.0	t		object	car-61.jpg	0.0	113.2092801077988	
18.0	67.20054961391543	pulse	1.0	t		object	car-61.jpg	0.0	113.90926721867618	
18.0	67.90052314140848	pulse	1.0	t		object	car-61.jpg	0.0	114.60924074616923	
19.0	68.21706157589597	car	0.0		46	object	car-61.jpg	1.0	114.92577918065672	0.3832654516281764
19.0	68.60032702752414	ISI	1.0		711	object	car-61.jpg	1.0	115.3090446322849	6.016816531642689
19.0	68.66648203325803	pulse	1.0	t		object	car-61.jpg	1.0	115.37519963801878	
19.0	68.79208245657628	response	1.0	b		object	car-61.jpg	1.0	115.50080006133703	
19.0	69.30039262017817	pulse	1.0	t		object	car-61.jpg	1.0	116.00911022493892	
19.0	70.00038003290865	pulse	1.0	t		object	car-61.jpg	1.0	116.7090976376694	
19.0	70.70038163272875	pulse	1.0	t		object	car-61.jpg	1.0	117.4090992374895	
19.0	71.40035395281029	pulse	1.0	t		object	car-61.jpg	1.0	118.10907155757104	
19.0	72.10035132668963	pulse	1.0	t		object	car-61.jpg	1.0	118.80906893145038	
19.0	72.80029497073701	pulse	1.0	t		object	car-61.jpg	1.0	119.50901257549776	
19.0	73.50030200391211	pulse	1.0	t		object	car-61.jpg	1.0	120.20901960867286	
19.0	74.20028609625933	pulse	1.0	t		object	car-61.jpg	1.0	120.90900370102008	
20.0	74.61714355916683	limb	0.0		46	body	limb-120.jpg	0.0	121.32586116392758	0.383013102532459
20.0	74.90026928304815	pulse	0.0	t		body	limb-120.jpg	0.0	121.6089868878089	
20.0	75.0001566616993	ISI	1.0		356	body	limb-120.jpg	0.0	121.70887426646004	3.0166067438185564
20.0	75.60023435865787	pulse	1.0	t		body	limb-120.jpg	0.0	122.30895196341862	
20.0	76.3002187528582	pulse	1.0	t		body	limb-120.jpg	0.0	123.00893635761895	
20.0	77.00019982667618	pulse	1.0	t		body	limb-120.jpg	0.0	123.70891743143693	
20.0	77.70019478573158	pulse	1.0	t		body	limb-120.jpg	0.0	124.40891239049233	
21.0	78.01676340551785	house	0.0		46	place	house-72.jpg	0.0	124.7254810102786	0.38330046657392813
21.0	78.40006387209178	ISI	1.0		235	place	house-72.jpg	0.0	125.10878147685253	2.0166342124402945
21.0	78.43266399446293	pulse	1.0	t		place	house-72.jpg	0.0	125.14138159922368	
21.0	79.10015995189679	pulse	1.0	t		place	house-72.jpg	0.0	125.80887755665754	
21.0	79.80013317753765	pulse	1.0	t		place	house-72.jpg	0.0	126.5088507822984	
22.0	80.41669808453207	adult	0.0		46	face	adult-13.jpg	0.0	127.12541568929282	0.38333035001960525
22.0	80.50012028841502	pulse	0.0	t		face	adult-13.jpg	0.0	127.20883789317577	
22.0	80.80002843455168	ISI	1.0		235	face	adult-13.jpg	0.0	127.50874603931243	2.016636325410218
22.0	81.2001707884192	pulse	1.0	t		face	adult-13.jpg	0.0	127.90888839317995	
22.0	81.90014008997059	pulse	1.0	t		face	adult-13.jpg	0.0	128.60885769473134	
22.0	82.60013142678963	pulse	1.0	t		face	adult-13.jpg	0.0	129.30884903155038	
23.0	82.8166647599619	car	0.0		46	object	car-47.jpg	0.0	129.52538236472265	0.3832708849822666
23.0	83.19993564494416	ISI	1.0		355	object	car-47.jpg	0.0	129.9086532497049	3.016600706758254
23.0	83.30002737806626	pulse	1.0	t		object	car-47.jpg	0.0	130.008744982827	
23.0	84.00001177226659	pulse	1.0	t		object	car-47.jpg	0.0	130.70872937702734	
23.0	84.70000009055639	pulse	1.0	t		object	car-47.jpg	0.0	131.40871769531714	
23.0	85.39997603287338	pulse	1.0	t		object	car-47.jpg	0.0	132.10869363763413	
23.0	86.09996857710485	pulse	1.0	t		object	car-47.jpg	0.0	132.8086861818656	
24.0	86.21653635170242	adult	0.0		46	face	adult-57.jpg	0.0	132.92525395646317	0.3833034851040793
24.0	86.5998398368065	ISI	1.0		235	face	adult-57.jpg	0.0	133.30855744156725	2.016634514292491
24.0	86.79997500657282	pulse	1.0	t		face	adult-57.jpg	0.0	133.50869261133357	
24.0	87.4999367618002	pulse	1.0	t		face	adult-57.jpg	0.0	134.20865436656095	
24.0	88.19990274296833	pulse	1.0	t		face	adult-57.jpg	0.0	134.90862034772908	
25.0	88.61647435109899	adult	0.0		46	face	adult-6.jpg	0.0	135.32519195585974	0.38333306669665035
25.0	88.89991671876214	pulse	0.0	t		face	adult-6.jpg	0.0	135.6086343235229	
25.0	88.99980741779564	ISI	1.0		233	face	adult-6.jpg	0.0	135.7085250225564	2.0166094604956015
25.0	89.59995212611648	pulse	1.0	t		face	adult-6.jpg	0.0	136.30866973087723	
25.0	90.2999042220481	pulse	1.0	t		face	adult-6.jpg	0.0	137.00862182680885	
26.0	91.01641687829124	house	0.0		45	place	house-111.jpg	0.0	137.725134483052	0.383324614812409
26.0	91.008379438862	pulse	0.0	t		place	house-111.jpg	0.0	137.71709704362274	
26.0	91.39974149310365	ISI	1.0		355	place	house-111.jpg	0.0	138.1084590978644	3.0166094604956015
26.0	91.69988417901004	pulse	1.0	t		place	house-111.jpg	0.0	138.4086017837708	
26.0	92.39986464912181	pulse	1.0	t		place	house-111.jpg	0.0	139.10858225388256	
26.0	93.09983696920335	pulse	1.0	t		place	house-111.jpg	0.0	139.8085545739641	
26.0	93.79982619305156	pulse	1.0	t		place	house-111.jpg	0.0	140.5085437978123	
27.0	94.41635095359925	car	0.0		46	object	car-31.jpg	0.0	141.12506855836	0.3832687720105241
27.0	94.49992076359194	pulse	0.0	t		object	car-31.jpg	0.0	141.2086383683527	
27.0	94.79961972560977	ISI	1.0		236	object	car-31.jpg	0.0	141.50833733037052	2.016630288350825
27.0	95.19972042376594	pulse	1.0	t		object	car-31.jpg	0.0	141.9084380285267	
27.0	95.89969636608294	pulse	1.0	t		object	car-31.jpg	0.0	142.60841397084369	
27.0	96.59967623248849	pulse	1.0	t		object	car-31.jpg	0.0	143.30839383724924	
28.0	96.8162500139606	adult	0.0		46	face	adult-76.jpg	0.0	143.52496761872135	0.38330408881029143
28.0	97.19955410277089	ISI	1.0		356	face	adult-76.jpg	0.0	143.90827170753164	3.0166061401123443
28.0	97.29966817301374	pulse	1.0	t		face	adult-76.jpg	0.0	144.0083857777745	
28.0	97.99963475788809	pulse	1.0	t		face	adult-76.jpg	0.0	144.70835236264884	
28.0	98.69962518914872	pulse	1.0	t		face	adult-76.jpg	0.0	145.40834279390947	
28.0	99.39960354628965	pulse	1.0	t		face	adult-76.jpg	0.0	146.1083211510504	
28.0	100.09957556451809	pulse	1.0	t		face	adult-76.jpg	0.0	146.80829316927884	
29.0	100.21616024288323	adult	0.0		46	face	adult-53.jpg	0.0	146.92487784764398	0.3833391037560432
29.0	100.59949934663928	ISI	1.0		233	face	adult-53.jpg	0.0	147.30821695140003	2.0166263642622653
29.0	100.79964085531901	pulse	1.0	t		face	adult-53.jpg	0.0	147.50835846007976	
29.0	101.49961166613502	pulse	1.0	t		face	adult-53.jpg	0.0	148.20832927089577	
29.0	102.19959545663005	pulse	1.0	t		face	adult-53.jpg	0.0	148.9083130613908	
30.0	102.61612571090154	number	0.0		46	character	number-15.jpg	0.0	149.3248433156623	0.3832690738636302
30.0	102.89949382272971	pulse	0.0	t		character	number-15.jpg	0.0	149.60821142749046	
30.0	102.99939478476517	ISI	1.0		235	character	number-15.jpg	0.0	149.70811238952592	2.0166266661153713
30.0	103.59949149846216	pulse	1.0	t		character	number-15.jpg	0.0	150.3082091032229	
30.0	104.29948162786968	pulse	1.0	t		character	number-15.jpg	0.0	151.00819923263043	
31.0	105.01602145088054	number	0.0		45	character	number-15.jpg	1.0	151.7247390556413	0.38330952216438163
31.0	105.0079212260307	pulse	0.0	t		character	number-15.jpg	1.0	151.71663883079145	
31.0	105.39933097304493	ISI	1.0		475	character	number-15.jpg	1.0	152.10804857780568	4.016610667907116
31.0	105.57443619144851	response	1.0	b		character	number-15.jpg	1.0	152.28315379620926	
31.0	105.69942506062034	pulse	1.0	t		character	number-15.jpg	1.0	152.4081426653811	
31.0	106.39939707884787	pulse	1.0	t		character	number-15.jpg	1.0	153.10811468360862	
31.0	107.09939294346259	pulse	1.0	t		character	number-15.jpg	1.0	153.80811054822334	
31.0	107.79937160245663	pulse	1.0	t		character	number-15.jpg	1.0	154.50808920721738	
31.0	108.49935297812681	pulse	1.0	t		character	number-15.jpg	1.0	155.20807058288756	
31.0	109.19940649666114	pulse	1.0	t		character	number-15.jpg	1.0	155.9081241014219	
32.0	109.41594164095204	adult	0.0		46	face	adult-94.jpg	0.0	156.1246592457128	0.3832708849813571
32.0	109.7992125259334	ISI	1.0		235	face	adult-94.jpg	0.0	156.50793013069415	2.016630590203931
32.0	109.89936915744693	pulse	1.0	t		face	adult-94.jpg	0.0	156.60808676220768	
32.0	110.59930042552242	pulse	1.0	t		face	adult-94.jpg	0.0	157.30801803028316	
32.0	111.29926610483835	pulse	1.0	t		face	adult-94.jpg	0.0	158.0079837095991	
33.0	111.81584311613733	adult	0.0		46	face	adult-123.jpg	0.0	158.52456072089808	0.3833034851040793
33.0	111.999264082423	pulse	0.0	t		face	adult-123.jpg	0.0	158.70798168718375	
33.0	112.19914660124141	ISI	1.0		593	face	adult-123.jpg	0.0	158.90786420600216	5.0249185676111665
33.0	112.69924394882855	pulse	1.0	t		face	adult-123.jpg	0.0	159.4079615535893	
33.0	113.3992232115288	pulse	1.0	t		face	adult-123.jpg	0.0	160.10794081628956	
33.0	114.09920368164057	pulse	1.0	t		face	adult-123.jpg	0.0	160.80792128640132	
33.0	114.79917781283984	pulse	1.0	t		face	adult-123.jpg	0.0	161.5078954176006	
33.0	115.49923827399289	pulse	1.0	t		face	adult-123.jpg	0.0	162.20795587875364	
33.0	116.19921693298693	pulse	1.0	t		face	adult-123.jpg	0.0	162.90793453774768	
33.0	116.89919951606953	pulse	1.0	t		face	adult-123.jpg	0.0	163.60791712083028	
34.0	117.22406516885258	house	0.0		46	place	house-51.jpg	0.0	163.93278277361333	0.38329956101460994
34.0	117.599148593471	pulse	0.0	t		place	house-51.jpg	0.0	164.30786619823175	
34.0	117.60736472986719	ISI	1.0		472	place	house-51.jpg	0.0	164.31608233462794	4.01657052146038
34.0	118.29915834332223	pulse	1.0	t		place	house-51.jpg	0.0	165.00787594808298	
34.0	118.99913187081529	pulse	1.0	t		place	house-51.jpg	0.0	165.70784947557604	
34.0	119.69911928354577	pulse	1.0	t		place	house-51.jpg	0.0	166.40783688830652	
34.0	120.39909492401057	pulse	1.0	t		place	house-51.jpg	0.0	167.10781252877132	
34.0	121.09908173303484	pulse	1.0	t		place	house-51.jpg	0.0	167.8077993377956	
35.0	121.62393525132757	limb	0.0		46	body	limb-138.jpg	0.0	168.33265285608832	0.38330952216347214
35.0	121.79903352711335	pulse	0.0	t		body	limb-138.jpg	0.0	168.5077511318741	
35.0	122.00724477349104	ISI	1.0		714	body	limb-138.jpg	0.0	168.7159623782518	6.016526149071979
35.0	122.49904810661246	pulse	1.0	t		body	limb-138.jpg	0.0	169.2077657113732	
35.0	123.19901861557537	pulse	1.0	t		body	limb-138.jpg	0.0	169.90773622033612	
35.0	123.89898701156835	pulse	1.0	t		body	limb-138.jpg	0.0	170.6077046163291	
35.0	124.59900128921436	pulse	1.0	t		body	limb-138.jpg	0.0	171.3077188939751	
35.0	125.29895308329287	pulse	1.0	t		body	limb-138.jpg	0.0	172.00767068805362	
35.0	125.99895106087752	pulse	1.0	t		body	limb-138.jpg	0.0	172.70766866563827	
35.0	126.69893122913618	pulse	1.0	t		body	limb-138.jpg	0.0	173.40764883389693	
35.0	127.3989147177781	pulse	1.0	t		body	limb-138.jpg	0.0	174.10763232253885	
36.0	128.02377092256302	adult	0.0		46	face	adult-56.jpg	0.0	174.73248852732377	0.38329925916150387
36.0	128.09884930623684	pulse	0.0	t		face	adult-56.jpg	0.0	174.8075669109976	
36.0	128.40707018172452	ISI	1.0		471	face	adult-56.jpg	0.0	175.11578778648527	4.016581086314545
36.0	128.79887746912027	pulse	1.0	t		face	adult-56.jpg	0.0	175.50759507388102	
36.0	129.49885703367272	pulse	1.0	t		face	adult-56.jpg	0.0	176.20757463843347	
36.0	130.1988317685782	pulse	1.0	t		face	adult-56.jpg	0.0	176.90754937333895	
36.0	130.89880982386603	pulse	1.0	t		face	adult-56.jpg	0.0	177.60752742862678	
36.0	131.5987957273319	pulse	1.0	t		face	adult-56.jpg	0.0	178.30751333209264	
36.0	132.29877710300207	pulse	1.0	t		face	adult-56.jpg	0.0	179.00749470776282	
37.0	132.42365126803907	number	0.0		46	character	number-143.jpg	0.0	179.13236887279982	0.38330046657483763
37.0	132.8069517346139	ISI	1.0		234	character	number-143.jpg	0.0	179.51566933937465	2.016636627263324
37.0	132.99876511943876	pulse	1.0	t		character	number-143.jpg	0.0	179.7074827241995	
37.0	133.69874800437447	pulse	1.0	t		character	number-143.jpg	0.0	180.40746560913522	
37.0	134.39872213557373	pulse	1.0	t		character	number-143.jpg	0.0	181.10743974033448	
38.0	134.82358836187723	house	0.0		46	place	house-17.jpg	0.0	181.53230596663798	0.38329925916241336
38.0	135.09866185553255	pulse	0.0	t		place	house-17.jpg	0.0	181.8073794602933	
38.0	135.20688762103964	ISI	1.0		234	place	house-17.jpg	0.0	181.9156052258004	2.016634514292491
38.0	135.79868820729826	pulse	1.0	t		place	house-17.jpg	0.0	182.507405812059	
38.0	136.49866203664442	pulse	1.0	t		place	house-17.jpg	0.0	183.20737964140517	
38.0	137.1986425067562	pulse	1.0	t		place	house-17.jpg	0.0	183.90736011151694	
39.0	137.22352213533213	car	0.0		46	object	car-21.jpg	0.0	183.93223974009288	0.3832672627459033
39.0	137.60678939807804	ISI	1.0		594	object	car-21.jpg	0.0	184.31550700283879	5.008455203960693
39.0	137.89856109700668	pulse	1.0	t		object	car-21.jpg	0.0	184.60727870176743	
39.0	138.59854005785382	pulse	1.0	t		object	car-21.jpg	0.0	185.30725766261457	
39.0	139.29851841499476	pulse	1.0	t		object	car-21.jpg	0.0	186.0072360197555	
39.0	139.9984967721357	pulse	1.0	t		object	car-21.jpg	0.0	186.70721437689645	
39.0	140.6984612440392	pulse	1.0	t		object	car-21.jpg	0.0	187.40717884879996	
39.0	141.39847763465605	pulse	1.0	t		object	car-21.jpg	0.0	188.1071952394168	
39.0	142.0984511621491	pulse	1.0	t		object	car-21.jpg	0.0	188.80716876690985	
40.0	142.61524460203873	adult	0.0		47	face	adult-68.jpg	0.0	189.32396220679948	0.3914003895715723
40.0	142.79842951929004	pulse	0.0	t		face	adult-68.jpg	0.0	189.5071471240508	
40.0	143.0066449916103	ISI	1.0		471	face	adult-68.jpg	0.0	189.71536259637105	4.0168892782121475
40.0	143.4984785100296	pulse	1.0	t		face	adult-68.jpg	0.0	190.20719611479035	
40.0	144.19845626346523	pulse	1.0	t		face	adult-68.jpg	0.0	190.90717386822598	
40.0	144.8984373372823	pulse	1.0	t		face	adult-68.jpg	0.0	191.60715494204305	
40.0	145.5984069406868	pulse	1.0	t		face	adult-68.jpg	0.0	192.30712454544755	
40.0	146.29838559968084	pulse	1.0	t		face	adult-68.jpg	0.0	193.0071032044416	
40.0	146.99837240870602	pulse	1.0	t		face	adult-68.jpg	0.0	193.70709001346677	
41.0	147.02353426982245	limb	0.0		46	body	limb-56.jpg	0.0	193.7322518745832	0.38299016170549294
41.0	147.40652443152794	ISI	1.0		355	body	limb-56.jpg	0.0	194.1152420362887	3.0166046308477235
41.0	147.69829582860348	pulse	1.0	t		body	limb-56.jpg	0.0	194.40701343336423	
41.0	148.39826905424343	pulse	1.0	t		body	limb-56.jpg	0.0	195.10698665900418	
41.0	149.0982555614155	pulse	1.0	t		body	limb-56.jpg	0.0	195.80697316617625	
41.0	149.79823331485022	pulse	1.0	t		body	limb-56.jpg	0.0	196.50695091961097	
42.0	150.42312906237566	car	0.0		46	object	car-29.jpg	0.0	197.13184666713641	0.38330469251559407
42.0	150.49821921831608	pulse	0.0	t		object	car-29.jpg	0.0	197.20693682307683	
42.0	150.80643375489126	ISI	1.0		235	object	car-29.jpg	0.0	197.515151359652	2.0166293827924164
42.0	151.1982021032518	pulse	1.0	t		object	car-29.jpg	0.0	197.90691970801254	
42.0	151.89817593259795	pulse	1.0	t		object	car-29.jpg	0.0	198.6068935373587	
42.0	152.59817240091797	pulse	1.0	t		object	car-29.jpg	0.0	199.30689000567872	
43.0	152.82306313768368	car	0.0		46	object	car-59.jpg	0.0	199.53178074244443	0.3833363870789981
43.0	153.20639952476267	ISI	1.0		232	object	car-59.jpg	0.0	199.91511712952342	2.0166348161465066
43.0	153.29821776942117	pulse	1.0	t		object	car-59.jpg	0.0	200.00693537418192	
43.0	153.99819220247355	pulse	1.0	t		object	car-59.jpg	0.0	200.7069098072343	
43.0	154.69816814479054	pulse	1.0	t		object	car-59.jpg	0.0	201.4068857495513	
44.0	155.22303434090918	limb	0.0		46	body	limb-16.jpg	0.0	201.93175194566993	0.383266055333479
44.0	155.39808794245255	pulse	0.0	t		body	limb-16.jpg	0.0	202.1068055472133	
44.0	155.60630039624266	ISI	1.0		472	body	limb-16.jpg	0.0	202.3150180010034	4.024917963904954
44.0	156.0980614699456	pulse	1.0	t		body	limb-16.jpg	0.0	202.80677907470636	
44.0	156.7980428456167	pulse	1.0	t		body	limb-16.jpg	0.0	203.50676045037744	
44.0	157.49801154346187	pulse	1.0	t		body	limb-16.jpg	0.0	204.20672914822262	
44.0	158.19800378584023	pulse	1.0	t		body	limb-16.jpg	0.0	204.90672139060098	
44.0	158.89798576521753	pulse	1.0	t		body	limb-16.jpg	0.0	205.60670336997828	
44.0	159.59797015941786	pulse	1.0	t		body	limb-16.jpg	0.0	206.3066877641786	
45.0	159.6312183601476	house	0.0		45	place	house-144.jpg	0.0	206.33993596490836	0.3749644945428372
45.0	160.00618285469045	ISI	1.0		355	place	house-144.jpg	0.0	206.7149004594512	3.0166399476465813
45.0	160.29794972397121	pulse	1.0	t		place	house-144.jpg	0.0	207.00666732873196	
45.0	160.9979253644351	pulse	1.0	t		place	house-144.jpg	0.0	207.70664296919585	
45.0	161.697977675557	pulse	1.0	t		place	house-144.jpg	0.0	208.40669528031776	
45.0	162.39796056049272	pulse	1.0	t		place	house-144.jpg	0.0	209.10667816525347	
46.0	163.02282280233703	car	0.0		46	object	car-67.jpg	0.0	209.73154040709778	0.38326303680423734
46.0	163.09788971559738	pulse	0.0	t		object	car-67.jpg	0.0	209.80660732035813	
46.0	163.40608583914127	ISI	1.0		353	object	car-67.jpg	0.0	210.11480344390202	3.01660885678848
46.0	163.79785811158945	pulse	1.0	t		object	car-67.jpg	0.0	210.5065757163502	
46.0	164.4978491465563	pulse	1.0	t		object	car-67.jpg	0.0	211.20656675131704	
46.0	165.19781512772443	pulse	1.0	t		object	car-67.jpg	0.0	211.90653273248518	
46.0	165.89779922007256	pulse	1.0	t		object	car-67.jpg	0.0	212.6065168248333	
47.0	166.42269469592975	number	0.0		46	character	number-96.jpg	0.0	213.1314123006905	0.38330499436960963
47.0	166.5977842179791	pulse	0.0	t		character	number-96.jpg	0.0	213.30650182273985	
47.0	166.80599969029936	ISI	1.0		355	character	number-96.jpg	0.0	213.5147172950601	3.01663692911643
47.0	167.29778189371154	pulse	1.0	t		character	number-96.jpg	0.0	214.0064994984723	
47.0	167.99773278223074	pulse	1.0	t		character	number-96.jpg	0.0	214.7064503869915	
47.0	168.6977189875488	pulse	1.0	t		character	number-96.jpg	0.0	215.40643659230955	
47.0	169.39777220423002	pulse	1.0	t		character	number-96.jpg	0.0	216.10648980899077	
48.0	169.8226366194158	limb	0.0		46	body	limb-59.jpg	0.0	216.53135422417654	0.38326847015741805
48.0	170.0976889833628	pulse	0.0	t		body	limb-59.jpg	0.0	216.80640658812354	
48.0	170.2059050895732	ISI	1.0		236	body	limb-59.jpg	0.0	216.91462269433396	2.024967769648356
48.0	170.79766945347455	pulse	1.0	t		body	limb-59.jpg	0.0	217.5063870582353	
48.0	171.49764599949776	pulse	1.0	t		body	limb-59.jpg	0.0	218.2063636042585	
48.0	172.19762888443347	pulse	1.0	t		body	limb-59.jpg	0.0	218.90634648919422	
49.0	172.23087285922156	house	0.0		45	place	house-74.jpg	0.0	218.9395904639823	0.37496841863139707
49.0	172.60584127785296	ISI	1.0		235	place	house-74.jpg	0.0	219.3145588826137	2.0166239494383262
49.0	172.89759788413176	pulse	1.0	t		place	house-74.jpg	0.0	219.6063154888925	
49.0	173.5975883153924	pulse	1.0	t		place	house-74.jpg	0.0	220.30630592015314	
49.0	174.2975778410937	pulse	1.0	t		place	house-74.jpg	0.0	221.00629544585445	
50.0	174.6224652272913	house	0.0		46	place	house-74.jpg	1.0	221.33118283205204	0.38329835360309517
50.0	174.9975537834107	pulse	0.0	t		place	house-74.jpg	1.0	221.70627138817144	
50.0	175.00576358089438	ISI	1.0		233	place	house-74.jpg	1.0	221.71448118565513	2.0166782829755903
50.0	175.5475398830804	response	1.0	b		place	house-74.jpg	1.0	222.25625748784114	
50.0	175.69752640534443	pulse	1.0	t		place	house-74.jpg	1.0	222.40624401010518	
50.0	176.3975759997902	pulse	1.0	t		place	house-74.jpg	1.0	223.10629360455096	
51.0	177.02244186386997	limb	0.0		46	body	limb-75.jpg	0.0	223.73115946863072	0.38326847015741805
51.0	177.09752266236774	pulse	0.0	t		body	limb-75.jpg	0.0	223.8062402671285	
51.0	177.4057103340274	ISI	1.0		235	body	limb-75.jpg	0.0	224.11442793878814	2.0166314957632494
51.0	177.7974783805348	pulse	1.0	t		body	limb-75.jpg	0.0	224.50619598529556	
51.0	178.4974528135872	pulse	1.0	t		body	limb-75.jpg	0.0	225.20617041834794	
51.0	179.19743811334683	pulse	1.0	t		body	limb-75.jpg	0.0	225.90615571810758	
52.0	179.42234182979064	house	0.0		46	place	house-88.jpg	0.0	226.1310594345514	0.3833043906633975
52.0	179.80564622045404	ISI	1.0		355	place	house-88.jpg	0.0	226.5143638252148	3.0166040271415113
52.0	179.89748438740935	pulse	1.0	t		place	house-88.jpg	0.0	226.6062019921701	
52.0	180.5973939220694	pulse	1.0	t		place	house-88.jpg	0.0	227.30611152683014	
52.0	181.29736171435616	pulse	1.0	t		place	house-88.jpg	0.0	228.0060793191169	
52.0	181.9973533530283	pulse	1.0	t		place	house-88.jpg	0.0	228.70607095778905	
52.0	182.69734287872961	pulse	1.0	t		place	house-88.jpg	0.0	229.40606048349036	
53.0	182.82225024759555	car	0.0		46	object	car-7.jpg	0.0	229.5309678523563	0.383333670401953
53.0	183.2055839179975	ISI	1.0		233	object	car-7.jpg	0.0	229.91430152275825	2.0166345142934006
53.0	183.39739851023478	pulse	1.0	t		object	car-7.jpg	0.0	230.10611611499553	
53.0	184.09737294328716	pulse	1.0	t		object	car-7.jpg	0.0	230.8060905480479	
53.0	184.79735311154582	pulse	1.0	t		object	car-7.jpg	0.0	231.50607071630657	
54.0	185.2222184322909	limb	0.0		46	body	limb-95.jpg	0.0	231.93093603705165	0.3832732998052961
54.0	185.49726898511926	pulse	0.0	t		body	limb-95.jpg	0.0	232.20598658988	
54.0	185.6054917320962	ISI	1.0		233	body	limb-95.jpg	0.0	232.31420933685695	2.0249635437057805
54.0	186.1972527756143	pulse	1.0	t		body	limb-95.jpg	0.0	232.90597038037504	
54.0	186.89721996419485	pulse	1.0	t		body	limb-95.jpg	0.0	233.6059375689556	
54.0	187.59721341398472	pulse	1.0	t		body	limb-95.jpg	0.0	234.30593101874547	
55.0	187.63045527580198	house	0.0		45	place	house-26.jpg	0.0	234.33917288056273	0.3749672112189728
55.0	188.00542248702095	ISI	1.0		475	place	house-26.jpg	0.0	234.7141400917817	4.016608554936283
55.0	188.29719207297876	pulse	1.0	t		place	house-26.jpg	0.0	235.0059096777395	
55.0	188.99716228008947	pulse	1.0	t		place	house-26.jpg	0.0	235.70587988485022	
55.0	189.69714969281995	pulse	1.0	t		place	house-26.jpg	0.0	236.4058672975807	
55.0	190.39713137034323	pulse	1.0	t		place	house-26.jpg	0.0	237.10584897510398	
55.0	191.09711063304348	pulse	1.0	t		place	house-26.jpg	0.0	237.80582823780423	
55.0	191.7971626423123	pulse	1.0	t		place	house-26.jpg	0.0	238.50588024707304	
56.0	192.02203104195723	house	0.0		46	place	house-61.jpg	0.0	238.73074864671798	0.3832708849822666
56.0	192.4053019269395	ISI	1.0		233	place	house-61.jpg	0.0	239.11401953170025	2.016634816145597
56.0	192.4970709695608	pulse	1.0	t		place	house-61.jpg	0.0	239.20578857432156	
56.0	193.19705717487977	pulse	1.0	t		place	house-61.jpg	0.0	239.90577477964052	
56.0	193.89703673943222	pulse	1.0	t		place	house-61.jpg	0.0	240.60575434419297	
57.0	194.4219367430851	limb	0.0		46	body	limb-118.jpg	0.0	241.13065434784585	0.38330046657392813
57.0	194.59702535957513	pulse	0.0	t		body	limb-118.jpg	0.0	241.30574296433588	
57.0	194.80523720965903	ISI	1.0		473	body	limb-118.jpg	0.0	241.51395481441978	4.024946639939117
57.0	195.2969943592734	pulse	1.0	t		body	limb-118.jpg	0.0	242.00571196403416	
57.0	195.99697814976844	pulse	1.0	t		body	limb-118.jpg	0.0	242.7056957545292	
57.0	196.69696314767498	pulse	1.0	t		body	limb-118.jpg	0.0	243.40568075243573	
57.0	197.3969475418753	pulse	1.0	t		body	limb-118.jpg	0.0	244.10566514663606	
57.0	198.09698808073153	pulse	1.0	t		body	limb-118.jpg	0.0	244.80570568549228	
57.0	198.79696915454952	pulse	1.0	t		body	limb-118.jpg	0.0	245.50568675931027	
58.0	198.83018384959814	number	0.0		45	character	number-38.jpg	0.0	245.5389014543589	0.37496962604291184
58.0	199.20515347564105	ISI	1.0		353	character	number-38.jpg	0.0	245.9138710804018	3.016603121582193
58.0	199.49695596357378	pulse	1.0	t		character	number-38.jpg	0.0	246.20567356833453	
58.0	200.19692828365532	pulse	1.0	t		character	number-38.jpg	0.0	246.90564588841607	
58.0	200.8969096593264	pulse	1.0	t		character	number-38.jpg	0.0	247.60562726408716	
58.0	201.5968916387028	pulse	1.0	t		character	number-38.jpg	0.0	248.30560924346355	
59.0	202.22175659722325	limb	0.0		46	body	limb-114.jpg	0.0	248.930474201984	0.38326937571673625
59.0	202.296816869718	pulse	0.0	t		body	limb-114.jpg	0.0	249.00553447447874	
59.0	202.60502597293998	ISI	1.0		235	body	limb-114.jpg	0.0	249.31374357770073	2.0166345142934006
59.0	202.99679794353597	pulse	1.0	t		body	limb-114.jpg	0.0	249.70551554829672	
59.0	203.6968004489163	pulse	1.0	t		body	limb-114.jpg	0.0	250.40551805367704	
59.0	204.39675435596564	pulse	1.0	t		body	limb-114.jpg	0.0	251.1054719607264	
60.0	204.62166048723338	house	0.0		46	place	house-75.jpg	0.0	251.33037809199413	0.38328386465946096
60.0	205.00494435189285	ISI	1.0		352	place	house-75.jpg	0.0	251.7136619566536	3.0166040271415113
60.0	205.09674267425453	pulse	1.0	t		place	house-75.jpg	0.0	251.80546027901528	
60.0	205.79671469248296	pulse	1.0	t		place	house-75.jpg	0.0	252.50543229724371	
60.0	206.4966936533301	pulse	1.0	t		place	house-75.jpg	0.0	253.20541125809086	
60.0	207.1966756327065	pulse	1.0	t		place	house-75.jpg	0.0	253.90539323746725	
60.0	207.89665459355365	pulse	1.0	t		place	house-75.jpg	0.0	254.6053721983144	
61.0	208.02154837903436	limb	0.0		46	body	limb-31.jpg	0.0	254.7302659837951	0.3833523852881626
61.0	208.40490076432252	ISI	1.0		475	body	limb-31.jpg	0.0	255.11361836908327	4.016577464078182
61.0	208.59670026390995	pulse	1.0	t		body	limb-31.jpg	0.0	255.3054178686707	
61.0	209.29667801734558	pulse	1.0	t		body	limb-31.jpg	0.0	256.00539562210633	
61.0	209.99665728004493	pulse	1.0	t		body	limb-31.jpg	0.0	256.7053748848057	
61.0	210.6966449946285	pulse	1.0	t		body	limb-31.jpg	0.0	257.40536259938926	
61.0	211.39663029438816	pulse	1.0	t		body	limb-31.jpg	0.0	258.1053478991489	
61.0	212.0971743240234	pulse	1.0	t		body	limb-31.jpg	0.0	258.80589192878415	
62.0	212.4214782284007	car	0.0		46	object	car-73.jpg	0.0	259.13019583316145	0.38330469251650356
62.0	212.79656195487223	pulse	0.0	t		object	car-73.jpg	0.0	259.505279559633	
62.0	212.8047829209172	ISI	1.0		232	object	car-73.jpg	0.0	259.51350052567796	2.0166333068809763
62.0	213.4966363012627	pulse	1.0	t		object	car-73.jpg	0.0	260.20535390602345	
62.0	214.19660741393182	pulse	1.0	t		object	car-73.jpg	0.0	260.90532501869257	
63.0	214.82141622779818	number	0.0		46	character	number-70.jpg	0.0	261.53013383255893	0.3832989573093073
63.0	214.89650366706155	pulse	0.0	t		character	number-70.jpg	0.0	261.6052212718223	
63.0	215.2047151851075	ISI	1.0		234	character	number-70.jpg	0.0	261.91343278986824	2.016634816145597
63.0	215.59651975582528	pulse	1.0	t		character	number-70.jpg	0.0	262.30523736058603	
63.0	216.2964978111131	pulse	1.0	t		character	number-70.jpg	0.0	263.00521541587386	
63.0	216.99646922563534	pulse	1.0	t		character	number-70.jpg	0.0	263.7051868303961	
64.0	217.2213500012531	car	0.0		46	object	car-26.jpg	0.0	263.93006760601384	0.3833016739863524
64.0	217.60465167523944	ISI	1.0		592	object	car-26.jpg	0.0	264.3133692800002	5.016553315839701
64.0	217.6964738439865	pulse	1.0	t		object	car-26.jpg	0.0	264.40519144874725	
64.0	218.39644012700774	pulse	1.0	t		object	car-26.jpg	0.0	265.1051577317685	
64.0	219.09642120082572	pulse	1.0	t		object	car-26.jpg	0.0	265.80513880558647	
64.0	219.79639925611355	pulse	1.0	t		object	car-26.jpg	0.0	266.5051168608743	
64.0	220.49637942437312	pulse	1.0	t		object	car-26.jpg	0.0	267.20509702913387	
64.0	221.19635687595473	pulse	1.0	t		object	car-26.jpg	0.0	267.9050744807155	
64.0	221.89634217571438	pulse	1.0	t		object	car-26.jpg	0.0	268.60505978047513	
64.0	222.59632747547403	pulse	1.0	t		object	car-26.jpg	0.0	269.3050450802348	
65.0	222.62120499107914	number	0.0		46	character	number-91.jpg	0.0	269.3299225958399	0.3832678664521154
65.0	223.00447285753125	ISI	1.0		239	character	number-91.jpg	0.0	269.713190462292	1.9999441571972056
65.0	223.2962330860455	pulse	1.0	t		character	number-91.jpg	0.0	270.00495069080625	
65.0	223.99621144318644	pulse	1.0	t		character	number-91.jpg	0.0	270.7049290479472	
65.0	224.69620549668252	pulse	1.0	t		character	number-91.jpg	0.0	271.4049231014433	
66.0	225.00441701472846	baseline	0.0		708		baseline	0.0	271.7131346194892	5.899876874167603
66.0	225.3961741945286	pulse	0.0	t			baseline	0.0	272.10489179928936	
66.0	226.09617851102576	pulse	0.0	t			baseline	0.0	272.8048961157865	
66.0	226.7961384551345	pulse	0.0	t			baseline	0.0	273.50485605989525	
66.0	227.49613160307217	pulse	0.0	t			baseline	0.0	274.2048492078329	
66.0	228.1961036213006	pulse	0.0	t			baseline	0.0	274.90482122606136	
66.0	228.89615231018706	pulse	0.0	t			baseline	0.0	275.6048699149478	
66.0	229.59613851550512	pulse	0.0	t			baseline	0.0	276.30485612026587	
66.0	230.29611174114598	pulse	0.0	t			baseline	0.0	277.0048293459067	
66.0	230.90429388889606	ISI	1.0		12		baseline	0.0	277.6130114936568	0.10001415690476279
66.0	230.99618095603546	pulse	1.0	t			baseline	0.0	277.7048985607962	
