trial_nr	onset	event_type	phase	response	nr_frames	face_age	face_sex	face_eth	attractiveness	expression	face_id	sub_id	ses	run	trial_type	catch	rating_type	onset_abs	duration
-1.0	0.06202240909806278	fix	0.0		713													26.093609703546463	5.957881896891195
-1.0	0.7034551206797914	pulse	0.0	t														26.73504241512819	
-1.0	1.4034349869652942	pulse	0.0	t														27.435022281413694	
-1.0	2.1034269274423423	pulse	0.0	t														28.135014221890742	
-1.0	2.8034076992898918	pulse	0.0	t														28.83499499373829	
-1.0	3.503390584122826	pulse	0.0	t														29.534977878571226	
-1.0	4.203374374519626	pulse	0.0	t														30.234961668968026	
-1.0	4.9033599760459765	pulse	0.0	t														30.934947270494376	
-1.0	5.603335314508513	pulse	0.0	t														31.634922608956913	
0.0	6.019904305989257	face	0.0		144	27.0	female	white	3.504576203740549	smiling	144	sub-08	2.0	5.0	144_smiling	0.0		32.05149160043766	1.2332999582540651
0.0	6.303348082965385	pulse	0.0	t		27.0	female	white	3.504576203740549	smiling	144	sub-08	2.0	5.0	144_smiling	0.0		32.334935377413785	
0.0	7.003318289896924	pulse	0.0	t		27.0	female	white	3.504576203740549	smiling	144	sub-08	2.0	5.0	144_smiling	0.0		33.034905584345324	
0.0	7.2532042642433225	fix	1.0		445	27.0	female	white	3.504576203740549	smiling	144	sub-08	2.0	5.0	144_smiling	0.0		33.28479155869172	3.7582520312553243
0.0	7.703311739647688	pulse	1.0	t		27.0	female	white	3.504576203740549	smiling	144	sub-08	2.0	5.0	144_smiling	0.0		33.73489903409609	
0.0	8.40328858738394	pulse	1.0	t		27.0	female	white	3.504576203740549	smiling	144	sub-08	2.0	5.0	144_smiling	0.0		34.43487588183234	
0.0	9.103285659391986	pulse	1.0	t		27.0	female	white	3.504576203740549	smiling	144	sub-08	2.0	5.0	144_smiling	0.0		35.134872953840386	
0.0	9.803260394144672	pulse	1.0	t		27.0	female	white	3.504576203740549	smiling	144	sub-08	2.0	5.0	144_smiling	0.0		35.83484768859307	
0.0	10.503245090105338	pulse	1.0	t		27.0	female	white	3.504576203740549	smiling	144	sub-08	2.0	5.0	144_smiling	0.0		36.53483238455374	
1.0	11.011456295498647	face	0.0		146	24.0	male	white	3.1153999204138483	neutral	012	sub-08	2.0	5.0	012_neutral	0.0		37.04304358994705	1.2416459418200247
1.0	11.203243671388918	pulse	0.0	t		24.0	male	white	3.1153999204138483	neutral	012	sub-08	2.0	5.0	012_neutral	0.0		37.23483096583732	
1.0	11.90321991541532	pulse	0.0	t		24.0	male	white	3.1153999204138483	neutral	012	sub-08	2.0	5.0	012_neutral	0.0		37.93480720986372	
1.0	12.253102237318672	fix	1.0		445	24.0	male	white	3.1153999204138483	neutral	012	sub-08	2.0	5.0	012_neutral	0.0		38.28468953176707	3.7582517294013087
1.0	12.603193442748307	pulse	1.0	t		24.0	male	white	3.1153999204138483	neutral	012	sub-08	2.0	5.0	012_neutral	0.0		38.63478073719671	
1.0	13.303189005482636	pulse	1.0	t		24.0	male	white	3.1153999204138483	neutral	012	sub-08	2.0	5.0	012_neutral	0.0		39.334776299931036	
1.0	14.003176719992553	pulse	1.0	t		24.0	male	white	3.1153999204138483	neutral	012	sub-08	2.0	5.0	012_neutral	0.0		40.03476401444095	
1.0	14.703157793695937	pulse	1.0	t		24.0	male	white	3.1153999204138483	neutral	012	sub-08	2.0	5.0	012_neutral	0.0		40.73474508814434	
1.0	15.403139772963186	pulse	1.0	t		24.0	male	white	3.1153999204138483	neutral	012	sub-08	2.0	5.0	012_neutral	0.0		41.434727067411586	
2.0	16.01135396671998	face	0.0		146	28.0	male	white	3.9076800636689217	smiling	033	sub-08	2.0	5.0	033_smiling	1.0	attractiveness	42.04294126116838	1.2416429232707742
2.0	16.103151334002177	pulse	0.0	t		28.0	male	white	3.9076800636689217	smiling	033	sub-08	2.0	5.0	033_smiling	1.0	attractiveness	42.13473862845058	
2.0	16.803115503837034	pulse	0.0	t		28.0	male	white	3.9076800636689217	smiling	033	sub-08	2.0	5.0	033_smiling	1.0	attractiveness	42.834702798285434	
2.0	17.252996889990754	fix	1.0		177	28.0	male	white	3.9076800636689217	smiling	033	sub-08	2.0	5.0	033_smiling	1.0	attractiveness	43.284584184439154	1.5083250046554895
2.0	17.503103520200966	pulse	1.0	t		28.0	male	white	3.9076800636689217	smiling	033	sub-08	2.0	5.0	033_smiling	1.0	attractiveness	43.534690814649366	
2.0	18.203089423581332	pulse	1.0	t		28.0	male	white	3.9076800636689217	smiling	033	sub-08	2.0	5.0	033_smiling	1.0	attractiveness	44.23467671802973	
2.0	18.761321894646244	rating	2.0		293	28.0	male	white	3.9076800636689217	smiling	033	sub-08	2.0	5.0	033_smiling	1.0	attractiveness	44.792909189094644	2.491589570434371
2.0	18.90307894921898	pulse	2.0	t		28.0	male	white	3.9076800636689217	smiling	033	sub-08	2.0	5.0	033_smiling	1.0	attractiveness	44.93466624366738	
2.0	19.603061834051914	pulse	2.0	t		28.0	male	white	3.9076800636689217	smiling	033	sub-08	2.0	5.0	033_smiling	1.0	attractiveness	45.634649128500314	
2.0	20.30305015227168	pulse	2.0	t		28.0	male	white	3.9076800636689217	smiling	033	sub-08	2.0	5.0	033_smiling	1.0	attractiveness	46.33463744672008	
2.0	20.578045616903182	response	2.0	w		28.0	male	white	3.9076800636689217	smiling	033	sub-08	2.0	5.0	033_smiling	1.0	attractiveness	46.60963291135158	
2.0	21.003026396298083	pulse	2.0	t		28.0	male	white	3.9076800636689217	smiling	033	sub-08	2.0	5.0	033_smiling	1.0	attractiveness	47.03461369074648	
2.0	21.252911465080615	fix	3.0		444	28.0	male	white	3.9076800636689217	smiling	033	sub-08	2.0	5.0	033_smiling	1.0	attractiveness	47.284498759529015	3.7582532386750245
2.0	21.703017431209446	pulse	3.0	t		28.0	male	white	3.9076800636689217	smiling	033	sub-08	2.0	5.0	033_smiling	1.0	attractiveness	47.734604725657846	
2.0	22.402995788221233	pulse	3.0	t		28.0	male	white	3.9076800636689217	smiling	033	sub-08	2.0	5.0	033_smiling	1.0	attractiveness	48.43458308266963	
2.0	23.102986823132596	pulse	3.0	t		28.0	male	white	3.9076800636689217	smiling	033	sub-08	2.0	5.0	033_smiling	1.0	attractiveness	49.134574117580996	
2.0	23.802975141352363	pulse	3.0	t		28.0	male	white	3.9076800636689217	smiling	033	sub-08	2.0	5.0	033_smiling	1.0	attractiveness	49.83456243580076	
2.0	24.50296466699001	pulse	3.0	t		28.0	male	white	3.9076800636689217	smiling	033	sub-08	2.0	5.0	033_smiling	1.0	attractiveness	50.53455196143841	
3.0	25.01116470375564	face	0.0		146	47.0	male	east_asian	2.171110226820533	neutral	024	sub-08	2.0	5.0	024_neutral	1.0	trustworthiness	51.04275199820404	1.241639602867508
3.0	25.202948759240826	pulse	0.0	t		47.0	male	east_asian	2.171110226820533	neutral	024	sub-08	2.0	5.0	024_neutral	1.0	trustworthiness	51.234536053689226	
3.0	25.902933153347476	pulse	0.0	t		47.0	male	east_asian	2.171110226820533	neutral	024	sub-08	2.0	5.0	024_neutral	1.0	trustworthiness	51.934520447795876	
3.0	26.252804306623148	fix	1.0		177	47.0	male	east_asian	2.171110226820533	neutral	024	sub-08	2.0	5.0	024_neutral	1.0	trustworthiness	52.28439160107155	1.499974191414367
3.0	26.602925697534374	pulse	1.0	t		47.0	male	east_asian	2.171110226820533	neutral	024	sub-08	2.0	5.0	024_neutral	1.0	trustworthiness	52.634512991982774	
3.0	27.302892885916663	pulse	1.0	t		47.0	male	east_asian	2.171110226820533	neutral	024	sub-08	2.0	5.0	024_neutral	1.0	trustworthiness	53.33448018036506	
3.0	27.752778498037515	rating	2.0		294	47.0	male	east_asian	2.171110226820533	neutral	024	sub-08	2.0	5.0	024_neutral	1.0	trustworthiness	53.784365792485914	2.499964532060403
3.0	28.002888750505008	pulse	2.0	t		47.0	male	east_asian	2.171110226820533	neutral	024	sub-08	2.0	5.0	024_neutral	1.0	trustworthiness	54.03447604495341	
3.0	28.702885520659038	pulse	2.0	t		47.0	male	east_asian	2.171110226820533	neutral	024	sub-08	2.0	5.0	024_neutral	1.0	trustworthiness	54.73447281510744	
3.0	29.40286055726756	pulse	2.0	t		47.0	male	east_asian	2.171110226820533	neutral	024	sub-08	2.0	5.0	024_neutral	1.0	trustworthiness	55.43444785171596	
3.0	29.436169933389465	response	2.0	y		47.0	male	east_asian	2.171110226820533	neutral	024	sub-08	2.0	5.0	024_neutral	1.0	trustworthiness	55.467757227837865	
3.0	30.10284857363149	pulse	2.0	t		47.0	male	east_asian	2.171110226820533	neutral	024	sub-08	2.0	5.0	024_neutral	1.0	trustworthiness	56.13443586807989	
3.0	30.252743030097918	fix	3.0		444	47.0	male	east_asian	2.171110226820533	neutral	024	sub-08	2.0	5.0	024_neutral	1.0	trustworthiness	56.28433032454632	3.758233919967097
3.0	30.80283176031844	pulse	3.0	t		47.0	male	east_asian	2.171110226820533	neutral	024	sub-08	2.0	5.0	024_neutral	1.0	trustworthiness	56.83441905476684	
3.0	31.502812834021825	pulse	3.0	t		47.0	male	east_asian	2.171110226820533	neutral	024	sub-08	2.0	5.0	024_neutral	1.0	trustworthiness	57.534400128470224	
3.0	32.20279179474164	pulse	3.0	t		47.0	male	east_asian	2.171110226820533	neutral	024	sub-08	2.0	5.0	024_neutral	1.0	trustworthiness	58.23437908919004	
3.0	32.902784037072706	pulse	3.0	t		47.0	male	east_asian	2.171110226820533	neutral	024	sub-08	2.0	5.0	024_neutral	1.0	trustworthiness	58.934371331521106	
3.0	33.602766620051625	pulse	3.0	t		47.0	male	east_asian	2.171110226820533	neutral	024	sub-08	2.0	5.0	024_neutral	1.0	trustworthiness	59.634353914500025	
4.0	34.010976950065015	face	0.0		146	40.0	female	west_asian	1.5777954635893354	smiling	038	sub-08	2.0	5.0	038_smiling	0.0		60.042564244513414	1.2416441306904744
4.0	34.302764597623536	pulse	0.0	t		40.0	female	west_asian	1.5777954635893354	smiling	038	sub-08	2.0	5.0	038_smiling	0.0		60.334351892071936	
4.0	35.0027492935842	pulse	0.0	t		40.0	female	west_asian	1.5777954635893354	smiling	038	sub-08	2.0	5.0	038_smiling	0.0		61.0343365880326	
4.0	35.25262108075549	fix	1.0		445	40.0	female	west_asian	1.5777954635893354	smiling	038	sub-08	2.0	5.0	038_smiling	0.0		61.28420837520389	3.766549718053284
4.0	35.70272704688614	pulse	1.0	t		40.0	female	west_asian	1.5777954635893354	smiling	038	sub-08	2.0	5.0	038_smiling	0.0		61.73431434133454	
4.0	36.40271838365334	pulse	1.0	t		40.0	female	west_asian	1.5777954635893354	smiling	038	sub-08	2.0	5.0	038_smiling	0.0		62.43430567810174	
4.0	37.10270338146802	pulse	1.0	t		40.0	female	west_asian	1.5777954635893354	smiling	038	sub-08	2.0	5.0	038_smiling	0.0		63.13429067591642	
4.0	37.802681134769955	pulse	1.0	t		40.0	female	west_asian	1.5777954635893354	smiling	038	sub-08	2.0	5.0	038_smiling	0.0		63.834268429218355	
4.0	38.50265828436022	pulse	1.0	t		40.0	female	west_asian	1.5777954635893354	smiling	038	sub-08	2.0	5.0	038_smiling	0.0		64.53424557880862	
5.0	39.01917079880877	face	0.0		145	22.0	female	west_asian	3.8205332272184642	smiling	066	sub-08	2.0	5.0	066_smiling	0.0		65.05075809325717	1.2333458401826647
5.0	39.20265233782084	pulse	0.0	t		22.0	female	west_asian	3.8205332272184642	smiling	066	sub-08	2.0	5.0	066_smiling	0.0		65.23423963226924	
5.0	39.90262978926694	pulse	0.0	t		22.0	female	west_asian	3.8205332272184642	smiling	066	sub-08	2.0	5.0	066_smiling	0.0		65.93421708371534	
5.0	40.25251663899144	fix	1.0		445	22.0	female	west_asian	3.8205332272184642	smiling	066	sub-08	2.0	5.0	066_smiling	0.0		66.28410393343984	3.766583525792157
5.0	40.60262172974399	pulse	1.0	t		22.0	female	west_asian	3.8205332272184642	smiling	066	sub-08	2.0	5.0	066_smiling	0.0		66.63420902419239	
5.0	41.3026058219948	pulse	1.0	t		22.0	female	west_asian	3.8205332272184642	smiling	066	sub-08	2.0	5.0	066_smiling	0.0		67.3341931164432	
5.0	42.00258599013432	pulse	1.0	t		22.0	female	west_asian	3.8205332272184642	smiling	066	sub-08	2.0	5.0	066_smiling	0.0		68.03417328458272	
5.0	42.70257853432122	pulse	1.0	t		22.0	female	west_asian	3.8205332272184642	smiling	066	sub-08	2.0	5.0	066_smiling	0.0		68.73416582876962	
5.0	43.402561419152335	pulse	1.0	t		22.0	female	west_asian	3.8205332272184642	smiling	066	sub-08	2.0	5.0	066_smiling	0.0		69.43414871360073	
6.0	44.019100164783595	face	0.0		145	54.0	female	white	2.286908077994429	neutral	136	sub-08	2.0	5.0	136_neutral	0.0		70.050687459232	1.2333111268817447
6.0	44.10256332083736	pulse	0.0	t		54.0	female	white	2.286908077994429	neutral	136	sub-08	2.0	5.0	136_neutral	0.0		70.13415061528576	
6.0	44.80269381267135	pulse	0.0	t		54.0	female	white	2.286908077994429	neutral	136	sub-08	2.0	5.0	136_neutral	0.0		70.83428110711975	
6.0	45.25241129166534	fix	1.0		444	54.0	female	white	2.286908077994429	neutral	136	sub-08	2.0	5.0	136_neutral	0.0		71.28399858611374	3.7582305995638308
6.0	45.50252214784268	pulse	1.0	t		54.0	female	white	2.286908077994429	neutral	136	sub-08	2.0	5.0	136_neutral	0.0		71.53410944229108	
6.0	46.20250533452963	pulse	1.0	t		54.0	female	white	2.286908077994429	neutral	136	sub-08	2.0	5.0	136_neutral	0.0		72.23409262897803	
6.0	46.902486106379	pulse	1.0	t		54.0	female	white	2.286908077994429	neutral	136	sub-08	2.0	5.0	136_neutral	0.0		72.9340734008274	
6.0	47.60248166911333	pulse	1.0	t		54.0	female	white	2.286908077994429	neutral	136	sub-08	2.0	5.0	136_neutral	0.0		73.63406896356173	
6.0	48.30246364838058	pulse	1.0	t		54.0	female	white	2.286908077994429	neutral	136	sub-08	2.0	5.0	136_neutral	0.0		74.33405094282898	
7.0	49.01064189122917	face	0.0		146	40.0	male	black	2.408674890569041	smiling	061	sub-08	2.0	5.0	061_smiling	1.0	trustworthiness	75.04222918567757	1.2416664679458336
7.0	49.00463890467836	pulse	0.0	t		40.0	male	black	2.408674890569041	smiling	061	sub-08	2.0	5.0	061_smiling	1.0	trustworthiness	75.03622619912676	
7.0	49.70243122917418	pulse	0.0	t		40.0	male	black	2.408674890569041	smiling	061	sub-08	2.0	5.0	061_smiling	1.0	trustworthiness	75.73401852362258	
7.0	50.252308359175004	fix	1.0		177	40.0	male	black	2.408674890569041	smiling	061	sub-08	2.0	5.0	061_smiling	1.0	trustworthiness	76.2838956536234	1.4999696635914006
7.0	50.40241864182826	pulse	1.0	t		40.0	male	black	2.408674890569041	smiling	061	sub-08	2.0	5.0	061_smiling	1.0	trustworthiness	76.43400593627666	
7.0	51.10240182851703	pulse	1.0	t		40.0	male	black	2.408674890569041	smiling	061	sub-08	2.0	5.0	061_smiling	1.0	trustworthiness	77.13398912296543	
7.0	51.752278022766404	rating	2.0		294	40.0	male	black	2.408674890569041	smiling	061	sub-08	2.0	5.0	061_smiling	1.0	trustworthiness	77.7838653172148	2.499953665288558
7.0	51.80251330349711	pulse	2.0	t		40.0	male	black	2.408674890569041	smiling	061	sub-08	2.0	5.0	061_smiling	1.0	trustworthiness	77.83410059794551	
7.0	52.50237242785806	pulse	2.0	t		40.0	male	black	2.408674890569041	smiling	061	sub-08	2.0	5.0	061_smiling	1.0	trustworthiness	78.53395972230646	
7.0	53.20236859430224	pulse	2.0	t		40.0	male	black	2.408674890569041	smiling	061	sub-08	2.0	5.0	061_smiling	1.0	trustworthiness	79.23395588875064	
7.0	53.310668967606034	response	2.0	b		40.0	male	black	2.408674890569041	smiling	061	sub-08	2.0	5.0	061_smiling	1.0	trustworthiness	79.34225626205443	
7.0	53.90235178098919	pulse	2.0	t		40.0	male	black	2.408674890569041	smiling	061	sub-08	2.0	5.0	061_smiling	1.0	trustworthiness	79.93393907543759	
7.0	54.25223168805496	fix	3.0		443	40.0	male	black	2.408674890569041	smiling	061	sub-08	2.0	5.0	061_smiling	1.0	trustworthiness	80.28381898250336	3.766568131195527
7.0	54.60233074170901	pulse	3.0	t		40.0	male	black	2.408674890569041	smiling	061	sub-08	2.0	5.0	061_smiling	1.0	trustworthiness	80.63391803615741	
7.0	55.30231392839596	pulse	3.0	t		40.0	male	black	2.408674890569041	smiling	061	sub-08	2.0	5.0	061_smiling	1.0	trustworthiness	81.33390122284436	
7.0	56.00229892621246	pulse	3.0	t		40.0	male	black	2.408674890569041	smiling	061	sub-08	2.0	5.0	061_smiling	1.0	trustworthiness	82.03388622066086	
7.0	56.70228603701253	pulse	3.0	t		40.0	male	black	2.408674890569041	smiling	061	sub-08	2.0	5.0	061_smiling	1.0	trustworthiness	82.73387333146093	
7.0	56.818934506864025	response	3.0	b		40.0	male	black	2.408674890569041	smiling	061	sub-08	2.0	5.0	061_smiling	1.0	trustworthiness	82.85052180131242	
7.0	57.402240245637586	pulse	3.0	t		40.0	male	black	2.408674890569041	smiling	061	sub-08	2.0	5.0	061_smiling	1.0	trustworthiness	83.43382754008599	
8.0	58.01879981925049	face	0.0		145	26.0	male	white	2.7966573816155993	smiling	117	sub-08	2.0	5.0	117_smiling	0.0		84.05038711369889	1.233328634460122
8.0	58.102260560466675	pulse	0.0	t		26.0	male	white	2.7966573816155993	smiling	117	sub-08	2.0	5.0	117_smiling	0.0		84.13384785491508	
8.0	58.80225401021744	pulse	0.0	t		26.0	male	white	2.7966573816155993	smiling	117	sub-08	2.0	5.0	117_smiling	0.0		84.83384130466584	
8.0	59.25212845371061	fix	1.0		444	26.0	male	white	2.7966573816155993	smiling	117	sub-08	2.0	5.0	117_smiling	0.0		85.28371574815901	3.7582472015783424
8.0	59.50222059488988	pulse	1.0	t		26.0	male	white	2.7966573816155993	smiling	117	sub-08	2.0	5.0	117_smiling	0.0		85.53380788933828	
8.0	60.202223100284755	pulse	1.0	t		26.0	male	white	2.7966573816155993	smiling	117	sub-08	2.0	5.0	117_smiling	0.0		86.23381039473315	
8.0	60.90219300536046	pulse	1.0	t		26.0	male	white	2.7966573816155993	smiling	117	sub-08	2.0	5.0	117_smiling	0.0		86.93378029980886	
8.0	61.60218343656379	pulse	1.0	t		26.0	male	white	2.7966573816155993	smiling	117	sub-08	2.0	5.0	117_smiling	0.0		87.63377073101219	
8.0	62.30216058615406	pulse	1.0	t		26.0	male	white	2.7966573816155993	smiling	117	sub-08	2.0	5.0	117_smiling	0.0		88.33374788060246	
9.0	63.010375655288954	face	0.0		146	28.0	male	east_asian	1.5563072025467568	smiling	005	sub-08	2.0	5.0	005_smiling	1.0	attractiveness	89.04196294973735	1.241655299318154
9.0	63.00456525210575	pulse	0.0	t		28.0	male	east_asian	1.5563072025467568	smiling	005	sub-08	2.0	5.0	005_smiling	1.0	attractiveness	89.03615254655415	
9.0	63.7021477875096	pulse	0.0	t		28.0	male	east_asian	1.5563072025467568	smiling	005	sub-08	2.0	5.0	005_smiling	1.0	attractiveness	89.733735081958	
9.0	64.25203095460711	fix	1.0		177	28.0	male	east_asian	1.5563072025467568	smiling	005	sub-08	2.0	5.0	005_smiling	1.0	attractiveness	90.28361824905551	1.499955174562274
9.0	64.40213127605239	pulse	1.0	t		28.0	male	east_asian	1.5563072025467568	smiling	005	sub-08	2.0	5.0	005_smiling	1.0	attractiveness	90.43371857050079	
9.0	65.10211053862804	pulse	1.0	t		28.0	male	east_asian	1.5563072025467568	smiling	005	sub-08	2.0	5.0	005_smiling	1.0	attractiveness	91.13369783307644	
9.0	65.75198612916938	rating	2.0		294	28.0	male	east_asian	1.5563072025467568	smiling	005	sub-08	2.0	5.0	005_smiling	1.0	attractiveness	91.78357342361778	2.499947024480207
9.0	65.8021015735394	pulse	2.0	t		28.0	male	east_asian	1.5563072025467568	smiling	005	sub-08	2.0	5.0	005_smiling	1.0	attractiveness	91.8336888679878	
9.0	66.50208506208219	pulse	2.0	t		28.0	male	east_asian	1.5563072025467568	smiling	005	sub-08	2.0	5.0	005_smiling	1.0	attractiveness	92.53367235653059	
9.0	67.20206492836587	pulse	2.0	t		28.0	male	east_asian	1.5563072025467568	smiling	005	sub-08	2.0	5.0	005_smiling	1.0	attractiveness	93.23365222281427	
9.0	67.26870722528838	response	2.0	d		28.0	male	east_asian	1.5563072025467568	smiling	005	sub-08	2.0	5.0	005_smiling	1.0	attractiveness	93.30029451973678	
9.0	67.90205083174624	pulse	2.0	t		28.0	male	east_asian	1.5563072025467568	smiling	005	sub-08	2.0	5.0	005_smiling	1.0	attractiveness	93.93363812619464	
9.0	68.25193315364959	fix	3.0		444	28.0	male	east_asian	1.5563072025467568	smiling	005	sub-08	2.0	5.0	005_smiling	1.0	attractiveness	94.28352044809799	3.7665814128067723
9.0	68.60204337593314	pulse	3.0	t		28.0	male	east_asian	1.5563072025467568	smiling	005	sub-08	2.0	5.0	005_smiling	1.0	attractiveness	94.63363067038154	
9.0	69.30202022366939	pulse	3.0	t		28.0	male	east_asian	1.5563072025467568	smiling	005	sub-08	2.0	5.0	005_smiling	1.0	attractiveness	95.33360751811779	
9.0	70.00200220293664	pulse	3.0	t		28.0	male	east_asian	1.5563072025467568	smiling	005	sub-08	2.0	5.0	005_smiling	1.0	attractiveness	96.03358949738504	
9.0	70.7019968601071	pulse	3.0	t		28.0	male	east_asian	1.5563072025467568	smiling	005	sub-08	2.0	5.0	005_smiling	1.0	attractiveness	96.7335841545555	
9.0	71.40197612268094	pulse	3.0	t		28.0	male	east_asian	1.5563072025467568	smiling	005	sub-08	2.0	5.0	005_smiling	1.0	attractiveness	97.43356341712933	
10.0	72.01851456645636	face	0.0		145	26.0	female	white	4.854755272582572	smiling	027	sub-08	2.0	5.0	027_smiling	0.0		98.05010186090476	1.2333153528488765
10.0	72.10196534646457	pulse	0.0	t		26.0	female	white	4.854755272582572	smiling	027	sub-08	2.0	5.0	027_smiling	0.0		98.13355264091297	
10.0	72.80195094799092	pulse	0.0	t		26.0	female	white	4.854755272582572	smiling	027	sub-08	2.0	5.0	027_smiling	0.0		98.83353824243932	
10.0	73.25182991930524	fix	1.0		444	26.0	female	white	4.854755272582572	smiling	027	sub-08	2.0	5.0	027_smiling	0.0		99.28341721375364	3.766563301518545
10.0	73.50193745508113	pulse	1.0	t		26.0	female	white	4.854755272582572	smiling	027	sub-08	2.0	5.0	027_smiling	0.0		99.53352474952953	
10.0	74.2019221510418	pulse	1.0	t		26.0	female	white	4.854755272582572	smiling	027	sub-08	2.0	5.0	027_smiling	0.0		100.2335094454902	
10.0	74.90190563958458	pulse	1.0	t		26.0	female	white	4.854755272582572	smiling	027	sub-08	2.0	5.0	027_smiling	0.0		100.93349293403298	
10.0	75.60188882627153	pulse	1.0	t		26.0	female	white	4.854755272582572	smiling	027	sub-08	2.0	5.0	027_smiling	0.0		101.63347612071993	
10.0	76.30187382408803	pulse	1.0	t		26.0	female	white	4.854755272582572	smiling	027	sub-08	2.0	5.0	027_smiling	0.0		102.33346111853643	
11.0	77.01839322082378	face	0.0		146	19.0	male	white	2.243931555909272	smiling	130	sub-08	2.0	5.0	130_smiling	0.0		103.04998051527218	1.2333295400258066
11.0	77.00474666684386	pulse	0.0	t		19.0	male	white	2.243931555909272	smiling	130	sub-08	2.0	5.0	130_smiling	0.0		103.03633396129226	
11.0	77.70184563084877	pulse	0.0	t		19.0	male	white	2.243931555909272	smiling	130	sub-08	2.0	5.0	130_smiling	0.0		103.73343292529717	
11.0	78.25172276084959	fix	1.0		443	19.0	male	white	2.243931555909272	smiling	130	sub-08	2.0	5.0	130_smiling	0.0		104.28331005529799	3.7665865443377697
11.0	78.40183817503384	pulse	1.0	t		19.0	male	white	2.243931555909272	smiling	130	sub-08	2.0	5.0	130_smiling	0.0		104.43342546948224	
11.0	79.10181713575548	pulse	1.0	t		19.0	male	white	2.243931555909272	smiling	130	sub-08	2.0	5.0	130_smiling	0.0		105.13340443020388	
11.0	79.8018012280063	pulse	1.0	t		19.0	male	white	2.243931555909272	smiling	130	sub-08	2.0	5.0	130_smiling	0.0		105.8333885224547	
11.0	80.50177324606557	pulse	1.0	t		19.0	male	white	2.243931555909272	smiling	130	sub-08	2.0	5.0	130_smiling	0.0		106.53336054051397	
11.0	81.20178963678154	pulse	1.0	t		19.0	male	white	2.243931555909272	smiling	130	sub-08	2.0	5.0	130_smiling	0.0		107.23337693122994	
11.0	81.90176286226051	pulse	1.0	t		19.0	male	white	2.243931555909272	smiling	130	sub-08	2.0	5.0	130_smiling	0.0		107.93335015670891	
12.0	82.01830930518736	face	0.0		146	19.0	male	white	3.2522881018702745	smiling	018	sub-08	2.0	5.0	018_smiling	0.0		108.04989659963576	1.233318371398127
12.0	82.60175963241454	pulse	0.0	t		19.0	male	white	3.2522881018702745	smiling	018	sub-08	2.0	5.0	018_smiling	0.0		108.63334692686294	
12.0	83.25162767658549	fix	1.0		444	19.0	male	white	3.2522881018702745	smiling	018	sub-08	2.0	5.0	018_smiling	0.0		109.28321497103389	3.766576884983806
12.0	83.30173708386064	pulse	1.0	t		19.0	male	white	3.2522881018702745	smiling	018	sub-08	2.0	5.0	018_smiling	0.0		109.33332437830904	
12.0	84.00171695014433	pulse	1.0	t		19.0	male	white	3.2522881018702745	smiling	018	sub-08	2.0	5.0	018_smiling	0.0		110.03330424459273	
12.0	84.70170134425098	pulse	1.0	t		19.0	male	white	3.2522881018702745	smiling	018	sub-08	2.0	5.0	018_smiling	0.0		110.73328863869938	
12.0	85.4016866439215	pulse	1.0	t		19.0	male	white	3.2522881018702745	smiling	018	sub-08	2.0	5.0	018_smiling	0.0		111.4332739383699	
12.0	86.1016728491577	pulse	1.0	t		19.0	male	white	3.2522881018702745	smiling	018	sub-08	2.0	5.0	018_smiling	0.0		112.1332601436061	
12.0	86.80165392286108	pulse	1.0	t		19.0	male	white	3.2522881018702745	smiling	018	sub-08	2.0	5.0	018_smiling	0.0		112.83324121730948	
13.0	87.01820456156929	face	0.0		145	25.0	female	black	3.858336649423	smiling	126	sub-08	2.0	5.0	126_smiling	0.0		113.04979185601769	1.233312938011295
13.0	87.50164314664289	pulse	0.0	t		25.0	female	black	3.858336649423	smiling	126	sub-08	2.0	5.0	126_smiling	0.0		113.53323044109129	
13.0	88.20163357784622	pulse	0.0	t		25.0	female	black	3.858336649423	smiling	126	sub-08	2.0	5.0	126_smiling	0.0		114.23322087229462	
13.0	88.25151749958059	fix	1.0		445	25.0	female	black	3.858336649423	smiling	126	sub-08	2.0	5.0	126_smiling	0.0		114.28310479402899	3.7665868461936043
13.0	88.90161404783976	pulse	1.0	t		25.0	female	black	3.858336649423	smiling	126	sub-08	2.0	5.0	126_smiling	0.0		114.93320134228816	
13.0	89.60159663081868	pulse	1.0	t		25.0	female	black	3.858336649423	smiling	126	sub-08	2.0	5.0	126_smiling	0.0		115.63318392526708	
13.0	90.30158525089246	pulse	1.0	t		25.0	female	black	3.858336649423	smiling	126	sub-08	2.0	5.0	126_smiling	0.0		116.33317254534086	
13.0	91.00156723015971	pulse	1.0	t		25.0	female	black	3.858336649423	smiling	126	sub-08	2.0	5.0	126_smiling	0.0		117.03315452460811	
13.0	91.70156218918419	pulse	1.0	t		25.0	female	black	3.858336649423	smiling	126	sub-08	2.0	5.0	126_smiling	0.0		117.73314948363259	
14.0	92.01810434577419	face	0.0		145	31.0	female	west_asian	2.364902506963788	neutral	006	sub-08	2.0	5.0	006_neutral	0.0		118.04969164022259	1.233304184221197
14.0	92.40154537587114	pulse	0.0	t		31.0	female	west_asian	2.364902506963788	neutral	006	sub-08	2.0	5.0	006_neutral	0.0		118.43313267031954	
14.0	93.10152795885006	pulse	0.0	t		31.0	female	west_asian	2.364902506963788	neutral	006	sub-08	2.0	5.0	006_neutral	0.0		119.13311525329846	
14.0	93.25140852999539	fix	1.0		444	31.0	female	west_asian	2.364902506963788	neutral	006	sub-08	2.0	5.0	006_neutral	0.0		119.28299582444379	3.7665901665968704
14.0	93.80151325852057	pulse	1.0	t		31.0	female	west_asian	2.364902506963788	neutral	006	sub-08	2.0	5.0	006_neutral	0.0		119.83310055296897	
14.0	94.5015012748845	pulse	1.0	t		31.0	female	west_asian	2.364902506963788	neutral	006	sub-08	2.0	5.0	006_neutral	0.0		120.5330885693329	
14.0	95.20148687641085	pulse	1.0	t		31.0	female	west_asian	2.364902506963788	neutral	006	sub-08	2.0	5.0	006_neutral	0.0		121.23307417085925	
14.0	95.90146462971097	pulse	1.0	t		31.0	female	west_asian	2.364902506963788	neutral	006	sub-08	2.0	5.0	006_neutral	0.0		121.93305192415937	
14.0	96.6014538534946	pulse	1.0	t		31.0	female	west_asian	2.364902506963788	neutral	006	sub-08	2.0	5.0	006_neutral	0.0		122.633041147943	
15.0	97.01799869659226	face	0.0		145	25.0	female	black	3.858336649423	neutral	126	sub-08	2.0	5.0	126_neutral	0.0		123.04958599104066	1.2333256159108714
15.0	97.30144066243884	pulse	0.0	t		25.0	female	black	3.858336649423	neutral	126	sub-08	2.0	5.0	126_neutral	0.0		123.33302795688724	
15.0	98.00142505654549	pulse	0.0	t		25.0	female	black	3.858336649423	neutral	126	sub-08	2.0	5.0	126_neutral	0.0		124.03301235099389	
15.0	98.25132431250313	fix	1.0		444	25.0	female	black	3.858336649423	neutral	126	sub-08	2.0	5.0	126_neutral	0.0		124.28291160695153	3.7665690367612115
15.0	98.70141609145867	pulse	1.0	t		25.0	female	black	3.858336649423	neutral	126	sub-08	2.0	5.0	126_neutral	0.0		124.73300338590707	
15.0	99.40138116685739	pulse	1.0	t		25.0	female	black	3.858336649423	neutral	126	sub-08	2.0	5.0	126_neutral	0.0		125.43296846130579	
15.0	100.10137642773589	pulse	1.0	t		25.0	female	black	3.858336649423	neutral	126	sub-08	2.0	5.0	126_neutral	0.0		126.13296372218429	
15.0	100.80136504780967	pulse	1.0	t		25.0	female	black	3.858336649423	neutral	126	sub-08	2.0	5.0	126_neutral	0.0		126.83295234225807	
15.0	101.50135004562617	pulse	1.0	t		25.0	female	black	3.858336649423	neutral	126	sub-08	2.0	5.0	126_neutral	0.0		127.53293734007457	
16.0	102.01789334926434	face	0.0		145	31.0	male	west_asian	1.9538400318344609	neutral	070	sub-08	2.0	5.0	070_neutral	0.0		128.04948064371274	1.2333165602667577
16.0	102.20134530650466	pulse	0.0	t		31.0	male	west_asian	1.9538400318344609	neutral	070	sub-08	2.0	5.0	070_neutral	0.0		128.23293260095306	
16.0	102.90132517279017	pulse	0.0	t		31.0	male	west_asian	1.9538400318344609	neutral	070	sub-08	2.0	5.0	070_neutral	0.0		128.93291246723857	
16.0	103.2512099095311	fix	1.0		444	31.0	male	west_asian	1.9538400318344609	neutral	070	sub-08	2.0	5.0	070_neutral	0.0		129.2827972039795	3.766578997969191
16.0	103.60131801883108	pulse	1.0	t		31.0	male	west_asian	1.9538400318344609	neutral	070	sub-08	2.0	5.0	070_neutral	0.0		129.63290531327948	
16.0	104.30128581092322	pulse	1.0	t		31.0	male	west_asian	1.9538400318344609	neutral	070	sub-08	2.0	5.0	070_neutral	0.0		130.33287310537162	
16.0	105.0012819773674	pulse	1.0	t		31.0	male	west_asian	1.9538400318344609	neutral	070	sub-08	2.0	5.0	070_neutral	0.0		131.0328692718158	
16.0	105.70126425849048	pulse	1.0	t		31.0	male	west_asian	1.9538400318344609	neutral	070	sub-08	2.0	5.0	070_neutral	0.0		131.73285155293888	
16.0	106.40125891565913	pulse	1.0	t		31.0	male	west_asian	1.9538400318344609	neutral	070	sub-08	2.0	5.0	070_neutral	0.0		132.43284621010753	
17.0	107.01778890750029	face	0.0		145	24.0	female	east_asian	2.9076800636689217	neutral	034	sub-08	2.0	5.0	034_neutral	0.0		133.0493762019487	1.2333026749474811
17.0	107.10124693202306	pulse	0.0	t		24.0	female	east_asian	2.9076800636689217	neutral	034	sub-08	2.0	5.0	034_neutral	0.0		133.13283422647146	
17.0	107.80122287419545	pulse	0.0	t		24.0	female	east_asian	2.9076800636689217	neutral	034	sub-08	2.0	5.0	034_neutral	0.0		133.83281016864385	
17.0	108.25109158244777	fix	1.0		444	24.0	female	east_asian	2.9076800636689217	neutral	034	sub-08	2.0	5.0	034_neutral	0.0		134.28267887689617	3.76658714804762
17.0	108.5012084757218	pulse	1.0	t		24.0	female	east_asian	2.9076800636689217	neutral	034	sub-08	2.0	5.0	034_neutral	0.0		134.5327957701702	
17.0	109.2011859271679	pulse	1.0	t		24.0	female	east_asian	2.9076800636689217	neutral	034	sub-08	2.0	5.0	034_neutral	0.0		135.2327732216163	
17.0	109.90117243425811	pulse	1.0	t		24.0	female	east_asian	2.9076800636689217	neutral	034	sub-08	2.0	5.0	034_neutral	0.0		135.93275972870651	
17.0	110.60116195989576	pulse	1.0	t		24.0	female	east_asian	2.9076800636689217	neutral	034	sub-08	2.0	5.0	034_neutral	0.0		136.63274925434416	
17.0	111.30114967440568	pulse	1.0	t		24.0	female	east_asian	2.9076800636689217	neutral	034	sub-08	2.0	5.0	034_neutral	0.0		137.33273696885408	
18.0	112.01767873049539	face	0.0		146	36.0	female	white	2.7548746518105847	smiling	011	sub-08	2.0	5.0	011_smiling	0.0		138.0492660249438	1.2333153528488765
18.0	112.00402915796803	pulse	0.0	t		36.0	female	white	2.7548746518105847	smiling	011	sub-08	2.0	5.0	011_smiling	0.0		138.03561645241643	
18.0	112.70113506463167	pulse	0.0	t		36.0	female	white	2.7548746518105847	smiling	011	sub-08	2.0	5.0	011_smiling	0.0		138.73272235908007	
18.0	113.25099408334427	fix	1.0		442	36.0	female	white	2.7548746518105847	smiling	011	sub-08	2.0	5.0	011_smiling	0.0		139.28258137779267	3.766583525790338
18.0	113.40110587527306	pulse	1.0	t		36.0	female	white	2.7548746518105847	smiling	011	sub-08	2.0	5.0	011_smiling	0.0		139.43269316972146	
18.0	113.63442183182997	response	1.0	b		36.0	female	white	2.7548746518105847	smiling	011	sub-08	2.0	5.0	011_smiling	0.0		139.66600912627837	
18.0	114.1010736673652	pulse	1.0	t		36.0	female	white	2.7548746518105847	smiling	011	sub-08	2.0	5.0	011_smiling	0.0		140.1326609618136	
18.0	114.80140338336969	pulse	1.0	t		36.0	female	white	2.7548746518105847	smiling	011	sub-08	2.0	5.0	011_smiling	0.0		140.8329906778181	
18.0	115.50105211493064	pulse	1.0	t		36.0	female	white	2.7548746518105847	smiling	011	sub-08	2.0	5.0	011_smiling	0.0		141.53263940937904	
18.0	116.20105250734196	pulse	1.0	t		36.0	female	white	2.7548746518105847	smiling	011	sub-08	2.0	5.0	011_smiling	0.0		142.23263980179036	
18.0	116.90102875136836	pulse	1.0	t		36.0	female	white	2.7548746518105847	smiling	011	sub-08	2.0	5.0	011_smiling	0.0		142.93261604581676	
19.0	117.0175776091346	face	0.0		146	37.0	male	white	3.898925586947871	smiling	101	sub-08	2.0	5.0	101_smiling	0.0		143.049164903583	1.233315050994861
19.0	117.60101525845857	pulse	0.0	t		37.0	male	white	3.898925586947871	smiling	101	sub-08	2.0	5.0	101_smiling	0.0		143.63260255290697	
19.0	118.25089266012947	fix	1.0		443	37.0	male	white	3.898925586947871	smiling	101	sub-08	2.0	5.0	101_smiling	0.0		144.28247995457787	3.766582318370638
19.0	118.3011348835189	pulse	1.0	t		37.0	male	white	3.898925586947871	smiling	101	sub-08	2.0	5.0	101_smiling	0.0		144.3327221779673	
19.0	119.00098465038172	pulse	1.0	t		37.0	male	white	3.898925586947871	smiling	101	sub-08	2.0	5.0	101_smiling	0.0		145.03257194483012	
19.0	119.7009720630358	pulse	1.0	t		37.0	male	white	3.898925586947871	smiling	101	sub-08	2.0	5.0	101_smiling	0.0		145.7325593574842	
19.0	120.40095766456216	pulse	1.0	t		37.0	male	white	3.898925586947871	smiling	101	sub-08	2.0	5.0	101_smiling	0.0		146.43254495901056	
19.0	121.10093934197539	pulse	1.0	t		37.0	male	white	3.898925586947871	smiling	101	sub-08	2.0	5.0	101_smiling	0.0		147.1325266364238	
19.0	121.80092947132289	pulse	1.0	t		37.0	male	white	3.898925586947871	smiling	101	sub-08	2.0	5.0	101_smiling	0.0		147.8325167657713	
20.0	122.0174749785001	face	0.0		145	32.0	male	white	2.389176283326701	neutral	092	sub-08	2.0	5.0	092_neutral	0.0		148.0490622729485	1.233310221317879
20.0	122.50091386542954	pulse	0.0	t		32.0	male	white	2.389176283326701	neutral	092	sub-08	2.0	5.0	092_neutral	0.0		148.53250115987794	
20.0	123.20089433542307	pulse	0.0	t		32.0	male	white	2.389176283326701	neutral	092	sub-08	2.0	5.0	092_neutral	0.0		149.23248162987147	
20.0	123.25078519981798	fix	1.0		1186	32.0	male	white	2.389176283326701	neutral	092	sub-08	2.0	5.0	092_neutral	0.0		149.28237249426638	10.01645319997806
20.0	123.90088657775414	pulse	1.0	t		32.0	male	white	2.389176283326701	neutral	092	sub-08	2.0	5.0	092_neutral	0.0		149.93247387220254	
20.0	124.60086825516737	pulse	1.0	t		32.0	male	white	2.389176283326701	neutral	092	sub-08	2.0	5.0	092_neutral	0.0		150.63245554961577	
20.0	125.30086170491813	pulse	1.0	t		32.0	male	white	2.389176283326701	neutral	092	sub-08	2.0	5.0	092_neutral	0.0		151.33244899936653	
20.0	126.0008412693478	pulse	1.0	t		32.0	male	white	2.389176283326701	neutral	092	sub-08	2.0	5.0	092_neutral	0.0		152.0324285637962	
20.0	126.70082596531029	pulse	1.0	t		32.0	male	white	2.389176283326701	neutral	092	sub-08	2.0	5.0	092_neutral	0.0		152.7324132597587	
20.0	127.40080734086769	pulse	1.0	t		32.0	male	white	2.389176283326701	neutral	092	sub-08	2.0	5.0	092_neutral	0.0		153.4323946353161	
20.0	128.1007926405382	pulse	1.0	t		32.0	male	white	2.389176283326701	neutral	092	sub-08	2.0	5.0	092_neutral	0.0		154.1323799349866	
20.0	128.80078458101525	pulse	1.0	t		32.0	male	white	2.389176283326701	neutral	092	sub-08	2.0	5.0	092_neutral	0.0		154.83237187546365	
20.0	129.5007638435909	pulse	1.0	t		32.0	male	white	2.389176283326701	neutral	092	sub-08	2.0	5.0	092_neutral	0.0		155.5323511380393	
20.0	130.20076725454965	pulse	1.0	t		32.0	male	white	2.389176283326701	neutral	092	sub-08	2.0	5.0	092_neutral	0.0		156.23235454899805	
20.0	130.90076130801026	pulse	1.0	t		32.0	male	white	2.389176283326701	neutral	092	sub-08	2.0	5.0	092_neutral	0.0		156.93234860245866	
20.0	131.60070676284704	pulse	1.0	t		32.0	male	white	2.389176283326701	neutral	092	sub-08	2.0	5.0	092_neutral	0.0		157.63229405729544	
20.0	132.30072466283673	pulse	1.0	t		32.0	male	white	2.389176283326701	neutral	092	sub-08	2.0	5.0	092_neutral	0.0		158.33231195728513	
20.0	133.00070030315328	pulse	1.0	t		32.0	male	white	2.389176283326701	neutral	092	sub-08	2.0	5.0	092_neutral	0.0		159.03228759760168	
21.0	133.26723839979604	face	0.0		145	34.0	male	white	2.651014723438122	neutral	121	sub-08	2.0	5.0	121_neutral	0.0		159.29882569424444	1.2333256159126904
21.0	133.70068228242053	pulse	0.0	t		34.0	male	white	2.651014723438122	neutral	121	sub-08	2.0	5.0	121_neutral	0.0		159.73226957686893	
21.0	134.40066818580272	pulse	0.0	t		34.0	male	white	2.651014723438122	neutral	121	sub-08	2.0	5.0	121_neutral	0.0		160.43225548025111	
21.0	134.50056401570873	fix	1.0		444	34.0	male	white	2.651014723438122	neutral	121	sub-08	2.0	5.0	121_neutral	0.0		160.53215131015713	3.7665711497429584
21.0	135.10066254111734	pulse	1.0	t		34.0	male	white	2.651014723438122	neutral	121	sub-08	2.0	5.0	121_neutral	0.0		161.13224983556574	
21.0	135.8006369740142	pulse	1.0	t		34.0	male	white	2.651014723438122	neutral	121	sub-08	2.0	5.0	121_neutral	0.0		161.8322242684626	
21.0	136.50061985884713	pulse	1.0	t		34.0	male	white	2.651014723438122	neutral	121	sub-08	2.0	5.0	121_neutral	0.0		162.53220715329553	
21.0	137.20060878077493	pulse	1.0	t		34.0	male	white	2.651014723438122	neutral	121	sub-08	2.0	5.0	121_neutral	0.0		163.23219607522333	
21.0	137.90059257117355	pulse	1.0	t		34.0	male	white	2.651014723438122	neutral	121	sub-08	2.0	5.0	121_neutral	0.0		163.93217986562195	
22.0	138.2671351654517	face	0.0		145	28.0	female	white	5.676880222841227	neutral	124	sub-08	2.0	5.0	124_neutral	0.0		164.2987224599001	1.2333126361554605
22.0	138.6005820968112	pulse	0.0	t		28.0	female	white	5.676880222841227	neutral	124	sub-08	2.0	5.0	124_neutral	0.0		164.6321693912596	
22.0	139.30056286865874	pulse	0.0	t		28.0	female	white	5.676880222841227	neutral	124	sub-08	2.0	5.0	124_neutral	0.0		165.33215016310714	
22.0	139.50044780160715	fix	1.0		444	28.0	female	white	5.676880222841227	neutral	124	sub-08	2.0	5.0	124_neutral	0.0		165.53203509605555	3.766575375711909
22.0	140.0005511868785	pulse	1.0	t		28.0	female	white	5.676880222841227	neutral	124	sub-08	2.0	5.0	124_neutral	0.0		166.0321384813269	
22.0	140.7005398069523	pulse	1.0	t		28.0	female	white	5.676880222841227	neutral	124	sub-08	2.0	5.0	124_neutral	0.0		166.7321271014007	
22.0	141.40051967323598	pulse	1.0	t		28.0	female	white	5.676880222841227	neutral	124	sub-08	2.0	5.0	124_neutral	0.0		167.43210696768438	
22.0	142.1005049729083	pulse	1.0	t		28.0	female	white	5.676880222841227	neutral	124	sub-08	2.0	5.0	124_neutral	0.0		168.1320922673567	
22.0	142.80048846144928	pulse	1.0	t		28.0	female	white	5.676880222841227	neutral	124	sub-08	2.0	5.0	124_neutral	0.0		168.83207575589768	
23.0	143.26702317731906	face	0.0		145	21.0	male	black	2.969757262236371	neutral	137	sub-08	2.0	5.0	137_neutral	0.0		169.29861047176746	1.2333467457483493
23.0	143.5004776852329	pulse	0.0	t		21.0	male	black	2.969757262236371	neutral	137	sub-08	2.0	5.0	137_neutral	0.0		169.5320649796813	
23.0	144.20045453296916	pulse	0.0	t		21.0	male	black	2.969757262236371	neutral	137	sub-08	2.0	5.0	137_neutral	0.0		170.23204182741756	
23.0	144.5003699230674	fix	1.0		444	21.0	male	black	2.969757262236371	neutral	137	sub-08	2.0	5.0	137_neutral	0.0		170.5319572175158	3.7665593774054287
23.0	144.90044556788234	pulse	1.0	t		21.0	male	black	2.969757262236371	neutral	137	sub-08	2.0	5.0	137_neutral	0.0		170.93203286233074	
23.0	145.6004366027937	pulse	1.0	t		21.0	male	black	2.969757262236371	neutral	137	sub-08	2.0	5.0	137_neutral	0.0		171.6320238972421	
23.0	146.3004176764971	pulse	1.0	t		21.0	male	black	2.969757262236371	neutral	137	sub-08	2.0	5.0	137_neutral	0.0		172.3320049709455	
23.0	147.00039844834646	pulse	1.0	t		21.0	male	black	2.969757262236371	neutral	137	sub-08	2.0	5.0	137_neutral	0.0		173.03198574279486	
23.0	147.70039189809722	pulse	1.0	t		21.0	male	black	2.969757262236371	neutral	137	sub-08	2.0	5.0	137_neutral	0.0		173.73197919254562	
24.0	148.26692930047284	face	0.0		145	19.0	female	white	4.298846000795861	smiling	100	sub-08	2.0	5.0	100_smiling	0.0		174.29851659492124	1.2333090138981788
24.0	148.4003841404283	pulse	0.0	t		19.0	female	white	4.298846000795861	smiling	100	sub-08	2.0	5.0	100_smiling	0.0		174.4319714348767	
24.0	149.10035615848756	pulse	0.0	t		19.0	female	white	4.298846000795861	smiling	100	sub-08	2.0	5.0	100_smiling	0.0		175.13194345293596	
24.0	149.50023831437102	fix	1.0		444	19.0	female	white	4.298846000795861	smiling	100	sub-08	2.0	5.0	100_smiling	0.0		175.53182560881942	3.766586242483754
24.0	149.8003456841252	pulse	1.0	t		19.0	female	white	4.298846000795861	smiling	100	sub-08	2.0	5.0	100_smiling	0.0		175.8319329785736	
24.0	150.5003379264581	pulse	1.0	t		19.0	female	white	4.298846000795861	smiling	100	sub-08	2.0	5.0	100_smiling	0.0		176.5319252209065	
24.0	151.2003295650793	pulse	1.0	t		19.0	female	white	4.298846000795861	smiling	100	sub-08	2.0	5.0	100_smiling	0.0		177.2319168595277	
24.0	151.900299470155	pulse	1.0	t		19.0	female	white	4.298846000795861	smiling	100	sub-08	2.0	5.0	100_smiling	0.0		177.9318867646034	
24.0	152.6002947310335	pulse	1.0	t		19.0	female	white	4.298846000795861	smiling	100	sub-08	2.0	5.0	100_smiling	0.0		178.6318820254819	
25.0	153.26682455685477	face	0.0		145	25.0	female	west_asian	2.6756864305610826	smiling	064	sub-08	2.0	5.0	064_smiling	0.0		179.29841185130317	1.233309617608029
25.0	153.30029119933351	pulse	0.0	t		25.0	female	west_asian	2.6756864305610826	smiling	064	sub-08	2.0	5.0	064_smiling	0.0		179.33187849378191	
25.0	154.00025868956982	pulse	0.0	t		25.0	female	west_asian	2.6756864305610826	smiling	064	sub-08	2.0	5.0	064_smiling	0.0		180.03184598401822	
25.0	154.5001341744628	fix	1.0		443	25.0	female	west_asian	2.6756864305610826	smiling	064	sub-08	2.0	5.0	064_smiling	0.0		180.5317214689112	3.7665690367593925
25.0	154.70024640407973	pulse	1.0	t		25.0	female	west_asian	2.6756864305610826	smiling	064	sub-08	2.0	5.0	064_smiling	0.0		180.73183369852813	
25.0	155.40022415737985	pulse	1.0	t		25.0	female	west_asian	2.6756864305610826	smiling	064	sub-08	2.0	5.0	064_smiling	0.0		181.43181145182825	
25.0	156.10022907761413	pulse	1.0	t		25.0	female	west_asian	2.6756864305610826	smiling	064	sub-08	2.0	5.0	064_smiling	0.0		182.13181637206253	
25.0	156.80019958639969	pulse	1.0	t		25.0	female	west_asian	2.6756864305610826	smiling	064	sub-08	2.0	5.0	064_smiling	0.0		182.83178688084809	
25.0	157.50018126381292	pulse	1.0	t		25.0	female	west_asian	2.6756864305610826	smiling	064	sub-08	2.0	5.0	064_smiling	0.0		183.53176855826132	
25.0	158.20016777090314	pulse	1.0	t		25.0	female	west_asian	2.6756864305610826	smiling	064	sub-08	2.0	5.0	064_smiling	0.0		184.23175506535154	
26.0	158.2667032112222	face	0.0		146	20.0	male	black	2.609629924393156	neutral	043	sub-08	2.0	5.0	043_neutral	0.0		184.2982905056706	1.233326521476556
26.0	158.90015820210465	pulse	0.0	t		20.0	male	black	2.609629924393156	neutral	043	sub-08	2.0	5.0	043_neutral	0.0		184.93174549655305	
26.0	159.50002973269875	fix	1.0		443	20.0	male	black	2.609629924393156	neutral	043	sub-08	2.0	5.0	043_neutral	0.0		185.53161702714715	3.7665853369198885
26.0	159.60015255741928	pulse	1.0	t		20.0	male	black	2.609629924393156	neutral	043	sub-08	2.0	5.0	043_neutral	0.0		185.63173985186768	
26.0	160.3001288014475	pulse	1.0	t		20.0	male	black	2.609629924393156	neutral	043	sub-08	2.0	5.0	043_neutral	0.0		186.3317160958959	
26.0	161.0001216474884	pulse	1.0	t		20.0	male	black	2.609629924393156	neutral	043	sub-08	2.0	5.0	043_neutral	0.0		187.0317089419368	
26.0	161.70010241933596	pulse	1.0	t		20.0	male	black	2.609629924393156	neutral	043	sub-08	2.0	5.0	043_neutral	0.0		187.73168971378436	
26.0	162.40007081513795	pulse	1.0	t		20.0	male	black	2.609629924393156	neutral	043	sub-08	2.0	5.0	043_neutral	0.0		188.43165810958635	
26.0	163.10007513166238	pulse	1.0	t		20.0	male	black	2.609629924393156	neutral	043	sub-08	2.0	5.0	043_neutral	0.0		189.13166242611078	
27.0	163.26661506961864	face	0.0		146	31.0	female	white	2.1822522881018704	neutral	102	sub-08	2.0	5.0	102_neutral	0.0		189.29820236406704	1.2333132398653106
27.0	163.8000556016559	pulse	0.0	t		31.0	female	white	2.1822522881018704	neutral	102	sub-08	2.0	5.0	102_neutral	0.0		189.8316428961043	
27.0	164.49992830948395	fix	1.0		444	31.0	female	white	2.1822522881018704	neutral	102	sub-08	2.0	5.0	102_neutral	0.0		190.53151560393235	3.7665832239363226
27.0	164.50739770668952	pulse	1.0	t		31.0	female	white	2.1822522881018704	neutral	102	sub-08	2.0	5.0	102_neutral	0.0		190.53898500113792	
27.0	165.2000521605114	pulse	1.0	t		31.0	female	white	2.1822522881018704	neutral	102	sub-08	2.0	5.0	102_neutral	0.0		191.2316394549598	
27.0	165.90001029324958	pulse	1.0	t		31.0	female	white	2.1822522881018704	neutral	102	sub-08	2.0	5.0	102_neutral	0.0		191.93159758769798	
27.0	166.59999619662995	pulse	1.0	t		31.0	female	white	2.1822522881018704	neutral	102	sub-08	2.0	5.0	102_neutral	0.0		192.63158349107835	
27.0	167.29997213880233	pulse	1.0	t		31.0	female	white	2.1822522881018704	neutral	102	sub-08	2.0	5.0	102_neutral	0.0		193.33155943325073	
27.0	167.9999758516169	pulse	1.0	t		31.0	female	white	2.1822522881018704	neutral	102	sub-08	2.0	5.0	102_neutral	0.0		194.0315631460653	
28.0	168.26651153342027	face	0.0		145	19.0	female	white	4.298846000795861	neutral	100	sub-08	2.0	5.0	100_neutral	0.0		194.29809882786867	1.23330961760621
28.0	168.6999608494316	pulse	0.0	t		19.0	female	white	4.298846000795861	neutral	100	sub-08	2.0	5.0	100_neutral	0.0		194.73154814388	
28.0	169.40025736140888	pulse	0.0	t		19.0	female	white	4.298846000795861	neutral	100	sub-08	2.0	5.0	100_neutral	0.0		195.43184465585728	
28.0	169.49982115102648	fix	1.0		444	19.0	female	white	4.298846000795861	neutral	100	sub-08	2.0	5.0	100_neutral	0.0		195.53140844547488	3.7665702441809117
28.0	170.09992420425806	pulse	1.0	t		19.0	female	white	4.298846000795861	neutral	100	sub-08	2.0	5.0	100_neutral	0.0		196.13151149870646	
28.0	170.799907089091	pulse	1.0	t		19.0	female	white	4.298846000795861	neutral	100	sub-08	2.0	5.0	100_neutral	0.0		196.8314943835394	
28.0	171.49989419989106	pulse	1.0	t		19.0	female	white	4.298846000795861	neutral	100	sub-08	2.0	5.0	100_neutral	0.0		197.53148149433946	
28.0	172.1998734624649	pulse	1.0	t		19.0	female	white	4.298846000795861	neutral	100	sub-08	2.0	5.0	100_neutral	0.0		198.2314607569133	
28.0	172.8998687233452	pulse	1.0	t		19.0	female	white	4.298846000795861	neutral	100	sub-08	2.0	5.0	100_neutral	0.0		198.9314560177936	
29.0	173.2663913952074	face	0.0		145	37.0	male	white	3.898925586947871	neutral	101	sub-08	2.0	5.0	101_neutral	0.0		199.2979786896558	1.233325917766706
29.0	173.59985341930587	pulse	0.0	t		37.0	male	white	3.898925586947871	neutral	101	sub-08	2.0	5.0	101_neutral	0.0		199.63144071375427	
29.0	174.2998224188177	pulse	0.0	t		37.0	male	white	3.898925586947871	neutral	101	sub-08	2.0	5.0	101_neutral	0.0		200.3314097132661	
29.0	174.4997173129741	fix	1.0		444	37.0	male	white	3.898925586947871	neutral	101	sub-08	2.0	5.0	101_neutral	0.0		200.5313046074225	3.7665868461936043
29.0	174.99982039638962	pulse	1.0	t		37.0	male	white	3.898925586947871	neutral	101	sub-08	2.0	5.0	101_neutral	0.0		201.03140769083802	
29.0	175.6998035830784	pulse	1.0	t		37.0	male	white	3.898925586947871	neutral	101	sub-08	2.0	5.0	101_neutral	0.0		201.7313908775268	
29.0	176.39979491984377	pulse	1.0	t		37.0	male	white	3.898925586947871	neutral	101	sub-08	2.0	5.0	101_neutral	0.0		202.43138221429217	
29.0	177.0997687490326	pulse	1.0	t		37.0	male	white	3.898925586947871	neutral	101	sub-08	2.0	5.0	101_neutral	0.0		203.131356043481	
29.0	177.7997576709622	pulse	1.0	t		37.0	male	white	3.898925586947871	neutral	101	sub-08	2.0	5.0	101_neutral	0.0		203.8313449654106	
30.0	178.2663041591677	face	0.0		145	28.0	male	east_asian	1.5563072025467568	neutral	005	sub-08	2.0	5.0	005_neutral	0.0		204.2978914536161	1.2333099194620445
30.0	178.49975836522754	pulse	0.0	t		28.0	male	east_asian	1.5563072025467568	neutral	005	sub-08	2.0	5.0	005_neutral	0.0		204.53134565967594	
30.0	179.19972736473937	pulse	0.0	t		28.0	male	east_asian	1.5563072025467568	neutral	005	sub-08	2.0	5.0	005_neutral	0.0		205.23131465918777	
30.0	179.49961407862975	fix	1.0		444	28.0	male	east_asian	1.5563072025467568	neutral	005	sub-08	2.0	5.0	005_neutral	0.0		205.53120137307815	3.7665865443395887
30.0	179.89973258682767	pulse	1.0	t		28.0	male	east_asian	1.5563072025467568	neutral	005	sub-08	2.0	5.0	005_neutral	0.0		205.93131988127607	
30.0	180.5997015863377	pulse	1.0	t		28.0	male	east_asian	1.5563072025467568	neutral	005	sub-08	2.0	5.0	005_neutral	0.0		206.6312888807861	
30.0	181.2996865841542	pulse	1.0	t		28.0	male	east_asian	1.5563072025467568	neutral	005	sub-08	2.0	5.0	005_neutral	0.0		207.3312738786026	
30.0	181.99967007269697	pulse	1.0	t		28.0	male	east_asian	1.5563072025467568	neutral	005	sub-08	2.0	5.0	005_neutral	0.0		208.03125736714537	
30.0	182.69965205196422	pulse	1.0	t		28.0	male	east_asian	1.5563072025467568	neutral	005	sub-08	2.0	5.0	005_neutral	0.0		208.73123934641262	
31.0	183.26620062296934	face	0.0		145	22.0	female	west_asian	3.8205332272184642	neutral	066	sub-08	2.0	5.0	066_neutral	0.0		209.29778791741774	1.23330961760621
31.0	183.3996467091347	pulse	0.0	t		22.0	female	west_asian	3.8205332272184642	neutral	066	sub-08	2.0	5.0	066_neutral	0.0		209.43123400358309	
31.0	184.0996268772742	pulse	0.0	t		22.0	female	west_asian	3.8205332272184642	neutral	066	sub-08	2.0	5.0	066_neutral	0.0		210.1312141717226	
31.0	184.49951024057555	fix	1.0		443	22.0	female	west_asian	3.8205332272184642	neutral	066	sub-08	2.0	5.0	066_neutral	0.0		210.53109753502395	3.766586242483754
31.0	184.79962183629868	pulse	1.0	t		22.0	female	west_asian	3.8205332272184642	neutral	066	sub-08	2.0	5.0	066_neutral	0.0		210.83120913074708	
31.0	185.49959475992182	pulse	1.0	t		22.0	female	west_asian	3.8205332272184642	neutral	066	sub-08	2.0	5.0	066_neutral	0.0		211.53118205437022	
31.0	186.19958639854303	pulse	1.0	t		22.0	female	west_asian	3.8205332272184642	neutral	066	sub-08	2.0	5.0	066_neutral	0.0		212.23117369299143	
31.0	186.24956057486452	response	1.0	b		22.0	female	west_asian	3.8205332272184642	neutral	066	sub-08	2.0	5.0	066_neutral	0.0		212.28114786931292	
31.0	186.8995445312812	pulse	1.0	t		22.0	female	west_asian	3.8205332272184642	neutral	066	sub-08	2.0	5.0	066_neutral	0.0		212.9311318257296	
31.0	187.59955639417603	pulse	1.0	t		22.0	female	west_asian	3.8205332272184642	neutral	066	sub-08	2.0	5.0	066_neutral	0.0		213.63114368862443	
32.0	188.2660964830593	face	0.0		145	28.0	female	white	5.676880222841227	smiling	124	sub-08	2.0	5.0	124_smiling	0.0		214.2976837775077	1.2333198806718428
32.0	188.29978740365914	pulse	0.0	t		28.0	female	white	5.676880222841227	smiling	124	sub-08	2.0	5.0	124_smiling	0.0		214.33137469810754	
32.0	188.99952548424335	pulse	0.0	t		28.0	female	white	5.676880222841227	smiling	124	sub-08	2.0	5.0	124_smiling	0.0		215.03111277869175	
32.0	189.49941636373114	fix	1.0		443	28.0	female	white	5.676880222841227	smiling	124	sub-08	2.0	5.0	124_smiling	0.0		215.53100365817954	3.766563301518545
32.0	189.6995177265744	pulse	1.0	t		28.0	female	white	5.676880222841227	smiling	124	sub-08	2.0	5.0	124_smiling	0.0		215.7311050210228	
32.0	190.39949910213363	pulse	1.0	t		28.0	female	white	5.676880222841227	smiling	124	sub-08	2.0	5.0	124_smiling	0.0		216.43108639658203	
32.0	191.0994865147877	pulse	1.0	t		28.0	female	white	5.676880222841227	smiling	124	sub-08	2.0	5.0	124_smiling	0.0		217.1310738092361	
32.0	191.79946819220095	pulse	1.0	t		28.0	female	white	5.676880222841227	smiling	124	sub-08	2.0	5.0	124_smiling	0.0		217.83105548664935	
32.0	192.49945077517805	pulse	1.0	t		28.0	female	white	5.676880222841227	smiling	124	sub-08	2.0	5.0	124_smiling	0.0		218.53103806962645	
32.0	193.1994390933978	pulse	1.0	t		28.0	female	white	5.676880222841227	smiling	124	sub-08	2.0	5.0	124_smiling	0.0		219.2310263878462	
33.0	193.2659796652497	face	0.0		146	40.0	male	white	1.868682849184242	smiling	172	sub-08	2.0	5.0	172_smiling	1.0	dominance	219.2975669596981	1.2333241066371556
33.0	193.89943073201903	pulse	0.0	t		40.0	male	white	1.868682849184242	smiling	172	sub-08	2.0	5.0	172_smiling	1.0	dominance	219.93101802646743	
33.0	194.49930377188684	fix	1.0		177	40.0	male	white	1.868682849184242	smiling	172	sub-08	2.0	5.0	172_smiling	1.0	dominance	220.53089106633524	1.4999772099636175
33.0	194.5994130131421	pulse	1.0	t		40.0	male	white	1.868682849184242	smiling	172	sub-08	2.0	5.0	172_smiling	1.0	dominance	220.6310003075905	
33.0	195.29939469055535	pulse	1.0	t		40.0	male	white	1.868682849184242	smiling	172	sub-08	2.0	5.0	172_smiling	1.0	dominance	221.33098198500375	
33.0	195.99928098185046	rating	2.0		294	40.0	male	white	1.868682849184242	smiling	172	sub-08	2.0	5.0	172_smiling	1.0	dominance	222.03086827629886	2.4999385725459433
33.0	195.99547368716594	pulse	2.0	t		40.0	male	white	1.868682849184242	smiling	172	sub-08	2.0	5.0	172_smiling	1.0	dominance	222.02706098161434	
33.0	196.69944829996894	pulse	2.0	t		40.0	male	white	1.868682849184242	smiling	172	sub-08	2.0	5.0	172_smiling	1.0	dominance	222.73103559441734	
33.0	197.39935119327856	pulse	2.0	t		40.0	male	white	1.868682849184242	smiling	172	sub-08	2.0	5.0	172_smiling	1.0	dominance	223.43093848772696	
33.0	198.09934645415706	pulse	2.0	t		40.0	male	white	1.868682849184242	smiling	172	sub-08	2.0	5.0	172_smiling	1.0	dominance	224.13093374860546	
33.0	198.20243198381104	response	2.0	y		40.0	male	white	1.868682849184242	smiling	172	sub-08	2.0	5.0	172_smiling	1.0	dominance	224.23401927825944	
33.0	198.4992195543964	fix	3.0		444	40.0	male	white	1.868682849184242	smiling	172	sub-08	2.0	5.0	172_smiling	1.0	dominance	224.5308068488448	3.7665847332100384
33.0	198.79932933899	pulse	3.0	t		40.0	male	white	1.868682849184242	smiling	172	sub-08	2.0	5.0	172_smiling	1.0	dominance	224.8309166334384	
33.0	199.4992941125347	pulse	3.0	t		40.0	male	white	1.868682849184242	smiling	172	sub-08	2.0	5.0	172_smiling	1.0	dominance	225.5308814069831	
33.0	200.19931623849152	pulse	3.0	t		40.0	male	white	1.868682849184242	smiling	172	sub-08	2.0	5.0	172_smiling	1.0	dominance	226.23090353293992	
33.0	200.89927799348698	pulse	3.0	t		40.0	male	white	1.868682849184242	smiling	172	sub-08	2.0	5.0	172_smiling	1.0	dominance	226.93086528793538	
33.0	201.59926751912462	pulse	3.0	t		40.0	male	white	1.868682849184242	smiling	172	sub-08	2.0	5.0	172_smiling	1.0	dominance	227.63085481357302	
34.0	202.26580428760644	face	0.0		146	20.0	female	white	3.9502586549940313	neutral	091	sub-08	2.0	5.0	091_neutral	0.0		228.29739158205484	1.24164443254449
34.0	202.29925945960167	pulse	0.0	t		20.0	female	white	3.9502586549940313	neutral	091	sub-08	2.0	5.0	091_neutral	0.0		228.33084675405007	
34.0	202.99926528539982	pulse	0.0	t		20.0	female	white	3.9502586549940313	neutral	091	sub-08	2.0	5.0	091_neutral	0.0		229.03085257984822	
34.0	203.50744872015093	fix	1.0		443	20.0	female	white	3.9502586549940313	neutral	091	sub-08	2.0	5.0	091_neutral	0.0		229.53903601459933	3.7665868461936043
34.0	203.69922553112156	pulse	1.0	t		20.0	female	white	3.9502586549940313	neutral	091	sub-08	2.0	5.0	091_neutral	0.0		229.73081282556996	
34.0	204.3992020770038	pulse	1.0	t		20.0	female	white	3.9502586549940313	neutral	091	sub-08	2.0	5.0	091_neutral	0.0		230.4307893714522	
34.0	205.099188584094	pulse	1.0	t		20.0	female	white	3.9502586549940313	neutral	091	sub-08	2.0	5.0	091_neutral	0.0		231.1307758785424	
34.0	205.79917026150724	pulse	1.0	t		20.0	female	white	3.9502586549940313	neutral	091	sub-08	2.0	5.0	091_neutral	0.0		231.83075755595564	
34.0	206.49916401311202	pulse	1.0	t		20.0	female	white	3.9502586549940313	neutral	091	sub-08	2.0	5.0	091_neutral	0.0		232.53075130756042	
34.0	207.19914810536284	pulse	1.0	t		20.0	female	white	3.9502586549940313	neutral	091	sub-08	2.0	5.0	091_neutral	0.0		233.23073539981124	
35.0	207.27403556634454	face	0.0		146	21.0	male	black	2.969757262236371	smiling	137	sub-08	2.0	5.0	137_smiling	0.0		233.30562286079294	1.2333120324456104
35.0	207.8991361217286	pulse	0.0	t		21.0	male	black	2.969757262236371	smiling	137	sub-08	2.0	5.0	137_smiling	0.0		233.930723416177	
35.0	208.50734759879015	fix	1.0		443	21.0	male	black	2.969757262236371	smiling	137	sub-08	2.0	5.0	137_smiling	0.0		234.53893489323855	3.7665811109527567
35.0	208.5991199121254	pulse	1.0	t		21.0	male	black	2.969757262236371	smiling	137	sub-08	2.0	5.0	137_smiling	0.0		234.6307072065738	
35.0	209.29910189139264	pulse	1.0	t		21.0	male	black	2.969757262236371	smiling	137	sub-08	2.0	5.0	137_smiling	0.0		235.33068918584104	
35.0	209.99908568178944	pulse	1.0	t		21.0	male	black	2.969757262236371	smiling	137	sub-08	2.0	5.0	137_smiling	0.0		236.03067297623784	
35.0	210.69907490557307	pulse	1.0	t		21.0	male	black	2.969757262236371	smiling	137	sub-08	2.0	5.0	137_smiling	0.0		236.73066220002147	
35.0	211.39906080895344	pulse	1.0	t		21.0	male	black	2.969757262236371	smiling	137	sub-08	2.0	5.0	137_smiling	0.0		237.43064810340184	
35.0	212.09903584556014	pulse	1.0	t		21.0	male	black	2.969757262236371	smiling	137	sub-08	2.0	5.0	137_smiling	0.0		238.13062314000854	
36.0	212.2739287097429	face	0.0		146	27.0	female	white	4.181058495821727	smiling	039	sub-08	2.0	5.0	039_smiling	0.0		238.3055160041913	1.241636886174092
36.0	212.79903412498788	pulse	0.0	t		27.0	female	white	4.181058495821727	smiling	039	sub-08	2.0	5.0	039_smiling	0.0		238.83062141943628	
36.0	213.49901067087012	pulse	0.0	t		27.0	female	white	4.181058495821727	smiling	039	sub-08	2.0	5.0	039_smiling	0.0		239.53059796531852	
36.0	213.515565595917	fix	1.0		443	27.0	female	white	4.181058495821727	smiling	039	sub-08	2.0	5.0	039_smiling	0.0		239.5471528903654	3.7582462960162957
36.0	214.19900351691103	pulse	1.0	t		27.0	female	white	4.181058495821727	smiling	039	sub-08	2.0	5.0	039_smiling	0.0		240.23059081135943	
36.0	214.89899304254868	pulse	1.0	t		27.0	female	white	4.181058495821727	smiling	039	sub-08	2.0	5.0	039_smiling	0.0		240.93058033699708	
36.0	215.59897804036518	pulse	1.0	t		27.0	female	white	4.181058495821727	smiling	039	sub-08	2.0	5.0	039_smiling	0.0		241.63056533481358	
36.0	216.29895730294083	pulse	1.0	t		27.0	female	white	4.181058495821727	smiling	039	sub-08	2.0	5.0	039_smiling	0.0		242.33054459738923	
36.0	216.99894803599818	pulse	1.0	t		27.0	female	white	4.181058495821727	smiling	039	sub-08	2.0	5.0	039_smiling	0.0		243.03053533044658	
37.0	217.2738118919333	face	0.0		145	27.0	female	white	3.504576203740549	neutral	144	sub-08	2.0	5.0	144_neutral	0.0		243.3053991863817	1.2333228992192744
37.0	217.69893575050628	pulse	0.0	t		27.0	female	white	3.504576203740549	neutral	144	sub-08	2.0	5.0	144_neutral	0.0		243.73052304495468	
37.0	218.39891320195238	pulse	0.0	t		27.0	female	white	3.504576203740549	neutral	144	sub-08	2.0	5.0	144_neutral	0.0		244.43050049640078	
37.0	218.50713479115257	fix	1.0		444	27.0	female	white	3.504576203740549	neutral	144	sub-08	2.0	5.0	144_neutral	0.0		244.53872208560097	3.76658714804762
37.0	219.09891027396043	pulse	1.0	t		27.0	female	white	3.504576203740549	neutral	144	sub-08	2.0	5.0	144_neutral	0.0		245.13049756840883	
37.0	219.79890734596847	pulse	1.0	t		27.0	female	white	3.504576203740549	neutral	144	sub-08	2.0	5.0	144_neutral	0.0		245.83049464041687	
37.0	220.49887664733615	pulse	1.0	t		27.0	female	white	3.504576203740549	neutral	144	sub-08	2.0	5.0	144_neutral	0.0		246.53046394178455	
37.0	221.19885590990998	pulse	1.0	t		27.0	female	white	3.504576203740549	neutral	144	sub-08	2.0	5.0	144_neutral	0.0		247.23044320435838	
37.0	221.89883788917905	pulse	1.0	t		27.0	female	white	3.504576203740549	neutral	144	sub-08	2.0	5.0	144_neutral	0.0		247.93042518362745	
38.0	222.2737219392002	face	0.0		145	32.0	male	white	2.389176283326701	smiling	092	sub-08	2.0	5.0	092_smiling	0.0		248.3053092336486	1.2333090138981788
38.0	222.59883103707398	pulse	0.0	t		32.0	male	white	2.389176283326701	smiling	092	sub-08	2.0	5.0	092_smiling	0.0		248.63041833152238	
38.0	223.2988099977938	pulse	0.0	t		32.0	male	white	2.389176283326701	smiling	092	sub-08	2.0	5.0	092_smiling	0.0		249.3303972922422	
38.0	223.50703095309836	fix	1.0		444	32.0	male	white	2.389176283326701	smiling	092	sub-08	2.0	5.0	092_smiling	0.0		249.53861824754676	3.766548208777749
38.0	223.9987925807709	pulse	1.0	t		32.0	male	white	2.389176283326701	smiling	092	sub-08	2.0	5.0	092_smiling	0.0		250.0303798752193	
38.0	224.69878874721508	pulse	1.0	t		32.0	male	white	2.389176283326701	smiling	092	sub-08	2.0	5.0	092_smiling	0.0		250.73037604166348	
38.0	225.39876831164474	pulse	1.0	t		32.0	male	white	2.389176283326701	smiling	092	sub-08	2.0	5.0	092_smiling	0.0		251.43035560609314	
38.0	226.09875632800868	pulse	1.0	t		32.0	male	white	2.389176283326701	smiling	092	sub-08	2.0	5.0	092_smiling	0.0		252.13034362245708	
38.0	226.7987404202613	pulse	1.0	t		32.0	male	white	2.389176283326701	smiling	092	sub-08	2.0	5.0	092_smiling	0.0		252.8303277147097	
39.0	227.2735791618761	face	0.0		145	40.0	male	black	2.408674890569041	neutral	061	sub-08	2.0	5.0	061_neutral	0.0		253.3051664563245	1.2333482550238841
39.0	227.4987495664609	pulse	0.0	t		40.0	male	black	2.408674890569041	neutral	061	sub-08	2.0	5.0	061_neutral	0.0		253.5303368609093	
39.0	228.1987104158925	pulse	0.0	t		40.0	male	black	2.408674890569041	neutral	061	sub-08	2.0	5.0	061_neutral	0.0		254.2302977103409	
39.0	228.5069274169	fix	1.0		444	40.0	male	black	2.408674890569041	neutral	061	sub-08	2.0	5.0	061_neutral	0.0		254.5385147113484	3.7499202348662948
39.0	228.8986981304024	pulse	1.0	t		40.0	male	black	2.408674890569041	neutral	061	sub-08	2.0	5.0	061_neutral	0.0		254.9302854248508	
39.0	229.59867860039594	pulse	1.0	t		40.0	male	black	2.408674890569041	neutral	061	sub-08	2.0	5.0	061_neutral	0.0		255.63026589484434	
39.0	230.29867265385656	pulse	1.0	t		40.0	male	black	2.408674890569041	neutral	061	sub-08	2.0	5.0	061_neutral	0.0		256.33025994830496	
39.0	230.99865342570592	pulse	1.0	t		40.0	male	black	2.408674890569041	neutral	061	sub-08	2.0	5.0	061_neutral	0.0		257.0302407201543	
39.0	231.69864023465016	pulse	1.0	t		40.0	male	black	2.408674890569041	neutral	061	sub-08	2.0	5.0	061_neutral	0.0		257.73022752909856	
40.0	232.2568476517663	fix	0.0		720													258.2884349462147	5.999877145093706
40.0	232.39862794916007	pulse	0.0	t														258.4302152436085	
40.0	233.098610833993	pulse	0.0	t														259.1301981284414	
40.0	233.79858647430956	pulse	0.0	t														259.83017376875796	
40.0	234.49858747043072	pulse	0.0	t														260.5301747648791	
40.0	235.19856039405386	pulse	0.0	t														261.23014768850226	
40.0	235.89854901412764	pulse	0.0	t														261.93013630857604	
40.0	236.59854729355538	pulse	0.0	t														262.6301345880038	
40.0	237.29852051903435	pulse	0.0	t														263.33010781348275	
40.0	237.99850400757532	pulse	0.0	t														264.0300913020237	
