trial_nr	onset	event_type	phase	response	nr_frames	face_age	face_sex	face_eth	attractiveness	expression	face_id	sub_id	ses	run	trial_type	catch	rating_type	onset_abs	duration
-1.0	0.0585677148733339	fix	0.0		713													96.60836287502616	5.9830103065896765
-1.0	-66.56079873654926	response	0.0	b														29.988996423603567	
-1.0	-2.669100334698669	response	0.0	b														93.88069482545416	
-1.0	0.7000949640669205	pulse	0.0	t														97.24989012421975	
-1.0	1.4000984656026958	pulse	0.0	t														97.94989362575552	
-1.0	2.1000684610626195	pulse	0.0	t														98.64986362121545	
-1.0	2.800063208759184	pulse	0.0	t														99.34985836891201	
-1.0	3.5000525230375388	pulse	0.0	t														100.04984768319036	
-1.0	4.200040931746571	pulse	0.0	t														100.7498360918994	
-1.0	4.9000393017213355	pulse	0.0	t														101.44983446187416	
-1.0	5.600027710429913	pulse	0.0	t														102.14982287058274	
0.0	6.04157802146301	face	0.0		141	40.0	male	black	2.408674890569041	smiling	061	sub-15	1.0	1.0	061_smiling	0.0		102.59137318161584	1.208318441744268
0.0	6.300028193400522	pulse	0.0	t		40.0	male	black	2.408674890569041	smiling	061	sub-15	1.0	1.0	061_smiling	0.0		102.84982335355335	
0.0	7.000011168691799	pulse	0.0	t		40.0	male	black	2.408674890569041	smiling	061	sub-15	1.0	1.0	061_smiling	0.0		103.54980632884462	
0.0	7.249896463207278	fix	1.0		444	40.0	male	black	2.408674890569041	smiling	061	sub-15	1.0	1.0	061_smiling	0.0		103.7996916233601	3.7666009021886566
0.0	7.699992030987232	pulse	1.0	t		40.0	male	black	2.408674890569041	smiling	061	sub-15	1.0	1.0	061_smiling	0.0		104.24978719114006	
0.0	8.39998194897862	pulse	1.0	t		40.0	male	black	2.408674890569041	smiling	061	sub-15	1.0	1.0	061_smiling	0.0		104.94977710913145	
0.0	9.099976394818441	pulse	1.0	t		40.0	male	black	2.408674890569041	smiling	061	sub-15	1.0	1.0	061_smiling	0.0		105.64977155497127	
0.0	9.79995514411803	pulse	1.0	t		40.0	male	black	2.408674890569041	smiling	061	sub-15	1.0	1.0	061_smiling	0.0		106.34975030427086	
0.0	10.49993359156133	pulse	1.0	t		40.0	male	black	2.408674890569041	smiling	061	sub-15	1.0	1.0	061_smiling	0.0		107.04972875171416	
1.0	11.016497365395935	face	0.0		145	37.0	male	white	3.898925586947871	smiling	101	sub-15	1.0	1.0	101_smiling	0.0		107.56629252554876	1.2333151816933423
1.0	11.199950978497782	pulse	0.0	t		37.0	male	white	3.898925586947871	smiling	101	sub-15	1.0	1.0	101_smiling	0.0		107.74974613865061	
1.0	11.899949046616257	pulse	0.0	t		37.0	male	white	3.898925586947871	smiling	101	sub-15	1.0	1.0	101_smiling	0.0		108.44974420676908	
1.0	12.249812547089277	fix	1.0		443	37.0	male	white	3.898925586947871	smiling	101	sub-15	1.0	1.0	101_smiling	0.0		108.7996077072421	3.766611165311133
1.0	12.599919343932925	pulse	1.0	t		37.0	male	white	3.898925586947871	smiling	101	sub-15	1.0	1.0	101_smiling	0.0		109.14971450408575	
1.0	12.974910288236515	response	1.0	y		37.0	male	white	3.898925586947871	smiling	101	sub-15	1.0	1.0	101_smiling	0.0		109.52470544838934	
1.0	13.29992133618589	pulse	1.0	t		37.0	male	white	3.898925586947871	smiling	101	sub-15	1.0	1.0	101_smiling	0.0		109.84971649633871	
1.0	13.999907028186044	pulse	1.0	t		37.0	male	white	3.898925586947871	smiling	101	sub-15	1.0	1.0	101_smiling	0.0		110.54970218833887	
1.0	14.699900266599343	pulse	1.0	t		37.0	male	white	3.898925586947871	smiling	101	sub-15	1.0	1.0	101_smiling	0.0		111.24969542675217	
1.0	15.399880525181743	pulse	1.0	t		37.0	male	white	3.898925586947871	smiling	101	sub-15	1.0	1.0	101_smiling	0.0		111.94967568533457	
2.0	16.01642371240041	face	0.0		145	24.0	female	east_asian	2.9076800636689217	neutral	034	sub-15	1.0	1.0	034_neutral	0.0		112.56621887255324	1.2333163891198637
2.0	16.09988523414404	pulse	0.0	t		24.0	female	east_asian	2.9076800636689217	neutral	034	sub-15	1.0	1.0	034_neutral	0.0		112.64968039429687	
2.0	16.79986126673475	pulse	0.0	t		24.0	female	east_asian	2.9076800636689217	neutral	034	sub-15	1.0	1.0	034_neutral	0.0		113.34965642688758	
2.0	17.249740101520274	fix	1.0		443	24.0	female	east_asian	2.9076800636689217	neutral	034	sub-15	1.0	1.0	034_neutral	0.0		113.7995352616731	3.7665948650578684
2.0	17.49985118472614	pulse	1.0	t		24.0	female	east_asian	2.9076800636689217	neutral	034	sub-15	1.0	1.0	034_neutral	0.0		114.04964634487897	
2.0	18.199824198751685	pulse	1.0	t		24.0	female	east_asian	2.9076800636689217	neutral	034	sub-15	1.0	1.0	034_neutral	0.0		114.74961935890451	
2.0	18.78315954446225	response	1.0	w		24.0	female	east_asian	2.9076800636689217	neutral	034	sub-15	1.0	1.0	034_neutral	0.0		115.33295470461508	
2.0	18.899816833452405	pulse	1.0	t		24.0	female	east_asian	2.9076800636689217	neutral	034	sub-15	1.0	1.0	034_neutral	0.0		115.44961199360523	
2.0	19.599819127562114	pulse	1.0	t		24.0	female	east_asian	2.9076800636689217	neutral	034	sub-15	1.0	1.0	034_neutral	0.0		116.14961428771494	
2.0	20.29980572513159	pulse	1.0	t		24.0	female	east_asian	2.9076800636689217	neutral	034	sub-15	1.0	1.0	034_neutral	0.0		116.84960088528442	
3.0	21.016334966578142	face	0.0		146	24.0	female	east_asian	4.409868682849185	smiling	030	sub-15	1.0	1.0	030_smiling	0.0		117.56613012673097	1.233347178486838
3.0	21.002336067751003	pulse	0.0	t		24.0	female	east_asian	4.409868682849185	smiling	030	sub-15	1.0	1.0	030_smiling	0.0		117.55213122790383	
3.0	21.699788579680444	pulse	0.0	t		24.0	female	east_asian	4.409868682849185	smiling	030	sub-15	1.0	1.0	030_smiling	0.0		118.24958373983327	
3.0	22.24968214506498	fix	1.0		442	24.0	female	east_asian	4.409868682849185	smiling	030	sub-15	1.0	1.0	030_smiling	0.0		118.7994773052178	3.766594261344835
3.0	22.39977366796711	pulse	1.0	t		24.0	female	east_asian	4.409868682849185	smiling	030	sub-15	1.0	1.0	030_smiling	0.0		118.94956882811994	
3.0	22.68309168711221	response	1.0	g		24.0	female	east_asian	4.409868682849185	smiling	030	sub-15	1.0	1.0	030_smiling	0.0		119.23288684726504	
3.0	23.099756039545355	pulse	1.0	t		24.0	female	east_asian	4.409868682849185	smiling	030	sub-15	1.0	1.0	030_smiling	0.0		119.64955119969818	
3.0	23.799753805807086	pulse	1.0	t		24.0	female	east_asian	4.409868682849185	smiling	030	sub-15	1.0	1.0	030_smiling	0.0		120.34954896595991	
3.0	24.499753081351173	pulse	1.0	t		24.0	female	east_asian	4.409868682849185	smiling	030	sub-15	1.0	1.0	030_smiling	0.0		121.049548241504	
3.0	25.199747829047737	pulse	1.0	t		24.0	female	east_asian	4.409868682849185	smiling	030	sub-15	1.0	1.0	030_smiling	0.0		121.74954298920056	
3.0	25.899728389486427	pulse	1.0	t		24.0	female	east_asian	4.409868682849185	smiling	030	sub-15	1.0	1.0	030_smiling	0.0		122.44952354963925	
4.0	26.016276406409816	face	0.0		146	32.0	male	white	2.389176283326701	neutral	092	sub-15	1.0	1.0	092_neutral	0.0		122.56607156656264	1.233316690976153
4.0	26.599716496338715	pulse	0.0	t		32.0	male	white	2.389176283326701	neutral	092	sub-15	1.0	1.0	092_neutral	0.0		123.14951165649154	
4.0	27.24959309738597	fix	1.0		442	32.0	male	white	2.389176283326701	neutral	092	sub-15	1.0	1.0	092_neutral	0.0		123.7993882575388	3.7665909409229243
4.0	27.299710036608758	pulse	1.0	t		32.0	male	white	2.389176283326701	neutral	092	sub-15	1.0	1.0	092_neutral	0.0		123.84950519676158	
4.0	27.799681662094372	response	1.0	w		32.0	male	white	2.389176283326701	neutral	092	sub-15	1.0	1.0	092_neutral	0.0		124.3494768222472	
4.0	27.99968395620408	pulse	1.0	t		32.0	male	white	2.389176283326701	neutral	092	sub-15	1.0	1.0	092_neutral	0.0		124.5494791163569	
4.0	28.699679005756934	pulse	1.0	t		32.0	male	white	2.389176283326701	neutral	092	sub-15	1.0	1.0	092_neutral	0.0		125.24947416590976	
4.0	29.399675564592144	pulse	1.0	t		32.0	male	white	2.389176283326701	neutral	092	sub-15	1.0	1.0	092_neutral	0.0		125.94947072474497	
4.0	30.09966970857522	pulse	1.0	t		32.0	male	white	2.389176283326701	neutral	092	sub-15	1.0	1.0	092_neutral	0.0		126.64946486872805	
4.0	30.799661739562907	pulse	1.0	t		32.0	male	white	2.389176283326701	neutral	092	sub-15	1.0	1.0	092_neutral	0.0		127.34945689971573	
5.0	31.016184038308893	face	0.0		145	20.0	female	white	3.9502586549940313	neutral	091	sub-15	1.0	1.0	091_neutral	0.0		127.56597919846172	1.2333408394993057
5.0	31.499684559917114	pulse	0.0	t		20.0	female	white	3.9502586549940313	neutral	091	sub-15	1.0	1.0	091_neutral	0.0		128.04947972006994	
5.0	32.19964006626333	pulse	0.0	t		20.0	female	white	3.9502586549940313	neutral	091	sub-15	1.0	1.0	091_neutral	0.0		128.74943522641615	
5.0	32.2495248778082	fix	1.0		443	20.0	female	white	3.9502586549940313	neutral	091	sub-15	1.0	1.0	091_neutral	0.0		128.79932003796102	3.75836263354131
5.0	32.56629675154045	response	1.0	e		20.0	female	white	3.9502586549940313	neutral	091	sub-15	1.0	1.0	091_neutral	0.0		129.11609191169327	
5.0	32.89962877682865	pulse	1.0	t		20.0	female	white	3.9502586549940313	neutral	091	sub-15	1.0	1.0	091_neutral	0.0		129.44942393698147	
5.0	33.59962050595959	pulse	1.0	t		20.0	female	white	3.9502586549940313	neutral	091	sub-15	1.0	1.0	091_neutral	0.0		130.14941566611242	
5.0	34.299594425554915	pulse	1.0	t		20.0	female	white	3.9502586549940313	neutral	091	sub-15	1.0	1.0	091_neutral	0.0		130.84938958570774	
5.0	34.99958887139428	pulse	1.0	t		20.0	female	white	3.9502586549940313	neutral	091	sub-15	1.0	1.0	091_neutral	0.0		131.5493840315471	
5.0	35.69958603394298	pulse	1.0	t		20.0	female	white	3.9502586549940313	neutral	091	sub-15	1.0	1.0	091_neutral	0.0		132.2493811940958	
6.0	36.00788751134951	face	0.0		146	34.0	male	white	2.651014723438122	smiling	121	sub-15	1.0	1.0	121_smiling	0.0		132.55768267150233	1.2415498280624888
6.0	36.39957383893898	pulse	0.0	t		34.0	male	white	2.651014723438122	smiling	121	sub-15	1.0	1.0	121_smiling	0.0		132.9493689990918	
6.0	37.099556210516766	pulse	0.0	t		34.0	male	white	2.651014723438122	smiling	121	sub-15	1.0	1.0	121_smiling	0.0		133.6493513706696	
6.0	37.249437339412	fix	1.0		443	34.0	male	white	2.651014723438122	smiling	121	sub-15	1.0	1.0	121_smiling	0.0		133.79923249956482	3.758347540714567
6.0	37.491224728570614	response	1.0	b		34.0	male	white	2.651014723438122	smiling	121	sub-15	1.0	1.0	121_smiling	0.0		134.04101988872344	
6.0	37.7995409969476	pulse	1.0	t		34.0	male	white	2.651014723438122	smiling	121	sub-15	1.0	1.0	121_smiling	0.0		134.34933615710042	
6.0	38.49953393350461	pulse	1.0	t		34.0	male	white	2.651014723438122	smiling	121	sub-15	1.0	1.0	121_smiling	0.0		135.04932909365743	
6.0	39.199526266348585	pulse	1.0	t		34.0	male	white	2.651014723438122	smiling	121	sub-15	1.0	1.0	121_smiling	0.0		135.7493214265014	
6.0	39.89951799547907	pulse	1.0	t		34.0	male	white	2.651014723438122	smiling	121	sub-15	1.0	1.0	121_smiling	0.0		136.4493131556319	
6.0	40.59950248005316	pulse	1.0	t		34.0	male	white	2.651014723438122	smiling	121	sub-15	1.0	1.0	121_smiling	0.0		137.149297640206	
7.0	41.007784880126565	face	0.0		146	21.0	male	east_asian/white	3.501790688420215	neutral	036	sub-15	1.0	1.0	036_neutral	0.0		137.5575800402794	1.241592087978006
7.0	41.299500850027925	pulse	0.0	t		21.0	male	east_asian/white	3.501790688420215	neutral	036	sub-15	1.0	1.0	036_neutral	0.0		137.84929601018075	
7.0	41.99949801257617	pulse	0.0	t		21.0	male	east_asian/white	3.501790688420215	neutral	036	sub-15	1.0	1.0	036_neutral	0.0		138.549293172729	
7.0	42.24937696810457	fix	1.0		443	21.0	male	east_asian/white	3.501790688420215	neutral	036	sub-15	1.0	1.0	036_neutral	0.0		138.7991721282574	3.766597581766746
7.0	42.6994864212852	pulse	1.0	t		21.0	male	east_asian/white	3.501790688420215	neutral	036	sub-15	1.0	1.0	036_neutral	0.0		139.24928158143803	
7.0	42.824467404323514	response	1.0	e		21.0	male	east_asian/white	3.501790688420215	neutral	036	sub-15	1.0	1.0	036_neutral	0.0		139.37426256447634	
7.0	43.39947332071142	pulse	1.0	t		21.0	male	east_asian/white	3.501790688420215	neutral	036	sub-15	1.0	1.0	036_neutral	0.0		139.94926848086425	
7.0	44.09946414427259	pulse	1.0	t		21.0	male	east_asian/white	3.501790688420215	neutral	036	sub-15	1.0	1.0	036_neutral	0.0		140.6492593044254	
7.0	44.79943534715903	pulse	1.0	t		21.0	male	east_asian/white	3.501790688420215	neutral	036	sub-15	1.0	1.0	036_neutral	0.0		141.34923050731186	
7.0	45.49944790439076	pulse	1.0	t		21.0	male	east_asian/white	3.501790688420215	neutral	036	sub-15	1.0	1.0	036_neutral	0.0		142.0492430645436	
8.0	46.015974549871316	face	0.0		145	28.0	male	east_asian	1.5563072025467568	smiling	005	sub-15	1.0	1.0	005_smiling	0.0		142.56576971002414	1.233326048528852
8.0	46.19943027596901	pulse	0.0	t		28.0	male	east_asian	1.5563072025467568	smiling	005	sub-15	1.0	1.0	005_smiling	0.0		142.74922543612183	
8.0	46.89943106079636	pulse	0.0	t		28.0	male	east_asian	1.5563072025467568	smiling	005	sub-15	1.0	1.0	005_smiling	0.0		143.44922622094919	
8.0	47.24930059840017	fix	1.0		443	28.0	male	east_asian	1.5563072025467568	smiling	005	sub-15	1.0	1.0	005_smiling	0.0		143.799095758553	3.7665894316405684
8.0	47.53275173627844	response	1.0	e		28.0	male	east_asian	1.5563072025467568	smiling	005	sub-15	1.0	1.0	005_smiling	0.0		144.08254689643127	
8.0	47.59941765836584	pulse	1.0	t		28.0	male	east_asian	1.5563072025467568	smiling	005	sub-15	1.0	1.0	005_smiling	0.0		144.14921281851866	
8.0	48.299404255935315	pulse	1.0	t		28.0	male	east_asian	1.5563072025467568	smiling	005	sub-15	1.0	1.0	005_smiling	0.0		144.84919941608814	
8.0	48.99937968481345	pulse	1.0	t		28.0	male	east_asian	1.5563072025467568	smiling	005	sub-15	1.0	1.0	005_smiling	0.0		145.54917484496627	
8.0	49.69936537681315	pulse	1.0	t		28.0	male	east_asian	1.5563072025467568	smiling	005	sub-15	1.0	1.0	005_smiling	0.0		146.24916053696597	
8.0	50.39936374678791	pulse	1.0	t		28.0	male	east_asian	1.5563072025467568	smiling	005	sub-15	1.0	1.0	005_smiling	0.0		146.94915890694074	
9.0	51.01589003004074	face	0.0		145	24.0	female	east_asian	4.409868682849185	neutral	030	sub-15	1.0	1.0	030_neutral	0.0		147.56568519019356	1.233339028359751
9.0	51.099360607479866	pulse	0.0	t		24.0	female	east_asian	4.409868682849185	neutral	030	sub-15	1.0	1.0	030_neutral	0.0		147.6491557676327	
9.0	51.79935444960665	pulse	0.0	t		24.0	female	east_asian	4.409868682849185	neutral	030	sub-15	1.0	1.0	030_neutral	0.0		148.34914960975948	
9.0	52.24922905840049	fix	1.0		443	24.0	female	east_asian	4.409868682849185	neutral	030	sub-15	1.0	1.0	030_neutral	0.0		148.7990242185533	3.766567697969549
9.0	52.49933470818905	pulse	1.0	t		24.0	female	east_asian	4.409868682849185	neutral	030	sub-15	1.0	1.0	030_neutral	0.0		149.04912986834188	
9.0	53.02432178872914	response	1.0	w		24.0	female	east_asian	4.409868682849185	neutral	030	sub-15	1.0	1.0	030_neutral	0.0		149.57411694888197	
9.0	53.1993095333537	pulse	1.0	t		24.0	female	east_asian	4.409868682849185	neutral	030	sub-15	1.0	1.0	030_neutral	0.0		149.74910469350652	
9.0	53.89931182746341	pulse	1.0	t		24.0	female	east_asian	4.409868682849185	neutral	030	sub-15	1.0	1.0	030_neutral	0.0		150.44910698761623	
9.0	54.59931955499087	pulse	1.0	t		24.0	female	east_asian	4.409868682849185	neutral	030	sub-15	1.0	1.0	030_neutral	0.0		151.1491147151437	
9.0	55.29929317272945	pulse	1.0	t		24.0	female	east_asian	4.409868682849185	neutral	030	sub-15	1.0	1.0	030_neutral	0.0		151.84908833288227	
10.0	56.01579675637004	face	0.0		146	20.0	male	black	2.609629924393156	neutral	043	sub-15	1.0	1.0	043_neutral	0.0		152.56559191652286	1.2333559323265035
10.0	56.002088847245886	pulse	0.0	t		20.0	male	black	2.609629924393156	neutral	043	sub-15	1.0	1.0	043_neutral	0.0		152.5518840073987	
10.0	56.69927119757358	pulse	0.0	t		20.0	male	black	2.609629924393156	neutral	043	sub-15	1.0	1.0	043_neutral	0.0		153.2490663577264	
10.0	57.24915268869654	fix	1.0		443	20.0	male	black	2.609629924393156	neutral	043	sub-15	1.0	1.0	043_neutral	0.0		153.79894784884937	3.766692666576546
10.0	57.39926141742171	pulse	1.0	t		20.0	male	black	2.609629924393156	neutral	043	sub-15	1.0	1.0	043_neutral	0.0		153.94905657757454	
10.0	57.674222538299546	response	1.0	e		20.0	male	black	2.609629924393156	neutral	043	sub-15	1.0	1.0	043_neutral	0.0		154.22401769845237	
10.0	58.099238959295235	pulse	1.0	t		20.0	male	black	2.609629924393156	neutral	043	sub-15	1.0	1.0	043_neutral	0.0		154.64903411944806	
10.0	58.799249705387865	pulse	1.0	t		20.0	male	black	2.609629924393156	neutral	043	sub-15	1.0	1.0	043_neutral	0.0		155.3490448655407	
10.0	59.499226945404644	pulse	1.0	t		20.0	male	black	2.609629924393156	neutral	043	sub-15	1.0	1.0	043_neutral	0.0		156.04902210555747	
10.0	60.1992201838184	pulse	1.0	t		20.0	male	black	2.609629924393156	neutral	043	sub-15	1.0	1.0	043_neutral	0.0		156.74901534397122	
10.0	60.89922127050204	pulse	1.0	t		20.0	male	black	2.609629924393156	neutral	043	sub-15	1.0	1.0	043_neutral	0.0		157.44901643065486	
11.0	61.015845355273086	face	0.0		147	27.0	female	white	4.181058495821727	smiling	039	sub-15	1.0	1.0	039_smiling	0.0		157.5656405154259	1.2415664301720426
11.0	61.599190360392186	pulse	0.0	t		27.0	female	white	4.181058495821727	smiling	039	sub-15	1.0	1.0	039_smiling	0.0		158.148985520545	
11.0	62.25741178544513	fix	1.0		442	27.0	female	white	4.181058495821727	smiling	039	sub-15	1.0	1.0	039_smiling	0.0		158.80720694559795	3.7665897334968577
11.0	62.299203219481115	pulse	1.0	t		27.0	female	white	4.181058495821727	smiling	039	sub-15	1.0	1.0	039_smiling	0.0		158.84899837963394	
11.0	62.6991845647467	response	1.0	b		27.0	female	white	4.181058495821727	smiling	039	sub-15	1.0	1.0	039_smiling	0.0		159.24897972489953	
11.0	62.99916898894935	pulse	1.0	t		27.0	female	white	4.181058495821727	smiling	039	sub-15	1.0	1.0	039_smiling	0.0		159.54896414910218	
11.0	63.69917369791165	pulse	1.0	t		27.0	female	white	4.181058495821727	smiling	039	sub-15	1.0	1.0	039_smiling	0.0		160.24896885806447	
11.0	64.39915818248528	pulse	1.0	t		27.0	female	white	4.181058495821727	smiling	039	sub-15	1.0	1.0	039_smiling	0.0		160.9489533426381	
11.0	65.09917436199567	pulse	1.0	t		27.0	female	white	4.181058495821727	smiling	039	sub-15	1.0	1.0	039_smiling	0.0		161.6489695221485	
11.0	65.79915552614784	pulse	1.0	t		27.0	female	white	4.181058495821727	smiling	039	sub-15	1.0	1.0	039_smiling	0.0		162.34895068630067	
12.0	66.02400151894199	face	0.0		145	28.0	male	white	3.9076800636689217	neutral	033	sub-15	1.0	1.0	033_neutral	0.0		162.5737966790948	1.2333094464192982
12.0	66.49913095502552	pulse	0.0	t		28.0	male	white	3.9076800636689217	neutral	033	sub-15	1.0	1.0	033_neutral	0.0		163.04892611517835	
12.0	67.19912872128725	pulse	0.0	t		28.0	male	white	3.9076800636689217	neutral	033	sub-15	1.0	1.0	033_neutral	0.0		163.74892388144008	
12.0	67.25731096536128	fix	1.0		443	28.0	male	white	3.9076800636689217	neutral	033	sub-15	1.0	1.0	033_neutral	0.0		163.8071061255141	3.766635917547319
12.0	67.65742965535219	response	1.0	w		28.0	male	white	3.9076800636689217	neutral	033	sub-15	1.0	1.0	033_neutral	0.0		164.20722481550501	
12.0	67.89909026476425	pulse	1.0	t		28.0	male	white	3.9076800636689217	neutral	033	sub-15	1.0	1.0	033_neutral	0.0		164.44888542491708	
12.0	68.59910312385273	pulse	1.0	t		28.0	male	white	3.9076800636689217	neutral	033	sub-15	1.0	1.0	033_neutral	0.0		165.14889828400555	
12.0	69.29910843652806	pulse	1.0	t		28.0	male	white	3.9076800636689217	neutral	033	sub-15	1.0	1.0	033_neutral	0.0		165.84890359668088	
12.0	69.9990850728318	pulse	1.0	t		28.0	male	white	3.9076800636689217	neutral	033	sub-15	1.0	1.0	033_neutral	0.0		166.54888023298463	
12.0	70.69906170913555	pulse	1.0	t		28.0	male	white	3.9076800636689217	neutral	033	sub-15	1.0	1.0	033_neutral	0.0		167.24885686928837	
13.0	71.0239468829086	face	0.0		145	31.0	female	west_asian	2.364902506963788	neutral	006	sub-15	1.0	1.0	006_neutral	0.0		167.57374204306143	1.233314577980309
13.0	71.39905796611447	pulse	0.0	t		31.0	female	west_asian	2.364902506963788	neutral	006	sub-15	1.0	1.0	006_neutral	0.0		167.9488531262673	
13.0	72.09904154511878	pulse	0.0	t		31.0	female	west_asian	2.364902506963788	neutral	006	sub-15	1.0	1.0	006_neutral	0.0		168.6488367052716	
13.0	72.25726146088891	fix	1.0		443	31.0	female	west_asian	2.364902506963788	neutral	006	sub-15	1.0	1.0	006_neutral	0.0		168.80705662104174	3.758343314722879
13.0	72.79904927264624	pulse	1.0	t		31.0	female	west_asian	2.364902506963788	neutral	006	sub-15	1.0	1.0	006_neutral	0.0		169.34884443279907	
13.0	73.05734610146237	response	1.0	w		31.0	female	west_asian	2.364902506963788	neutral	006	sub-15	1.0	1.0	006_neutral	0.0		169.6071412616152	
13.0	73.49901926810617	pulse	1.0	t		31.0	female	west_asian	2.364902506963788	neutral	006	sub-15	1.0	1.0	006_neutral	0.0		170.048814428259	
13.0	74.19901250651992	pulse	1.0	t		31.0	female	west_asian	2.364902506963788	neutral	006	sub-15	1.0	1.0	006_neutral	0.0		170.74880766667275	
13.0	74.89900242451131	pulse	1.0	t		31.0	female	west_asian	2.364902506963788	neutral	006	sub-15	1.0	1.0	006_neutral	0.0		171.44879758466413	
13.0	75.59901618916956	pulse	1.0	t		31.0	female	west_asian	2.364902506963788	neutral	006	sub-15	1.0	1.0	006_neutral	0.0		172.1488113493224	
14.0	76.01560477561179	face	0.0		146	54.0	female	white	2.286908077994429	neutral	136	sub-15	1.0	1.0	136_neutral	0.0		172.56539993576462	1.2415839378513738
14.0	76.2990097294396	pulse	0.0	t		54.0	female	white	2.286908077994429	neutral	136	sub-15	1.0	1.0	136_neutral	0.0		172.84880488959243	
14.0	76.99896583949885	pulse	0.0	t		54.0	female	white	2.286908077994429	neutral	136	sub-15	1.0	1.0	136_neutral	0.0		173.54876099965168	
14.0	77.25718871346317	fix	1.0		443	54.0	female	white	2.286908077994429	neutral	136	sub-15	1.0	1.0	136_neutral	0.0		173.806983873616	3.7582557763266777
14.0	77.69896270019126	pulse	1.0	t		54.0	female	white	2.286908077994429	neutral	136	sub-15	1.0	1.0	136_neutral	0.0		174.24875786034409	
14.0	77.89894899590445	response	1.0	w		54.0	female	white	2.286908077994429	neutral	136	sub-15	1.0	1.0	136_neutral	0.0		174.44874415605727	
14.0	78.39894265691692	pulse	1.0	t		54.0	female	white	2.286908077994429	neutral	136	sub-15	1.0	1.0	136_neutral	0.0		174.94873781706974	
14.0	79.09892502849516	pulse	1.0	t		54.0	female	white	2.286908077994429	neutral	136	sub-15	1.0	1.0	136_neutral	0.0		175.64872018864799	
14.0	79.79893034117003	pulse	1.0	t		54.0	female	white	2.286908077994429	neutral	136	sub-15	1.0	1.0	136_neutral	0.0		176.34872550132286	
14.0	80.49892025916188	pulse	1.0	t		54.0	female	white	2.286908077994429	neutral	136	sub-15	1.0	1.0	136_neutral	0.0		177.0487154193147	
15.0	81.01544448978984	face	0.0		146	26.0	male	white	2.7966573816155993	neutral	117	sub-15	1.0	1.0	117_neutral	0.0		177.56523964994267	1.241661816838132
15.0	81.19892406255394	pulse	0.0	t		26.0	male	white	2.7966573816155993	neutral	117	sub-15	1.0	1.0	117_neutral	0.0		177.74871922270677	
15.0	81.89889888771904	pulse	0.0	t		26.0	male	white	2.7966573816155993	neutral	117	sub-15	1.0	1.0	117_neutral	0.0		178.44869404787187	
15.0	82.25710630662797	fix	1.0		443	26.0	male	white	2.7966573816155993	neutral	117	sub-15	1.0	1.0	117_neutral	0.0		178.8069014667808	3.758389800630084
15.0	82.57387848221697	response	1.0	w		26.0	male	white	2.7966573816155993	neutral	117	sub-15	1.0	1.0	117_neutral	0.0		179.1236736423698	
15.0	82.59887793887492	pulse	1.0	t		26.0	male	white	2.7966573816155993	neutral	117	sub-15	1.0	1.0	117_neutral	0.0		179.14867309902775	
15.0	83.29888174226744	pulse	1.0	t		26.0	male	white	2.7966573816155993	neutral	117	sub-15	1.0	1.0	117_neutral	0.0		179.84867690242027	
15.0	83.9988707546895	pulse	1.0	t		26.0	male	white	2.7966573816155993	neutral	117	sub-15	1.0	1.0	117_neutral	0.0		180.54866591484233	
15.0	84.69885795597202	pulse	1.0	t		26.0	male	white	2.7966573816155993	neutral	117	sub-15	1.0	1.0	117_neutral	0.0		181.24865311612484	
15.0	85.39884666653779	pulse	1.0	t		26.0	male	white	2.7966573816155993	neutral	117	sub-15	1.0	1.0	117_neutral	0.0		181.94864182669062	
16.0	86.01549610725806	face	0.0		146	19.0	male	white	3.2522881018702745	neutral	018	sub-15	1.0	1.0	018_neutral	1.0	attractiveness	182.56529126741088	1.2415398667967565
16.0	86.09884050866413	pulse	0.0	t		19.0	male	white	3.2522881018702745	neutral	018	sub-15	1.0	1.0	018_neutral	1.0	attractiveness	182.64863566881695	
16.0	86.79882801180383	pulse	0.0	t		19.0	male	white	3.2522881018702745	neutral	018	sub-15	1.0	1.0	018_neutral	1.0	attractiveness	183.34862317195666	
16.0	87.25703597405482	fix	1.0		176	19.0	male	white	3.2522881018702745	neutral	018	sub-15	1.0	1.0	018_neutral	1.0	attractiveness	183.80683113420764	1.508351162992767
16.0	87.49882155207388	pulse	1.0	t		19.0	male	white	3.2522881018702745	neutral	018	sub-15	1.0	1.0	018_neutral	1.0	attractiveness	184.0486167122267	
16.0	87.5738009050865	response	1.0	b		19.0	male	white	3.2522881018702745	neutral	018	sub-15	1.0	1.0	018_neutral	1.0	attractiveness	184.12359606523933	
16.0	88.19882475175291	pulse	1.0	t		19.0	male	white	3.2522881018702745	neutral	018	sub-15	1.0	1.0	018_neutral	1.0	attractiveness	184.74861991190573	
16.0	88.76538713704758	rating	2.0		294	19.0	male	white	3.2522881018702745	neutral	018	sub-15	1.0	1.0	018_neutral	1.0	attractiveness	185.3151822972004	2.4916005399609276
16.0	88.89880289733946	pulse	2.0	t		19.0	male	white	3.2522881018702745	neutral	018	sub-15	1.0	1.0	018_neutral	1.0	attractiveness	185.4485980574923	
16.0	89.59879160790524	pulse	2.0	t		19.0	male	white	3.2522881018702745	neutral	018	sub-15	1.0	1.0	018_neutral	1.0	attractiveness	186.14858676805807	
16.0	90.29878575188832	pulse	2.0	t		19.0	male	white	3.2522881018702745	neutral	018	sub-15	1.0	1.0	018_neutral	1.0	attractiveness	186.84858091204114	
16.0	90.99878080144117	pulse	2.0	t		19.0	male	white	3.2522881018702745	neutral	018	sub-15	1.0	1.0	018_neutral	1.0	attractiveness	187.548575961594	
16.0	91.25698767700851	fix	3.0		444	19.0	male	white	3.2522881018702745	neutral	018	sub-15	1.0	1.0	018_neutral	1.0	attractiveness	187.80678283716134	3.76659788362349
16.0	91.6987583433147	pulse	3.0	t		19.0	male	white	3.2522881018702745	neutral	018	sub-15	1.0	1.0	018_neutral	1.0	attractiveness	188.24855350346752	
16.0	92.39897555927973	pulse	3.0	t		19.0	male	white	3.2522881018702745	neutral	018	sub-15	1.0	1.0	018_neutral	1.0	attractiveness	188.94877071943256	
16.0	93.09873244402343	pulse	3.0	t		19.0	male	white	3.2522881018702745	neutral	018	sub-15	1.0	1.0	018_neutral	1.0	attractiveness	189.64852760417625	
16.0	93.79873956783786	pulse	3.0	t		19.0	male	white	3.2522881018702745	neutral	018	sub-15	1.0	1.0	018_neutral	1.0	attractiveness	190.34853472799068	
16.0	94.4987312969688	pulse	3.0	t		19.0	male	white	3.2522881018702745	neutral	018	sub-15	1.0	1.0	018_neutral	1.0	attractiveness	191.04852645712162	
17.0	95.023585560632	face	0.0		145	28.0	male	white	3.9076800636689217	smiling	033	sub-15	1.0	1.0	033_smiling	0.0		191.57338072078483	1.2333245392460412
17.0	95.19870823512929	pulse	0.0	t		28.0	male	white	3.9076800636689217	smiling	033	sub-15	1.0	1.0	033_smiling	0.0		191.7485033952821	
17.0	95.8986936252727	pulse	0.0	t		28.0	male	white	3.9076800636689217	smiling	033	sub-15	1.0	1.0	033_smiling	0.0		192.44848878542552	
17.0	96.25691009987804	fix	1.0		444	28.0	male	white	3.9076800636689217	smiling	033	sub-15	1.0	1.0	033_smiling	0.0		192.80670526003087	3.758258191179266
17.0	96.5987149363441	pulse	1.0	t		28.0	male	white	3.9076800636689217	smiling	033	sub-15	1.0	1.0	033_smiling	0.0		193.14851009649692	
17.0	97.29867436682571	pulse	1.0	t		28.0	male	white	3.9076800636689217	smiling	033	sub-15	1.0	1.0	033_smiling	0.0		193.84846952697853	
17.0	97.99865975696912	pulse	1.0	t		28.0	male	white	3.9076800636689217	smiling	033	sub-15	1.0	1.0	033_smiling	0.0		194.54845491712194	
17.0	98.69864937310422	pulse	1.0	t		28.0	male	white	3.9076800636689217	smiling	033	sub-15	1.0	1.0	033_smiling	0.0		195.24844453325704	
17.0	99.39864381894404	pulse	1.0	t		28.0	male	white	3.9076800636689217	smiling	033	sub-15	1.0	1.0	033_smiling	0.0		195.94843897909686	
18.0	100.01516829105731	face	0.0		146	25.0	female	west_asian	2.6756864305610826	neutral	064	sub-15	1.0	1.0	064_neutral	0.0		196.56496345121013	1.241675098525775
18.0	100.09864309448812	pulse	0.0	t		25.0	female	west_asian	2.6756864305610826	neutral	064	sub-15	1.0	1.0	064_neutral	0.0		196.64843825464095	
18.0	100.79862124007468	pulse	0.0	t		25.0	female	west_asian	2.6756864305610826	neutral	064	sub-15	1.0	1.0	064_neutral	0.0		197.3484164002275	
18.0	101.25684338958308	fix	1.0		444	25.0	female	west_asian	2.6756864305610826	neutral	064	sub-15	1.0	1.0	064_neutral	0.0		197.8066385497359	3.7665861112186576
18.0	101.4986174970536	pulse	1.0	t		25.0	female	west_asian	2.6756864305610826	neutral	064	sub-15	1.0	1.0	064_neutral	0.0		198.04841265720643	
18.0	102.19859986863185	pulse	1.0	t		25.0	female	west_asian	2.6756864305610826	neutral	064	sub-15	1.0	1.0	064_neutral	0.0		198.74839502878467	
18.0	102.89858646620132	pulse	1.0	t		25.0	female	west_asian	2.6756864305610826	neutral	064	sub-15	1.0	1.0	064_neutral	0.0		199.44838162635415	
18.0	103.59857759161923	pulse	1.0	t		25.0	female	west_asian	2.6756864305610826	neutral	064	sub-15	1.0	1.0	064_neutral	0.0		200.14837275177206	
18.0	104.29855603906253	pulse	1.0	t		25.0	female	west_asian	2.6756864305610826	neutral	064	sub-15	1.0	1.0	064_neutral	0.0		200.84835119921536	
18.0	104.99855863502853	pulse	1.0	t		25.0	female	west_asian	2.6756864305610826	neutral	064	sub-15	1.0	1.0	064_neutral	0.0		201.54835379518136	
19.0	105.02342950080174	face	0.0		146	26.0	male	white	2.7966573816155993	smiling	117	sub-15	1.0	1.0	117_smiling	0.0		201.57322466095457	1.2333269540981746
19.0	105.69855549572048	pulse	0.0	t		26.0	male	white	2.7966573816155993	smiling	117	sub-15	1.0	1.0	117_smiling	0.0		202.2483506558733	
19.0	106.25675645489991	fix	1.0		443	26.0	male	white	2.7966573816155993	smiling	117	sub-15	1.0	1.0	117_smiling	0.0		202.80655161505274	3.766598185480234
19.0	106.39856412881772	pulse	1.0	t		26.0	male	white	2.7966573816155993	smiling	117	sub-15	1.0	1.0	117_smiling	0.0		202.94835928897055	
19.0	107.09852476672495	pulse	1.0	t		26.0	male	white	2.7966573816155993	smiling	117	sub-15	1.0	1.0	117_smiling	0.0		203.64831992687778	
19.0	107.79850502530735	pulse	1.0	t		26.0	male	white	2.7966573816155993	smiling	117	sub-15	1.0	1.0	117_smiling	0.0		204.34830018546018	
19.0	108.49850460270818	pulse	1.0	t		26.0	male	white	2.7966573816155993	smiling	117	sub-15	1.0	1.0	117_smiling	0.0		205.048299762861	
19.0	109.19849452070002	pulse	1.0	t		26.0	male	white	2.7966573816155993	smiling	117	sub-15	1.0	1.0	117_smiling	0.0		205.74828968085285	
19.0	109.898486853544	pulse	1.0	t		26.0	male	white	2.7966573816155993	smiling	117	sub-15	1.0	1.0	117_smiling	0.0		206.44828201369683	
20.0	110.02335464038015	face	0.0		146	26.0	female	white	4.854755272582572	smiling	027	sub-15	1.0	1.0	027_smiling	0.0		206.57314980053297	1.2333332930857068
20.0	110.5984764696791	pulse	0.0	t		26.0	female	white	4.854755272582572	smiling	027	sub-15	1.0	1.0	027_smiling	0.0		207.14827162983192	
20.0	111.25668793346586	fix	1.0		1184	26.0	female	white	4.854755272582572	smiling	027	sub-15	1.0	1.0	027_smiling	0.0		207.80648309361868	10.016497969108968
20.0	111.29848027307116	pulse	1.0	t		26.0	female	white	4.854755272582572	smiling	027	sub-15	1.0	1.0	027_smiling	0.0		207.848275433224	
20.0	111.9984517778139	pulse	1.0	t		26.0	female	white	4.854755272582572	smiling	027	sub-15	1.0	1.0	027_smiling	0.0		208.54824693796672	
20.0	112.69844290323181	pulse	1.0	t		26.0	female	white	4.854755272582572	smiling	027	sub-15	1.0	1.0	027_smiling	0.0		209.24823806338463	
20.0	113.39842467109702	pulse	1.0	t		26.0	female	white	4.854755272582572	smiling	027	sub-15	1.0	1.0	027_smiling	0.0		209.94821983124984	
20.0	114.09842485221088	pulse	1.0	t		26.0	female	white	4.854755272582572	smiling	027	sub-15	1.0	1.0	027_smiling	0.0		210.6482200123637	
20.0	114.79841597762879	pulse	1.0	t		26.0	female	white	4.854755272582572	smiling	027	sub-15	1.0	1.0	027_smiling	0.0		211.34821113778162	
20.0	115.49840800861602	pulse	1.0	t		26.0	female	white	4.854755272582572	smiling	027	sub-15	1.0	1.0	027_smiling	0.0		212.04820316876885	
20.0	116.19839611546831	pulse	1.0	t		26.0	female	white	4.854755272582572	smiling	027	sub-15	1.0	1.0	027_smiling	0.0		212.74819127562114	
20.0	116.89842225624443	pulse	1.0	t		26.0	female	white	4.854755272582572	smiling	027	sub-15	1.0	1.0	027_smiling	0.0		213.44821741639726	
20.0	117.59837504588222	pulse	1.0	t		26.0	female	white	4.854755272582572	smiling	027	sub-15	1.0	1.0	027_smiling	0.0		214.14817020603505	
20.0	118.29836617129968	pulse	1.0	t		26.0	female	white	4.854755272582572	smiling	027	sub-15	1.0	1.0	027_smiling	0.0		214.8481613314525	
20.0	118.99841495131659	pulse	1.0	t		26.0	female	white	4.854755272582572	smiling	027	sub-15	1.0	1.0	027_smiling	0.0		215.54821011146942	
20.0	119.69853496947599	pulse	1.0	t		26.0	female	white	4.854755272582572	smiling	027	sub-15	1.0	1.0	027_smiling	0.0		216.2483301296288	
20.0	120.39833109557003	pulse	1.0	t		26.0	female	white	4.854755272582572	smiling	027	sub-15	1.0	1.0	027_smiling	0.0		216.94812625572285	
20.0	121.098323428414	pulse	1.0	t		26.0	female	white	4.854755272582572	smiling	027	sub-15	1.0	1.0	027_smiling	0.0		217.64811858856683	
21.0	121.27318590257482	face	0.0		146	27.0	male	black	3.5523278949462798	neutral	042	sub-15	1.0	1.0	042_neutral	0.0		217.82298106272765	1.2416705706782523
21.0	121.79831757239708	pulse	0.0	t		27.0	male	black	3.5523278949462798	neutral	042	sub-15	1.0	1.0	042_neutral	0.0		218.3481127325499	
21.0	122.49830235882746	pulse	0.0	t		27.0	male	black	3.5523278949462798	neutral	042	sub-15	1.0	1.0	042_neutral	0.0		219.04809751898028	
21.0	122.51485647325308	fix	1.0		443	27.0	male	black	3.5523278949462798	neutral	042	sub-15	1.0	1.0	042_neutral	0.0		219.0646516334059	3.7499037077641333
21.0	123.19837800407595	pulse	1.0	t		27.0	male	black	3.5523278949462798	neutral	042	sub-15	1.0	1.0	042_neutral	0.0		219.74817316422877	
21.0	123.89827917624552	pulse	1.0	t		27.0	male	black	3.5523278949462798	neutral	042	sub-15	1.0	1.0	042_neutral	0.0		220.44807433639835	
21.0	124.59828388520737	pulse	1.0	t		27.0	male	black	3.5523278949462798	neutral	042	sub-15	1.0	1.0	042_neutral	0.0		221.1480790453602	
21.0	125.29827772733415	pulse	1.0	t		27.0	male	black	3.5523278949462798	neutral	042	sub-15	1.0	1.0	042_neutral	0.0		221.84807288748698	
21.0	125.99826221190779	pulse	1.0	t		27.0	male	black	3.5523278949462798	neutral	042	sub-15	1.0	1.0	042_neutral	0.0		222.5480573720606	
22.0	126.26476018101721	face	0.0		146	54.0	female	white	2.286908077994429	smiling	136	sub-15	1.0	1.0	136_smiling	1.0	attractiveness	222.81455534117003	1.2416877765003846
22.0	126.69828986196671	pulse	0.0	t		54.0	female	white	2.286908077994429	smiling	136	sub-15	1.0	1.0	136_smiling	1.0	attractiveness	223.24808502211954	
22.0	127.39823269033832	pulse	0.0	t		54.0	female	white	2.286908077994429	smiling	136	sub-15	1.0	1.0	136_smiling	1.0	attractiveness	223.94802785049114	
22.0	127.5064479575176	fix	1.0		177	54.0	female	white	2.286908077994429	smiling	136	sub-15	1.0	1.0	136_smiling	1.0	attractiveness	224.05624311767042	1.4999815867513462
22.0	128.09821989162128	pulse	1.0	t		54.0	female	white	2.286908077994429	smiling	136	sub-15	1.0	1.0	136_smiling	1.0	attractiveness	224.6480150517741	
22.0	128.79821675231324	pulse	1.0	t		54.0	female	white	2.286908077994429	smiling	136	sub-15	1.0	1.0	136_smiling	1.0	attractiveness	225.34801191246606	
22.0	129.00642954426894	rating	2.0		295	54.0	female	white	2.286908077994429	smiling	136	sub-15	1.0	1.0	136_smiling	1.0	attractiveness	225.55622470442177	2.499961664219427
22.0	129.49821240557912	pulse	2.0	t		54.0	female	white	2.286908077994429	smiling	136	sub-15	1.0	1.0	136_smiling	1.0	attractiveness	226.04800756573195	
22.0	129.8264261514014	response	2.0	y		54.0	female	white	2.286908077994429	smiling	136	sub-15	1.0	1.0	136_smiling	1.0	attractiveness	226.37622131155422	
22.0	130.1982219442457	pulse	2.0	t		54.0	female	white	2.286908077994429	smiling	136	sub-15	1.0	1.0	136_smiling	1.0	attractiveness	226.7480171043985	
22.0	130.89818892114045	pulse	2.0	t		54.0	female	white	2.286908077994429	smiling	136	sub-15	1.0	1.0	136_smiling	1.0	attractiveness	227.44798408129327	
22.0	131.50639120848837	fix	3.0		443	54.0	female	white	2.286908077994429	smiling	136	sub-15	1.0	1.0	136_smiling	1.0	attractiveness	228.0561863686412	3.766592148349446
22.0	131.59819815795026	pulse	3.0	t		54.0	female	white	2.286908077994429	smiling	136	sub-15	1.0	1.0	136_smiling	1.0	attractiveness	228.1479933181031	
22.0	132.2981524568704	pulse	3.0	t		54.0	female	white	2.286908077994429	smiling	136	sub-15	1.0	1.0	136_smiling	1.0	attractiveness	228.84794761702324	
22.0	132.9981653159589	pulse	3.0	t		54.0	female	white	2.286908077994429	smiling	136	sub-15	1.0	1.0	136_smiling	1.0	attractiveness	229.5479604761117	
22.0	133.6981395374105	pulse	3.0	t		54.0	female	white	2.286908077994429	smiling	136	sub-15	1.0	1.0	136_smiling	1.0	attractiveness	230.24793469756332	
22.0	134.39812492755436	pulse	3.0	t		54.0	female	white	2.286908077994429	smiling	136	sub-15	1.0	1.0	136_smiling	1.0	attractiveness	230.9479200877072	
22.0	135.09811937339373	pulse	3.0	t		54.0	female	white	2.286908077994429	smiling	136	sub-15	1.0	1.0	136_smiling	1.0	attractiveness	231.64791453354655	
23.0	135.2729833568378	face	0.0		146	27.0	female	white	3.504576203740549	smiling	144	sub-15	1.0	1.0	144_smiling	0.0		231.82277851699064	1.2416699669647642
23.0	135.79810778210276	pulse	0.0	t		27.0	female	white	3.504576203740549	smiling	144	sub-15	1.0	1.0	144_smiling	0.0		232.3479029422556	
23.0	136.4980961908118	pulse	0.0	t		27.0	female	white	3.504576203740549	smiling	144	sub-15	1.0	1.0	144_smiling	0.0		233.04789135096462	
23.0	136.51465332380258	fix	1.0		443	27.0	female	white	3.504576203740549	smiling	144	sub-15	1.0	1.0	144_smiling	0.0		233.0644484839554	3.7499344971311075
23.0	137.19808942922555	pulse	1.0	t		27.0	female	white	3.504576203740549	smiling	144	sub-15	1.0	1.0	144_smiling	0.0		233.74788458937837	
23.0	137.89807572493828	pulse	1.0	t		27.0	female	white	3.504576203740549	smiling	144	sub-15	1.0	1.0	144_smiling	0.0		234.4478708850911	
23.0	138.59806111508215	pulse	1.0	t		27.0	female	white	3.504576203740549	smiling	144	sub-15	1.0	1.0	144_smiling	0.0		235.14785627523497	
23.0	139.29809148184995	pulse	1.0	t		27.0	female	white	3.504576203740549	smiling	144	sub-15	1.0	1.0	144_smiling	0.0		235.84788664200278	
23.0	139.99804729005245	pulse	1.0	t		27.0	female	white	3.504576203740549	smiling	144	sub-15	1.0	1.0	144_smiling	0.0		236.54784245020528	
24.0	140.26458782093368	face	0.0		146	27.0	female	white	4.181058495821727	neutral	039	sub-15	1.0	1.0	039_neutral	1.0	trustworthiness	236.8143829810865	1.2416594019859986
24.0	140.69805562129295	pulse	0.0	t		27.0	female	white	4.181058495821727	neutral	039	sub-15	1.0	1.0	039_neutral	1.0	trustworthiness	237.24785078144578	
24.0	141.39803769101445	pulse	0.0	t		27.0	female	white	4.181058495821727	neutral	039	sub-15	1.0	1.0	039_neutral	1.0	trustworthiness	237.94783285116728	
24.0	141.50624722291968	fix	1.0		177	27.0	female	white	4.181058495821727	neutral	039	sub-15	1.0	1.0	039_neutral	1.0	trustworthiness	238.0560423830725	1.4999758514768473
24.0	142.0980197607364	pulse	1.0	t		27.0	female	white	4.181058495821727	neutral	039	sub-15	1.0	1.0	039_neutral	1.0	trustworthiness	238.64781492088923	
24.0	142.7980208474196	pulse	1.0	t		27.0	female	white	4.181058495821727	neutral	039	sub-15	1.0	1.0	039_neutral	1.0	trustworthiness	239.34781600757242	
24.0	143.00622307439653	rating	2.0		295	27.0	female	white	4.181058495821727	neutral	039	sub-15	1.0	1.0	039_neutral	1.0	trustworthiness	239.55601823454936	2.499963777215271
24.0	143.49800955798537	pulse	2.0	t		27.0	female	white	4.181058495821727	neutral	039	sub-15	1.0	1.0	039_neutral	1.0	trustworthiness	240.0478047181382	
24.0	143.9063242567081	response	2.0	b		27.0	female	white	4.181058495821727	neutral	039	sub-15	1.0	1.0	039_neutral	1.0	trustworthiness	240.45611941686093	
24.0	144.1979870998589	pulse	2.0	t		27.0	female	white	4.181058495821727	neutral	039	sub-15	1.0	1.0	039_neutral	1.0	trustworthiness	240.74778226001172	
24.0	144.89796856586736	pulse	2.0	t		27.0	female	white	4.181058495821727	neutral	039	sub-15	1.0	1.0	039_neutral	1.0	trustworthiness	241.44776372602018	
24.0	145.5061868516118	fix	3.0		443	27.0	female	white	4.181058495821727	neutral	039	sub-15	1.0	1.0	039_neutral	1.0	trustworthiness	242.05598201176463	3.7665933557755125
24.0	145.59797357668594	pulse	3.0	t		27.0	female	white	4.181058495821727	neutral	039	sub-15	1.0	1.0	039_neutral	1.0	trustworthiness	242.14776873683877	
24.0	146.29796047611217	pulse	3.0	t		27.0	female	white	4.181058495821727	neutral	039	sub-15	1.0	1.0	039_neutral	1.0	trustworthiness	242.847755636265	
24.0	146.99797031663547	pulse	3.0	t		27.0	female	white	4.181058495821727	neutral	039	sub-15	1.0	1.0	039_neutral	1.0	trustworthiness	243.5477654767883	
24.0	147.69795781977473	pulse	3.0	t		27.0	female	white	4.181058495821727	neutral	039	sub-15	1.0	1.0	039_neutral	1.0	trustworthiness	244.24775297992755	
24.0	148.39794894519218	pulse	3.0	t		27.0	female	white	4.181058495821727	neutral	039	sub-15	1.0	1.0	039_neutral	1.0	trustworthiness	244.947744105345	
24.0	149.09790324411233	pulse	3.0	t		27.0	female	white	4.181058495821727	neutral	039	sub-15	1.0	1.0	039_neutral	1.0	trustworthiness	245.64769840426516	
25.0	149.2727802073873	face	0.0		146	40.0	female	west_asian	1.5777954635893354	smiling	038	sub-15	1.0	1.0	038_smiling	0.0		245.82257536754014	1.2416690613954415
25.0	149.79795142041576	pulse	0.0	t		40.0	female	west_asian	1.5777954635893354	smiling	038	sub-15	1.0	1.0	038_smiling	0.0		246.34774658056858	
25.0	150.49792745300692	pulse	0.0	t		40.0	female	west_asian	1.5777954635893354	smiling	038	sub-15	1.0	1.0	038_smiling	0.0		247.04772261315975	
25.0	150.51444926878276	fix	1.0		443	40.0	female	west_asian	1.5777954635893354	smiling	038	sub-15	1.0	1.0	038_smiling	0.0		247.06424442893558	3.7582587948918444
25.0	151.19790559859348	pulse	1.0	t		40.0	female	west_asian	1.5777954635893354	smiling	038	sub-15	1.0	1.0	038_smiling	0.0		247.7477007587463	
25.0	151.89792690966487	pulse	1.0	t		40.0	female	west_asian	1.5777954635893354	smiling	038	sub-15	1.0	1.0	038_smiling	0.0		248.4477220698177	
25.0	152.5978685306104	pulse	1.0	t		40.0	female	west_asian	1.5777954635893354	smiling	038	sub-15	1.0	1.0	038_smiling	0.0		249.14766369076324	
25.0	153.29787384328574	pulse	1.0	t		40.0	female	west_asian	1.5777954635893354	smiling	038	sub-15	1.0	1.0	038_smiling	0.0		249.84766900343857	
25.0	153.99784534802848	pulse	1.0	t		40.0	female	west_asian	1.5777954635893354	smiling	038	sub-15	1.0	1.0	038_smiling	0.0		250.5476405081813	
26.0	154.2727080636746	face	0.0		145	31.0	female	east_asian	3.395941106247513	neutral	087	sub-15	1.0	1.0	087_neutral	0.0		250.82250322382743	1.233341443212339
26.0	154.69784100129436	pulse	0.0	t		31.0	female	east_asian	3.395941106247513	neutral	087	sub-15	1.0	1.0	087_neutral	0.0		251.2476361614472	
26.0	155.3978312211425	pulse	0.0	t		31.0	female	east_asian	3.395941106247513	neutral	087	sub-15	1.0	1.0	087_neutral	0.0		251.94762638129532	
26.0	155.50604950688694	fix	1.0		444	31.0	female	east_asian	3.395941106247513	neutral	087	sub-15	1.0	1.0	087_neutral	0.0		252.05584466703976	3.7665930539187684
26.0	156.09782989297355	pulse	1.0	t		31.0	female	east_asian	3.395941106247513	neutral	087	sub-15	1.0	1.0	087_neutral	0.0		252.64762505312638	
26.0	156.79780260514235	pulse	1.0	t		31.0	female	east_asian	3.395941106247513	neutral	087	sub-15	1.0	1.0	087_neutral	0.0		253.34759776529518	
26.0	157.4977994658343	pulse	1.0	t		31.0	female	east_asian	3.395941106247513	neutral	087	sub-15	1.0	1.0	087_neutral	0.0		254.04759462598713	
26.0	158.19777761142132	pulse	1.0	t		31.0	female	east_asian	3.395941106247513	neutral	087	sub-15	1.0	1.0	087_neutral	0.0		254.74757277157414	
26.0	158.8977642089908	pulse	1.0	t		31.0	female	east_asian	3.395941106247513	neutral	087	sub-15	1.0	1.0	087_neutral	0.0		255.44755936914362	
27.0	159.2726425608057	face	0.0		145	28.0	male	east_asian	1.5563072025467568	neutral	005	sub-15	1.0	1.0	005_neutral	0.0		255.82243772095853	1.2333311800903175
27.0	159.59777284208758	pulse	0.0	t		28.0	male	east_asian	1.5563072025467568	neutral	005	sub-15	1.0	1.0	005_neutral	0.0		256.1475680022404	
27.0	160.29776849535347	pulse	0.0	t		28.0	male	east_asian	1.5563072025467568	neutral	005	sub-15	1.0	1.0	005_neutral	0.0		256.8475636555063	
27.0	160.50597374089602	fix	1.0		444	28.0	male	east_asian	1.5563072025467568	neutral	005	sub-15	1.0	1.0	005_neutral	0.0		257.05576890104885	3.766592148348991
27.0	160.99774030195294	pulse	1.0	t		28.0	male	east_asian	1.5563072025467568	neutral	005	sub-15	1.0	1.0	005_neutral	0.0		257.54753546210577	
27.0	161.6977413886366	pulse	1.0	t		28.0	male	east_asian	1.5563072025467568	neutral	005	sub-15	1.0	1.0	005_neutral	0.0		258.2475365487894	
27.0	162.39774398460258	pulse	1.0	t		28.0	male	east_asian	1.5563072025467568	neutral	005	sub-15	1.0	1.0	005_neutral	0.0		258.9475391447554	
27.0	163.09770643364936	pulse	1.0	t		28.0	male	east_asian	1.5563072025467568	neutral	005	sub-15	1.0	1.0	005_neutral	0.0		259.6475015938022	
27.0	163.7977017850585	pulse	1.0	t		28.0	male	east_asian	1.5563072025467568	neutral	005	sub-15	1.0	1.0	005_neutral	0.0		260.34749694521133	
28.0	164.27256588924502	face	0.0		145	47.0	male	east_asian	2.171110226820533	smiling	024	sub-15	1.0	1.0	024_smiling	0.0		260.82236104939784	1.2333251429590746
28.0	164.49767540279709	pulse	0.0	t		47.0	male	east_asian	2.171110226820533	smiling	024	sub-15	1.0	1.0	024_smiling	0.0		261.0474705629499	
28.0	165.1976758857677	pulse	0.0	t		47.0	male	east_asian	2.171110226820533	smiling	024	sub-15	1.0	1.0	024_smiling	0.0		261.7474710459205	
28.0	165.5058910322041	fix	1.0		444	47.0	male	east_asian	2.171110226820533	smiling	024	sub-15	1.0	1.0	024_smiling	0.0		262.0556861923569	3.758353879702099
28.0	165.89768693371707	pulse	1.0	t		47.0	male	east_asian	2.171110226820533	smiling	024	sub-15	1.0	1.0	024_smiling	0.0		262.4474820938699	
28.0	166.5976587403161	pulse	1.0	t		47.0	male	east_asian	2.171110226820533	smiling	024	sub-15	1.0	1.0	024_smiling	0.0		263.1474539004689	
28.0	167.29766224185232	pulse	1.0	t		47.0	male	east_asian	2.171110226820533	smiling	024	sub-15	1.0	1.0	024_smiling	0.0		263.84745740200515	
28.0	167.9976566876917	pulse	1.0	t		47.0	male	east_asian	2.171110226820533	smiling	024	sub-15	1.0	1.0	024_smiling	0.0		264.5474518478445	
28.0	168.69761853302543	pulse	1.0	t		47.0	male	east_asian	2.171110226820533	smiling	024	sub-15	1.0	1.0	024_smiling	0.0		265.24741369317826	
29.0	169.2642449119062	face	0.0		146	31.0	male	west_asian	1.9538400318344609	smiling	070	sub-15	1.0	1.0	070_smiling	0.0		265.814040072059	1.2415507336318115
29.0	169.39763229768369	pulse	0.0	t		31.0	male	west_asian	1.9538400318344609	smiling	070	sub-15	1.0	1.0	070_smiling	0.0		265.9474274578365	
29.0	170.0976065191353	pulse	0.0	t		31.0	male	west_asian	1.9538400318344609	smiling	070	sub-15	1.0	1.0	070_smiling	0.0		266.6474016792881	
29.0	170.505795645538	fix	1.0		444	31.0	male	west_asian	1.9538400318344609	smiling	070	sub-15	1.0	1.0	070_smiling	0.0		267.0555908056908	3.7666344082645082
29.0	170.7975937204178	pulse	1.0	t		31.0	male	west_asian	1.9538400318344609	smiling	070	sub-15	1.0	1.0	070_smiling	0.0		267.34738888057063	
29.0	171.497585147692	pulse	1.0	t		31.0	male	west_asian	1.9538400318344609	smiling	070	sub-15	1.0	1.0	070_smiling	0.0		268.04738030784483	
29.0	172.19757053783587	pulse	1.0	t		31.0	male	west_asian	1.9538400318344609	smiling	070	sub-15	1.0	1.0	070_smiling	0.0		268.7473656979887	
29.0	172.89755683354906	pulse	1.0	t		31.0	male	west_asian	1.9538400318344609	smiling	070	sub-15	1.0	1.0	070_smiling	0.0		269.4473519937019	
29.0	173.59756395736304	pulse	1.0	t		31.0	male	west_asian	1.9538400318344609	smiling	070	sub-15	1.0	1.0	070_smiling	0.0		270.14735911751586	
30.0	174.2724300538025	face	0.0		145	40.0	male	white	1.868682849184242	neutral	172	sub-15	1.0	1.0	172_neutral	1.0	dominance	270.82222521395533	1.2333154835500864
30.0	174.2975683644686	pulse	0.0	t		40.0	male	white	1.868682849184242	neutral	172	sub-15	1.0	1.0	172_neutral	1.0	dominance	270.8473635246214	
30.0	174.99754017106807	pulse	0.0	t		40.0	male	white	1.868682849184242	neutral	172	sub-15	1.0	1.0	172_neutral	1.0	dominance	271.5473353312209	
30.0	175.5057455373526	fix	1.0		177	40.0	male	white	1.868682849184242	neutral	172	sub-15	1.0	1.0	172_neutral	1.0	dominance	272.0555406975054	1.4999833978904462
30.0	175.69752948534642	pulse	1.0	t		40.0	male	white	1.868682849184242	neutral	172	sub-15	1.0	1.0	172_neutral	1.0	dominance	272.24732464549925	
30.0	176.39752061076433	pulse	1.0	t		40.0	male	white	1.868682849184242	neutral	172	sub-15	1.0	1.0	172_neutral	1.0	dominance	272.94731577091716	
30.0	177.00572893524304	rating	2.0		294	40.0	male	white	1.868682849184242	neutral	172	sub-15	1.0	1.0	172_neutral	1.0	dominance	273.55552409539587	2.4999616642198816
30.0	177.0975226030173	pulse	2.0	t		40.0	male	white	1.868682849184242	neutral	172	sub-15	1.0	1.0	172_neutral	1.0	dominance	273.6473177631701	
30.0	177.79749259847767	pulse	2.0	t		40.0	male	white	1.868682849184242	neutral	172	sub-15	1.0	1.0	172_neutral	1.0	dominance	274.3472877586305	
30.0	178.05581267024672	response	2.0	b		40.0	male	white	1.868682849184242	neutral	172	sub-15	1.0	1.0	172_neutral	1.0	dominance	274.60560783039955	
30.0	178.49747798862109	pulse	2.0	t		40.0	male	white	1.868682849184242	neutral	172	sub-15	1.0	1.0	172_neutral	1.0	dominance	275.0472731487739	
30.0	179.1974727363172	pulse	2.0	t		40.0	male	white	1.868682849184242	neutral	172	sub-15	1.0	1.0	172_neutral	1.0	dominance	275.74726789647	
30.0	179.50569059946292	fix	3.0		444	40.0	male	white	1.868682849184242	neutral	172	sub-15	1.0	1.0	172_neutral	1.0	dominance	276.05548575961575	3.7665897334968577
30.0	179.89746265430904	pulse	3.0	t		40.0	male	white	1.868682849184242	neutral	172	sub-15	1.0	1.0	172_neutral	1.0	dominance	276.44725781446186	
30.0	180.59744683702638	pulse	3.0	t		40.0	male	white	1.868682849184242	neutral	172	sub-15	1.0	1.0	172_neutral	1.0	dominance	277.1472419971792	
30.0	181.2974790149333	pulse	3.0	t		40.0	male	white	1.868682849184242	neutral	172	sub-15	1.0	1.0	172_neutral	1.0	dominance	277.8472741750861	
30.0	181.99742999343152	pulse	3.0	t		40.0	male	white	1.868682849184242	neutral	172	sub-15	1.0	1.0	172_neutral	1.0	dominance	278.54722515358435	
30.0	182.69742021327966	pulse	3.0	t		40.0	male	white	1.868682849184242	neutral	172	sub-15	1.0	1.0	172_neutral	1.0	dominance	279.2472153734325	
31.0	183.27228033295978	face	0.0		145	19.0	female	white	4.298846000795861	smiling	100	sub-15	1.0	1.0	100_smiling	0.0		279.8220754931126	1.2333357079378402
31.0	183.39743639279004	pulse	0.0	t		19.0	female	white	4.298846000795861	smiling	100	sub-15	1.0	1.0	100_smiling	0.0		279.94723155294287	
31.0	184.0973940121321	pulse	0.0	t		19.0	female	white	4.298846000795861	smiling	100	sub-15	1.0	1.0	100_smiling	0.0		280.6471891722849	
31.0	184.50561604089762	fix	1.0		444	19.0	female	white	4.298846000795861	smiling	100	sub-15	1.0	1.0	100_smiling	0.0		281.05541120105045	3.758256380039711
31.0	184.79740626750754	pulse	1.0	t		19.0	female	white	4.298846000795861	smiling	100	sub-15	1.0	1.0	100_smiling	0.0		281.34720142766037	
31.0	185.49738743165972	pulse	1.0	t		19.0	female	white	4.298846000795861	smiling	100	sub-15	1.0	1.0	100_smiling	0.0		282.04718259181254	
31.0	186.19737161437706	pulse	1.0	t		19.0	female	white	4.298846000795861	smiling	100	sub-15	1.0	1.0	100_smiling	0.0		282.7471667745299	
31.0	186.8973711917779	pulse	1.0	t		19.0	female	white	4.298846000795861	smiling	100	sub-15	1.0	1.0	100_smiling	0.0		283.4471663519307	
31.0	187.59735084664726	pulse	1.0	t		19.0	female	white	4.298846000795861	smiling	100	sub-15	1.0	1.0	100_smiling	0.0		284.1471460068001	
32.0	188.26387242093733	face	0.0		146	24.0	male	white	3.1153999204138483	smiling	012	sub-15	1.0	1.0	012_smiling	0.0		284.81366758109016	1.2416687595386975
32.0	188.29735374447	pulse	0.0	t		24.0	male	white	3.1153999204138483	smiling	012	sub-15	1.0	1.0	012_smiling	0.0		284.8471489046228	
32.0	188.9973264566388	pulse	0.0	t		24.0	male	white	3.1153999204138483	smiling	012	sub-15	1.0	1.0	012_smiling	0.0		285.5471216167916	
32.0	189.50554118047603	fix	1.0		443	24.0	male	white	3.1153999204138483	smiling	012	sub-15	1.0	1.0	012_smiling	0.0		286.05533634062886	3.7583408998707455
32.0	189.6973196950521	pulse	1.0	t		24.0	male	white	3.1153999204138483	smiling	012	sub-15	1.0	1.0	012_smiling	0.0		286.2471148552049	
32.0	190.39730810376113	pulse	1.0	t		24.0	male	white	3.1153999204138483	smiling	012	sub-15	1.0	1.0	012_smiling	0.0		286.94710326391396	
32.0	191.09729681432646	pulse	1.0	t		24.0	male	white	3.1153999204138483	smiling	012	sub-15	1.0	1.0	012_smiling	0.0		287.6470919744793	
32.0	191.7972806951875	pulse	1.0	t		24.0	male	white	3.1153999204138483	smiling	012	sub-15	1.0	1.0	012_smiling	0.0		288.34707585534034	
32.0	192.49728178187115	pulse	1.0	t		24.0	male	white	3.1153999204138483	smiling	012	sub-15	1.0	1.0	012_smiling	0.0		289.047076942024	
32.0	193.19726324787962	pulse	1.0	t		24.0	male	white	3.1153999204138483	smiling	012	sub-15	1.0	1.0	012_smiling	0.0		289.74705840803244	
33.0	193.26388208034678	face	0.0		147	20.0	female	white	3.9502586549940313	smiling	091	sub-15	1.0	1.0	091_smiling	0.0		289.8136772404996	1.2416047659526157
33.0	193.89725859928876	pulse	0.0	t		20.0	female	white	3.9502586549940313	smiling	091	sub-15	1.0	1.0	091_smiling	0.0		290.4470537594416	
33.0	194.5054868462994	fix	1.0		443	20.0	female	white	3.9502586549940313	smiling	091	sub-15	1.0	1.0	091_smiling	0.0		291.0552820064522	3.76657282953056
33.0	194.5972488191369	pulse	1.0	t		20.0	female	white	3.9502586549940313	smiling	091	sub-15	1.0	1.0	091_smiling	0.0		291.1470439792897	
33.0	195.2972571503774	pulse	1.0	t		20.0	female	white	3.9502586549940313	smiling	091	sub-15	1.0	1.0	091_smiling	0.0		291.8470523105302	
33.0	195.99723348482485	pulse	1.0	t		20.0	female	white	3.9502586549940313	smiling	091	sub-15	1.0	1.0	091_smiling	0.0		292.5470286449777	
33.0	196.69721283783747	pulse	1.0	t		20.0	female	white	3.9502586549940313	smiling	091	sub-15	1.0	1.0	091_smiling	0.0		293.2470079979903	
33.0	197.39720034097718	pulse	1.0	t		20.0	female	white	3.9502586549940313	smiling	091	sub-15	1.0	1.0	091_smiling	0.0		293.94699550113	
33.0	198.09718965525553	pulse	1.0	t		20.0	female	white	3.9502586549940313	smiling	091	sub-15	1.0	1.0	091_smiling	0.0		294.64698481540836	
34.0	198.27205967582995	face	0.0		146	21.0	male	east_asian/white	3.501790688420215	smiling	036	sub-15	1.0	1.0	036_smiling	1.0	trustworthiness	294.8218548359828	1.241677513378363
34.0	198.79717746025153	pulse	0.0	t		21.0	male	east_asian/white	3.501790688420215	smiling	036	sub-15	1.0	1.0	036_smiling	1.0	trustworthiness	295.34697262040436	
34.0	199.49717824507843	pulse	0.0	t		21.0	male	east_asian/white	3.501790688420215	smiling	036	sub-15	1.0	1.0	036_smiling	1.0	trustworthiness	296.04697340523126	
34.0	199.5137371892083	fix	1.0		176	21.0	male	east_asian/white	3.501790688420215	smiling	036	sub-15	1.0	1.0	036_smiling	1.0	trustworthiness	296.06353234936114	1.49163917759779
34.0	200.19719925429354	pulse	1.0	t		21.0	male	east_asian/white	3.501790688420215	smiling	036	sub-15	1.0	1.0	036_smiling	1.0	trustworthiness	296.74699441444636	
34.0	200.89716592933155	pulse	1.0	t		21.0	male	east_asian/white	3.501790688420215	smiling	036	sub-15	1.0	1.0	036_smiling	1.0	trustworthiness	297.4469610894844	
34.0	201.0053763668061	rating	2.0		295	21.0	male	east_asian/white	3.501790688420215	smiling	036	sub-15	1.0	1.0	036_smiling	1.0	trustworthiness	297.55517152695893	2.4999538159495387
34.0	201.59714769719676	pulse	2.0	t		21.0	male	east_asian/white	3.501790688420215	smiling	036	sub-15	1.0	1.0	036_smiling	1.0	trustworthiness	298.1469428573496	
34.0	201.86703310038047	response	2.0	b		21.0	male	east_asian/white	3.501790688420215	smiling	036	sub-15	1.0	1.0	036_smiling	1.0	trustworthiness	298.4168282605333	
34.0	202.29715451915445	pulse	2.0	t		21.0	male	east_asian/white	3.501790688420215	smiling	036	sub-15	1.0	1.0	036_smiling	1.0	trustworthiness	298.8469496793073	
34.0	202.9971196849101	pulse	2.0	t		21.0	male	east_asian/white	3.501790688420215	smiling	036	sub-15	1.0	1.0	036_smiling	1.0	trustworthiness	299.54691484506293	
34.0	203.50533018275564	fix	3.0		443	21.0	male	east_asian/white	3.501790688420215	smiling	036	sub-15	1.0	1.0	036_smiling	1.0	trustworthiness	300.05512534290847	3.7666141838767544
34.0	203.6971237901589	pulse	3.0	t		21.0	male	east_asian/white	3.501790688420215	smiling	036	sub-15	1.0	1.0	036_smiling	1.0	trustworthiness	300.24691895031174	
34.0	204.397117934142	pulse	3.0	t		21.0	male	east_asian/white	3.501790688420215	smiling	036	sub-15	1.0	1.0	036_smiling	1.0	trustworthiness	300.9469130942948	
34.0	205.0971000038635	pulse	3.0	t		21.0	male	east_asian/white	3.501790688420215	smiling	036	sub-15	1.0	1.0	036_smiling	1.0	trustworthiness	301.6468951640163	
34.0	205.7970853940069	pulse	3.0	t		21.0	male	east_asian/white	3.501790688420215	smiling	036	sub-15	1.0	1.0	036_smiling	1.0	trustworthiness	302.3468805541597	
34.0	206.49707410457268	pulse	3.0	t		21.0	male	east_asian/white	3.501790688420215	smiling	036	sub-15	1.0	1.0	036_smiling	1.0	trustworthiness	303.0468692647255	
34.0	207.197067946699	pulse	3.0	t		21.0	male	east_asian/white	3.501790688420215	smiling	036	sub-15	1.0	1.0	036_smiling	1.0	trustworthiness	303.74686310685183	
35.0	207.2719443666324	face	0.0		146	31.0	female	east_asian	3.395941106247513	smiling	087	sub-15	1.0	1.0	087_smiling	0.0		303.8217395267852	1.2333182002589638
35.0	207.89705273312984	pulse	0.0	t		31.0	female	east_asian	3.395941106247513	smiling	087	sub-15	1.0	1.0	087_smiling	0.0		304.44684789328267	
35.0	208.50526256689136	fix	1.0		443	31.0	female	east_asian	3.395941106247513	smiling	087	sub-15	1.0	1.0	087_smiling	0.0		305.0550577270442	3.7582835471280305
35.0	208.59704687711292	pulse	1.0	t		31.0	female	east_asian	3.395941106247513	smiling	087	sub-15	1.0	1.0	087_smiling	0.0		305.14684203726574	
35.0	209.29706849004106	pulse	1.0	t		31.0	female	east_asian	3.395941106247513	smiling	087	sub-15	1.0	1.0	087_smiling	0.0		305.8468636501939	
35.0	209.99701886482626	pulse	1.0	t		31.0	female	east_asian	3.395941106247513	smiling	087	sub-15	1.0	1.0	087_smiling	0.0		306.5468140249791	
35.0	210.69701693294428	pulse	1.0	t		31.0	female	east_asian	3.395941106247513	smiling	087	sub-15	1.0	1.0	087_smiling	0.0		307.2468120930971	
35.0	211.3970005119486	pulse	1.0	t		31.0	female	east_asian	3.395941106247513	smiling	087	sub-15	1.0	1.0	087_smiling	0.0		307.9467956721014	
35.0	212.09700673019324	pulse	1.0	t		31.0	female	east_asian	3.395941106247513	smiling	087	sub-15	1.0	1.0	087_smiling	0.0		308.64680189034607	
36.0	212.2635461140194	face	0.0		147	26.0	female	white	4.854755272582572	neutral	027	sub-15	1.0	1.0	027_neutral	0.0		308.8133412741722	1.2499782663294354
36.0	212.79699664818463	pulse	0.0	t		26.0	female	white	4.854755272582572	neutral	027	sub-15	1.0	1.0	027_neutral	0.0		309.34679180833746	
36.0	213.4969693603539	pulse	0.0	t		26.0	female	white	4.854755272582572	neutral	027	sub-15	1.0	1.0	027_neutral	0.0		310.0467645205067	
36.0	213.51352438034883	fix	1.0		443	26.0	female	white	4.854755272582572	neutral	027	sub-15	1.0	1.0	027_neutral	0.0		310.06331954050165	3.758256078182967
36.0	214.19695867463224	pulse	1.0	t		26.0	female	white	4.854755272582572	neutral	027	sub-15	1.0	1.0	027_neutral	0.0		310.74675383478507	
36.0	214.89694980005015	pulse	1.0	t		26.0	female	white	4.854755272582572	neutral	027	sub-15	1.0	1.0	027_neutral	0.0		311.446744960203	
36.0	215.59693519019356	pulse	1.0	t		26.0	female	white	4.854755272582572	neutral	027	sub-15	1.0	1.0	027_neutral	0.0		312.1467303503464	
36.0	216.29691876919787	pulse	1.0	t		26.0	female	white	4.854755272582572	neutral	027	sub-15	1.0	1.0	027_neutral	0.0		312.8467139293507	
36.0	216.99688906651454	pulse	1.0	t		26.0	female	white	4.854755272582572	neutral	027	sub-15	1.0	1.0	027_neutral	0.0		313.54668422666737	
37.0	217.2717804585318	face	0.0		145	19.0	male	white	2.243931555909272	neutral	130	sub-15	1.0	1.0	130_neutral	0.0		313.8215756186846	1.2333314819466068
37.0	217.69689890703785	pulse	0.0	t		19.0	male	white	2.243931555909272	neutral	130	sub-15	1.0	1.0	130_neutral	0.0		314.2466940671907	
37.0	218.3969008992908	pulse	0.0	t		19.0	male	white	2.243931555909272	neutral	130	sub-15	1.0	1.0	130_neutral	0.0		314.94669605944364	
37.0	218.5051119404784	fix	1.0		444	19.0	male	white	2.243931555909272	neutral	130	sub-15	1.0	1.0	130_neutral	0.0		315.0549071006312	3.766598185480234
37.0	219.0968983636958	pulse	1.0	t		19.0	male	white	2.243931555909272	neutral	130	sub-15	1.0	1.0	130_neutral	0.0		315.6466935238486	
37.0	219.79689009282674	pulse	1.0	t		19.0	male	white	2.243931555909272	neutral	130	sub-15	1.0	1.0	130_neutral	0.0		316.34668525297957	
37.0	220.4968612957132	pulse	1.0	t		19.0	male	white	2.243931555909272	neutral	130	sub-15	1.0	1.0	130_neutral	0.0		317.046656455866	
37.0	221.19686962695323	pulse	1.0	t		19.0	male	white	2.243931555909272	neutral	130	sub-15	1.0	1.0	130_neutral	0.0		317.74666478710606	
37.0	221.89684958367934	pulse	1.0	t		19.0	male	white	2.243931555909272	neutral	130	sub-15	1.0	1.0	130_neutral	0.0		318.44664474383217	
38.0	222.27171012595863	face	0.0		145	31.0	female	white	2.1822522881018704	smiling	102	sub-15	1.0	1.0	102_smiling	0.0		318.82150528611146	1.233329972663796
38.0	222.59683406825343	pulse	0.0	t		31.0	female	white	2.1822522881018704	smiling	102	sub-15	1.0	1.0	102_smiling	0.0		319.14662922840625	
38.0	223.29685085147685	pulse	0.0	t		31.0	female	white	2.1822522881018704	smiling	102	sub-15	1.0	1.0	102_smiling	0.0		319.8466460116297	
38.0	223.50504009862243	fix	1.0		444	31.0	female	white	2.1822522881018704	smiling	102	sub-15	1.0	1.0	102_smiling	0.0		320.05483525877526	3.7665951669146125
38.0	223.99682477107172	pulse	1.0	t		31.0	female	white	2.1822522881018704	smiling	102	sub-15	1.0	1.0	102_smiling	0.0		320.54661993122454	
38.0	224.69680080366288	pulse	1.0	t		31.0	female	white	2.1822522881018704	smiling	102	sub-15	1.0	1.0	102_smiling	0.0		321.2465959638157	
38.0	225.39682483144315	pulse	1.0	t		31.0	female	white	2.1822522881018704	smiling	102	sub-15	1.0	1.0	102_smiling	0.0		321.946619991596	
38.0	226.09680267517342	pulse	1.0	t		31.0	female	white	2.1822522881018704	smiling	102	sub-15	1.0	1.0	102_smiling	0.0		322.64659783532625	
38.0	226.7967799151902	pulse	1.0	t		31.0	female	white	2.1822522881018704	smiling	102	sub-15	1.0	1.0	102_smiling	0.0		323.346575075343	
39.0	227.27163526553704	face	0.0		145	27.0	female	white	3.504576203740549	neutral	144	sub-15	1.0	1.0	144_neutral	0.0		323.82143042568987	1.233328161524696
39.0	227.49676590904664	pulse	0.0	t		27.0	female	white	3.504576203740549	neutral	144	sub-15	1.0	1.0	144_neutral	0.0		324.04656106919947	
39.0	228.19674616762904	pulse	0.0	t		27.0	female	white	3.504576203740549	neutral	144	sub-15	1.0	1.0	144_neutral	0.0		324.74654132778187	
39.0	228.50496342706174	fix	1.0		444	27.0	female	white	3.504576203740549	neutral	144	sub-15	1.0	1.0	144_neutral	0.0		325.05475858721456	3.7499284600003193
39.0	228.89674514131684	pulse	1.0	t		27.0	female	white	3.504576203740549	neutral	144	sub-15	1.0	1.0	144_neutral	0.0		325.44654030146967	
39.0	229.59673868158688	pulse	1.0	t		27.0	female	white	3.504576203740549	neutral	144	sub-15	1.0	1.0	144_neutral	0.0		326.1465338417397	
39.0	230.29674218312311	pulse	1.0	t		27.0	female	white	3.504576203740549	neutral	144	sub-15	1.0	1.0	144_neutral	0.0		326.84653734327594	
39.0	230.9967133860091	pulse	1.0	t		27.0	female	white	3.504576203740549	neutral	144	sub-15	1.0	1.0	144_neutral	0.0		327.54650854616193	
39.0	231.69669726687016	pulse	1.0	t		27.0	female	white	3.504576203740549	neutral	144	sub-15	1.0	1.0	144_neutral	0.0		328.246492427023	
40.0	232.25489188706206	fix	0.0		720													328.8046870472149	5.999930874852453
40.0	232.39668899600065	pulse	0.0	t														328.9464841561535	
40.0	233.09667046200957	pulse	0.0	t														329.6464656221624	
40.0	233.7966754728277	pulse	0.0	t														330.3464706329805	
40.0	234.4966596555455	pulse	0.0	t														331.0464548156983	
40.0	235.19665530881093	pulse	0.0	t														331.74645046896376	
40.0	235.8966425100939	pulse	0.0	t														332.4464376702467	
40.0	236.5966336355118	pulse	0.0	t														333.14642879566463	
40.0	237.29665404101388	pulse	0.0	t														333.8464492011667	
40.0	237.9966035102293	pulse	0.0	t														334.54639867038213	
