trial_nr	onset	event_type	phase	response	nr_frames	trial_type	stim_name	task_probe	onset_abs	duration
0.0	0.06053268180403393	baseline	0.0		40.0		baseline	0.0	86.52135128298414	0.3414182832639199
0.0	0.4019509650679538	ISI	1.0		11.0		baseline	0.0	86.86276956624806	0.09999299690753105
1.0	0.5019439619754849	baseline	0.0		48.0		baseline	0.0	86.9627625631556	0.4000021733736503
1.0	0.7020648860698202	pulse	0.0	t			baseline	0.0	87.16288348724993	
1.0	0.9019461353491351	ISI	1.0		11.0		baseline	0.0	87.36276473652924	0.09999903405605437
2.0	1.0019451694051895	baseline	0.0		48.0		baseline	0.0	87.4627637705853	0.39998858978833596
2.0	1.4019337591935255	ISI	1.0		11.0		baseline	0.0	87.86275236037363	0.09999692105429858
2.0	1.4064048717373225	pulse	1.0	t			baseline	0.0	87.86722347291743	
3.0	1.501930680247824	baseline	0.0		48.0		baseline	0.0	87.96274928142793	0.399985269355966
3.0	1.90191594960379	ISI	1.0		11.0		baseline	0.0	88.3627345507839	0.10000386377578252
4.0	2.0019198133795726	baseline	0.0		48.0		baseline	0.0	88.46273841455968	0.39999070279009175
4.0	2.1020395904151883	pulse	0.0	t			baseline	0.0	88.5628581915953	
4.0	2.4019105161696643	ISI	1.0		11.0		baseline	0.0	88.86272911734977	0.10000024148575903
5.0	2.5019107576554234	baseline	0.0		48.0		baseline	0.0	88.96272935883553	0.3999888916459895
5.0	2.8020439975343834	pulse	0.0	t			baseline	0.0	89.26286259871449	
5.0	2.901899649301413	ISI	1.0		11.0		baseline	0.0	89.36271825048152	0.10000356191812898
6.0	3.001903211219542	baseline	0.0		48.0		baseline	0.0	89.46272181239965	0.39999673993952456
6.0	3.4018999511590664	ISI	1.0		11.0		baseline	0.0	89.86271855233917	0.0999978266263497
7.0	3.501897777785416	baseline	0.0		47.0		baseline	0.0	89.96271637896552	0.39999734365483164
7.0	3.5060622031605817	pulse	0.0	t			baseline	0.0	89.96688080434069	
7.0	3.9018951214402477	ISI	1.0		11.0		baseline	0.0	90.36271372262036	0.10000084520015662
8.0	4.001895966640404	baseline	0.0		48.0		baseline	0.0	90.46271456782051	0.3999940232224617
8.0	4.202014174017677	pulse	0.0	t			baseline	0.0	90.66283277519778	
8.0	4.401889989862866	ISI	1.0		11.0		baseline	0.0	90.86270859104297	0.09999812848400325
9.0	4.501888118346869	baseline	0.0		48.0		baseline	0.0	90.96270671952698	0.399996438081871
9.0	4.90188455642874	ISI	1.0		11.0		baseline	0.0	91.36270315760885	0.09999692105429858
9.0	4.906329709232523	pulse	1.0	t			baseline	0.0	91.36714831041263	
10.0	5.001881477483039	baseline	0.0		48.0		baseline	0.0	91.46270007866315	0.40001153095454356
10.0	5.4018930084375825	ISI	1.0		11.0		baseline	0.0	91.86271160961769	0.09999088390486577
11.0	5.501883892342448	baseline	0.0		48.0		baseline	0.0	91.96270249352256	0.3999913065053988
11.0	5.601989482078352	pulse	0.0	t			baseline	0.0	92.06280808325846	
11.0	5.901875198847847	ISI	1.0		3.0		baseline	0.0	92.36269380002796	0.12499313274292945
12.0	6.0268683315907765	word	0.0		45.0	character	word-25.jpg	0.0	92.48768693277088	0.3749561552058367
12.0	6.301937441854534	pulse	0.0	t		character	word-25.jpg	0.0	92.76275604303464	
12.0	6.401824486796613	ISI	1.0		7.0	character	word-25.jpg	0.0	92.86264308797672	0.11668239343998721
13.0	6.5185068802366	word	0.0		46.0	character	word-74.jpg	0.0	92.97932548141671	0.3833163991303081
13.0	6.9018232793669085	ISI	1.0		6.0	character	word-74.jpg	0.0	93.36264188054702	0.11666488570790534
14.0	7.018488165074814	word	0.0		45.0	character	word-108.jpg	0.0	93.47930676625492	0.3833160972726546
14.0	7.0102317601122195	pulse	0.0	t		character	word-108.jpg	0.0	93.47105036129233	
14.0	7.4018042623474685	ISI	1.0		7.0	character	word-108.jpg	0.0	93.86262286352758	0.11670110860177374
15.0	7.518505370949242	word	0.0		46.0	character	word-103.jpg	0.0	93.97932397212935	0.3832916468190888
15.0	7.70192603164287	pulse	0.0	t		character	word-103.jpg	0.0	94.16274463282298	
15.0	7.901797017768331	ISI	1.0		7.0	character	word-103.jpg	0.0	94.36261561894844	0.11668390272734541
16.0	8.018480920495676	word	0.0		46.0	character	word-131.jpg	0.0	94.47929952167578	0.3833185121329734
16.0	8.40179943262865	ISI	1.0		8.0	character	word-131.jpg	0.0	94.86261803380876	0.11667816743556614
16.0	8.43356177905116	pulse	1.0	t		character	word-131.jpg	0.0	94.89438038023127	
17.0	8.518477600064216	word	0.0		46.0	character	word-101.jpg	0.0	94.97929620124432	0.38329889139822626
17.0	8.901776491462442	ISI	1.0		7.0	character	word-101.jpg	0.0	95.36259509264255	0.116710466182667
18.0	9.01848695764511	word	0.0		46.0	character	word-143.jpg	0.0	95.47930555882522	0.3832946653938052
18.0	9.101902848990903	pulse	0.0	t		character	word-143.jpg	0.0	95.56272145017101	
18.0	9.401781623038914	ISI	1.0		7.0	character	word-143.jpg	0.0	95.86260022421902	0.11668028043732193
19.0	9.518461903476236	word	0.0		46.0	character	word-9.jpg	0.0	95.97928050465634	0.3833124749835406
19.0	9.801891861379772	pulse	0.0	t		character	word-9.jpg	0.0	96.26271046255988	
19.0	9.901774378459777	ISI	1.0		8.0	character	word-9.jpg	0.0	96.36259297963989	0.11670442903414369
20.0	10.01847880749392	word	0.0		46.0	character	word-9.jpg	1.0	96.47929740867403	0.383289533817333
20.0	10.401768341311254	ISI	1.0		6.0	character	word-9.jpg	1.0	96.86258694249136	0.11667575257524732
21.0	10.518444093886501	word	0.0		45.0	character	word-95.jpg	0.0	96.97926269506661	0.3833640926077351
21.0	10.510501620672585	pulse	0.0	t		character	word-95.jpg	0.0	96.9713202218527	
21.0	10.618540627899165	response	0.0	b		character	word-95.jpg	0.0	97.07935922907927	
21.0	10.901808186494236	ISI	1.0		7.0	character	word-95.jpg	0.0	97.36262678767434	0.1166482835478746
22.0	11.01845647004211	word	0.0		46.0	character	word-117.jpg	0.0	97.47927507122222	0.38331519170060346
22.0	11.20190701462343	pulse	0.0	t		character	word-117.jpg	0.0	97.66272561580354	
22.0	11.401771661742714	ISI	1.0		7.0	character	word-117.jpg	0.0	97.86259026292282	0.1166712247140822
23.0	11.518442886456796	word	0.0		46.0	character	word-79.jpg	0.0	97.9792614876369	0.3832889301029354
23.0	11.901731816559732	ISI	1.0		6.0	character	word-79.jpg	0.0	98.36255041773984	0.1167008067441202
23.0	11.944906487579829	pulse	1.0	t		character	word-79.jpg	0.0	98.40572508875994	
24.0	12.018432623303852	car	0.0		46.0	object	car-32.jpg	0.0	98.47925122448396	0.38334990530711366
24.0	12.401782528610966	ISI	1.0		4.0	object	car-32.jpg	0.0	98.86260112979107	0.11669748631265975
25.0	12.518480014923625	car	0.0		46.0	object	car-82.jpg	0.0	98.97929861610373	0.38327081865554646
25.0	12.601863607522318	pulse	0.0	t		object	car-82.jpg	0.0	99.06268220870243	
25.0	12.901750833579172	ISI	1.0		3.0	object	car-82.jpg	0.0	99.36256943475928	0.11668782687320345
26.0	13.018438660452375	car	0.0		46.0	object	car-47.jpg	0.0	99.47925726163248	0.38329647653881693
26.0	13.30185111062383	pulse	0.0	t		object	car-47.jpg	0.0	99.76266971180394	
26.0	13.401735136991192	ISI	1.0		7.0	object	car-47.jpg	0.0	99.8625537381713	0.11668541201470362
27.0	13.518420549005896	car	0.0		46.0	object	car-6.jpg	0.0	99.979239150186	0.3833088526944266
27.0	13.901729401700322	ISI	1.0		7.0	object	car-6.jpg	0.0	100.36254800288043	0.11667484700319619
28.0	14.018404248703519	car	0.0		45.0	object	car-54.jpg	0.0	100.47922284988363	0.38332485113915027
28.0	14.01012520443237	pulse	0.0	t		object	car-54.jpg	0.0	100.47094380561248	
28.0	14.401729099842669	ISI	1.0		6.0	object	car-54.jpg	0.0	100.86254770102278	0.11667514886084973
29.0	14.518404248703519	car	0.0		46.0	object	car-35.jpg	0.0	100.97922284988363	0.38331217312588706
29.0	14.701841209699523	pulse	0.0	t		object	car-35.jpg	0.0	101.16265981087963	
29.0	14.901716421829406	ISI	1.0		4.0	object	car-35.jpg	0.0	101.36253502300951	0.11670261788913194
30.0	15.018419039718538	car	0.0		46.0	object	car-136.jpg	0.0	101.47923764089865	0.3832925523920494
30.0	15.401711592110587	ISI	1.0		8.0	object	car-136.jpg	0.0	101.8625301932907	0.11668058229497547
30.0	15.433128613610279	pulse	1.0	t		object	car-136.jpg	0.0	101.89394721479039	
31.0	15.518392174405562	car	0.0		46.0	object	car-75.jpg	0.0	101.97921077558567	0.3833215307067803
31.0	15.901713705112343	ISI	1.0		7.0	object	car-75.jpg	0.0	102.36253230629245	0.1166926565929316
32.0	16.018406361705274	car	0.0		46.0	object	car-22.jpg	0.0	102.47922496288538	0.3832916468199983
32.0	16.101814706615187	pulse	0.0	t		object	car-22.jpg	0.0	102.5626333077953	
32.0	16.401698008525273	ISI	1.0		6.0	object	car-22.jpg	0.0	102.86251660970538	0.11668269529764075
33.0	16.518380703822913	car	0.0		46.0	object	car-13.jpg	0.0	102.97919930500302	0.3833028155449938
33.0	16.801807643150823	pulse	0.0	t		object	car-13.jpg	0.0	103.26262624433093	
33.0	16.901683519367907	ISI	1.0		6.0	object	car-13.jpg	0.0	103.36250212054802	0.11669024173352227
34.0	17.01837376110143	car	0.0		46.0	object	car-126.jpg	0.0	103.47919236228154	0.3833139842708988
34.0	17.401687745372328	ISI	1.0		7.0	object	car-126.jpg	0.0	103.86250634655244	0.1166778655779126
35.0	17.51836561095024	car	0.0		45.0	object	car-28.jpg	0.0	103.97918421213035	0.38331579541500105
35.0	17.5101095078453	pulse	0.0	t		object	car-28.jpg	0.0	103.97092810902541	
35.0	17.901681406365242	ISI	1.0		4.0	object	car-28.jpg	0.0	104.36250000754535	0.11668209158233367
36.0	18.018363497947576	body	0.0		46.0	body	body-79.jpg	0.0	104.47918209912768	0.3833197195626781
36.0	18.20179140322034	pulse	0.0	t		body	body-79.jpg	0.0	104.66261000440045	
36.0	18.401683217510254	ISI	1.0		6.0	body	body-79.jpg	0.0	104.86250181869036	0.11670533460619481
37.0	18.51838855211645	body	0.0		46.0	body	body-100.jpg	0.0	104.97920715329656	0.3833094564088242
37.0	18.901698008525273	ISI	1.0		6.0	body	body-100.jpg	0.0	105.36251660970538	0.11668722315880586
37.0	18.945337540018045	pulse	1.0	t		body	body-100.jpg	0.0	105.40615614119815	
38.0	19.01838523168408	body	0.0		46.0	body	body-41.jpg	0.0	105.47920383286419	0.38327957252204214
38.0	19.40166480420612	ISI	1.0		5.0	body	body-41.jpg	0.0	105.86248340538623	0.11668209158233367
39.0	19.518346895788454	body	0.0		46.0	body	body-128.jpg	0.0	105.97916549696856	0.38331126755383593
39.0	19.60188020968144	pulse	0.0	t		body	body-128.jpg	0.0	106.06269881086155	
39.0	19.90165816334229	ISI	1.0		5.0	body	body-128.jpg	0.0	106.3624767645224	0.11668058229497547
40.0	20.018338745637266	body	0.0		46.0	body	body-97.jpg	0.0	106.47915734681737	0.38331941770502453
40.0	20.301773835116364	pulse	0.0	t		body	body-97.jpg	0.0	106.76259243629647	
40.0	20.40165816334229	ISI	1.0		7.0	body	body-97.jpg	0.0	106.8624767645224	0.11669024173352227
41.0	20.518348405075812	body	0.0		46.0	body	body-85.jpg	0.0	106.97916700625592	0.38329738211086806
41.0	20.90164578718668	ISI	1.0		7.0	body	body-85.jpg	0.0	107.36246438836679	0.11669295845058514
42.0	21.018338745637266	body	0.0		45.0	body	body-139.jpg	0.0	107.47915734681737	0.3833022118296867
42.0	21.01052425998114	pulse	0.0	t		body	body-139.jpg	0.0	107.47134286116125	
42.0	21.401640957466952	ISI	1.0		6.0	body	body-139.jpg	0.0	107.86245955864706	0.11668178972558962
43.0	21.518322747192542	body	0.0		46.0	body	body-95.jpg	0.0	107.97914134837265	0.3833118712682335
43.0	21.70175910447324	pulse	0.0	t		body	body-95.jpg	0.0	108.16257770565335	
43.0	21.901634618460776	ISI	1.0		7.0	body	body-95.jpg	0.0	108.36245321964088	0.11668420458408946
44.0	22.018318823044865	body	0.0		46.0	body	body-2.jpg	0.0	108.47913742422497	0.38331066383943835
44.0	22.401629486884303	ISI	1.0		3.0	body	body-2.jpg	0.0	108.86244808806441	0.11668903430381761
44.0	22.46915409279427	pulse	1.0	t		body	body-2.jpg	0.0	108.92997269397438	
45.0	22.51831852118812	body	0.0		46.0	body	body-58.jpg	0.0	108.97913712236823	0.3832961746811634
45.0	22.901614695869284	ISI	1.0		6.0	body	body-58.jpg	0.0	109.36243329704939	0.11669446773794334
46.0	23.018309163607228	body	0.0		46.0	body	body-91.jpg	0.0	109.47912776478734	0.3833088526935171
46.0	23.101842779357867	pulse	0.0	t		body	body-91.jpg	0.0	109.56266138053797	
46.0	23.401618016300745	ISI	1.0		5.0	body	body-91.jpg	0.0	109.86243661748085	0.11667575257615681
47.0	23.5182937688769	body	0.0		46.0	body	body-35.jpg	0.0	109.97911237005701	0.3833287752859178
47.0	23.80172734906955	pulse	0.0	t		body	body-35.jpg	0.0	110.26254595024966	
47.0	23.90162254416282	ISI	1.0		5.0	body	body-35.jpg	0.0	110.36244114534293	0.1166727340014404
48.0	24.01829527816426	body	0.0		46.0	body	body-101.jpg	0.0	110.47911387934437	0.3833139842708988
48.0	24.40160926243516	ISI	1.0		6.0	body	body-101.jpg	0.0	110.86242786361527	0.11667333771583799
49.0	24.518282600150997	body	0.0		45.0	body	body-32.jpg	0.0	110.9791012013311	0.3833170028456152
49.0	24.510142712164452	pulse	0.0	t		body	body-32.jpg	0.0	110.97096131334456	
49.0	24.901599602996612	ISI	1.0		6.0	body	body-32.jpg	0.0	111.36241820417672	0.11668178972468013
50.0	25.018281392721292	body	0.0		46.0	body	body-112.jpg	0.0	111.4790999939014	0.3833435663009368
50.0	25.201741596741158	pulse	0.0	t		body	body-112.jpg	0.0	111.66256019792127	
50.0	25.40162495902223	ISI	1.0		6.0	body	body-112.jpg	0.0	111.86244356020234	0.12502663891973498
51.0	25.526651597941964	body	0.0		45.0	body	body-80.jpg	0.0	111.98747019912207	0.3749673239317417
51.0	25.901618921873705	ISI	1.0		5.0	body	body-80.jpg	0.0	112.36243752305381	0.11668480829939654
51.0	25.95055454231988	pulse	1.0	t		body	body-80.jpg	0.0	112.41137314349999	
52.0	26.018303730173102	body	0.0		46.0	body	body-120.jpg	0.0	112.47912233135321	0.383278365091428
52.0	26.40158209526453	ISI	1.0		5.0	body	body-120.jpg	0.0	112.86240069644464	0.1166829971543848
53.0	26.518265092418915	body	0.0		46.0	body	body-44.jpg	0.0	112.97908369359902	0.3833103619817848
53.0	26.601729280957443	pulse	0.0	t		body	body-44.jpg	0.0	113.06254788213755	
53.0	26.9015754544007	ISI	1.0		6.0	body	body-44.jpg	0.0	113.36239405558081	0.11669899559910846
54.0	27.018274449999808	body	0.0		46.0	body	body-30.jpg	0.0	113.47909305117992	0.383297080254124
54.0	27.301682070451534	pulse	0.0	t		body	body-30.jpg	0.0	113.76250067163164	
54.0	27.401571530253932	ISI	1.0		7.0	body	body-30.jpg	0.0	113.86239013143404	0.11669869374236441
55.0	27.518270223996296	body	0.0		46.0	body	body-30.jpg	1.0	113.9790888251764	0.3832916468190888
55.0	27.901561870815385	ISI	1.0		6.0	body	body-30.jpg	1.0	114.3623804719955	0.11670714575029706
56.0	28.018269016565682	body	0.0		45.0	body	body-18.jpg	0.0	114.47908761774579	0.3832874208155772
56.0	28.010138184303287	pulse	0.0	t		body	body-18.jpg	0.0	114.4709567854834	
56.0	28.143345763822254	response	0.0	b		body	body-18.jpg	0.0	114.60416436500236	
56.0	28.40155643738126	ISI	1.0		6.0	body	body-18.jpg	0.0	114.86237503856137	0.11668239343998721
57.0	28.518238830821247	body	0.0		46.0	body	body-102.jpg	0.0	114.97905743200135	0.3833242474238432
57.0	28.701673678814586	pulse	0.0	t		body	body-102.jpg	0.0	115.1624922799947	
57.0	28.90156307824509	ISI	1.0		6.0	body	body-102.jpg	0.0	115.3623816794252	0.11667454514645215
58.0	29.018237623391542	body	0.0		46.0	body	body-13.jpg	0.0	115.47905622457165	0.3833130786979382
58.0	29.40155070208948	ISI	1.0		6.0	body	body-13.jpg	0.0	115.86236930326959	0.11667816743556614
58.0	29.44919708936959	pulse	1.0	t		body	body-13.jpg	0.0	115.9100156905497	
59.0	29.518228869525046	body	0.0		46.0	body	body-129.jpg	0.0	115.97904747070515	0.3833133805565012
59.0	29.901542250081548	ISI	1.0		8.0	body	body-129.jpg	0.0	116.36236085126166	0.11668239343907771
60.0	30.018224643520625	adult	0.0		46.0	face	adult-99.jpg	0.0	116.47904324470073	0.38331006012413127
60.0	30.10166468346324	pulse	0.0	t		face	adult-99.jpg	0.0	116.56248328464335	
60.0	30.401534703644757	ISI	1.0		6.0	face	adult-99.jpg	0.0	116.86235330482486	0.11669748631265975
61.0	30.518232189957416	adult	0.0		46.0	face	adult-119.jpg	0.0	116.97905079113752	0.38329647653881693
61.0	30.80164282898386	pulse	0.0	t		face	adult-119.jpg	0.0	117.26246143016397	
61.0	30.901528666496233	ISI	1.0		6.0	face	adult-119.jpg	0.0	117.36234726767634	0.11668269529673125
62.0	31.018211361792964	adult	0.0		46.0	face	adult-97.jpg	0.0	117.47902996297307	0.3833139842708988
62.0	31.401525346063863	ISI	1.0		6.0	face	adult-97.jpg	0.0	117.86234394724397	0.11667484700410569
63.0	31.51820019306797	adult	0.0		45.0	face	adult-76.jpg	0.0	117.97901879424808	0.3833182102744104
63.0	31.509877681323815	pulse	0.0	t		face	adult-76.jpg	0.0	117.97069628250392	
63.0	31.90151840334238	ISI	1.0		8.0	face	adult-76.jpg	0.0	118.36233700452249	0.11669839188471087
64.0	32.01821679522709	adult	0.0		46.0	face	adult-124.jpg	0.0	118.4790353964072	0.3833272659985596
64.0	32.20166220823194	pulse	0.0	t		face	adult-124.jpg	0.0	118.66248080941205	
64.0	32.40154406122565	ISI	1.0		6.0	face	adult-124.jpg	0.0	118.86236266240576	0.11670171231708082
65.0	32.51824577354273	adult	0.0		46.0	face	adult-72.jpg	0.0	118.97906437472284	0.3832608573593461
65.0	32.90150663090208	ISI	1.0		7.0	face	adult-72.jpg	0.0	119.36232523208218	0.11669748631265975
65.0	32.93834984191653	pulse	1.0	t		face	adult-72.jpg	0.0	119.39916844309664	
66.0	33.01820411721474	adult	0.0		46.0	face	adult-83.jpg	0.0	119.47902271839484	0.3832952691082028
66.0	33.40149938632294	ISI	1.0		6.0	face	adult-83.jpg	0.0	119.86231798750305	0.11668390272734541
67.0	33.518183289050285	adult	0.0		46.0	face	adult-26.jpg	0.0	119.97900189023039	0.3833115694114895
67.0	33.60161246212374	pulse	0.0	t		face	adult-26.jpg	0.0	120.06243106330385	
67.0	33.901494858461774	ISI	1.0		7.0	face	adult-26.jpg	0.0	120.36231345964188	0.116680884152629
68.0	34.0181757426144	adult	0.0		46.0	face	adult-9.jpg	0.0	120.47899434379451	0.38331217312588706
68.0	34.30160268194231	pulse	0.0	t		face	adult-9.jpg	0.0	120.76242128312242	
68.0	34.40148791574029	ISI	1.0		8.0	face	adult-9.jpg	0.0	120.8623065169204	0.116699297456762
69.0	34.51818721319705	adult	0.0		46.0	face	adult-37.jpg	0.0	120.97900581437716	0.3832910431046912
69.0	34.90147825630174	ISI	1.0		7.0	face	adult-37.jpg	0.0	121.36229685748185	0.11668239343998721
70.0	35.01816064974173	adult	0.0		45.0	face	adult-90.jpg	0.0	121.47897925092184	0.383315493558257
70.0	35.01009652797438	pulse	0.0	t		face	adult-90.jpg	0.0	121.47091512915449	
70.0	35.40147614329999	ISI	1.0		7.0	face	adult-90.jpg	0.0	121.8622947444801	0.11669990117206908
71.0	35.51817604447206	adult	0.0		46.0	face	adult-29.jpg	0.0	121.97899464565216	0.38329436353615165
71.0	35.701591875445956	pulse	0.0	t		face	adult-29.jpg	0.0	122.16241047662606	
71.0	35.90147040800821	ISI	1.0		7.0	face	adult-29.jpg	0.0	122.36228900918832	0.11668993987586873
72.0	36.01816034788408	adult	0.0		46.0	face	adult-78.jpg	0.0	122.47897894906419	0.383304324832352
72.0	36.40146467271643	ISI	1.0		4.0	face	adult-78.jpg	0.0	122.86228327389654	0.11668420458499895
72.0	36.45967003358419	pulse	1.0	t		face	adult-78.jpg	0.0	122.9204886347643	
73.0	36.51814887730143	adult	0.0		46.0	face	adult-66.jpg	0.0	122.97896747848154	0.3833109656961824
73.0	36.90145984299761	ISI	1.0		6.0	face	adult-66.jpg	0.0	123.36227844417772	0.11667967672292434
74.0	37.018139519720535	adult	0.0		46.0	face	adult-101.jpg	0.0	123.47895812090064	0.38332032327707566
74.0	37.101578352232536	pulse	0.0	t		face	adult-101.jpg	0.0	123.56239695341264	
74.0	37.40145984299761	ISI	1.0		7.0	face	adult-101.jpg	0.0	123.86227844417772	0.11670020302881312
75.0	37.51816004602642	adult	0.0		46.0	face	adult-136.jpg	0.0	123.97897864720653	0.3832880245308843
75.0	37.80156374233138	pulse	0.0	t		face	adult-136.jpg	0.0	124.26238234351149	
75.0	37.90144807055731	ISI	1.0		8.0	face	adult-136.jpg	0.0	124.36226667173742	0.11668118600937305
76.0	38.01812925656668	adult	0.0		46.0	face	adult-75.jpg	0.0	124.47894785774679	0.383311871269143
76.0	38.401441127835824	ISI	1.0		7.0	face	adult-75.jpg	0.0	124.86225972901593	0.11668782687411294
77.0	38.51812895470994	adult	0.0		45.0	face	adult-141.jpg	0.0	124.97894755589004	0.3833396421532598
77.0	38.51039446127743	pulse	0.0	t		face	adult-141.jpg	0.0	124.97121306245754	
77.0	38.9014685968632	ISI	1.0		6.0	face	adult-141.jpg	0.0	125.3622871980433	0.11668420458499895
78.0	39.018152801448196	adult	0.0		46.0	face	adult-115.jpg	0.0	125.4789714026283	0.38328410038320726
78.0	39.20154599311354	pulse	0.0	t		face	adult-115.jpg	0.0	125.66236459429365	
78.0	39.4014369018314	ISI	1.0		7.0	face	adult-115.jpg	0.0	125.86225550301151	0.11667454514645215
79.0	39.518111446977855	adult	0.0		46.0	face	adult-52.jpg	0.0	125.97893004815796	0.3833133805555917
79.0	39.90142482753345	ISI	1.0		7.0	face	adult-52.jpg	0.0	126.36224342871355	0.11668209158233367
79.0	39.941125723024015	pulse	1.0	t		face	adult-52.jpg	0.0	126.40194432420412	
80.0	40.01810691911578	adult	0.0		46.0	face	adult-93.jpg	0.0	126.47892552029589	0.38331277684119414
80.0	40.401419695956974	ISI	1.0		8.0	face	adult-93.jpg	0.0	126.86223829713708	0.1166793748652708
81.0	40.518099070822245	adult	0.0		46.0	face	adult-64.jpg	0.0	126.97891767200235	0.3833170028447057
81.0	40.60155209063396	pulse	0.0	t		face	adult-64.jpg	0.0	127.06237069181407	
81.0	40.90141607366695	ISI	1.0		6.0	face	adult-64.jpg	0.0	127.36223467484706	0.11669084544882935
82.0	41.01810691911578	adult	0.0		46.0	face	adult-5.jpg	0.0	127.47892552029589	0.3832985895405727
82.0	41.301522689718695	pulse	0.0	t		face	adult-5.jpg	0.0	127.7623412908988	
82.0	41.40140550865635	ISI	1.0		7.0	face	adult-5.jpg	0.0	127.86222410983646	0.11668329901203833
83.0	41.51808880766839	adult	0.0		46.0	face	adult-49.jpg	0.0	127.9789074088485	0.38331066383943835
83.0	41.90139947150783	ISI	1.0		7.0	face	adult-49.jpg	0.0	128.36221807268794	0.11669205287762452
84.0	42.018091524385454	house	0.0		45.0	place	house-139.jpg	0.0	128.47891012556556	0.38330341926030087
84.0	42.01008234067467	pulse	0.0	t		place	house-139.jpg	0.0	128.47090094185478	
84.0	42.401394943645755	ISI	1.0		4.0	place	house-139.jpg	0.0	128.86221354482586	0.1166829971543848
85.0	42.51807794080014	house	0.0		46.0	place	house-134.jpg	0.0	128.97889654198025	0.3833176065609223
85.0	42.70150433678555	pulse	0.0	t		place	house-134.jpg	0.0	129.16232293796566	
85.0	42.90139554736106	ISI	1.0		6.0	place	house-134.jpg	0.0	129.36221414854117	0.1166778655779126
86.0	43.018073412938975	house	0.0		46.0	place	house-100.jpg	0.0	129.47889201411908	0.38330915455117065
86.0	43.401382567490145	ISI	1.0		8.0	place	house-100.jpg	0.0	129.86220116867025	0.11668993987586873
86.0	43.433380362723256	pulse	1.0	t		place	house-100.jpg	0.0	129.89419896390336	
87.0	43.518072507366014	house	0.0		46.0	place	house-55.jpg	0.0	129.97889110854612	0.3833028155459033
87.0	43.90137532291192	ISI	1.0		6.0	place	house-55.jpg	0.0	130.36219392409203	0.11669869374145492
88.0	44.01807401665337	house	0.0		46.0	place	house-41.jpg	0.0	130.47889261783348	0.3832985895414822
88.0	44.10149624700625	pulse	0.0	t		place	house-41.jpg	0.0	130.56231484818636	
88.0	44.401372606194855	ISI	1.0		6.0	place	house-41.jpg	0.0	130.86219120737496	0.116699297456762
89.0	44.51807190365162	house	0.0		46.0	place	house-109.jpg	0.0	130.97889050483172	0.3832904393893841
89.0	44.80148344825011	pulse	0.0	t		place	house-109.jpg	0.0	131.26230204943022	
89.0	44.901362343041	ISI	1.0		7.0	place	house-109.jpg	0.0	131.3621809442211	0.116684506441743
90.0	45.018046849482744	house	0.0		46.0	place	house-119.jpg	0.0	131.47886545066285	0.3833405477271299
90.0	45.401387397209874	ISI	1.0		7.0	place	house-119.jpg	0.0	131.86220599838998	0.11668360086969187
91.0	45.518070998079565	house	0.0		45.0	place	house-143.jpg	0.0	131.97888959925967	0.3833517164512159
91.0	45.509979407283936	pulse	0.0	t		place	house-143.jpg	0.0	131.97079800846404	
91.0	45.90142271453078	ISI	1.0		7.0	place	house-143.jpg	0.0	132.3622413157109	0.12503026120975846
92.0	46.02645297574054	house	0.0		45.0	place	house-143.jpg	1.0	132.48727157692065	0.3749256676028381
92.0	46.201505846072905	pulse	0.0	t		place	house-143.jpg	1.0	132.662324447253	
92.0	46.40137864334338	ISI	1.0		6.0	place	house-143.jpg	1.0	132.8621972445235	0.11668571387144766
93.0	46.518064357214826	house	0.0		46.0	place	house-47.jpg	0.0	132.97888295839493	0.38329889139913575
93.0	46.60979068600682	response	0.0	b		place	house-47.jpg	0.0	133.07060928718693	
93.0	46.90136324861396	ISI	1.0		7.0	place	house-47.jpg	0.0	133.36218184979407	0.11669024173352227
93.0	46.93732382844519	pulse	1.0	t		place	house-47.jpg	0.0	133.3981424296253	
94.0	47.018053490347484	house	0.0		46.0	place	house-111.jpg	0.0	133.4788720915276	0.3832837985255537
94.0	47.40133728887304	ISI	1.0		8.0	place	house-111.jpg	0.0	133.86215589005315	0.11669959931441554
95.0	47.51803688818745	house	0.0		46.0	place	house-92.jpg	0.0	133.97885548936756	0.3832925523920494
95.0	47.60144734609912	pulse	0.0	t		place	house-92.jpg	0.0	134.06226594727923	
95.0	47.9013294405795	ISI	1.0		11.0	place	house-92.jpg	0.0	134.3621480417596	0.10000748606489651
96.0	48.0013369266444	baseline	0.0		48.0		baseline	0.0	134.4621555278245	0.3999864767856707
96.0	48.30145296064802	pulse	0.0	t			baseline	0.0	134.76227156182813	
96.0	48.40132340343007	ISI	1.0		11.0		baseline	0.0	134.86214200461018	0.10000567491988477
97.0	48.501329078349954	baseline	0.0		48.0		baseline	0.0	134.96214767953006	0.39998919350364304
97.0	48.9013182718536	ISI	1.0		11.0		baseline	0.0	135.3621368730337	0.10000205263077078
98.0	49.00132032448437	baseline	0.0		47.0		baseline	0.0	135.46213892566448	0.39999311765041057
98.0	49.00555719564727	pulse	0.0	t			baseline	0.0	135.46637579682738	
98.0	49.40131344213478	ISI	1.0		11.0		baseline	0.0	135.8621320433149	0.09999722291104263
99.0	49.50131066504582	baseline	0.0		48.0		baseline	0.0	135.96212926622593	0.3999976455115757
99.0	49.701424948276326	pulse	0.0	t			baseline	0.0	136.16224354945643	
99.0	49.9013083105574	ISI	1.0		11.0		baseline	0.0	136.3621269117375	0.09999843034165679
100.0	50.001306740899054	baseline	0.0		48.0		baseline	0.0	136.46212534207916	0.39998647678658017
100.0	50.401293217685634	ISI	1.0		11.0		baseline	0.0	136.86211181886574	0.10000597677753831
100.0	50.40588235649193	pulse	1.0	t			baseline	0.0	136.86670095767204	
101.0	50.50129919446317	baseline	0.0		48.0		baseline	0.0	136.96211779564328	0.3999955325089104
101.0	50.90129472697208	ISI	1.0		11.0		baseline	0.0	137.3621133281522	0.09999903405696386
102.0	51.001293761029046	baseline	0.0		48.0		baseline	0.0	137.46211236220915	0.39999523065216636
102.0	51.10140901020259	pulse	0.0	t			baseline	0.0	137.5622276113827	
102.0	51.40128899168121	ISI	1.0		11.0		baseline	0.0	137.86210759286132	0.0999896764751611
103.0	51.501278668156374	baseline	0.0		48.0		baseline	0.0	137.96209726933648	0.4000067012348154
103.0	51.801405267170594	pulse	0.0	t			baseline	0.0	138.2622238683507	
103.0	51.90128536939119	ISI	1.0		11.0		baseline	0.0	138.3621039705713	0.09999752476960566
104.0	52.001282894160795	baseline	0.0		48.0		baseline	0.0	138.4621014953409	0.3999940232224617
104.0	52.40127691738326	ISI	1.0		11.0		baseline	0.0	138.86209551856336	0.09999963777045195
105.0	52.50127655515371	baseline	0.0		47.0		baseline	0.0	138.96209515633382	0.4000546965698959
105.0	52.505529424762244	pulse	0.0	t			baseline	0.0	138.96634802594235	
105.0	52.901331251723605	ISI	1.0		11.0		baseline	0.0	139.3621498529037	0.10001714550344332
106.0	53.00134839722705	baseline	0.0		48.0		baseline	0.0	139.46216699840716	0.39999432508011523
106.0	53.201449700587546	pulse	0.0	t			baseline	0.0	139.66226830176765	
106.0	53.40134272230716	ISI	1.0		11.0		baseline	0.0	139.86216132348727	0.09999058204721223
107.0	53.501333304354375	baseline	0.0		48.0		baseline	0.0	139.96215190553448	0.399996136225127
107.0	53.9013294405795	ISI	1.0		6.0		baseline	0.0	140.3621480417596	0.12498558630613843
107.0	53.94750608393679	pulse	1.0	t			baseline	0.0	140.4083246851169	
108.0	54.02631502688564	house	0.0		45.0	place	house-121.jpg	0.0	140.48713362806575	0.37497004064880457
108.0	54.401285067534445	ISI	1.0		6.0	place	house-121.jpg	0.0	140.86210366871455	0.11668239343907771
109.0	54.51796746097352	house	0.0		46.0	place	house-135.jpg	0.0	140.97878606215363	0.38327745951937686
109.0	54.601365844587235	pulse	0.0	t		place	house-135.jpg	0.0	141.06218444576734	
109.0	54.9012449204929	ISI	1.0		7.0	place	house-135.jpg	0.0	141.362063521673	0.11668661944440828
110.0	55.01793153993731	house	0.0		46.0	place	house-94.jpg	0.0	141.47875014111742	0.38331126755383593
110.0	55.30135787555082	pulse	0.0	t		place	house-94.jpg	0.0	141.76217647673093	
110.0	55.401242807491144	ISI	1.0		7.0	place	house-94.jpg	0.0	141.86206140867125	0.11668118601028254
111.0	55.51792399350143	house	0.0		46.0	place	house-53.jpg	0.0	141.97874259468153	0.3833130786979382
111.0	55.901237072199365	ISI	1.0		7.0	place	house-53.jpg	0.0	142.36205567337947	0.11667726186351501
112.0	56.01791433406288	house	0.0		45.0	place	house-140.jpg	0.0	142.478732935243	0.38330100439998205
112.0	56.0118657144867	pulse	0.0	t		place	house-140.jpg	0.0	142.4726843156668	
112.0	56.40121533846286	ISI	1.0		7.0	place	house-140.jpg	0.0	142.86203393964297	0.1167237479112373
113.0	56.5179390863741	house	0.0		46.0	place	house-43.jpg	0.0	142.9787576875542	0.38328621338496305
113.0	56.70134163562034	pulse	0.0	t		place	house-43.jpg	0.0	143.16216023680045	
113.0	56.90122529975906	ISI	1.0		7.0	place	house-43.jpg	0.0	143.36204390093917	0.116684506441743
114.0	57.017909806200805	house	0.0		46.0	place	house-114.jpg	0.0	143.4787284073809	0.38331066383943835
114.0	57.40122047004024	ISI	1.0		6.0	place	house-114.jpg	0.0	143.86203907122035	0.11666760242405871
114.0	57.44470846909371	pulse	1.0	t		place	house-114.jpg	0.0	143.90552707027382	
115.0	57.5178880724643	house	0.0		46.0	place	house-46.jpg	0.0	143.9787066736444	0.38332605856885493
115.0	57.90121413103316	ISI	1.0		8.0	place	house-46.jpg	0.0	144.36203273221327	0.11670261788913194
116.0	58.01791674892229	house	0.0		46.0	place	house-46.jpg	1.0	144.4787353501024	0.38329375982175407
116.0	58.101333545840134	pulse	0.0	t		place	house-46.jpg	1.0	144.56215214702024	
116.0	58.40121050874404	ISI	1.0		7.0	place	house-46.jpg	1.0	144.86202910992415	0.1166793748652708
116.0	58.44088001105956	response	1.0	b		place	house-46.jpg	1.0	144.90169861223967	
117.0	58.517889883609314	house	0.0		46.0	place	house-137.jpg	0.0	144.97870848478942	0.3833124749835406
117.0	58.80132799166313	pulse	0.0	t		place	house-137.jpg	0.0	145.26214659284324	
117.0	58.901202358592855	ISI	1.0		7.0	place	house-137.jpg	0.0	145.36202095977296	0.10840123616708297
118.0	59.00960359475994	house	0.0		47.0	place	house-102.jpg	0.0	145.47042219594005	0.3915918211114331
118.0	59.40119541587137	ISI	1.0		4.0	place	house-102.jpg	0.0	145.86201401705148	0.1083378461025859
119.0	59.50953326197396	house	0.0		46.0	place	house-42.jpg	0.0	145.97035186315406	0.3916564186065443
119.0	59.50474338796266	pulse	0.0	t		place	house-42.jpg	0.0	145.96556198914277	
119.0	59.9011896805805	ISI	1.0		3.0	place	house-42.jpg	0.0	146.3620082817606	0.1083481092546208
120.0	60.00953778983512	car	0.0		47.0	object	car-69.jpg	0.0	146.47035639101523	0.3916458535959464
120.0	60.20130722387057	pulse	0.0	t		object	car-69.jpg	0.0	146.66212582505068	
120.0	60.40118364343107	ISI	1.0		5.0	object	car-69.jpg	0.0	146.86200224461118	0.10836350398585637
121.0	60.509547147416924	car	0.0		47.0	object	car-44.jpg	0.0	146.97036574859703	0.39166637990183517
121.0	60.90121352731876	ISI	1.0		4.0	object	car-44.jpg	0.0	147.36203212849887	0.11669718445500621
121.0	60.959087146849015	pulse	1.0	t		object	car-44.jpg	0.0	147.41990574802912	
122.0	61.017910711773766	car	0.0		46.0	object	car-102.jpg	0.0	147.47872931295387	0.38329285424879345
122.0	61.40120356602256	ISI	1.0		5.0	object	car-102.jpg	0.0	147.86202216720267	0.11670020302972262
123.0	61.51790376905228	car	0.0		46.0	object	car-38.jpg	0.0	147.9787223702324	0.38329949511262384
123.0	61.60131905668277	pulse	0.0	t		object	car-38.jpg	0.0	148.06213765786288	
123.0	61.901203264164906	ISI	1.0		5.0	object	car-38.jpg	0.0	148.362021865345	0.11667001728437754
124.0	62.01787328144928	car	0.0		46.0	object	car-37.jpg	0.0	148.4786918826294	0.3833185121329734
124.0	62.30131742665253	pulse	0.0	t		object	car-37.jpg	0.0	148.76213602783264	
124.0	62.40119179358226	ISI	1.0		4.0	object	car-37.jpg	0.0	148.86201039476236	0.11669748631265975
125.0	62.517889279894916	car	0.0		46.0	object	car-114.jpg	0.0	148.97870788107502	0.38329738211086806
125.0	62.901186662005784	ISI	1.0		4.0	object	car-114.jpg	0.0	149.3620052631859	0.11667997857966839
126.0	63.01786664058545	car	0.0		45.0	object	car-85.jpg	0.0	149.47868524176556	0.38330462669000553
126.0	63.00791168375417	pulse	0.0	t		object	car-85.jpg	0.0	149.46873028493428	
126.0	63.40117126727546	ISI	1.0		5.0	object	car-85.jpg	0.0	149.86198986845557	0.11669446773794334
127.0	63.5178657350134	car	0.0		46.0	object	car-111.jpg	0.0	149.9786843361935	0.3833064378350173
127.0	63.70129575328792	pulse	0.0	t		object	car-111.jpg	0.0	150.16211435446803	
127.0	63.90117217284842	ISI	1.0		5.0	object	car-111.jpg	0.0	150.36199077402853	0.11670171231617132
128.0	64.01787388516459	car	0.0		46.0	object	car-64.jpg	0.0	150.4786924863447	0.38326266850435786
128.0	64.40113655366895	ISI	1.0		7.0	object	car-64.jpg	0.0	150.86195515484906	0.11668209158233367
128.0	64.43530711882431	pulse	1.0	t		object	car-64.jpg	0.0	150.89612572000442	
129.0	64.51781864525128	car	0.0		46.0	object	car-64.jpg	1.0	150.9786372464314	0.38330855083677307
129.0	64.90112719608805	ISI	1.0		6.0	object	car-64.jpg	1.0	151.36194579726816	0.11668782687411294
129.0	64.94538402606577	response	1.0	b		object	car-64.jpg	1.0	151.40620262724588	
130.0	65.01781502296217	car	0.0		46.0	object	car-31.jpg	0.0	151.47863362414228	0.3833103619808753
130.0	65.10121491586324	pulse	0.0	t		object	car-31.jpg	0.0	151.56203351704335	
130.0	65.40112538494304	ISI	1.0		7.0	object	car-31.jpg	0.0	151.86194398612315	0.11668148786793608
131.0	65.51780687281098	car	0.0		46.0	object	car-66.jpg	0.0	151.9786254739911	0.3832997969702774
131.0	65.8012461882945	pulse	0.0	t		object	car-66.jpg	0.0	152.2620647894746	
131.0	65.90110666978126	ISI	1.0		7.0	object	car-66.jpg	0.0	152.36192527096136	0.11672435162563488
132.0	66.01783102140689	car	0.0		46.0	object	car-90.jpg	0.0	152.478649622587	0.3832813836661444
132.0	66.40111240507304	ISI	1.0		6.0	object	car-90.jpg	0.0	152.86193100625314	0.1166793748652708
133.0	66.5177917799383	car	0.0		45.0	object	car-12.jpg	0.0	152.97861038111841	0.38332756785621314
133.0	66.50976629592515	pulse	0.0	t		object	car-12.jpg	0.0	152.97058489710525	
133.0	66.90111934779452	ISI	1.0		5.0	object	car-12.jpg	0.0	153.36193794897463	0.11669084544791986
134.0	67.01781019324244	car	0.0		46.0	object	car-78.jpg	0.0	153.47862879442255	0.38329074124703766
134.0	67.20123145765137	pulse	0.0	t		object	car-78.jpg	0.0	153.66205005883148	
134.0	67.40110093448948	ISI	1.0		6.0	object	car-78.jpg	0.0	153.86191953566959	0.11670020302972262
135.0	67.5178011375192	car	0.0		46.0	object	car-8.jpg	0.0	153.9786197386993	0.38328772267232125
135.0	67.90108886019152	ISI	1.0		6.0	object	car-8.jpg	0.0	154.36190746137163	0.11668782687411294
135.0	67.94760841361222	pulse	1.0	t		object	car-8.jpg	0.0	154.40842701479232	
136.0	68.01777668706563	car	0.0		46.0	object	car-2.jpg	0.0	154.47859528824574	0.38331428612855234
136.0	68.40109097319419	ISI	1.0		6.0	object	car-2.jpg	0.0	154.8619095743743	0.11668148786702659
137.0	68.51777246106121	car	0.0		46.0	object	car-124.jpg	0.0	154.97859106224132	0.3833124749835406
137.0	68.6012064638544	pulse	0.0	t		object	car-124.jpg	0.0	155.0620250650345	
137.0	68.90108493604475	ISI	1.0		8.0	object	car-124.jpg	0.0	155.36190353722486	0.11669658074060862
138.0	69.01778151678536	car	0.0		46.0	object	car-124.jpg	1.0	155.47860011796547	0.38329889139822626
138.0	69.30119638181532	pulse	0.0	t		object	car-124.jpg	1.0	155.76201498299542	
138.0	69.40108040818359	ISI	1.0		7.0	object	car-124.jpg	1.0	155.8618990093637	0.11670805132234818
138.0	69.47619703080909	response	1.0	b		object	car-124.jpg	1.0	155.9370156319892	
139.0	69.51778845950594	car	0.0		46.0	object	car-41.jpg	0.0	155.97860706068604	0.3832916468199983
139.0	69.90108010632594	ISI	1.0		5.0	object	car-41.jpg	0.0	156.36189870750604	0.11668631758675474
140.0	70.01776642391269	car	0.0		45.0	object	car-105.jpg	0.0	156.4785850250928	0.3833311901453271
140.0	70.0097982928146	pulse	0.0	t		object	car-105.jpg	0.0	156.4706168939947	
140.0	70.40109761405802	ISI	1.0		3.0	object	car-105.jpg	0.0	156.86191621523813	0.1166875250164594
141.0	70.51778513907448	car	0.0		46.0	object	car-15.jpg	0.0	156.97860374025458	0.38328832638762833
141.0	70.70118134931454	pulse	0.0	t		object	car-15.jpg	0.0	157.16199995049465	
141.0	70.9010734654621	ISI	1.0		7.0	object	car-15.jpg	0.0	157.3618920666422	0.11666941356907046
142.0	71.01774287903118	car	0.0		46.0	object	car-143.jpg	0.0	157.47856148021128	0.38332545485445735
142.0	71.40106833388563	ISI	1.0		7.0	object	car-143.jpg	0.0	157.86188693506574	0.11666850799701933
142.0	71.43773073228749	pulse	1.0	t		object	car-143.jpg	0.0	157.8985493334676	
143.0	71.51773684188265	car	0.0		46.0	object	car-18.jpg	0.0	157.97855544306276	0.3833145879852964
143.0	71.90105142986795	ISI	1.0		2.0	object	car-18.jpg	0.0	158.36187003104806	0.11669809002705733
144.0	72.017749519895	word	0.0		46.0	character	word-56.jpg	0.0	158.4785681210751	0.38331066383943835
144.0	72.10116903353082	pulse	0.0	t		character	word-56.jpg	0.0	158.56198763471093	
144.0	72.40106018373444	ISI	1.0		4.0	character	word-56.jpg	0.0	158.86187878491455	0.11666579127995647
145.0	72.5177259750144	word	0.0		46.0	character	word-128.jpg	0.0	158.9785445761945	0.38331730470235925
145.0	72.80115110319821	pulse	0.0	t		character	word-128.jpg	0.0	159.26196970437832	
145.0	72.90104327971676	ISI	1.0		6.0	character	word-128.jpg	0.0	159.36186188089687	0.11669537330999447
146.0	73.01773865302675	word	0.0		46.0	character	word-113.jpg	0.0	159.47855725420686	0.38329134496234474
146.0	73.4010299979891	ISI	1.0		5.0	character	word-113.jpg	0.0	159.8618485991692	0.10834569439612096
147.0	73.50937569238522	word	0.0		46.0	character	word-126.jpg	0.0	159.97019429356533	0.39163740158710425
147.0	73.50489310925786	pulse	0.0	t		character	word-126.jpg	0.0	159.96571171043797	
147.0	73.90101309397232	ISI	1.0		6.0	character	word-126.jpg	0.0	160.36183169515243	0.10853435530134448
148.0	74.00954744927367	word	0.0		47.0	character	word-66.jpg	0.0	160.47036605045378	0.3914626261239391
148.0	74.20114573013507	pulse	0.0	t		character	word-66.jpg	0.0	160.66196433131518	
148.0	74.40101007539761	ISI	1.0		5.0	character	word-66.jpg	0.0	160.86182867657772	0.10833301638285775
149.0	74.50934309178047	word	0.0		47.0	character	word-102.jpg	0.0	160.97016169296057	0.3916793597727519
149.0	74.90102245155322	ISI	1.0		6.0	character	word-102.jpg	0.0	161.36184105273333	0.10834177024844394
149.0	74.94900178759963	pulse	1.0	t		character	word-102.jpg	0.0	161.40982038877974	
150.0	75.00936422180166	word	0.0		47.0	character	word-8.jpg	0.0	161.47018282298177	0.39164555173829285
150.0	75.40100977353995	ISI	1.0		5.0	character	word-8.jpg	0.0	161.86182837472006	0.10836139098319109
151.0	75.50937116452315	word	0.0		47.0	character	word-96.jpg	0.0	161.97018976570325	0.39163287372502964
151.0	75.60112828277488	pulse	0.0	t		character	word-96.jpg	0.0	162.061946883955	
151.0	75.90100403824817	ISI	1.0		5.0	character	word-96.jpg	0.0	162.36182263942828	0.10836320212820283
152.0	76.00936724037638	word	0.0		47.0	character	word-99.jpg	0.0	162.47018584155649	0.39162925143591565
152.0	76.30111216358728	pulse	0.0	t		character	word-99.jpg	0.0	162.76193076476738	
152.0	76.4009964918123	ISI	1.0		6.0	character	word-99.jpg	0.0	162.8618150929924	0.1083511278302467
153.0	76.50934761964254	word	0.0		47.0	character	word-144.jpg	0.0	162.97016622082265	0.39168630249332637
153.0	76.90103392213587	ISI	1.0		6.0	character	word-144.jpg	0.0	163.36185252331597	0.116669715426724
154.0	77.01770363756259	word	0.0		45.0	character	word-114.jpg	0.0	163.4785222387427	0.38330190997294267
154.0	77.00631214112855	pulse	0.0	t		character	word-114.jpg	0.0	163.46713074230865	
154.0	77.40100554753553	ISI	1.0		3.0	character	word-114.jpg	0.0	163.86182414871564	0.11670774946560414
155.0	77.51771329700114	word	0.0		46.0	character	word-122.jpg	0.0	163.97853189818125	0.3832880245299748
155.0	77.70113969298654	pulse	0.0	t		character	word-122.jpg	0.0	164.16195829416665	
155.0	77.90100132153111	ISI	1.0		4.0	character	word-122.jpg	0.0	164.36181992271122	0.1166941658802898
156.0	78.0176954874114	adult	0.0		46.0	face	adult-15.jpg	0.0	164.4785140885915	0.383278666949991
156.0	78.40097415436139	ISI	1.0		6.0	face	adult-15.jpg	0.0	164.8617927555415	0.116680884152629
156.0	78.44278442970972	pulse	1.0	t		face	adult-15.jpg	0.0	164.90360303088983	
157.0	78.51765503851402	adult	0.0		46.0	face	adult-95.jpg	0.0	164.97847363969413	0.38331579541500105
157.0	78.90097083392902	ISI	1.0		7.0	face	adult-95.jpg	0.0	165.36178943510913	0.11669024173352227
158.0	79.01766107566255	adult	0.0		46.0	face	adult-95.jpg	1.0	165.47847967684265	0.38329738211086806
158.0	79.10108813573424	pulse	0.0	t		face	adult-95.jpg	1.0	165.56190673691435	
158.0	79.40095845777341	ISI	1.0		6.0	face	adult-95.jpg	1.0	165.86177705895352	0.116684506441743
158.0	79.44336037372341	response	1.0	b		face	adult-95.jpg	1.0	165.90417897490352	
159.0	79.51764296421516	adult	0.0		46.0	face	adult-59.jpg	0.0	165.97846156539526	0.3833052304053126
159.0	79.8010647719675	pulse	0.0	t		face	adult-59.jpg	0.0	166.2618833731476	
159.0	79.90094819462047	ISI	1.0		6.0	face	adult-59.jpg	0.0	166.36176679580058	0.11670684389355301
160.0	80.01765503851402	adult	0.0		46.0	face	adult-132.jpg	0.0	166.47847363969413	0.3832804780931838
160.0	80.4009355166072	ISI	1.0		7.0	face	adult-132.jpg	0.0	166.8617541177873	0.11670503274854127
161.0	80.51764054935575	adult	0.0		45.0	face	adult-143.jpg	0.0	166.97845915053585	0.38329496725145873
161.0	80.50951575424187	pulse	0.0	t		face	adult-143.jpg	0.0	166.97033435542198	
161.0	80.9009355166072	ISI	1.0		7.0	face	adult-143.jpg	0.0	167.3617541177873	0.11669024173352227
162.0	81.01762575834073	adult	0.0		46.0	face	adult-47.jpg	0.0	167.47844435952084	0.3833082489791195
162.0	81.20105849333231	pulse	0.0	t		face	adult-47.jpg	0.0	167.66187709451242	
162.0	81.40093400731985	ISI	1.0		6.0	face	adult-47.jpg	0.0	167.86175260849996	0.11670141045942728
163.0	81.51763541777927	adult	0.0		46.0	face	adult-107.jpg	0.0	167.97845401895938	0.3833000988279309
163.0	81.9009355166072	ISI	1.0		6.0	face	adult-107.jpg	0.0	168.3617541177873	0.1166778655779126
163.0	81.9477985838048	pulse	1.0	t		face	adult-107.jpg	0.0	168.4086171849849	
164.0	82.01761338218512	adult	0.0		46.0	face	adult-35.jpg	0.0	168.47843198336523	0.3833094564097337
164.0	82.40092283859485	ISI	1.0		7.0	face	adult-35.jpg	0.0	168.86174143977496	0.11670533460528532
165.0	82.51762817320014	adult	0.0		46.0	face	adult-70.jpg	0.0	168.97844677438025	0.3832901375326401
165.0	82.60105432769979	pulse	0.0	t		face	adult-70.jpg	0.0	169.0618729288799	
165.0	82.90091831073278	ISI	1.0		6.0	face	adult-70.jpg	0.0	169.36173691191289	0.11669326030823868
166.0	83.01761157104102	adult	0.0		46.0	face	adult-27.jpg	0.0	169.47843017222112	0.38330462669000553
166.0	83.30103881222658	pulse	0.0	t		face	adult-27.jpg	0.0	169.7618574134067	
166.0	83.40091619773102	ISI	1.0		5.0	face	adult-27.jpg	0.0	169.86173479891113	0.11669537330999447
167.0	83.51761157104102	adult	0.0		46.0	face	adult-103.jpg	0.0	169.97843017222112	0.3832916468190888
167.0	83.9009032178601	ISI	1.0		5.0	face	adult-103.jpg	0.0	170.3617218190402	0.116680884152629
168.0	84.01758410201273	body	0.0		45.0	body	body-144.jpg	0.0	170.47840270319284	0.38335503688449535
168.0	84.00780754293464	pulse	0.0	t		body	body-144.jpg	0.0	170.46862614411475	
168.0	84.40093913889723	ISI	1.0		5.0	body	body-144.jpg	0.0	170.86175774007734	0.11669326030732918
169.0	84.51763239920456	body	0.0		46.0	body	body-110.jpg	0.0	170.97845100038467	0.38328832638762833
169.0	84.70104641903436	pulse	0.0	t		body	body-110.jpg	0.0	171.16186502021446	
169.0	84.90092072559219	ISI	1.0		5.0	body	body-110.jpg	0.0	171.3617393267723	0.1166926565929316
170.0	85.01761338218512	body	0.0		46.0	body	body-75.jpg	0.0	171.47843198336523	0.38330190997294267
170.0	85.40091529215806	ISI	1.0		7.0	body	body-75.jpg	0.0	171.86173389333817	0.11670774946560414
170.0	85.4368106707816	pulse	1.0	t		body	body-75.jpg	0.0	171.8976292719617	
171.0	85.51762304162366	body	0.0		46.0	body	body-75.jpg	1.0	171.97844164280377	0.3832946653947147
171.0	85.90091770701838	ISI	1.0		6.0	body	body-75.jpg	1.0	172.3617363081985	0.11670110860086425
171.0	85.9445998004112	response	1.0	b		body	body-75.jpg	1.0	172.4054184015913	
172.0	86.01761881561924	body	0.0		46.0	body	body-123.jpg	0.0	172.47843741679935	0.3832605555026021
172.0	86.10100059707383	pulse	0.0	t		body	body-123.jpg	0.0	172.56181919825394	
172.0	86.40087937112185	ISI	1.0		5.0	body	body-123.jpg	0.0	172.86169797230195	0.11670171231617132
173.0	86.51758108343802	body	0.0		46.0	body	body-22.jpg	0.0	172.97839968461813	0.3832916468199983
173.0	86.80099715589859	pulse	0.0	t		body	body-22.jpg	0.0	173.2618157570787	
173.0	86.90087273025802	ISI	1.0		6.0	body	body-22.jpg	0.0	173.36169133143812	0.11668360086969187
174.0	87.01755633112771	body	0.0		46.0	body	body-42.jpg	0.0	173.47837493230782	0.3833221344220874
174.0	87.4008784655498	ISI	1.0		5.0	body	body-42.jpg	0.0	173.8616970667299	0.11668843058851053
175.0	87.5175668961383	body	0.0		45.0	body	body-14.jpg	0.0	173.9783854973184	0.38330251368734025
175.0	87.50768317766506	pulse	0.0	t		body	body-14.jpg	0.0	173.96850177884517	
175.0	87.90086940982565	ISI	1.0		7.0	body	body-14.jpg	0.0	174.36168801100575	0.11669084544882935
176.0	88.01756025527447	body	0.0		46.0	body	body-12.jpg	0.0	174.47837885645458	0.38329587282350985
176.0	88.20097729367808	pulse	0.0	t		body	body-12.jpg	0.0	174.6617958948582	
176.0	88.40085612809798	ISI	1.0		4.0	body	body-12.jpg	0.0	174.8616747292781	0.11670956061061588
177.0	88.5175656887086	body	0.0		46.0	body	body-45.jpg	0.0	174.9783842898887	0.3832880245299748
177.0	88.90085371323858	ISI	1.0		6.0	body	body-45.jpg	0.0	175.36167231441868	0.11669990117206908
177.0	88.94537466848487	pulse	1.0	t		body	body-45.jpg	0.0	175.40619326966498	
178.0	89.01755361441064	body	0.0		46.0	body	body-62.jpg	0.0	175.47837221559075	0.3832976839685216
178.0	89.40085129837917	ISI	1.0		6.0	body	body-62.jpg	0.0	175.86166989955927	0.11669084544791986
179.0	89.51754214382709	body	0.0		46.0	body	body-126.jpg	0.0	175.9783607450072	0.38329587282441935
179.0	89.60097825962202	pulse	0.0	t		body	body-126.jpg	0.0	176.06179686080213	
179.0	89.9008380166515	ISI	1.0		6.0	body	body-126.jpg	0.0	176.3616566178316	0.11668028043732193
180.0	90.01751829708883	word	0.0		46.0	character	word-121.jpg	0.0	176.47833689826894	0.3833160972726546
180.0	90.30095519771294	pulse	0.0	t		character	word-121.jpg	0.0	176.76177379889305	
180.0	90.40083439436148	ISI	1.0		6.0	character	word-121.jpg	0.0	176.8616529955416	0.11667846929321968
181.0	90.5175128636547	word	0.0		46.0	character	word-104.jpg	0.0	176.9783314648348	0.38331217312588706
181.0	90.90082503678059	ISI	1.0		6.0	character	word-104.jpg	0.0	177.3616436379607	0.1166778655779126
182.0	91.0175029023585	word	0.0		45.0	character	word-68.jpg	0.0	177.4783215035386	0.3833176065609223
182.0	91.00801310785755	pulse	0.0	t		character	word-68.jpg	0.0	177.46883170903766	
182.0	91.40082050891942	ISI	1.0		3.0	character	word-68.jpg	0.0	177.86163911009953	0.11666579127995647
183.0	91.51748630019938	word	0.0		46.0	character	word-53.jpg	0.0	177.9783049013795	0.38332696414090606
183.0	91.70094258007157	pulse	0.0	t		character	word-53.jpg	0.0	178.16176118125168	
183.0	91.90081326434029	ISI	1.0		6.0	character	word-53.jpg	0.0	178.3616318655204	0.11668873244616407
184.0	92.01750199678645	word	0.0		46.0	character	word-35.jpg	0.0	178.47832059796656	0.38333813286681107
184.0	92.40084012965326	ISI	1.0		6.0	character	word-35.jpg	0.0	178.86165873083337	0.11669688259735267
184.0	92.44832381576725	pulse	1.0	t		character	word-35.jpg	0.0	178.90914241694736	
185.0	92.51753701225061	word	0.0		46.0	character	word-67.jpg	0.0	178.97835561343072	0.383285911528219
185.0	92.90082292377883	ISI	1.0		6.0	character	word-67.jpg	0.0	179.36164152495894	0.11669748631175025
186.0	93.01752041009058	word	0.0		46.0	character	word-94.jpg	0.0	179.4783390112707	0.38331066383943835
186.0	93.10104164968652	pulse	0.0	t		character	word-94.jpg	0.0	179.56186025086663	
186.0	93.40083107393002	ISI	1.0		5.0	character	word-94.jpg	0.0	179.86164967511013	0.11669476959468739
187.0	93.51752584352471	word	0.0		46.0	character	word-37.jpg	0.0	179.97834444470482	0.383278666949991
187.0	93.80091354138494	pulse	0.0	t		character	word-37.jpg	0.0	180.26173214256505	
187.0	93.9008045104747	ISI	1.0		7.0	character	word-37.jpg	0.0	180.3616231116548	0.11669658073969913
188.0	94.0175010912144	word	0.0		46.0	character	word-111.jpg	0.0	180.4783196923945	0.3832904393893841
188.0	94.40079153060378	ISI	1.0		7.0	character	word-111.jpg	0.0	180.8616101317839	0.11667182842938928
189.0	94.51746335903317	word	0.0		45.0	character	word-133.jpg	0.0	180.97828196021328	0.3833160972726546
189.0	94.50787093299914	pulse	0.0	t		character	word-133.jpg	0.0	180.96868953417925	
189.0	94.90077945630583	ISI	1.0		7.0	character	word-133.jpg	0.0	181.36159805748593	0.11668118601028254
190.0	95.01746064231611	word	0.0		46.0	character	word-133.jpg	1.0	181.47827924349622	0.3833124749835406
190.0	95.20089216987799	pulse	0.0	t		character	word-133.jpg	1.0	181.6617107710581	
190.0	95.40077311729965	ISI	1.0		7.0	character	word-133.jpg	1.0	181.86159171847976	0.11669869374236441
190.0	95.45089594309593	response	1.0	b		character	word-133.jpg	1.0	181.91171454427604	
191.0	95.51747181104201	word	0.0		46.0	character	word-137.jpg	0.0	181.97829041222212	0.38329587282350985
191.0	95.90076768386552	ISI	1.0		6.0	character	word-137.jpg	0.0	182.36158628504563	0.11669748631265975
191.0	95.94627329811192	pulse	1.0	t		character	word-137.jpg	0.0	182.40709189929203	
192.0	96.01746517017818	word	0.0		46.0	character	word-134.jpg	0.0	182.4782837713583	0.38330402297469846
192.0	96.40076919315288	ISI	1.0		7.0	character	word-134.jpg	0.0	182.861587794333	0.11669235473527806
193.0	96.51746154788816	word	0.0		46.0	character	word-134.jpg	1.0	182.97828014906827	0.38329225053439586
193.0	96.60092634014109	pulse	0.0	t		character	word-134.jpg	1.0	183.0617449413212	
193.0	96.90075379842256	ISI	1.0		7.0	character	word-134.jpg	1.0	183.36157239960266	0.11670141045942728
193.0	96.9925456302808	response	1.0	b		character	word-134.jpg	1.0	183.4533642314609	
194.0	97.01745520888198	word	0.0		46.0	character	word-40.jpg	0.0	183.4782738100621	0.3832726298005582
194.0	97.30085135875015	pulse	0.0	t		character	word-40.jpg	0.0	183.76166995993026	
194.0	97.40072783868254	ISI	1.0		7.0	character	word-40.jpg	0.0	183.86154643986265	0.11672435162472539
195.0	97.51745219030727	word	0.0		46.0	character	word-5.jpg	0.0	183.97827079148738	0.3832931561073565
195.0	97.90074534641462	ISI	1.0		6.0	character	word-5.jpg	0.0	184.36156394759473	0.11670835318000172
196.0	98.01745369959463	word	0.0		45.0	character	word-29.jpg	0.0	184.47827230077473	0.3832850059552584
196.0	98.00849970206582	pulse	0.0	t		character	word-29.jpg	0.0	184.46931830324593	
196.0	98.40073870554988	ISI	1.0		7.0	character	word-29.jpg	0.0	184.86155730673	0.11668178972558962
197.0	98.51742049527547	word	0.0		46.0	character	word-76.jpg	0.0	184.97823909645558	0.3833028155449938
197.0	98.70086258784795	pulse	0.0	t		character	word-76.jpg	0.0	185.16168118902806	
197.0	98.90072331082047	ISI	1.0		7.0	character	word-76.jpg	0.0	185.36154191200058	0.11669446773794334
198.0	99.01741777855841	word	0.0		46.0	character	word-136.jpg	0.0	185.47823637973852	0.3833272659985596
198.0	99.40074504455697	ISI	1.0		7.0	character	word-136.jpg	0.0	185.86156364573708	0.11666247084758652
198.0	99.43749135933012	pulse	1.0	t		character	word-136.jpg	0.0	185.89830996051023	
199.0	99.51740751540456	word	0.0		46.0	character	word-120.jpg	0.0	185.97822611658466	0.38336107403301867
199.0	99.90076858943758	ISI	1.0		6.0	character	word-120.jpg	0.0	186.36158719061768	0.11668390272734541
200.0	100.01745249216492	word	0.0		46.0	character	word-100.jpg	0.0	186.47827109334503	0.38330311740264733
200.0	100.10088468381309	pulse	0.0	t		character	word-100.jpg	0.0	186.5617032849932	
200.0	100.40075560956757	ISI	1.0		7.0	character	word-100.jpg	0.0	186.86157421074768	0.11667665814820793
201.0	100.51743226771578	word	0.0		46.0	character	word-59.jpg	0.0	186.97825086889588	0.38330764526472194
201.0	100.80085950890134	pulse	0.0	t		character	word-59.jpg	0.0	187.26167811008145	
201.0	100.9007399129805	ISI	1.0		6.0	character	word-59.jpg	0.0	187.3615585141606	0.11668571387144766
202.0	101.01742562685195	word	0.0		46.0	character	word-132.jpg	0.0	187.47824422803205	0.3833206251347292
202.0	101.40074625198667	ISI	1.0		6.0	character	word-132.jpg	0.0	187.86156485316678	0.11668571387144766
203.0	101.51743196585812	word	0.0		45.0	character	word-43.jpg	0.0	187.97825056703823	0.3833052304053126
203.0	101.50823346379548	pulse	0.0	t		character	word-43.jpg	0.0	187.96905206497559	
203.0	101.90073719626344	ISI	1.0		6.0	character	word-43.jpg	0.0	188.36155579744354	0.1166763562905544
204.0	102.01741355255399	body	0.0		46.0	body	body-60.jpg	0.0	188.4782321537341	0.3833088526944266
204.0	102.20085021169234	pulse	0.0	t		body	body-60.jpg	0.0	188.66166881287245	
204.0	102.40072240524842	ISI	1.0		4.0	body	body-60.jpg	0.0	188.86154100642852	0.1167059383205924
205.0	102.51742834356901	body	0.0		46.0	body	body-118.jpg	0.0	188.97824694474912	0.3832813836661444
205.0	102.90070972723515	ISI	1.0		5.0	body	body-118.jpg	0.0	189.36152832841526	0.11670774946560414
205.0	102.94956324245595	pulse	1.0	t		body	body-118.jpg	0.0	189.41038184363606	
206.0	103.01741747670076	body	0.0		46.0	body	body-52.jpg	0.0	189.47823607788087	0.38330553226205666
206.0	103.40072300896281	ISI	1.0		7.0	body	body-52.jpg	0.0	189.86154161014292	0.11668873244616407
207.0	103.51741174140898	body	0.0		46.0	body	body-108.jpg	0.0	189.9782303425891	0.3832635740773185
207.0	103.60078869314384	pulse	0.0	t		body	body-108.jpg	0.0	190.06160729432395	
207.0	103.9006753154863	ISI	1.0		6.0	body	body-108.jpg	0.0	190.3614939166664	0.11667756372025906
208.0	104.01735287920656	body	0.0		46.0	body	body-20.jpg	0.0	190.47817148038666	0.3833212288491268
208.0	104.30078344082449	pulse	0.0	t		body	body-20.jpg	0.0	190.7616020420046	
208.0	104.40067410805568	ISI	1.0		5.0	body	body-20.jpg	0.0	190.8614927092358	0.11669054359117581
209.0	104.51736465164686	body	0.0		46.0	body	body-11.jpg	0.0	190.97818325282697	0.3832868171002701
209.0	104.90065146874713	ISI	1.0		5.0	body	body-11.jpg	0.0	191.36147006992724	0.11670533460619481
210.0	105.01735680335332	body	0.0		45.0	body	body-70.jpg	0.0	191.47817540453343	0.38330975826647773
210.0	105.0105064503914	pulse	0.0	t		body	body-70.jpg	0.0	191.4713250515715	
210.0	105.4006665616198	ISI	1.0		6.0	body	body-70.jpg	0.0	191.8614851627999	0.11666880985467287
211.0	105.51733537147447	body	0.0		46.0	body	body-99.jpg	0.0	191.97815397265458	0.3833230399941385
211.0	105.70079285877637	pulse	0.0	t		body	body-99.jpg	0.0	192.16161145995648	
211.0	105.90065841146861	ISI	1.0		7.0	body	body-99.jpg	0.0	192.36147701264872	0.1166727340014404
212.0	106.01733114547005	body	0.0		46.0	body	body-99.jpg	1.0	192.47814974665016	0.3833323975750318
212.0	106.40066354304508	ISI	1.0		6.0	body	body-99.jpg	1.0	192.8614821442252	0.11667877115087322
212.0	106.4457359918515	pulse	1.0	t		body	body-99.jpg	1.0	192.90655459303161	
212.0	106.45508813935612	response	1.0	b		body	body-99.jpg	1.0	192.91590674053623	
213.0	106.51734231419596	body	0.0		46.0	body	body-107.jpg	0.0	192.97816091537607	0.38330190997294267
213.0	106.9006442241689	ISI	1.0		6.0	body	body-107.jpg	0.0	193.361462825349	0.1166911473055734
214.0	107.01733537147447	body	0.0		46.0	body	body-8.jpg	0.0	193.47815397265458	0.3833028155449938
214.0	107.10076273340292	pulse	0.0	t		body	body-8.jpg	0.0	193.56158133458302	
214.0	107.40063818701947	ISI	1.0		6.0	body	body-8.jpg	0.0	193.86145678819958	0.1167237479103278
215.0	107.5173619349298	body	0.0		46.0	body	body-47.jpg	0.0	193.9781805361099	0.3832720260852511
215.0	107.80074721793062	pulse	0.0	t		body	body-47.jpg	0.0	194.26156581911073	
215.0	107.90063396101505	ISI	1.0		11.0	body	body-47.jpg	0.0	194.36145256219515	0.09999058204812172
216.0	108.00062454306317	baseline	0.0		48.0		baseline	0.0	194.46144314424328	0.39999734365392214
216.0	108.40062188671709	ISI	1.0		11.0		baseline	0.0	194.8614404878972	0.09999209133547993
217.0	108.50061397805257	baseline	0.0		47.0		baseline	0.0	194.96143257923268	0.40000247523039434
217.0	108.5049525751756	pulse	0.0	t			baseline	0.0	194.9657711763557	
217.0	108.90061645328296	ISI	1.0		11.0		baseline	0.0	195.36143505446307	0.10000929720990825
218.0	109.00062575049287	baseline	0.0		48.0		baseline	0.0	195.46144435167298	0.3999910046477453
218.0	109.20072645013806	pulse	0.0	t			baseline	0.0	195.66154505131817	
218.0	109.40061675514062	ISI	1.0		11.0		baseline	0.0	195.86143535632073	0.09999239319222397
219.0	109.50060914833284	baseline	0.0		48.0		baseline	0.0	195.96142774951295	0.4000643560084427
219.0	109.90067350434128	ISI	1.0		11.0		baseline	0.0	196.3614921055214	0.10000386377487303
219.0	109.90533871122534	pulse	1.0	t			baseline	0.0	196.36615731240545	
220.0	110.00067736811616	baseline	0.0		48.0		baseline	0.0	196.46149596929627	0.39999160836305236
220.0	110.40066897647921	ISI	1.0		11.0		baseline	0.0	196.86148757765932	0.09999692105429858
221.0	110.50066589753351	baseline	0.0		48.0		baseline	0.0	196.96148449871362	0.39999160836305236
221.0	110.60078658014208	pulse	0.0	t			baseline	0.0	197.0616051813222	
221.0	110.90065750589656	ISI	1.0		11.0		baseline	0.0	197.36147610707667	0.10000326006047544
222.0	111.00066076595704	baseline	0.0		48.0		baseline	0.0	197.46147936713714	0.39999583436656394
222.0	111.30078042224977	pulse	0.0	t			baseline	0.0	197.76159902342988	
222.0	111.4006566003236	ISI	1.0		11.0		baseline	0.0	197.8614752015037	0.09999873219931033
223.0	111.50065533252291	baseline	0.0		48.0		baseline	0.0	197.96147393370302	0.39999673993952456
223.0	111.90065207246244	ISI	1.0		11.0		baseline	0.0	198.36147067364254	0.09998937461750756
224.0	112.00064144707994	baseline	0.0		47.0		baseline	0.0	198.46146004826005	0.4000051919483667
224.0	112.0049767237715	pulse	0.0	t			baseline	0.0	198.4657953249516	
224.0	112.40064663902831	ISI	1.0		11.0		baseline	0.0	198.86146524020842	0.09999571362368442
225.0	112.500642352652	baseline	0.0		48.0		baseline	0.0	198.9614609538321	0.39999673993952456
225.0	112.70075693774015	pulse	0.0	t			baseline	0.0	199.16157553892026	
225.0	112.90063909259152	ISI	1.0		11.0		baseline	0.0	199.36145769377163	0.10000356191812898
226.0	113.00064265450965	baseline	0.0		48.0		baseline	0.0	199.46146125568976	0.3999913065053988
226.0	113.40063396101505	ISI	1.0		11.0		baseline	0.0	199.86145256219515	0.09999933591370791
226.0	113.40540451614925	pulse	1.0	t			baseline	0.0	199.86622311732935	
227.0	113.50063329692875	baseline	0.0		48.0		baseline	0.0	199.96145189810886	0.39999734365483164
227.0	113.90063064058359	ISI	1.0		3.0		baseline	0.0	200.3614492417637	0.1166431519714024
228.0	114.01727379255499	word	0.0		46.0	character	word-47.jpg	0.0	200.4780923937351	0.38329889139822626
228.0	114.10069723033666	pulse	0.0	t		character	word-47.jpg	0.0	200.56151583151677	
228.0	114.40057268395321	ISI	1.0		7.0	character	word-47.jpg	0.0	200.86139128513332	0.11671378661412746
229.0	114.51728647056734	word	0.0		46.0	character	word-62.jpg	0.0	200.97810507174745	0.38329074124703766
229.0	114.80069197801731	pulse	0.0	t		character	word-62.jpg	0.0	201.26151057919742	
229.0	114.90057721181438	ISI	1.0		7.0	character	word-62.jpg	0.0	201.3613958129945	0.11668541201470362
230.0	115.01726262382908	word	0.0		46.0	character	word-7.jpg	0.0	201.4780812250092	0.3833230399941385
230.0	115.40058566382322	ISI	1.0		6.0	character	word-7.jpg	0.0	201.86140426500333	0.11666548942230293
231.0	115.51725115324552	word	0.0		45.0	character	word-38.jpg	0.0	201.97806975442563	0.38332032327798515
231.0	115.50771970241658	pulse	0.0	t		character	word-38.jpg	0.0	201.9685383035967	
231.0	115.90057147652351	ISI	1.0		6.0	character	word-38.jpg	0.0	202.36139007770362	0.11667846929231018
232.0	116.01724994581582	word	0.0		46.0	character	word-13.jpg	0.0	202.47806854699593	0.38330855083677307
232.0	116.20068901981449	pulse	0.0	t		character	word-13.jpg	0.0	202.6615076209946	
232.0	116.4005584966526	ISI	1.0		7.0	character	word-13.jpg	0.0	202.8613770978327	0.11668873244616407
233.0	116.51724722909876	word	0.0		46.0	character	word-82.jpg	0.0	202.97806583027887	0.383308248980029
233.0	116.90055547807879	ISI	1.0		6.0	character	word-82.jpg	0.0	203.3613740792589	0.11671680518884386
233.0	116.94551473034153	pulse	1.0	t		character	word-82.jpg	0.0	203.40633333152164	
234.0	117.01727228326763	word	0.0		46.0	character	word-89.jpg	0.0	203.47809088444774	0.3832837985255537
234.0	117.40055608179318	ISI	1.0		7.0	character	word-89.jpg	0.0	203.8613746829733	0.1166793748652708
235.0	117.51723545665845	word	0.0		46.0	character	word-141.jpg	0.0	203.97805405783856	0.3833073434070684
235.0	117.60067368545606	pulse	0.0	t		character	word-141.jpg	0.0	204.06149228663617	
235.0	117.90054280006552	ISI	1.0		6.0	character	word-141.jpg	0.0	204.36136140124563	0.11667696000586147
236.0	118.01721976007138	word	0.0		46.0	character	word-22.jpg	0.0	204.4780383612515	0.3832940616784981
236.0	118.30062888981047	pulse	0.0	t		character	word-22.jpg	0.0	204.76144749099058	
236.0	118.40051382174988	ISI	1.0		6.0	character	word-22.jpg	0.0	204.86133242293	0.11668812873176648
237.0	118.51720195048165	word	0.0		46.0	character	word-107.jpg	0.0	204.97802055166176	0.3832970802532145
237.0	118.90049903073486	ISI	1.0		7.0	character	word-107.jpg	0.0	205.36131763191497	0.116695675167648
238.0	119.01719470590251	word	0.0		45.0	character	word-41.jpg	0.0	205.47801330708262	0.38329647653881693
238.0	119.00704354172922	pulse	0.0	t		character	word-41.jpg	0.0	205.46786214290933	
238.0	119.40049118244133	ISI	1.0		7.0	character	word-41.jpg	0.0	205.86130978362144	0.11668390272734541
239.0	119.51717508516867	word	0.0		46.0	character	word-77.jpg	0.0	205.97799368634878	0.3833133805555917
239.0	119.70060932944762	pulse	0.0	t		character	word-77.jpg	0.0	206.16142793062772	
239.0	119.90048846572427	ISI	1.0		11.0	character	word-77.jpg	0.0	206.36130706690437	0.10000235448842432
240.0	120.00049082021269	baseline	0.0		48.0		baseline	0.0	206.4613094213928	0.40000187151599675
240.0	120.40049269172869	ISI	1.0		11.0		baseline	0.0	206.8613112929088	0.09997790403485851
240.0	120.40519563079397	pulse	1.0	t			baseline	0.0	206.86601423197408	
241.0	120.50047059576355	baseline	0.0		48.0		baseline	0.0	206.96128919694365	0.4000027770889574
241.0	120.9004733728525	ISI	1.0		11.0		baseline	0.0	207.3612919740326	0.10000869349369168
242.0	121.0004820663462	baseline	0.0		48.0		baseline	0.0	207.4613006675263	0.3999919102207059
242.0	121.1005970136639	pulse	0.0	t			baseline	0.0	207.561415614844	
242.0	121.4004739765669	ISI	1.0		11.0		baseline	0.0	207.861292577747	0.09999541176694038
243.0	121.50046938833384	baseline	0.0		48.0		baseline	0.0	207.96128798951395	0.3999940232224617
243.0	121.80059719477777	pulse	0.0	t			baseline	0.0	208.26141579595787	
243.0	121.9004634115563	ISI	1.0		11.0		baseline	0.0	208.3612820127364	0.09999873219840083
244.0	122.0004621437547	baseline	0.0		48.0		baseline	0.0	208.4612807449348	0.40000036222954805
244.0	122.40046250598425	ISI	1.0		11.0		baseline	0.0	208.86128110716436	0.10000537306223123
245.0	122.50046787904648	baseline	0.0		47.0		baseline	0.0	208.9612864802266	0.39998406192626135
245.0	122.5048251913322	pulse	0.0	t			baseline	0.0	208.9656437925123	
245.0	122.90045194097274	ISI	1.0		11.0		baseline	0.0	209.36127054215285	0.10000356191812898
246.0	123.00045550289087	baseline	0.0		48.0		baseline	0.0	209.46127410407098	0.40000126780159917
246.0	123.20056706940431	pulse	0.0	t			baseline	0.0	209.66138567058442	
246.0	123.40045677069247	ISI	1.0		11.0		baseline	0.0	209.86127537187258	0.09998726161575178
247.0	123.50044403230822	baseline	0.0		48.0		baseline	0.0	209.96126263348833	0.39999523065216636
247.0	123.90043926296039	ISI	1.0		11.0		baseline	0.0	210.3612578641405	0.10002378636727371
247.0	123.90512318500623	pulse	1.0	t			baseline	0.0	210.36594178618634	
248.0	124.00046304932766	baseline	0.0		48.0		baseline	0.0	210.46128165050777	0.4000368869801605
248.0	124.40049993630782	ISI	1.0		11.0		baseline	0.0	210.86131853748793	0.10000658049193589
249.0	124.50050651679976	baseline	0.0		48.0		baseline	0.0	210.96132511797987	0.3999873823586313
249.0	124.60061210653566	pulse	0.0	t			baseline	0.0	211.06143070771577	
249.0	124.90049389915839	ISI	1.0		11.0		baseline	0.0	211.3613125003385	0.10000114705871965
250.0	125.00049504621711	baseline	0.0		48.0		baseline	0.0	211.46131364739722	0.3999934195071546
250.0	125.30060534492895	pulse	0.0	t			baseline	0.0	211.76142394610906	
250.0	125.40048846572427	ISI	1.0		11.0		baseline	0.0	211.86130706690437	0.09999963777136145
251.0	125.50048810349563	baseline	0.0		48.0		baseline	0.0	211.96130670467574	0.39998496749922197
251.0	125.90047307099485	ISI	1.0		11.0		baseline	0.0	212.36129167217496	0.1000111083540105
252.0	126.00048417934886	baseline	0.0		47.0		baseline	0.0	212.46130278052897	0.39999372136480815
252.0	126.00482760619161	pulse	0.0	t			baseline	0.0	212.46564620737172	
252.0	126.40047790071367	ISI	1.0		11.0		baseline	0.0	212.86129650189378	0.09999903405605437
253.0	126.50047693476972	baseline	0.0		48.0		baseline	0.0	212.96129553594983	0.40000247523130383
253.0	126.700595142147	pulse	0.0	t			baseline	0.0	213.1614137433271	
253.0	126.90047941000103	ISI	1.0		11.0		baseline	0.0	213.36129801118113	0.09999993962901499
254.0	127.00047934963004	baseline	0.0		48.0		baseline	0.0	213.46129795081015	0.3999961362242175
254.0	127.40047548585426	ISI	1.0		11.0		baseline	0.0	213.86129408703437	0.0999978266263497
254.0	127.40519442336426	pulse	1.0	t			baseline	0.0	213.86601302454437	
255.0	127.50047331248061	baseline	0.0		48.0		baseline	0.0	213.96129191366072	0.3999949287945128
255.0	127.90046824127512	ISI	1.0		11.0		baseline	0.0	214.36128684245523	0.09999843034165679
256.0	128.00046667161678	baseline	0.0		48.0		baseline	0.0	214.46128527279689	0.3999979473692292
256.0	128.10058554308034	pulse	0.0	t			baseline	0.0	214.56140414426045	
256.0	128.400464618986	ISI	1.0		11.0		baseline	0.0	214.86128322016611	0.09998997833281464
257.0	128.50045459731882	baseline	0.0		48.0		baseline	0.0	214.96127319849893	0.40000096594394563
257.0	128.8005814981907	pulse	0.0	t			baseline	0.0	215.2614000993708	
257.0	128.90045556326277	ISI	1.0		11.0		baseline	0.0	215.36127416444288	0.09999058204721223
258.0	129.00044614530998	baseline	0.0		48.0		baseline	0.0	215.4612647464901	0.40000489009071316
258.0	129.4004510354007	ISI	1.0		11.0		baseline	0.0	215.8612696365808	0.09999299690753105
259.0	129.50044403230822	baseline	0.0		47.0		baseline	0.0	215.96126263348833	0.3999904009324382
259.0	129.50488767582374	pulse	0.0	t			baseline	0.0	215.96570627700385	
259.0	129.90043443324066	ISI	1.0		11.0		baseline	0.0	216.36125303442077	0.10000054334341257
260.0	130.00043497658407	baseline	0.0		48.0		baseline	0.0	216.46125357776418	0.40000338080426445
260.0	130.20057099355108	pulse	0.0	t			baseline	0.0	216.6613895947312	
260.0	130.40043835738834	ISI	1.0		11.0		baseline	0.0	216.86125695856845	0.09999028018955869
261.0	130.5004286375779	baseline	0.0		48.0		baseline	0.0	216.961247238758	0.3999976455124852
261.0	130.90042628309038	ISI	1.0		11.0		baseline	0.0	217.3612448842705	0.09999028018955869
261.0	130.90511986457386	pulse	1.0	t			baseline	0.0	217.36593846575397	
262.0	131.00041656327994	baseline	0.0		48.0		baseline	0.0	217.46123516446005	0.4000015696592527
262.0	131.4004181329392	ISI	1.0		11.0		baseline	0.0	217.8612367341193	0.09999933591279841
263.0	131.500417468852	baseline	0.0		48.0		baseline	0.0	217.9612360700321	0.39998104335245444
263.0	131.60053332174175	pulse	0.0	t			baseline	0.0	218.06135192292186	
263.0	131.90039851220445	ISI	1.0		7.0		baseline	0.0	218.36121711338455	0.11667756372116855
264.0	132.01707607592562	adult	0.0		46.0	face	adult-73.jpg	0.0	218.47789467710572	0.3832871189570142
264.0	132.3005069394003	pulse	0.0	t		face	adult-73.jpg	0.0	218.7613255405804	
264.0	132.40036319488263	ISI	1.0		6.0	face	adult-73.jpg	0.0	218.86118179606274	0.11670352346118307
265.0	132.5170667183438	adult	0.0		46.0	face	adult-82.jpg	0.0	218.97788531952392	0.3832650833646767
265.0	132.9003318017085	ISI	1.0		6.0	face	adult-82.jpg	0.0	219.3611504028886	0.11669748631175025
266.0	133.01702928802024	adult	0.0		45.0	face	adult-14.jpg	0.0	219.47784788920035	0.38328923196058895
266.0	133.00875507346882	pulse	0.0	t		face	adult-14.jpg	0.0	219.46957367464893	
266.0	133.40031851998083	ISI	1.0		6.0	face	adult-14.jpg	0.0	219.86113712116094	0.11670020302881312
267.0	133.51701872300964	adult	0.0		46.0	face	adult-67.jpg	0.0	219.97783732418975	0.383297080254124
267.0	133.70045145800123	pulse	0.0	t		face	adult-67.jpg	0.0	220.16127005918133	
267.0	133.90031580326377	ISI	1.0		6.0	face	adult-67.jpg	0.0	220.36113440444387	0.1166860157291012
268.0	134.01700181899287	adult	0.0		46.0	face	adult-81.jpg	0.0	220.47782042017297	0.38332454928149673
268.0	134.40032636827436	ISI	1.0		7.0	face	adult-81.jpg	0.0	220.86114496945447	0.11667333771583799
268.0	134.43293482112767	pulse	1.0	t		face	adult-81.jpg	0.0	220.89375342230778	
269.0	134.5169997059902	adult	0.0		46.0	face	adult-118.jpg	0.0	220.9778183071703	0.3833197195626781
269.0	134.90031942555288	ISI	1.0		6.0	face	adult-118.jpg	0.0	221.361138026733	0.11667152657173574
270.0	135.01699095212462	adult	0.0		46.0	face	adult-84.jpg	0.0	221.47780955330472	0.3833109656961824
270.0	135.10043642550045	pulse	0.0	t		face	adult-84.jpg	0.0	221.56125502668056	
270.0	135.4003019178208	ISI	1.0		6.0	face	adult-84.jpg	0.0	221.8611205190009	0.1166860157291012
271.0	135.5169879335499	adult	0.0		46.0	face	adult-28.jpg	0.0	221.97780653473	0.38329375982175407
271.0	135.80041728773813	pulse	0.0	t		face	adult-28.jpg	0.0	222.26123588891824	
271.0	135.90028169337165	ISI	1.0		6.0	face	adult-28.jpg	0.0	222.36110029455176	0.11670201417382486
272.0	136.01698370754548	adult	0.0		46.0	face	adult-126.jpg	0.0	222.4778023087256	0.38331670098796167
272.0	136.40030040853344	ISI	1.0		7.0	face	adult-126.jpg	0.0	222.86111900971355	0.11666880985467287
273.0	136.5169692183881	adult	0.0		45.0	face	adult-92.jpg	0.0	222.97778781956822	0.3833263604265085
273.0	136.5088601198613	pulse	0.0	t		face	adult-92.jpg	0.0	222.96967872104142	
273.0	136.90029557881462	ISI	1.0		6.0	face	adult-92.jpg	0.0	223.36111417999473	0.11667605443290086
274.0	137.01697163324752	adult	0.0		46.0	face	adult-61.jpg	0.0	223.47779023442763	0.383319115847371
274.0	137.20041040538854	pulse	0.0	t		face	adult-61.jpg	0.0	223.66122900656865	
274.0	137.4002907490949	ISI	1.0		6.0	face	adult-61.jpg	0.0	223.861109350275	0.11668209158233367
275.0	137.51697284067723	adult	0.0		46.0	face	adult-51.jpg	0.0	223.97779144185733	0.3833022118305962
275.0	137.90027505250782	ISI	1.0		6.0	face	adult-51.jpg	0.0	224.36109365368793	0.11668239343998721
275.0	137.94786106829724	pulse	1.0	t		face	adult-51.jpg	0.0	224.40867966947735	
276.0	138.0169574459478	car	0.0		46.0	object	car-135.jpg	0.0	224.47777604712792	0.3833170028447057
276.0	138.40027444879252	ISI	1.0		7.0	object	car-135.jpg	0.0	224.86109304997262	0.11667756372116855
277.0	138.51695201251368	car	0.0		46.0	object	car-84.jpg	0.0	224.9777706136938	0.38334175515592506
277.0	138.60042374748718	pulse	0.0	t		object	car-84.jpg	0.0	225.0612423486673	
277.0	138.9002937676696	ISI	1.0		6.0	object	car-84.jpg	0.0	225.36111236884972	0.11685294289873127
278.0	139.01714671056834	car	0.0		46.0	object	car-129.jpg	0.0	225.47796531174845	0.38312049364594714
278.0	139.30037382026512	pulse	0.0	t		object	car-129.jpg	0.0	225.76119242144523	
278.0	139.4002672042143	ISI	1.0		5.0	object	car-129.jpg	0.0	225.8610858053944	0.11669235473527806
279.0	139.51695955894957	car	0.0		46.0	object	car-30.jpg	0.0	225.97777816012967	0.38329949511353334
279.0	139.9002590540631	ISI	1.0		7.0	object	car-30.jpg	0.0	226.3610776552432	0.11668390272643592
280.0	140.01694295678953	car	0.0		45.0	object	car-46.jpg	0.0	226.47776155796964	0.38331126755383593
280.0	140.00911579312105	pulse	0.0	t		object	car-46.jpg	0.0	226.46993439430116	
280.0	140.40025422434337	ISI	1.0		8.0	object	car-46.jpg	0.0	226.86107282552348	0.11668963801912469
281.0	140.5169438623625	car	0.0		46.0	object	car-34.jpg	0.0	226.9777624635426	0.3832985895405727
281.0	140.70036784348758	pulse	0.0	t		object	car-34.jpg	0.0	227.1611864446677	
281.0	140.90024245190307	ISI	1.0		7.0	object	car-34.jpg	0.0	227.36106105308318	0.11667997858057788
282.0	141.01692243048365	car	0.0		46.0	object	car-34.jpg	1.0	227.47774103166375	0.38331156941058
282.0	141.38369583394433	response	0.0	b		object	car-34.jpg	1.0	227.84451443512444	
282.0	141.40023399989423	ISI	1.0		6.0	object	car-34.jpg	1.0	227.86105260107433	0.11668420458499895
282.0	141.44095668285172	pulse	1.0	t		object	car-34.jpg	1.0	227.90177528403183	
283.0	141.51691820447923	car	0.0		46.0	object	car-4.jpg	0.0	227.97773680565933	0.38330040068558446
283.0	141.9002186051648	ISI	1.0		5.0	object	car-4.jpg	0.0	228.36103720634492	0.11669869374145492
284.0	142.01691729890626	car	0.0		46.0	object	car-127.jpg	0.0	228.47773590008637	0.383315493558257
284.0	142.10035009426974	pulse	0.0	t		object	car-127.jpg	0.0	228.56116869544985	
284.0	142.40023279246452	ISI	1.0		5.0	object	car-127.jpg	0.0	228.86105139364463	0.10848485068072478
285.0	142.50871764314525	car	0.0		47.0	object	car-100.jpg	0.0	228.96953624432535	0.3915051880239844
285.0	142.8003360880839	pulse	0.0	t		object	car-100.jpg	0.0	229.261154689264	
285.0	142.90022283116923	ISI	1.0		4.0	object	car-100.jpg	0.0	229.36104143234934	0.10835354268965602
286.0	143.0085763738589	car	0.0		47.0	object	car-5.jpg	0.0	229.469394975039	0.39164102387621824
286.0	143.4002173977351	ISI	1.0		5.0	object	car-5.jpg	0.0	229.8610359989152	0.10833694052962528
287.0	143.50855433826473	car	0.0		46.0	object	car-101.jpg	0.0	229.96937293944484	0.3916467591679975
287.0	143.50427128291176	pulse	0.0	t		object	car-101.jpg	0.0	229.96508988409187	
287.0	143.90020109743273	ISI	1.0		2.0	object	car-101.jpg	0.0	230.36101969861284	0.10835293897434894
288.0	144.00855403640708	house	0.0		47.0	place	house-107.jpg	0.0	230.46937263758718	0.3916503814571115
288.0	144.20032135744077	pulse	0.0	t		place	house-107.jpg	0.0	230.66113995862088	
288.0	144.4002044178642	ISI	1.0		6.0	place	house-107.jpg	0.0	230.8610230190443	0.10834539253846742
289.0	144.50854981040266	house	0.0		47.0	place	house-19.jpg	0.0	230.96936841158276	0.39165007960036746
289.0	144.90019989000302	ISI	1.0		5.0	place	house-19.jpg	0.0	231.36101849118313	0.10834418510876276
289.0	144.9522138527209	pulse	1.0	t		place	house-19.jpg	0.0	231.413032453901	
290.0	145.00854407511179	house	0.0		47.0	place	house-84.jpg	0.0	231.4693626762919	0.39167513376742136
290.0	145.4002192088792	ISI	1.0		6.0	place	house-84.jpg	0.0	231.86103781005932	0.11668390272734541
291.0	145.51690311160655	house	0.0		46.0	place	house-28.jpg	0.0	231.97772171278666	0.3833088526944266
291.0	145.60034073668885	pulse	0.0	t		place	house-28.jpg	0.0	232.06115933786896	
291.0	145.90021196430098	ISI	1.0		6.0	place	house-28.jpg	0.0	232.3610305654811	0.11669144916322693
292.0	146.0169034134642	house	0.0		46.0	place	house-97.jpg	0.0	232.4777220146443	0.38330251368734025
292.0	146.3003366917992	pulse	0.0	t		place	house-97.jpg	0.0	232.7611552929793	
292.0	146.40020592715155	ISI	1.0		7.0	place	house-97.jpg	0.0	232.86102452833165	0.11670352346118307
293.0	146.51690945061273	house	0.0		46.0	place	house-97.jpg	1.0	232.97772805179284	0.38325964993055095
293.0	146.90016910054328	ISI	1.0		5.0	place	house-97.jpg	1.0	233.3609877017234	0.11668722315880586
293.0	146.9669589854202	response	1.0	b		place	house-97.jpg	1.0	233.4277775866003	
294.0	147.0168563237021	house	0.0		45.0	place	house-2.jpg	0.0	233.4776749248822	0.38331066383852885
294.0	147.00848038318964	pulse	0.0	t		place	house-2.jpg	0.0	233.46929898436974	
294.0	147.40016698754062	ISI	1.0		7.0	place	house-2.jpg	0.0	233.86098558872072	0.11667907300761726
295.0	147.51684606054823	house	0.0		46.0	place	house-5.jpg	0.0	233.97766466172834	0.3833163991303081
295.0	147.7002839271163	pulse	0.0	t		place	house-5.jpg	0.0	234.1611025282964	
295.0	147.90016245967854	ISI	1.0		6.0	place	house-5.jpg	0.0	234.36098106085865	0.11669084544882935
296.0	148.01685330512737	house	0.0		46.0	place	house-85.jpg	0.0	234.47767190630748	0.38328983567498653
296.0	148.40014314080236	ISI	1.0		7.0	place	house-85.jpg	0.0	234.86096174198246	0.11668993987586873
296.0	148.4345026687215	pulse	1.0	t		place	house-85.jpg	0.0	234.89532126990161	
297.0	148.51683308067823	house	0.0		46.0	place	house-98.jpg	0.0	234.97765168185833	0.38329074124703766
297.0	148.90012382192526	ISI	1.0		7.0	place	house-98.jpg	0.0	235.36094242310537	0.11671227732767875
298.0	149.01683609925294	house	0.0		46.0	place	house-32.jpg	0.0	235.47765470043305	0.3833251529958943
298.0	149.10026315932373	pulse	0.0	t		place	house-32.jpg	0.0	235.56108176050384	
298.0	149.40016125224884	ISI	1.0		6.0	place	house-32.jpg	0.0	235.86097985342894	0.11666096156113781
299.0	149.51682221380997	house	0.0		46.0	place	house-76.jpg	0.0	235.97764081499008	0.3833333031479924
299.0	149.80026756644293	pulse	0.0	t		place	house-76.jpg	0.0	236.26108616762303	
299.0	149.90015551695797	ISI	1.0		6.0	place	house-76.jpg	0.0	236.36097411813807	0.11665915041612607
300.0	150.0168146673741	adult	0.0		46.0	face	adult-98.jpg	0.0	236.4776332685542	0.3833206251347292
300.0	150.40013529250882	ISI	1.0		6.0	face	adult-98.jpg	0.0	236.86095389368893	0.11668480829939654
301.0	150.51682010080822	adult	0.0		45.0	face	adult-123.jpg	0.0	236.97763870198833	0.38330100439998205
301.0	150.50842182284396	pulse	0.0	t		face	adult-123.jpg	0.0	236.96924042402406	
301.0	150.9001211052082	ISI	1.0		4.0	face	adult-123.jpg	0.0	237.3609397063883	0.11670201417382486
302.0	151.01682311938202	adult	0.0		46.0	face	adult-4.jpg	0.0	237.47764172056213	0.38328259109675855
302.0	151.20023713921182	pulse	0.0	t		face	adult-4.jpg	0.0	237.66105574039193	
302.0	151.40010571047878	ISI	1.0		6.0	face	adult-4.jpg	0.0	237.8609243116589	0.11670835318000172
303.0	151.51681406365879	adult	0.0		46.0	face	adult-130.jpg	0.0	237.9776326648389	0.3832946653938052
303.0	151.9001087290526	ISI	1.0		6.0	face	adult-130.jpg	0.0	238.3609273302327	0.11668480829939654
303.0	151.94076651265823	pulse	1.0	t		face	adult-130.jpg	0.0	238.40158511383834	
304.0	152.016793537352	adult	0.0		46.0	face	adult-6.jpg	0.0	238.4776121385321	0.38332243627974094
304.0	152.40011597363173	ISI	1.0		6.0	face	adult-6.jpg	0.0	238.86093457481184	0.1166727340014404
305.0	152.51678870763317	adult	0.0		46.0	face	adult-142.jpg	0.0	238.97760730881328	0.3833323975750318
305.0	152.60026104632198	pulse	0.0	t		face	adult-142.jpg	0.0	239.06107964750208	
305.0	152.9001211052082	ISI	1.0		6.0	face	adult-142.jpg	0.0	239.3609397063883	0.11669809002705733
306.0	153.01681919523526	adult	0.0		46.0	face	adult-12.jpg	0.0	239.47763779641537	0.38328108180940035
306.0	153.3002074968108	pulse	0.0	t		face	adult-12.jpg	0.0	239.7610260979909	
306.0	153.40010027704466	ISI	1.0		7.0	face	adult-12.jpg	0.0	239.86091887822477	0.11667846929231018
307.0	153.51677874633697	adult	0.0		46.0	face	adult-94.jpg	0.0	239.97759734751708	0.38330855083677307
307.0	153.90008729717374	ISI	1.0		6.0	face	adult-94.jpg	0.0	240.36090589835385	0.11667816743556614
308.0	154.0167654646093	adult	0.0		45.0	face	adult-114.jpg	0.0	240.47758406578942	0.38332243627974094
308.0	154.00893920651288	pulse	0.0	t		face	adult-114.jpg	0.0	240.469757807693	
308.0	154.40008790088905	ISI	1.0		8.0	face	adult-114.jpg	0.0	240.86090650206916	0.11667484700319619
309.0	154.51676274789224	adult	0.0		46.0	face	adult-63.jpg	0.0	240.97758134907235	0.3833124749835406
309.0	154.70019518102617	pulse	0.0	t		face	adult-63.jpg	0.0	241.16101378220628	
309.0	154.90007522287578	ISI	1.0		7.0	face	adult-63.jpg	0.0	241.3608938240559	0.11669688259735267
310.0	155.01677210547314	adult	0.0		46.0	face	adult-7.jpg	0.0	241.47759070665325	0.3832961746811634
310.0	155.4000682801543	ISI	1.0		6.0	face	adult-7.jpg	0.0	241.8608868813344	0.11668329901294783
310.0	155.44435529587736	pulse	1.0	t		face	adult-7.jpg	0.0	241.90517389705747	
311.0	155.51675157916725	adult	0.0		46.0	face	adult-31.jpg	0.0	241.97757018034736	0.38331066383852885
311.0	155.90006224300578	ISI	1.0		11.0	face	adult-31.jpg	0.0	242.36088084418589	0.10004280338671379
312.0	156.0001050463925	baseline	0.0		48.0		baseline	0.0	242.4609236475726	0.39995085760710936
312.0	156.10017622437863	pulse	0.0	t			baseline	0.0	242.56099482555874	
312.0	156.4000559039996	ISI	1.0		11.0		baseline	0.0	242.8608745051797	0.09999933591370791
313.0	156.5000552399133	baseline	0.0		48.0		baseline	0.0	242.96087384109342	0.4000045882330596
313.0	156.80017278320338	pulse	0.0	t			baseline	0.0	243.2609913843835	
313.0	156.90005982814637	ISI	1.0		11.0		baseline	0.0	243.36087842932648	0.0999978266263497
314.0	157.00005765477272	baseline	0.0		48.0		baseline	0.0	243.46087625595283	0.3999949287945128
314.0	157.40005258356723	ISI	1.0		11.0		baseline	0.0	243.86087118474734	0.09999963777136145
315.0	157.5000522213386	baseline	0.0		47.0		baseline	0.0	243.9608708225187	0.3999858730712731
315.0	157.50446266053495	pulse	0.0	t			baseline	0.0	243.96528126171506	
315.0	157.90003809440987	ISI	1.0		11.0		baseline	0.0	244.36085669558997	0.10000748606489651
316.0	158.00004558047476	baseline	0.0		48.0		baseline	0.0	244.46086418165487	0.39997802477773803
316.0	158.20015080798112	pulse	0.0	t			baseline	0.0	244.66096940916123	
316.0	158.4000236052525	ISI	1.0		11.0		baseline	0.0	244.8608422064326	0.1000147306431245
317.0	158.50003833589562	baseline	0.0		48.0		baseline	0.0	244.96085693707573	0.3999985510845363
317.0	158.90003688698016	ISI	1.0		11.0		baseline	0.0	245.36085548816027	0.09999058204721223
317.0	158.90477967122843	pulse	1.0	t			baseline	0.0	245.36559827240853	
318.0	159.00002746902737	baseline	0.0		48.0		baseline	0.0	245.46084607020748	0.4000598281463681
318.0	159.40008729717374	ISI	1.0		11.0		baseline	0.0	245.86090589835385	0.10000175077311724
319.0	159.50008904794686	baseline	0.0		48.0		baseline	0.0	245.96090764912697	0.3999934195080641
319.0	159.60027402619198	pulse	0.0	t			baseline	0.0	246.0610926273721	
319.0	159.90008246745492	ISI	1.0		11.0		baseline	0.0	246.36090106863503	0.0999999396281055
320.0	160.00008240708303	baseline	0.0		48.0		baseline	0.0	246.46090100826314	0.4000027770889574
320.0	160.30021081724226	pulse	0.0	t			baseline	0.0	246.76102941842237	
320.0	160.40008518417199	ISI	1.0		11.0		baseline	0.0	246.8609037853521	0.10000265634516836
321.0	160.50008784051715	baseline	0.0		48.0		baseline	0.0	246.96090644169726	0.39999462693776877
321.0	160.90008246745492	ISI	1.0		11.0		baseline	0.0	247.36090106863503	0.09998786533014936
322.0	161.00007033278507	baseline	0.0		47.0		baseline	0.0	247.46088893396518	0.4000027770889574
322.0	161.00448892213262	pulse	0.0	t			baseline	0.0	247.46530752331273	
322.0	161.40007310987403	ISI	1.0		11.0		baseline	0.0	247.86089171105414	0.10000084520106611
323.0	161.5000739550751	baseline	0.0		48.0		baseline	0.0	247.9608925562552	0.3999831563542102
323.0	161.70018401230118	pulse	0.0	t			baseline	0.0	248.1610026134813	
323.0	161.9000571114293	ISI	1.0		5.0		baseline	0.0	248.3608757126094	0.11665552812610258
324.0	162.0167126395554	body	0.0		46.0	body	body-141.jpg	0.0	248.47753124073552	0.3832650833646767
324.0	162.39997772292008	ISI	1.0		7.0	body	body-141.jpg	0.0	248.8607963241002	0.11669295845058514
324.0	162.43303805637606	pulse	1.0	t		body	body-141.jpg	0.0	248.89385665755617	
325.0	162.51667068137067	body	0.0		46.0	body	body-141.jpg	1.0	248.97748928255078	0.38331881398971746
325.0	162.8999894953604	ISI	1.0		5.0	body	body-141.jpg	1.0	249.3608080965405	0.11667424328879861
326.0	163.01666373864919	body	0.0		46.0	body	body-142.jpg	0.0	249.4774823398293	0.3833185121320639
326.0	163.0834481900929	response	0.0	b		body	body-142.jpg	0.0	249.544266791273	
326.0	163.1001590185042	pulse	0.0	t		body	body-142.jpg	0.0	249.5609776196843	
326.0	163.39998225078125	ISI	1.0		5.0	body	body-142.jpg	0.0	249.86080085196136	0.11669356216589222
327.0	163.51667581294714	body	0.0		46.0	body	body-117.jpg	0.0	249.97749441412725	0.3833360198641458
327.0	163.80008916869065	pulse	0.0	t		body	body-117.jpg	0.0	250.26090776987076	
327.0	163.9000118328113	ISI	1.0		5.0	body	body-117.jpg	0.0	250.3608304339914	0.116695675167648
328.0	164.01670750797894	body	0.0		46.0	body	body-87.jpg	0.0	250.47752610915904	0.3832542164964252
328.0	164.39996172447536	ISI	1.0		6.0	body	body-87.jpg	0.0	250.86078032565547	0.11672797391383938
329.0	164.5166896983892	body	0.0		45.0	body	body-36.jpg	0.0	250.9775082995693	0.38326568707907427
329.0	164.50849336305964	pulse	0.0	t		body	body-36.jpg	0.0	250.96931196423975	
329.0	164.89995538546827	ISI	1.0		6.0	body	body-36.jpg	0.0	251.36077398664838	0.11668390272734541
330.0	165.01663928819562	body	0.0		46.0	body	body-17.jpg	0.0	251.47745788937573	0.3833109656961824
330.0	165.20006749532513	pulse	0.0	t		body	body-17.jpg	0.0	251.66088609650524	
330.0	165.3999502538918	ISI	1.0		6.0	body	body-17.jpg	0.0	251.8607688550719	0.11668631758675474
331.0	165.51663657147856	body	0.0		46.0	body	body-135.jpg	0.0	251.97745517265867	0.38329375982175407
331.0	165.8999303313003	ISI	1.0		6.0	body	body-135.jpg	0.0	252.36074893248042	0.1167155977591392
331.0	165.94222569157046	pulse	1.0	t		body	body-135.jpg	0.0	252.40304429275056	
332.0	166.01664592905945	body	0.0		46.0	body	body-84.jpg	0.0	252.47746453023956	0.38330704154941486
332.0	166.39995297060887	ISI	1.0		6.0	body	body-84.jpg	0.0	252.86077157178897	0.11668571387144766
333.0	166.5166386844803	body	0.0		46.0	body	body-109.jpg	0.0	252.97745728566042	0.38328470409851434
333.0	166.60007751699231	pulse	0.0	t		body	body-109.jpg	0.0	253.06089611817242	
333.0	166.89992338857883	ISI	1.0		6.0	body	body-109.jpg	0.0	253.36074198975894	0.11670714575029706
334.0	167.01663053432912	body	0.0		46.0	body	body-140.jpg	0.0	253.47744913550923	0.38329738211177755
334.0	167.3000478142194	pulse	0.0	t		body	body-140.jpg	0.0	253.7608664153995	
334.0	167.3999279164409	ISI	1.0		7.0	body	body-140.jpg	0.0	253.860746517621	0.116695675167648
334.0	167.4667968879703	response	1.0	b		body	body-140.jpg	0.0	253.9276154891504	
335.0	167.51662359160855	body	0.0		46.0	body	body-96.jpg	0.0	253.97744219278866	0.38330553226205666
335.0	167.8999291238706	ISI	1.0		4.0	body	body-96.jpg	0.0	254.36074772505071	0.11668933616056165
336.0	168.01661846003117	house	0.0		45.0	place	house-89.jpg	0.0	254.47743706121128	0.3833272659985596
336.0	168.0091577513067	pulse	0.0	t		place	house-89.jpg	0.0	254.4699763524868	
336.0	168.39994572602973	ISI	1.0		6.0	place	house-89.jpg	0.0	254.86076432720984	0.11669778817031329
337.0	168.51664351420004	house	0.0		46.0	place	house-91.jpg	0.0	254.97746211538015	0.38326266850435786
337.0	168.70003761143744	pulse	0.0	t		place	house-91.jpg	0.0	255.16085621261755	
337.0	168.8999061827044	ISI	1.0		7.0	place	house-91.jpg	0.0	255.3607247838845	0.11670141045851778
338.0	169.01660759316292	house	0.0		46.0	place	house-95.jpg	0.0	255.47742619434302	0.38330402297560795
338.0	169.39991161613852	ISI	1.0		6.0	place	house-95.jpg	0.0	255.86073021731863	0.11667575257524732
338.0	169.4416669534312	pulse	1.0	t		place	house-95.jpg	0.0	255.9024855546113	
339.0	169.51658736871377	house	0.0		46.0	place	house-72.jpg	0.0	255.97740596989388	0.3833185121329734
339.0	169.89990588084675	ISI	1.0		5.0	place	house-72.jpg	0.0	256.36072448202685	0.10834388325110922
340.0	170.00824976409785	house	0.0		47.0	place	house-21.jpg	0.0	256.46906836527796	0.39164917402740684
340.0	170.1000228807943	pulse	0.0	t		place	house-21.jpg	0.0	256.5608414819744	
340.0	170.39989893812526	ISI	1.0		6.0	place	house-21.jpg	0.0	256.86071753930537	0.10834418510876276
341.0	170.50824312323402	house	0.0		47.0	place	house-106.jpg	0.0	256.96906172441413	0.3916512870300721
341.0	170.80000978018052	pulse	0.0	t		place	house-106.jpg	0.0	257.2608283813606	
341.0	170.8998944102641	ISI	1.0		5.0	place	house-106.jpg	0.0	257.3607130114442	0.10834327953580214
342.0	171.0082376897999	house	0.0		47.0	place	house-64.jpg	0.0	257.46905629098	0.39164343873562757
342.0	171.39988112853553	ISI	1.0		5.0	place	house-64.jpg	0.0	257.86069972971563	0.11668450644265249
343.0	171.51656563497818	house	0.0		45.0	place	house-40.jpg	0.0	257.9773842361583	0.3833100601232218
343.0	171.50520190942916	pulse	0.0	t		place	house-40.jpg	0.0	257.96602051060927	
343.0	171.8998756951014	ISI	1.0		5.0	place	house-40.jpg	0.0	258.3606942962815	0.1083511278302467
344.0	172.00822682293165	house	0.0		47.0	place	house-124.jpg	0.0	258.46904542411175	0.3916340811547343
344.0	172.19999776625446	pulse	0.0	t		place	house-124.jpg	0.0	258.66081636743456	
344.0	172.39986090408638	ISI	1.0		6.0	place	house-124.jpg	0.0	258.8606795052665	0.10836108912644704
345.0	172.50822199321283	house	0.0		47.0	place	house-26.jpg	0.0	258.96904059439294	0.39164102387621824
345.0	172.89986301708905	ISI	1.0		5.0	place	house-26.jpg	0.0	259.36068161826915	0.10834961854288849
345.0	172.94951856755324	pulse	1.0	t		place	house-26.jpg	0.0	259.41033716873335	
346.0	173.00821263563193	house	0.0		47.0	place	house-73.jpg	0.0	259.46903123681204	0.39164615545269044
346.0	173.39985879108463	ISI	1.0		6.0	place	house-73.jpg	0.0	259.86067739226473	0.11669658073969913
347.0	173.51655537182432	house	0.0		46.0	place	house-104.jpg	0.0	259.97737397300443	0.38329436353706114
347.0	173.59998907275985	pulse	0.0	t		place	house-104.jpg	0.0	260.06080767393996	
347.0	173.89984973536139	ISI	1.0		6.0	place	house-104.jpg	0.0	260.3606683365415	0.11672948320210708
348.0	174.0165792185635	house	0.0		46.0	place	house-120.jpg	0.0	260.4773978197436	0.38327293165730225
348.0	174.29996661456607	pulse	0.0	t		place	house-120.jpg	0.0	260.7607852157462	
348.0	174.3998521502208	ISI	1.0		6.0	place	house-120.jpg	0.0	260.8606707514009	0.11668873244616407
349.0	174.51654088266696	house	0.0		46.0	place	house-44.jpg	0.0	260.97735948384707	0.3833348124344411
349.0	174.8998756951014	ISI	1.0		6.0	place	house-44.jpg	0.0	261.3606942962815	0.1250127534776766
350.0	175.02488844857908	house	0.0		44.0	place	house-83.jpg	0.0	261.4857070497592	0.37497879451439076
350.0	175.0101007539788	pulse	0.0	t		place	house-83.jpg	0.0	261.4709193551589	
350.0	175.39986724309347	ISI	1.0		6.0	place	house-83.jpg	0.0	261.8606858442736	0.11668360086969187
351.0	175.51655084396316	house	0.0		46.0	place	house-129.jpg	0.0	261.97736944514327	0.3832853078129119
351.0	175.69994433748616	pulse	0.0	t		place	house-129.jpg	0.0	262.16076293866627	
351.0	175.89983615177607	ISI	1.0		7.0	place	house-129.jpg	0.0	262.3606547529562	0.11668963801821519
352.0	176.0165257897943	house	0.0		46.0	place	house-79.jpg	0.0	262.4773443909744	0.38330402297560795
352.0	176.3998298127699	ISI	1.0		7.0	place	house-79.jpg	0.0	262.86064841395	0.11667484700319619
352.0	176.43898977971003	pulse	1.0	t		place	house-79.jpg	0.0	262.89980838089014	
353.0	176.5165046597731	house	0.0		46.0	place	house-45.jpg	0.0	262.9773232609532	0.38331066383852885
353.0	176.89981532361162	ISI	1.0		7.0	place	house-45.jpg	0.0	263.3606339247917	0.11670110860177374
354.0	177.0165164322134	house	0.0		46.0	place	house-128.jpg	0.0	263.4773350333935	0.3832991932558798
354.0	177.0999434922851	pulse	0.0	t		place	house-128.jpg	0.0	263.5607620934652	
354.0	177.39981562546927	ISI	1.0		5.0	place	house-128.jpg	0.0	263.8606342266494	0.11669627888295508
355.0	177.51651190435223	house	0.0		46.0	place	house-130.jpg	0.0	263.97733050553234	0.3832991932549703
355.0	177.79991952480395	pulse	0.0	t		place	house-130.jpg	0.0	264.26073812598406	
355.0	177.8998110976072	ISI	1.0		7.0	place	house-130.jpg	0.0	264.3606296987873	0.11667907300852676
356.0	178.01649017061573	house	0.0		46.0	place	house-11.jpg	0.0	264.47730877179583	0.38331519170060346
356.0	178.39980536231633	ISI	1.0		6.0	place	house-11.jpg	0.0	264.86062396349644	0.11668722315880586
357.0	178.51649258547513	house	0.0		45.0	place	house-67.jpg	0.0	264.97731118665524	0.3833058341197102
357.0	178.5069647569353	pulse	0.0	t		place	house-67.jpg	0.0	264.9677833581154	
357.0	178.89979841959484	ISI	1.0		6.0	place	house-67.jpg	0.0	265.36061702077495	0.11667726186260552
358.0	179.01647568145745	house	0.0		46.0	place	house-126.jpg	0.0	265.47729428263756	0.3833176065609223
358.0	179.19991143502375	pulse	0.0	t		place	house-126.jpg	0.0	265.66073003620386	
358.0	179.39979328801837	ISI	1.0		6.0	place	house-126.jpg	0.0	265.8606118891985	0.11668933616056165
359.0	179.51648262417893	house	0.0		46.0	place	house-25.jpg	0.0	265.97730122535904	0.3832982876838287
359.0	179.89978091186276	ISI	1.0		5.0	place	house-25.jpg	0.0	266.36059951304287	0.11669990117206908
359.0	179.94912162500714	pulse	1.0	t		place	house-25.jpg	0.0	266.40994022618725	
360.0	180.01648081303483	body	0.0		46.0	body	body-48.jpg	0.0	266.47729941421494	0.38329436353615165
360.0	180.39977517657098	ISI	1.0		6.0	body	body-48.jpg	0.0	266.8605937777511	0.116695675167648
361.0	180.51647085173863	body	0.0		46.0	body	body-76.jpg	0.0	266.97728945291874	0.383307947121466
361.0	180.59990817496328	pulse	0.0	t		body	body-76.jpg	0.0	267.0607267761434	
361.0	180.8997787988601	ISI	1.0		5.0	body	body-76.jpg	0.0	267.3605974000402	0.11668873244707356
362.0	181.01646753130717	body	0.0		46.0	body	body-37.jpg	0.0	267.4772861324873	0.3832976839685216
362.0	181.29990503564568	pulse	0.0	t		body	body-37.jpg	0.0	267.7607236368258	
362.0	181.3997652152757	ISI	1.0		7.0	body	body-37.jpg	0.0	267.8605838164558	0.11667997857966839
363.0	181.51644519385536	body	0.0		46.0	body	body-37.jpg	1.0	267.97726379503547	0.38334779230535787
363.0	181.89979298616072	ISI	1.0		5.0	body	body-37.jpg	1.0	268.3606115873408	0.11669990117206908
363.0	181.9749482465395	response	1.0	b		body	body-37.jpg	1.0	268.4357668477196	
364.0	182.0164928873328	body	0.0		45.0	body	body-56.jpg	0.0	268.4773114885129	0.3832865152426166
364.0	182.0065255543459	pulse	0.0	t		body	body-56.jpg	0.0	268.467344155526	
364.0	182.3997794025754	ISI	1.0		6.0	body	body-56.jpg	0.0	268.8605980037555	0.11670956061061588
365.0	182.51648896318602	body	0.0		46.0	body	body-78.jpg	0.0	268.97730756436613	0.3832674982231765
365.0	182.69989905886814	pulse	0.0	t		body	body-78.jpg	0.0	269.16071766004825	
365.0	182.8997564614092	ISI	1.0		6.0	body	body-78.jpg	0.0	269.3605750625893	0.11672767205709533
366.0	183.0164841334663	body	0.0		46.0	body	body-125.jpg	0.0	269.4773027346464	0.383289533817333
366.0	183.39977366728363	ISI	1.0		5.0	body	body-125.jpg	0.0	269.86059226846373	0.11670110860177374
366.0	183.4503550145464	pulse	1.0	t		body	body-125.jpg	0.0	269.9111736157265	
367.0	183.5164747758854	body	0.0		46.0	body	body-89.jpg	0.0	269.9772933770655	0.3833064378350173
367.0	183.89978121372042	ISI	1.0		6.0	body	body-89.jpg	0.0	270.3605998149005	0.1166727340014404
368.0	184.01645394772186	body	0.0		46.0	body	body-71.jpg	0.0	270.47727254890196	0.3833124749835406
368.0	184.0998924783762	pulse	0.0	t		body	body-71.jpg	0.0	270.5607110795563	
368.0	184.3997664227054	ISI	1.0		6.0	body	body-71.jpg	0.0	270.8605850238855	0.11668028043732193
369.0	184.51644670314272	body	0.0		46.0	body	body-21.jpg	0.0	270.9772653043228	0.3832756483743651
369.0	184.79983711772002	pulse	0.0	t		body	body-21.jpg	0.0	271.2606557189001	
369.0	184.89972235151708	ISI	1.0		5.0	body	body-21.jpg	0.0	271.3605409526972	0.11668450644265249
370.0	185.01640685795974	body	0.0		46.0	body	body-93.jpg	0.0	271.47722545913985	0.38331066383852885
370.0	185.39971752179827	ISI	1.0		6.0	body	body-93.jpg	0.0	271.8605361229784	0.11668873244616407
371.0	185.51640625424443	body	0.0		45.0	body	body-19.jpg	0.0	271.97722485542454	0.38331006012413127
371.0	185.5063323655777	pulse	0.0	t		body	body-19.jpg	0.0	271.9671509667578	
371.0	185.89971631436856	ISI	1.0		7.0	body	body-19.jpg	0.0	272.36053491554867	0.11667846929321968
372.0	186.01639478366178	car	0.0		46.0	object	car-27.jpg	0.0	272.4772133848419	0.383307947121466
372.0	186.1998272167957	pulse	0.0	t		object	car-27.jpg	0.0	272.6606458179758	
372.0	186.39970273078325	ISI	1.0		6.0	object	car-27.jpg	0.0	272.86052133196335	0.11668782687411294
373.0	186.51639055765736	car	0.0		46.0	object	car-89.jpg	0.0	272.97720915883747	0.3833163991303081
373.0	186.89970695678767	ISI	1.0		5.0	object	car-89.jpg	0.0	273.3605255579678	0.11670352346118307
373.0	186.9502723056048	pulse	1.0	t		object	car-89.jpg	0.0	273.4110909067849	
374.0	187.01641048024885	car	0.0		46.0	object	car-104.jpg	0.0	273.47722908142896	0.3832880245299748
374.0	187.39969850477883	ISI	1.0		6.0	object	car-104.jpg	0.0	273.86051710595893	0.11669205287853401
375.0	187.51639055765736	car	0.0		46.0	object	car-21.jpg	0.0	273.97720915883747	0.383304324832352
375.0	187.59982184373257	pulse	0.0	t		object	car-21.jpg	0.0	274.0606404449127	
375.0	187.8996948824897	ISI	1.0		5.0	object	car-21.jpg	0.0	274.3605134836698	0.11669084544791986
376.0	188.01638572793763	car	0.0		46.0	object	car-134.jpg	0.0	274.47720432911774	0.38330100440089154
376.0	188.29979666882173	pulse	0.0	t		object	car-134.jpg	0.0	274.76061527000184	
376.0	188.39968673233852	ISI	1.0		7.0	object	car-134.jpg	0.0	274.86050533351863	0.11669658073969913
377.0	188.51638331307822	car	0.0		46.0	object	car-65.jpg	0.0	274.97720191425833	0.383300702543238
377.0	188.89968401562146	ISI	1.0		6.0	object	car-65.jpg	0.0	275.36050261680157	0.11669446773794334
378.0	189.0163784833594	car	0.0		45.0	object	car-24.jpg	0.0	275.4771970845395	0.3832910431046912
378.0	189.00626656065378	pulse	0.0	t		object	car-24.jpg	0.0	275.4670851618339	
378.0	189.3996695264641	ISI	1.0		6.0	object	car-24.jpg	0.0	275.8604881276442	0.11668178972468013
379.0	189.51635131618877	car	0.0		46.0	object	car-108.jpg	0.0	275.9771699173689	0.383319115847371
379.0	189.69978918275683	pulse	0.0	t		object	car-108.jpg	0.0	276.16060778393694	
379.0	189.89967043203615	ISI	1.0		7.0	object	car-108.jpg	0.0	276.36048903321625	0.11669205287853401
380.0	190.01636248491468	car	0.0		46.0	object	car-92.jpg	0.0	276.4771810860948	0.3832871189570142
380.0	190.3996496038717	ISI	1.0		6.0	object	car-92.jpg	0.0	276.8604682050518	0.11671197547002521
380.0	190.4417563032357	pulse	1.0	t		object	car-92.jpg	0.0	276.9025749044158	
381.0	190.51636157934172	car	0.0		46.0	object	car-71.jpg	0.0	276.9771801805218	0.38332756785621314
381.0	190.89968914719793	ISI	1.0		7.0	object	car-71.jpg	0.0	277.36050774837804	0.11669718445500621
382.0	191.01638633165294	car	0.0		46.0	object	car-71.jpg	1.0	277.47720493283305	0.383296778395561
382.0	191.09979829885197	pulse	0.0	t		object	car-71.jpg	1.0	277.5606169000321	
382.0	191.3996831100485	ISI	1.0		5.0	object	car-71.jpg	1.0	277.8605017112286	0.11668058229588496
383.0	191.51636369234438	car	0.0		46.0	object	car-112.jpg	0.0	277.9771822935245	0.3833154935573475
383.0	191.74146150925026	response	0.0	b		object	car-112.jpg	0.0	278.20228011043037	
383.0	191.79977433136992	pulse	0.0	t		object	car-112.jpg	0.0	278.26059293255	
383.0	191.89967918590173	ISI	1.0		11.0	object	car-112.jpg	0.0	278.36049778708184	0.10003435137787164
384.0	191.9997135372796	baseline	0.0		48.0		baseline	0.0	278.4605321384597	0.39999583436747344
384.0	192.39970937164708	ISI	1.0		11.0		baseline	0.0	278.8605279728272	0.10000265634516836
385.0	192.49971202799225	baseline	0.0		47.0		baseline	0.0	278.96053062917235	0.3999828544974662
385.0	192.50418676282607	pulse	0.0	t			baseline	0.0	278.9650053640062	
385.0	192.8996948824897	ISI	1.0		11.0		baseline	0.0	279.3605134836698	0.10000658049193589
386.0	192.99970146298165	baseline	0.0		48.0		baseline	0.0	279.46052006416176	0.39998858978833596
386.0	193.19980638863126	pulse	0.0	t			baseline	0.0	279.66062498981137	
386.0	193.39969005276998	ISI	1.0		11.0		baseline	0.0	279.8605086539501	0.10000416563343606
387.0	193.49969421840342	baseline	0.0		48.0		baseline	0.0	279.9605128195835	0.3999985510836268
387.0	193.89969276948705	ISI	1.0		11.0		baseline	0.0	280.36051137066715	0.10002318265287613
387.0	193.90450226423218	pulse	1.0	t			baseline	0.0	280.3653208654123	
388.0	193.99971595213992	baseline	0.0		48.0		baseline	0.0	280.46053455332003	0.3999747043453681
388.0	194.3996906564853	ISI	1.0		11.0		baseline	0.0	280.8605092576654	0.09999178947691689
389.0	194.4996824459622	baseline	0.0		48.0		baseline	0.0	280.9605010471423	0.39999734365483164
389.0	194.59979709142226	pulse	0.0	t			baseline	0.0	281.06061569260237	
389.0	194.89967978961704	ISI	1.0		11.0		baseline	0.0	281.36049839079715	0.10000205263077078
390.0	194.9996818422478	baseline	0.0		48.0		baseline	0.0	281.4605004434279	0.3999910046477453
390.0	195.2997824815211	pulse	0.0	t			baseline	0.0	281.7606010827012	
