trial_nr	onset	event_type	phase	response	nr_frames	trial_type	stim_name	task_probe	onset_abs	duration
0.0	0.058222912996370724	baseline	0.0		700		baseline	0.0	23.058441756410502	5.841212350254409
0.0	0.6999010827771599	pulse	0.0	t			baseline	0.0	23.70011992619129	
0.0	1.3998604231801437	pulse	0.0	t			baseline	0.0	24.400079266594275	
0.0	2.0998414969976693	pulse	0.0	t			baseline	0.0	25.1000603404118	
0.0	2.7998059689016372	pulse	0.0	t			baseline	0.0	25.80002481231577	
0.0	3.499841376256427	pulse	0.0	t			baseline	0.0	26.50006021967056	
0.0	4.199777172126687	pulse	0.0	t			baseline	0.0	27.19999601554082	
0.0	4.899747077384291	pulse	0.0	t			baseline	0.0	27.899965920798422	
0.0	5.599739017909542	pulse	0.0	t			baseline	0.0	28.599957861323674	
0.0	5.89943526325078	ISI	1.0		4		baseline	0.0	28.89965410666491	0.12511413815991546
1.0	6.024549401410695	house	0.0		45	place	house-110.jpg	0.0	29.024768244824827	0.3748217180809661
1.0	6.299628328420113	pulse	0.0	t		place	house-110.jpg	0.0	29.299847171834244	
1.0	6.399371119491661	ISI	1.0		231	place	house-110.jpg	0.0	29.399589962905793	2.016626062409159
1.0	6.9998611476271435	pulse	1.0	t		place	house-110.jpg	0.0	30.000079991041275	
1.0	7.699831656590504	pulse	1.0	t		place	house-110.jpg	0.0	30.700050500004636	
2.0	8.41599718190082	limb	0.0		45	body	limb-36.jpg	0.0	31.416216025314952	0.38330771104574524
2.0	8.407956723941425	pulse	0.0	t		body	limb-36.jpg	0.0	31.408175567355556	
2.0	8.799304892946566	ISI	1.0		353	body	limb-36.jpg	0.0	31.799523736360698	3.0166085549362833
2.0	9.09960997575854	pulse	1.0	t		body	limb-36.jpg	0.0	32.09982881917267	
2.0	9.799573240250083	pulse	1.0	t		body	limb-36.jpg	0.0	32.799792083664215	
2.0	10.499560652980563	pulse	1.0	t		body	limb-36.jpg	0.0	33.499779496394694	
2.0	11.1995423305043	pulse	1.0	t		body	limb-36.jpg	0.0	34.19976117391843	
3.0	11.81591344788285	number	0.0		46	character	number-67.jpg	0.0	34.81613229129698	0.38333216113733215
3.0	11.899473900432895	pulse	0.0	t		character	number-67.jpg	0.0	34.89969274384703	
3.0	12.199245609020181	ISI	1.0		351	character	number-67.jpg	0.0	35.19946445243431	3.016607347524314
3.0	12.59957601729775	pulse	1.0	t		character	number-67.jpg	0.0	35.59979486071188	
3.0	13.299583956031256	pulse	1.0	t		character	number-67.jpg	0.0	36.29980279944539	
3.0	13.999527298225985	pulse	1.0	t		character	number-67.jpg	0.0	36.99974614164012	
3.0	14.69950837204351	pulse	1.0	t		character	number-67.jpg	0.0	37.69972721545764	
4.0	15.215852956544495	limb	0.0		47	body	limb-108.jpg	0.0	38.21607179995863	0.391599008835783
4.0	15.399375345433327	pulse	0.0	t		body	limb-108.jpg	0.0	38.39959418884746	
4.0	15.607451965380278	ISI	1.0		236	body	limb-108.jpg	0.0	38.60767080879441	2.0166339105867337
4.0	16.099409847229254	pulse	1.0	t		body	limb-108.jpg	0.0	39.099628690643385	
4.0	16.799406013696625	pulse	1.0	t		body	limb-108.jpg	0.0	39.79962485711076	
4.0	17.49936686336423	pulse	1.0	t		body	limb-108.jpg	0.0	40.49958570677836	
5.0	17.624085875967012	car	0.0		46	object	car-48.jpg	0.0	40.62430471938114	0.38330167398589765
5.0	18.00738754995291	ISI	1.0		236	object	car-48.jpg	0.0	41.00760639336704	2.016623949438781
5.0	18.199344918652514	pulse	1.0	t		object	car-48.jpg	0.0	41.199563762066646	
5.0	18.899330822117918	pulse	1.0	t		object	car-48.jpg	0.0	41.89954966553205	
5.0	19.599304349610975	pulse	1.0	t		object	car-48.jpg	0.0	42.59952319302511	
6.0	20.02401149939169	adult	0.0		46	face	adult-66.jpg	0.0	43.02423034280582	0.38330952216347214
6.0	20.29924527698222	pulse	0.0	t		face	adult-66.jpg	0.0	43.29946412039635	
6.0	20.407321021555163	ISI	1.0		472	face	adult-66.jpg	0.0	43.407539864969294	4.016612177172192
6.0	20.999282797307842	pulse	1.0	t		face	adult-66.jpg	0.0	43.999501640721974	
6.0	21.69912592431183	pulse	1.0	t		face	adult-66.jpg	0.0	44.69934476772596	
6.0	22.39911333704231	pulse	1.0	t		face	adult-66.jpg	0.0	45.39933218045644	
6.0	23.099084751564533	pulse	1.0	t		face	adult-66.jpg	0.0	46.099303594978664	
6.0	23.799060995734635	pulse	1.0	t		face	adult-66.jpg	0.0	46.79927983914877	
7.0	24.423933198727354	house	0.0		46	place	house-58.jpg	0.0	47.424152042141486	0.38327058312870577
7.0	24.499127493947526	pulse	0.0	t		place	house-58.jpg	0.0	47.49934633736166	
7.0	24.80720378185606	ISI	1.0		592	place	house-58.jpg	0.0	47.80742262527019	5.016549995456899
7.0	25.19916833465595	pulse	1.0	t		place	house-58.jpg	0.0	48.19938717807008	
7.0	25.89913401397189	pulse	1.0	t		place	house-58.jpg	0.0	48.89935285738602	
7.0	26.599123237820095	pulse	1.0	t		place	house-58.jpg	0.0	49.59934208123423	
7.0	27.299099783843303	pulse	1.0	t		place	house-58.jpg	0.0	50.299318627257435	
7.0	27.999083574337874	pulse	1.0	t		place	house-58.jpg	0.0	50.999302417752006	
7.0	28.69906887409752	pulse	1.0	t		place	house-58.jpg	0.0	51.69928771751165	
7.0	29.39904421270876	pulse	1.0	t		place	house-58.jpg	0.0	52.39926305612289	
8.0	29.82375377731296	limb	0.0		46	body	limb-68.jpg	0.0	52.82397262072709	0.3833022776921098
8.0	30.098977895608186	pulse	0.0	t		body	limb-68.jpg	0.0	53.09919673902232	
8.0	30.20705605500507	ISI	1.0		236	body	limb-68.jpg	0.0	53.2072748984192	2.024999162358199
8.0	30.79888531729739	pulse	1.0	t		body	limb-68.jpg	0.0	53.79910416071152	
8.0	31.498863372585674	pulse	1.0	t		body	limb-68.jpg	0.0	54.499082215999806	
8.0	32.198840824167746	pulse	1.0	t		body	limb-68.jpg	0.0	55.19905966758188	
9.0	32.23205521736327	adult	0.0		45	face	adult-87.jpg	0.0	55.2322740607774	0.3749666075132154
9.0	32.60702182487648	ISI	1.0		232	face	adult-87.jpg	0.0	55.607240668290615	2.0166333068809763
9.0	32.89883004801595	pulse	1.0	t		face	adult-87.jpg	0.0	55.899048891430084	
9.0	33.598799349567344	pulse	1.0	t		face	adult-87.jpg	0.0	56.599018192981475	
9.0	34.298784951180096	pulse	1.0	t		face	adult-87.jpg	0.0	57.29900379459423	
10.0	34.62365513175746	house	0.0		46	place	house-97.jpg	0.0	57.62387397517159	0.3832696775698423
10.0	34.99870535254786	pulse	0.0	t		place	house-97.jpg	0.0	57.99892419596199	
10.0	35.0069248093273	ISI	1.0		356	place	house-97.jpg	0.0	58.00714365274143	3.016591651169165
10.0	35.69868612451273	pulse	1.0	t		place	house-97.jpg	0.0	58.698904967926865	
10.0	36.3986665946245	pulse	1.0	t		place	house-97.jpg	0.0	59.39888543803863	
10.0	37.09864555547165	pulse	1.0	t		place	house-97.jpg	0.0	60.09886439888578	
10.0	37.79862089408289	pulse	1.0	t		place	house-97.jpg	0.0	60.79883973749702	
11.0	38.02351646049647	car	0.0		46	object	car-85.jpg	0.0	61.0237353039106	0.3833155592233197
11.0	38.406832019719786	ISI	1.0		236	object	car-85.jpg	0.0	61.40705086313392	2.0166317976159007
11.0	38.49862853096329	pulse	1.0	t		object	car-85.jpg	0.0	61.49884737437742	
11.0	39.19860266216256	pulse	1.0	t		object	car-85.jpg	0.0	62.19882150557669	
11.0	39.8985689451838	pulse	1.0	t		object	car-85.jpg	0.0	62.89878778859793	
12.0	40.42346381733569	adult	0.0		46	face	adult-104.jpg	0.0	63.42368266074982	0.38333608522634677
12.0	40.59856148941526	pulse	0.0	t		face	adult-104.jpg	0.0	63.59878033282939	
12.0	40.806799902562034	ISI	1.0		236	face	adult-104.jpg	0.0	63.807018745976166	2.016630590203931
12.0	41.29860685791891	pulse	1.0	t		face	adult-104.jpg	0.0	64.29882570133304	
12.0	41.99857314094061	pulse	1.0	t		face	adult-104.jpg	0.0	64.99879198435474	
12.0	42.69854697028677	pulse	1.0	t		face	adult-104.jpg	0.0	65.6987658137009	
13.0	42.823430492765965	adult	0.0		46	face	adult-44.jpg	0.0	65.8236493361801	0.3832696775698423
13.0	43.20670017033581	ISI	1.0		355	face	adult-44.jpg	0.0	66.20691901374994	3.016623043879463
13.0	43.39847944577377	pulse	1.0	t		face	adult-44.jpg	0.0	66.3986982891879	
13.0	44.09844633250168	pulse	1.0	t		face	adult-44.jpg	0.0	67.09866517591581	
13.0	44.79841472849421	pulse	1.0	t		face	adult-44.jpg	0.0	67.79863357190834	
13.0	45.49840244307734	pulse	1.0	t		face	adult-44.jpg	0.0	68.49862128649147	
13.0	46.19837868724744	pulse	1.0	t		face	adult-44.jpg	0.0	69.19859753066157	
14.0	46.22332321421527	number	0.0		46	character	number-7.jpg	0.0	69.2235420576294	0.3832826572479462
14.0	46.606605871463216	ISI	1.0		233	character	number-7.jpg	0.0	69.60682471487735	2.0166342124398398
14.0	46.89836277959512	pulse	1.0	t		character	number-7.jpg	0.0	69.89858162300925	
14.0	47.59834747564901	pulse	1.0	t		character	number-7.jpg	0.0	70.59856631906314	
14.0	48.29832854946699	pulse	1.0	t		character	number-7.jpg	0.0	71.29854739288112	
15.0	48.623240083903056	number	0.0		46	character	number-72.jpg	0.0	71.62345892731719	0.38333638707945283
15.0	48.99834795861398	pulse	0.0	t		character	number-72.jpg	0.0	71.99856680202811	
15.0	49.00657647098251	ISI	1.0		472	character	number-72.jpg	0.0	72.00679531439664	4.016580180755682
15.0	49.69839362897028	pulse	1.0	t		character	number-72.jpg	0.0	72.69861247238441	
15.0	50.39837772131796	pulse	1.0	t		character	number-72.jpg	0.0	73.39859656473209	
15.0	51.098343400633894	pulse	1.0	t		character	number-72.jpg	0.0	74.09856224404803	
15.0	51.79832538001028	pulse	1.0	t		character	number-72.jpg	0.0	74.79854422342441	
15.0	52.49829830379758	pulse	1.0	t		character	number-72.jpg	0.0	75.49851714721171	
16.0	53.02315665173819	limb	0.0		46	body	limb-142.jpg	0.0	76.02337549515232	0.3832669608927972
16.0	53.19823923116837	pulse	0.0	t		body	limb-142.jpg	0.0	76.1984580745825	
16.0	53.40642361263099	ISI	1.0		236	body	limb-142.jpg	0.0	76.40664245604512	2.016637230969991
16.0	53.89821607904469	pulse	1.0	t		body	limb-142.jpg	0.0	76.89843492245882	
16.0	54.5981554971504	pulse	1.0	t		body	limb-142.jpg	0.0	77.59837434056453	
16.0	55.29815709697141	pulse	1.0	t		body	limb-142.jpg	0.0	78.29837594038554	
17.0	55.42306084360098	car	0.0		46	object	car-61.jpg	0.0	78.42327968701511	0.38329533507339875
17.0	55.80635617867438	ISI	1.0		232	object	car-61.jpg	0.0	78.80657502208851	2.016632703174764
17.0	55.998147528231584	pulse	1.0	t		object	car-61.jpg	0.0	78.99836637164572	
17.0	56.698095096368434	pulse	1.0	t		object	car-61.jpg	0.0	79.69831393978257	
17.0	57.398143181548676	pulse	1.0	t		object	car-61.jpg	0.0	80.39836202496281	
18.0	57.82298888184914	house	0.0		46	place	house-8.jpg	0.0	80.82320772526327	0.3833028813983219
18.0	58.0980735440653	pulse	0.0	t		place	house-8.jpg	0.0	81.09829238747943	
18.0	58.206291763247464	ISI	1.0		356	place	house-8.jpg	0.0	81.2065106066616	3.0166384383815057
18.0	58.79805159935313	pulse	1.0	t		place	house-8.jpg	0.0	81.79827044276726	
18.0	59.498082177060496	pulse	1.0	t		place	house-8.jpg	0.0	82.49830102047463	
18.0	60.198061439760295	pulse	1.0	t		place	house-8.jpg	0.0	83.19828028317443	
18.0	60.898034363547595	pulse	1.0	t		place	house-8.jpg	0.0	83.89825320696173	
19.0	61.22293020162897	adult	0.0		46	face	adult-48.jpg	0.0	84.2231490450431	0.3832606219802983
19.0	61.597959594563235	pulse	0.0	t		face	adult-48.jpg	0.0	84.59817843797737	
19.0	61.60619082360927	ISI	1.0		355	face	adult-48.jpg	0.0	84.6064096670234	3.0166115734659797
19.0	62.29793734799841	pulse	1.0	t		face	adult-48.jpg	0.0	85.29815619141255	
19.0	62.99792657184662	pulse	1.0	t		face	adult-48.jpg	0.0	85.99814541526075	
19.0	63.69791338087134	pulse	1.0	t		face	adult-48.jpg	0.0	86.69813222428547	
19.0	64.39789203986538	pulse	1.0	t		face	adult-48.jpg	0.0	87.39811088327951	
20.0	64.62280239707525	car	0.0		46	object	car-123.jpg	0.0	87.62302124048938	0.3833034851040793
20.0	65.00610588217933	ISI	1.0		355	object	car-123.jpg	0.0	88.00632472559346	3.016629986497719
20.0	65.0978885081854	pulse	1.0	t		object	car-123.jpg	0.0	88.09810735159954	
20.0	65.79785328194203	pulse	1.0	t		object	car-123.jpg	0.0	88.79807212535616	
20.0	66.49783677058394	pulse	1.0	t		object	car-123.jpg	0.0	89.49805561399808	
20.0	67.19781603328374	pulse	1.0	t		object	car-123.jpg	0.0	90.19803487669788	
20.0	67.89786200549315	pulse	1.0	t		object	car-123.jpg	0.0	90.89808084890728	
21.0	68.02273586867705	car	0.0		46	object	car-144.jpg	0.0	91.02295471209118	0.38327812945362894
21.0	68.40601399813067	ISI	1.0		836	object	car-144.jpg	0.0	91.4062328415448	7.016528865748114
21.0	68.59779176430357	pulse	1.0	t		object	car-144.jpg	0.0	91.5980106077177	
21.0	69.29775804732526	pulse	1.0	t		object	car-144.jpg	0.0	92.29797689073939	
21.0	69.99774032855521	pulse	1.0	t		object	car-144.jpg	0.0	92.99795917196934	
21.0	70.69771747828418	pulse	1.0	t		object	car-144.jpg	0.0	93.69793632169831	
21.0	71.39770247619072	pulse	1.0	t		object	car-144.jpg	0.0	94.39792131960485	
21.0	72.09768324815559	pulse	1.0	t		object	car-144.jpg	0.0	95.09790209156972	
21.0	72.79766039788456	pulse	1.0	t		object	car-144.jpg	0.0	95.79787924129869	
21.0	73.49764328282026	pulse	1.0	t		object	car-144.jpg	0.0	96.4978621262344	
21.0	74.1976937828249	pulse	1.0	t		object	car-144.jpg	0.0	97.19791262623903	
21.0	74.89767938443765	pulse	1.0	t		object	car-144.jpg	0.0	97.89789822785178	
22.0	75.42254286387879	adult	0.0		46	face	adult-141.jpg	0.0	98.42276170729292	0.3832690738636302
22.0	75.59759706912837	pulse	0.0	t		face	adult-141.jpg	0.0	98.5978159125425	
22.0	75.80581193774242	ISI	1.0		232	face	adult-141.jpg	0.0	98.80603078115655	2.0166308920570373
22.0	76.2975787466521	pulse	1.0	t		face	adult-141.jpg	0.0	99.29779759006624	
22.0	76.9975450296738	pulse	1.0	t		face	adult-141.jpg	0.0	99.99776387308793	
22.0	77.69753214055163	pulse	1.0	t		face	adult-141.jpg	0.0	100.69775098396576	
23.0	77.82244282979946	number	0.0		46	character	number-46.jpg	0.0	100.82266167321359	0.38329473136764136
23.0	78.2057375611671	ISI	1.0		953	character	number-46.jpg	0.0	101.20595640458123	8.016510150862814
23.0	78.39752347737067	pulse	1.0	t		character	number-46.jpg	0.0	101.3977423207848	
23.0	79.0974921752163	pulse	1.0	t		character	number-46.jpg	0.0	102.09771101863043	
23.0	79.79747324903428	pulse	1.0	t		character	number-46.jpg	0.0	102.79769209244841	
23.0	80.49745794508772	pulse	1.0	t		character	number-46.jpg	0.0	103.49767678850185	
23.0	81.19743992446456	pulse	1.0	t		character	number-46.jpg	0.0	104.19765876787869	
23.0	81.8974849911151	pulse	1.0	t		character	number-46.jpg	0.0	104.89770383452924	
23.0	82.59746546122688	pulse	1.0	t		character	number-46.jpg	0.0	105.597684304641	
23.0	83.29746283510622	pulse	1.0	t		character	number-46.jpg	0.0	106.29768167852035	
23.0	83.99742308106806	pulse	1.0	t		character	number-46.jpg	0.0	106.9976419244822	
23.0	84.69740264562097	pulse	1.0	t		character	number-46.jpg	0.0	107.6976214890351	
23.0	85.39739851023478	pulse	1.0	t		character	number-46.jpg	0.0	108.39761735364891	
23.0	86.09736660437466	pulse	1.0	t		character	number-46.jpg	0.0	109.09758544778879	
24.0	86.22224771202991	number	0.0		46	character	number-79.jpg	0.0	109.22246655544404	0.3832684701578728
24.0	86.60551618218778	ISI	1.0		351	character	number-79.jpg	0.0	109.60573502560192	3.024939697319951
24.0	86.79728066682947	pulse	1.0	t		character	number-79.jpg	0.0	109.7974995102436	
24.0	87.49726415547138	pulse	1.0	t		character	number-79.jpg	0.0	110.49748299888552	
24.0	88.19724160705346	pulse	1.0	t		character	number-79.jpg	0.0	111.19746045046759	
24.0	88.89723264201984	pulse	1.0	t		character	number-79.jpg	0.0	111.89745148543398	
24.0	89.59719832133533	pulse	1.0	t		character	number-79.jpg	0.0	112.59741716474946	
25.0	89.63045587950774	limb	0.0		45	body	limb-61.jpg	0.0	112.63067472292187	0.3749690223376092
25.0	90.00542490184534	ISI	1.0		235	body	limb-61.jpg	0.0	113.00564374525948	2.0166311939096886
25.0	90.29719418594959	pulse	1.0	t		body	limb-61.jpg	0.0	113.29741302936372	
25.0	90.99716318564788	pulse	1.0	t		body	limb-61.jpg	0.0	113.99738202906201	
25.0	91.69715210764343	pulse	1.0	t		body	limb-61.jpg	0.0	114.69737095105756	
26.0	92.02205609575503	car	0.0		46	object	car-131.jpg	0.0	115.02227493916917	0.3833354815205894
26.0	92.39717151679042	pulse	0.0	t		object	car-131.jpg	0.0	115.39739036020455	
26.0	92.40539157727562	ISI	1.0		476	object	car-131.jpg	0.0	115.40561042068975	4.016576860372879
26.0	93.09718911481923	pulse	1.0	t		object	car-131.jpg	0.0	116.09740795823336	
26.0	93.79715811451797	pulse	1.0	t		object	car-131.jpg	0.0	116.7973769579321	
26.0	94.4971358679527	pulse	1.0	t		object	car-131.jpg	0.0	117.49735471136682	
26.0	95.19712026215348	pulse	1.0	t		object	car-131.jpg	0.0	118.19733910556761	
26.0	95.8970983174413	pulse	1.0	t		object	car-131.jpg	0.0	118.89731716085544	
27.0	96.4219684376485	car	0.0		46	object	car-42.jpg	0.0	119.42218728106263	0.38325609418507156
27.0	96.59702294475119	pulse	0.0	t		object	car-42.jpg	0.0	119.59724178816532	
27.0	96.80522453183357	ISI	1.0		352	object	car-42.jpg	0.0	119.8054433752477	3.0166200253497664
27.0	97.29700341486296	pulse	1.0	t		object	car-42.jpg	0.0	120.29722225827709	
27.0	97.99697362197321	pulse	1.0	t		object	car-42.jpg	0.0	120.99719246538734	
27.0	98.69696284582187	pulse	1.0	t		object	car-42.jpg	0.0	121.697181689236	
27.0	99.39693908999197	pulse	1.0	t		object	car-42.jpg	0.0	122.3971579334061	
28.0	99.82184455718334	house	0.0		46	place	house-134.jpg	0.0	122.82206340059747	0.3833004665743829
28.0	100.09692861569329	pulse	0.0	t		place	house-134.jpg	0.0	123.09714745910742	
28.0	100.20514502375772	ISI	1.0		236	place	house-134.jpg	0.0	123.20536386717185	2.0249677696474464
28.0	100.79690697283422	pulse	1.0	t		place	house-134.jpg	0.0	123.79712581624835	
28.0	101.49688744294644	pulse	1.0	t		place	house-134.jpg	0.0	124.49710628636058	
28.0	102.19686489452806	pulse	1.0	t		place	house-134.jpg	0.0	125.1970837379422	
29.0	102.23011279340517	house	0.0		45	place	house-134.jpg	1.0	125.2303316368193	0.374999811341695
29.0	102.60511260474686	ISI	1.0		233	place	house-134.jpg	1.0	125.605331448161	2.0166333068809763
29.0	102.8635862972028	response	1.0	b		place	house-134.jpg	1.0	125.86380514061693	
29.0	102.89690241485414	pulse	1.0	t		place	house-134.jpg	1.0	125.89712125826827	
29.0	103.59688952573197	pulse	1.0	t		place	house-134.jpg	1.0	126.5971083691461	
29.0	104.29687331622654	pulse	1.0	t		place	house-134.jpg	1.0	127.29709215964067	
30.0	104.62174591162784	number	0.0		46	character	number-125.jpg	0.0	127.62196475504197	0.3832702812755997
30.0	104.99679552871248	pulse	0.0	t		character	number-125.jpg	0.0	127.99701437212661	
30.0	105.00501619290344	ISI	1.0		473	character	number-125.jpg	0.0	128.00523503631757	4.016578369637955
30.0	105.6967663395285	pulse	1.0	t		character	number-125.jpg	0.0	128.69698518294263	
30.0	106.39674439481678	pulse	1.0	t		character	number-125.jpg	0.0	129.3969632382309	
30.0	107.09674991872635	pulse	1.0	t		character	number-125.jpg	0.0	130.09696876214048	
30.0	107.79671318321789	pulse	1.0	t		character	number-125.jpg	0.0	130.79693202663202	
30.0	108.49672564974617	pulse	1.0	t		character	number-125.jpg	0.0	131.4969444931603	
31.0	109.0215945625414	house	0.0		46	place	house-19.jpg	0.0	132.02181340595553	0.38330318325097323
31.0	109.19668136791324	pulse	0.0	t		place	house-19.jpg	0.0	132.19690021132737	
31.0	109.40489774579237	ISI	1.0		713	place	house-19.jpg	0.0	132.4051165892065	6.016554523251671
31.0	109.89666364914319	pulse	1.0	t		place	house-19.jpg	0.0	132.89688249255732	
31.0	110.59663174328261	pulse	1.0	t		place	house-19.jpg	0.0	133.59685058669675	
31.0	111.29668284699301	pulse	1.0	t		place	house-19.jpg	0.0	134.29690169040714	
31.0	111.99665999672197	pulse	1.0	t		place	house-19.jpg	0.0	134.9968788401361	
31.0	112.69664227795192	pulse	1.0	t		place	house-19.jpg	0.0	135.69686112136606	
31.0	113.3966293888293	pulse	1.0	t		place	house-19.jpg	0.0	136.39684823224343	
31.0	114.09660834967644	pulse	1.0	t		place	house-19.jpg	0.0	137.09682719309058	
31.0	114.79658217902261	pulse	1.0	t		place	house-19.jpg	0.0	137.79680102243674	
32.0	115.42145226904404	number	0.0		46	character	number-123.jpg	0.0	138.42167111245817	0.38330076842748895
32.0	115.49657110101816	pulse	0.0	t		character	number-123.jpg	0.0	138.4967899444323	
32.0	115.80475303747153	ISI	1.0		232	character	number-123.jpg	0.0	138.80497188088566	2.0166354198518093
32.0	116.19656304154341	pulse	1.0	t		character	number-123.jpg	0.0	139.19678188495755	
32.0	116.896529022712	pulse	1.0	t		character	number-123.jpg	0.0	139.89674786612613	
32.0	117.59650556873521	pulse	1.0	t		character	number-123.jpg	0.0	140.59672441214934	
33.0	117.82138845732334	number	0.0		46	character	number-53.jpg	0.0	140.82160730073747	0.38330046657392813
33.0	118.20468892389727	ISI	1.0		351	character	number-53.jpg	0.0	141.2049077673114	3.0166067438185564
33.0	118.29650475373182	pulse	1.0	t		character	number-53.jpg	0.0	141.29672359714596	
33.0	118.99646801822382	pulse	1.0	t		character	number-53.jpg	0.0	141.99668686163795	
33.0	119.69644999760067	pulse	1.0	t		character	number-53.jpg	0.0	142.6966688410148	
33.0	120.39643891959577	pulse	1.0	t		character	number-53.jpg	0.0	143.3966577630099	
33.0	121.09642180453147	pulse	1.0	t		character	number-53.jpg	0.0	144.0966406479456	
34.0	121.22129566771582	limb	0.0		46	body	limb-20.jpg	0.0	144.22151451112995	0.38329774989688303
34.0	121.6045934176127	ISI	1.0		232	body	limb-20.jpg	0.0	144.60481226102684	2.0166251568507505
34.0	121.79641102838013	pulse	1.0	t		body	limb-20.jpg	0.0	144.79662987179427	
34.0	122.49638032993153	pulse	1.0	t		body	limb-20.jpg	0.0	145.49659917334566	
34.0	123.19634359442352	pulse	1.0	t		body	limb-20.jpg	0.0	146.19656243783766	
35.0	123.62121857446346	house	0.0		46	place	house-44.jpg	0.0	146.6214374178776	0.3833086166046087
35.0	123.89631168856295	pulse	0.0	t		place	house-44.jpg	0.0	146.89653053197708	
35.0	124.00452719106806	ISI	1.0		232	place	house-44.jpg	0.0	147.0047460344822	2.024973203001082
35.0	124.59633139956259	pulse	1.0	t		place	house-44.jpg	0.0	147.59655024297672	
35.0	125.29630764373269	pulse	1.0	t		place	house-44.jpg	0.0	148.29652648714682	
35.0	125.99627754899029	pulse	1.0	t		place	house-44.jpg	0.0	148.99649639240442	
36.0	126.02950039406915	car	0.0		45	object	car-11.jpg	0.0	149.02971923748328	0.37496479639594327
36.0	126.40446519046509	ISI	1.0		235	object	car-11.jpg	0.0	149.40468403387922	2.016632401321658
36.0	126.69627039507441	pulse	1.0	t		object	car-11.jpg	0.0	149.69648923848854	
36.0	127.39625358186322	pulse	1.0	t		object	car-11.jpg	0.0	150.39647242527735	
36.0	128.09622469453234	pulse	1.0	t		object	car-11.jpg	0.0	151.09644353794647	
37.0	128.42109759178675	car	0.0		46	object	car-72.jpg	0.0	151.42131643520088	0.3832808461302193
37.0	128.7961770923166	pulse	0.0	t		object	car-72.jpg	0.0	151.79639593573074	
37.0	128.80437843791697	ISI	1.0		235	object	car-72.jpg	0.0	151.8045972813311	2.0166544365902155
37.0	129.4961862384621	pulse	1.0	t		object	car-72.jpg	0.0	152.49640508187622	
37.0	130.19617244378105	pulse	1.0	t		object	car-72.jpg	0.0	153.19639128719518	
38.0	130.82103287450718	number	0.0		46	character	number-126.jpg	0.0	153.8212517179213	0.3833010702796855
38.0	130.8961574416876	pulse	0.0	t		character	number-126.jpg	0.0	153.89637628510172	
38.0	131.20433394478687	ISI	1.0		352	character	number-126.jpg	0.0	154.204552788201	3.016608253083632
38.0	131.5961397229171	pulse	1.0	t		character	number-126.jpg	0.0	154.59635856633122	
38.0	132.29611083558666	pulse	1.0	t		character	number-126.jpg	0.0	155.2963296790008	
38.0	132.99608768346252	pulse	1.0	t		character	number-126.jpg	0.0	155.99630652687665	
38.0	133.6960687572805	pulse	1.0	t		character	number-126.jpg	0.0	156.69628760069463	
39.0	134.2209421978705	house	0.0		46	place	house-83.jpg	0.0	157.22116104128463	0.38326786645166067
39.0	134.39599610126697	pulse	0.0	t		place	house-83.jpg	0.0	157.3962149446811	
39.0	134.60421006432216	ISI	1.0		593	place	house-83.jpg	0.0	157.6044289077363	5.016550901015762
39.0	135.09597536396723	pulse	1.0	t		place	house-83.jpg	0.0	158.09619420738136	
39.0	135.7959443636655	pulse	1.0	t		place	house-83.jpg	0.0	158.79616320707964	
39.0	136.49592755045433	pulse	1.0	t		place	house-83.jpg	0.0	159.49614639386846	
39.0	137.1959083224192	pulse	1.0	t		place	house-83.jpg	0.0	160.19612716583333	
39.0	137.89588486844195	pulse	1.0	t		place	house-83.jpg	0.0	160.89610371185609	
39.0	138.59586896078963	pulse	1.0	t		place	house-83.jpg	0.0	161.59608780420376	
39.0	139.29585063831382	pulse	1.0	t		place	house-83.jpg	0.0	162.29606948172795	
40.0	139.62076096533792	limb	0.0		46	body	limb-23.jpg	0.0	162.62097980875205	0.3833034851040793
40.0	139.99582446766	pulse	0.0	t		body	limb-23.jpg	0.0	162.99604331107412	
40.0	140.004064450442	ISI	1.0		595	body	limb-23.jpg	0.0	163.00428329385613	5.016570219607274
40.0	140.69588764548962	pulse	1.0	t		body	limb-23.jpg	0.0	163.69610648890375	
40.0	141.39586962486646	pulse	1.0	t		body	limb-23.jpg	0.0	164.3960884682806	
40.0	142.0958473783012	pulse	1.0	t		body	limb-23.jpg	0.0	165.09606622171532	
40.0	142.79582271691243	pulse	1.0	t		body	limb-23.jpg	0.0	165.79604156032656	
40.0	143.49580590370124	pulse	1.0	t		body	limb-23.jpg	0.0	166.49602474711537	
40.0	144.19578244972445	pulse	1.0	t		body	limb-23.jpg	0.0	167.19600129313858	
40.0	144.89576563651326	pulse	1.0	t		body	limb-23.jpg	0.0	167.8959844799274	
41.0	145.02063467004928	number	0.0		46	character	number-131.jpg	0.0	168.0208535134634	0.38328114798332535
41.0	145.4039158180326	ISI	1.0		233	character	number-131.jpg	0.0	168.40413466144673	2.0166314957627947
41.0	145.59569147123466	pulse	1.0	t		character	number-131.jpg	0.0	168.5959103146488	
41.0	146.2956616783449	pulse	1.0	t		character	number-131.jpg	0.0	169.29588052175905	
41.0	146.99563792251502	pulse	1.0	t		character	number-131.jpg	0.0	169.99585676592915	
42.0	147.4205473137954	limb	0.0		46	body	limb-74.jpg	0.0	170.42076615720953	0.3833034851040793
42.0	147.69563378712928	pulse	0.0	t		body	limb-74.jpg	0.0	170.6958526305434	
42.0	147.80385079889948	ISI	1.0		355	body	limb-74.jpg	0.0	170.8040696423136	3.0166061401123443
42.0	148.3956118424171	pulse	1.0	t		body	limb-74.jpg	0.0	171.39583068583124	
42.0	149.09559019955805	pulse	1.0	t		body	limb-74.jpg	0.0	172.09580904297218	
42.0	149.7955610103745	pulse	1.0	t		body	limb-74.jpg	0.0	172.79577985378864	
42.0	150.49554993237007	pulse	1.0	t		body	limb-74.jpg	0.0	173.4957687757842	
43.0	150.82045693901182	limb	0.0		46	body	limb-74.jpg	1.0	173.82067578242595	0.3833342741081651
43.0	151.19557236004675	pulse	0.0	t		body	limb-74.jpg	1.0	174.19579120346089	
43.0	151.20379121311998	ISI	1.0		232	body	limb-74.jpg	1.0	174.20401005653412	2.0166311939101433
43.0	151.65391589349565	response	1.0	b		body	limb-74.jpg	1.0	174.65413473690978	
43.0	151.89556520613132	pulse	1.0	t		body	limb-74.jpg	1.0	174.89578404954545	
43.0	152.5955559392446	pulse	1.0	t		body	limb-74.jpg	1.0	175.59577478265874	
44.0	153.22042240703013	house	0.0		46	place	house-91.jpg	0.0	176.22064125044426	0.3832684701578728
44.0	153.29548449064305	pulse	0.0	t		place	house-91.jpg	0.0	176.29570333405718	
44.0	153.603690877188	ISI	1.0		355	place	house-91.jpg	0.0	176.60390972060213	3.0166109697602224
44.0	153.9954583199892	pulse	1.0	t		place	house-91.jpg	0.0	176.99567716340334	
44.0	154.69542852709947	pulse	1.0	t		place	house-91.jpg	0.0	177.6956473705136	
44.0	155.39541926021275	pulse	1.0	t		place	house-91.jpg	0.0	178.39563810362688	
44.0	156.0953949006771	pulse	1.0	t		place	house-91.jpg	0.0	179.09561374409122	
45.0	156.62030184694822	limb	0.0		46	body	limb-28.jpg	0.0	179.62052069036235	0.3832968443380196
45.0	156.7953777856128	pulse	0.0	t		body	limb-28.jpg	0.0	179.79559662902693	
45.0	157.00359869128624	ISI	1.0		476	body	limb-28.jpg	0.0	180.00381753470037	4.024936075084497
45.0	157.49536580204904	pulse	1.0	t		body	limb-28.jpg	0.0	180.49558464546317	
45.0	158.19533902768944	pulse	1.0	t		body	limb-28.jpg	0.0	181.19555787110357	
45.0	158.89532372374333	pulse	1.0	t		body	limb-28.jpg	0.0	181.89554256715746	
45.0	159.59536909224698	pulse	1.0	t		body	limb-28.jpg	0.0	182.59558793566111	
45.0	160.29535288274155	pulse	1.0	t		body	limb-28.jpg	0.0	183.29557172615569	
45.0	160.9953297306174	pulse	1.0	t		body	limb-28.jpg	0.0	183.99554857403155	
46.0	161.02853476637074	adult	0.0		45	face	adult-69.jpg	0.0	184.02875360978487	0.3749774742209411
46.0	161.40351224059168	ISI	1.0		475	face	adult-69.jpg	0.0	184.4037310840058	4.016580784461439
46.0	161.6953210674369	pulse	1.0	t		face	adult-69.jpg	0.0	184.69553991085104	
46.0	162.3953003301367	pulse	1.0	t		face	adult-69.jpg	0.0	185.39551917355084	
46.0	163.09526812242348	pulse	1.0	t		face	adult-69.jpg	0.0	186.0954869658376	
46.0	163.79525161106494	pulse	1.0	t		face	adult-69.jpg	0.0	186.79547045447907	
46.0	164.49523359044179	pulse	1.0	t		face	adult-69.jpg	0.0	187.49545243385592	
46.0	165.19522251243734	pulse	1.0	t		face	adult-69.jpg	0.0	188.19544135585147	
47.0	165.42009302505312	adult	0.0		46	face	adult-55.jpg	0.0	188.42031186846725	0.38326816830476673
47.0	165.8033611933579	ISI	1.0		233	face	adult-55.jpg	0.0	188.80358003677202	2.01663028835128
47.0	165.8951296322739	pulse	1.0	t		face	adult-55.jpg	0.0	188.89534847568802	
47.0	166.59510708385596	pulse	1.0	t		face	adult-55.jpg	0.0	189.5953259272701	
47.0	167.2950887613797	pulse	1.0	t		face	adult-55.jpg	0.0	190.29530760479383	
48.0	167.81999148170917	house	0.0		46	place	house-102.jpg	0.0	190.8202103251233	0.38330348510362455
48.0	167.99507768337526	pulse	0.0	t		place	house-102.jpg	0.0	190.9952965267894	
48.0	168.2032949668128	ISI	1.0		475	place	house-102.jpg	0.0	191.20351381022692	4.024943017702753
48.0	168.69506177572293	pulse	1.0	t		place	house-102.jpg	0.0	191.69528061913707	
48.0	169.39503379395137	pulse	1.0	t		place	house-102.jpg	0.0	192.3952526373655	
48.0	170.09501577332776	pulse	1.0	t		place	house-102.jpg	0.0	193.0952346167419	
48.0	170.79498930082127	pulse	1.0	t		place	house-102.jpg	0.0	193.7952081442354	
48.0	171.49504372491447	pulse	1.0	t		place	house-102.jpg	0.0	194.4952625683286	
48.0	172.19502691170328	pulse	1.0	t		place	house-102.jpg	0.0	195.1952457551174	
49.0	172.22823798451554	car	0.0		45	object	car-43.jpg	0.0	195.22845682792968	0.37496872048450314
49.0	172.60320670500005	ISI	1.0		232	object	car-43.jpg	0.0	195.60342554841418	2.0166474939715044
49.0	172.89502126705247	pulse	1.0	t		object	car-43.jpg	0.0	195.8952401104666	
49.0	173.59499690751636	pulse	1.0	t		object	car-43.jpg	0.0	196.5952157509305	
49.0	174.29497103871563	pulse	1.0	t		object	car-43.jpg	0.0	197.29518988212976	
50.0	174.61985419897155	limb	0.0		46	body	limb-84.jpg	0.0	197.62007304238568	0.3832385867121957
50.0	174.99488570487665	pulse	0.0	t		body	limb-84.jpg	0.0	197.99510454829078	
50.0	175.00309278568375	ISI	1.0		232	body	limb-84.jpg	0.0	198.00331162909788	2.0166450791471107
50.0	175.69486315645872	pulse	1.0	t		body	limb-84.jpg	0.0	198.69508199987285	
50.0	176.3948445321298	pulse	1.0	t		body	limb-84.jpg	0.0	199.39506337554394	
51.0	177.01973786483086	number	0.0		46	character	number-41.jpg	0.0	200.019956708245	0.3833074091930939
51.0	177.094855489393	pulse	0.0	t		character	number-41.jpg	0.0	200.09507433280714	
51.0	177.40304527402395	ISI	1.0		235	character	number-41.jpg	0.0	200.40326411743808	2.0166293827919617
51.0	177.7948115094132	pulse	1.0	t		character	number-41.jpg	0.0	200.79503035282733	
51.0	178.49478624431822	pulse	1.0	t		character	number-41.jpg	0.0	201.49500508773235	
51.0	179.1947603755175	pulse	1.0	t		character	number-41.jpg	0.0	202.19497921893162	
52.0	179.4196746568159	adult	0.0		46	face	adult-54.jpg	0.0	202.41989350023005	0.3833049943691549
52.0	179.80297965118507	ISI	1.0		233	face	adult-54.jpg	0.0	202.8031984945992	2.0166646995912743
52.0	179.8947535234547	pulse	1.0	t		face	adult-54.jpg	0.0	202.89497236686884	
52.0	180.59472735280087	pulse	1.0	t		face	adult-54.jpg	0.0	203.594946196215	
52.0	181.29478207874718	pulse	1.0	t		face	adult-54.jpg	0.0	204.2950009221613	
53.0	181.81964435077634	limb	0.0		46	body	limb-64.jpg	0.0	204.81986319419048	0.3832687720105241
53.0	181.99469614120244	pulse	0.0	t		body	limb-64.jpg	0.0	204.99491498461657	
53.0	182.20291312278687	ISI	1.0		713	body	limb-64.jpg	0.0	205.203131966201	6.016556938076064
53.0	182.69467691316686	pulse	1.0	t		body	limb-64.jpg	0.0	205.694895756581	
53.0	183.39465044066037	pulse	1.0	t		body	limb-64.jpg	0.0	206.3948692840745	
53.0	184.0946287978013	pulse	1.0	t		body	limb-64.jpg	0.0	207.09484764121544	
53.0	184.79460745679535	pulse	1.0	t		body	limb-64.jpg	0.0	207.79482630020948	
53.0	185.49459486952583	pulse	1.0	t		body	limb-64.jpg	0.0	208.49481371293996	
53.0	186.19458771560994	pulse	1.0	t		body	limb-64.jpg	0.0	209.19480655902407	
53.0	186.89455731901444	pulse	1.0	t		body	limb-64.jpg	0.0	209.89477616242857	
53.0	187.59455167436363	pulse	1.0	t		body	limb-64.jpg	0.0	210.59477051777776	
54.0	188.21947006086293	number	0.0		46	character	number-108.jpg	0.0	211.21968890427706	0.38326786645166067
54.0	188.29452640926866	pulse	0.0	t		character	number-108.jpg	0.0	211.2947452526828	
54.0	188.6027379273146	ISI	1.0		236	character	number-108.jpg	0.0	211.60295677072872	2.0166206290555238
54.0	188.9945050682627	pulse	1.0	t		character	number-108.jpg	0.0	211.99472391167683	
54.0	189.6944810105797	pulse	1.0	t		character	number-108.jpg	0.0	212.69469985399382	
54.0	190.39444880286646	pulse	1.0	t		character	number-108.jpg	0.0	213.3946676462806	
55.0	190.61935855637012	car	0.0		46	object	car-87.jpg	0.0	213.61957739978425	0.3833158610764258
55.0	191.00267441744654	ISI	1.0		236	object	car-87.jpg	0.0	214.00289326086067	2.0166311939101433
55.0	191.09445402492292	pulse	1.0	t		object	car-87.jpg	0.0	214.09467286833706	
55.0	191.79442211906235	pulse	1.0	t		object	car-87.jpg	0.0	214.79464096247648	
55.0	192.49440349473343	pulse	1.0	t		object	car-87.jpg	0.0	215.49462233814756	
56.0	193.01930561135669	adult	0.0		46	face	adult-110.jpg	0.0	216.01952445477082	0.38330288139786717
56.0	193.1943987556415	pulse	0.0	t		face	adult-110.jpg	0.0	216.19461759905562	
56.0	193.40260849275455	ISI	1.0		236	face	adult-110.jpg	0.0	216.40282733616868	2.01666620885635
56.0	193.89437590537045	pulse	1.0	t		face	adult-110.jpg	0.0	216.89459474878458	
56.0	194.59441523681426	pulse	1.0	t		face	adult-110.jpg	0.0	217.5946340802284	
56.0	195.29440536622178	pulse	1.0	t		face	adult-110.jpg	0.0	218.2946242096359	
57.0	195.4192747016109	adult	0.0		46	face	adult-110.jpg	1.0	218.41949354502503	0.3832669608927972
57.0	195.8025416625037	ISI	1.0		233	face	adult-110.jpg	1.0	218.80276050591783	2.0166317976163555
57.0	195.99431761755932	pulse	1.0	t		face	adult-110.jpg	1.0	218.99453646097345	
57.0	196.06931359536793	response	1.0	b		face	adult-110.jpg	1.0	219.06953243878206	
57.0	196.6942835987279	pulse	1.0	t		face	adult-110.jpg	1.0	219.69450244214204	
57.0	197.39427704851778	pulse	1.0	t		face	adult-110.jpg	1.0	220.3944958919319	
58.0	197.81917346012006	car	0.0		46	object	car-28.jpg	0.0	220.8193923035342	0.3833052962218062
58.0	198.09425963160083	pulse	0.0	t		object	car-28.jpg	0.0	221.09447847501497	
58.0	198.20247875634186	ISI	1.0		353	object	car-28.jpg	0.0	221.202697599756	3.0166043289941626
58.0	198.7942401017126	pulse	1.0	t		object	car-28.jpg	0.0	221.79445894512673	
58.0	199.49421091252907	pulse	1.0	t		object	car-28.jpg	0.0	222.4944297559432	
58.0	200.19419530672985	pulse	1.0	t		object	car-28.jpg	0.0	223.19441415014398	
58.0	200.89416792866405	pulse	1.0	t		object	car-28.jpg	0.0	223.89438677207818	
59.0	201.21908308533602	house	0.0		46	place	house-74.jpg	0.0	224.21930192875016	0.38333457596172593
59.0	201.5941951859886	pulse	0.0	t		place	house-74.jpg	0.0	224.59441402940274	
59.0	201.60241766129775	ISI	1.0		235	place	house-74.jpg	0.0	224.60263650471188	2.0166330050278702
59.0	202.29421006734083	pulse	1.0	t		place	house-74.jpg	0.0	225.29442891075496	
59.0	202.99418148186305	pulse	1.0	t		place	house-74.jpg	0.0	225.99440032527718	
60.0	203.61905066632562	car	0.0		46	object	car-119.jpg	0.0	226.61926950973975	0.3832684701578728
60.0	203.69410550546672	pulse	0.0	t		object	car-119.jpg	0.0	226.69432434888085	
60.0	204.0023191364835	ISI	1.0		232	object	car-119.jpg	0.0	227.00253797989762	2.0166317976159007
60.0	204.39408567372539	pulse	1.0	t		object	car-119.jpg	0.0	227.39430451713952	
60.0	205.09406644569026	pulse	1.0	t		object	car-119.jpg	0.0	228.0942852891044	
60.0	205.79403453982968	pulse	1.0	t		object	car-119.jpg	0.0	228.7942533832438	
61.0	206.0189509340994	adult	0.0		46	face	adult-12.jpg	0.0	229.01916977751353	0.38330257954521585
61.0	206.4022535136446	ISI	1.0		591	face	adult-12.jpg	0.0	229.40247235705874	5.016730503542021
61.0	206.49403915818039	pulse	1.0	t		face	adult-12.jpg	0.0	229.49425800159452	
61.0	207.19400725232026	pulse	1.0	t		face	adult-12.jpg	0.0	230.1942260957344	
61.0	207.8939804779602	pulse	1.0	t		face	adult-12.jpg	0.0	230.89419932137434	
61.0	208.59396879624956	pulse	1.0	t		face	adult-12.jpg	0.0	231.5941876396637	
61.0	209.29394594597898	pulse	1.0	t		face	adult-12.jpg	0.0	232.2941647893931	
61.0	209.9939988608071	pulse	1.0	t		face	adult-12.jpg	0.0	232.99421770422123	
61.0	210.69397389756523	pulse	1.0	t		face	adult-12.jpg	0.0	233.69419274097936	
61.0	211.3939576880598	pulse	1.0	t		face	adult-12.jpg	0.0	234.39417653147393	
62.0	211.41898401718663	house	0.0		46	place	house-34.jpg	0.0	234.41920286060076	0.3831275048137286
62.0	211.80211152200036	ISI	1.0		352	place	house-34.jpg	0.0	234.8023303654145	3.0082683569630717
62.0	212.09387476904476	pulse	1.0	t		place	house-34.jpg	0.0	235.0940936124589	
62.0	212.79384527800812	pulse	1.0	t		place	house-34.jpg	0.0	235.79406412142225	
62.0	213.4938293703558	pulse	1.0	t		place	house-34.jpg	0.0	236.49404821376993	
62.0	214.19380742564408	pulse	1.0	t		place	house-34.jpg	0.0	237.1940262690582	
63.0	214.81037987896343	number	0.0		47	character	number-32.jpg	0.0	237.81059872237756	0.3916352311935043
63.0	214.89380902546463	pulse	0.0	t		character	number-32.jpg	0.0	237.89402786887877	
63.0	215.20201511015694	ISI	1.0		230	character	number-32.jpg	0.0	238.20223395357107	2.008297938555188
63.0	215.59378104369307	pulse	1.0	t		character	number-32.jpg	0.0	238.5939998871072	
63.0	216.29375879712825	pulse	1.0	t		character	number-32.jpg	0.0	239.29397764054238	
63.0	216.99373323018017	pulse	1.0	t		character	number-32.jpg	0.0	239.9939520735943	
64.0	217.21031304871212	limb	0.0		47	body	limb-60.jpg	0.0	240.21053189212626	0.39166873687508996
64.0	217.6019817855872	ISI	1.0		354	body	limb-60.jpg	0.0	240.60220062900135	3.0166037252884053
64.0	217.6937967098629	pulse	1.0	t		body	limb-60.jpg	0.0	240.69401555327704	
64.0	218.39377053920907	pulse	1.0	t		body	limb-60.jpg	0.0	241.3939893826232	
64.0	219.09375131117395	pulse	1.0	t		body	limb-60.jpg	0.0	242.09397015458808	
64.0	219.7937236312555	pulse	1.0	t		body	limb-60.jpg	0.0	242.79394247466962	
64.0	220.493713760663	pulse	1.0	t		body	limb-60.jpg	0.0	243.49393260407714	
65.0	220.61858551087562	adult	0.0		46	face	adult-72.jpg	0.0	243.61880435428975	0.38330107028014027
65.0	221.00188658115576	ISI	1.0		479	face	adult-72.jpg	0.0	244.0021054245699	3.999930573813799
65.0	221.1937044937763	pulse	1.0	t		face	adult-72.jpg	0.0	244.19392333719043	
65.0	221.89367107865064	pulse	1.0	t		face	adult-72.jpg	0.0	244.89388992206477	
65.0	222.59365275617438	pulse	1.0	t		face	adult-72.jpg	0.0	245.5938715995885	
65.0	223.29363413184547	pulse	1.0	t		face	adult-72.jpg	0.0	246.2938529752596	
65.0	223.9936121871333	pulse	1.0	t		face	adult-72.jpg	0.0	246.99383103054743	
65.0	224.69358088497893	pulse	1.0	t		face	adult-72.jpg	0.0	247.69379972839306	
66.0	225.00181715496956	baseline	0.0		708		baseline	0.0	248.0020359983837	5.899828879542838
66.0	225.39357886256403	pulse	0.0	t			baseline	0.0	248.39379770597816	
66.0	226.0935557104399	pulse	0.0	t			baseline	0.0	249.09377455385402	
66.0	226.79353708611052	pulse	0.0	t			baseline	0.0	249.79375592952465	
66.0	227.49355287302205	pulse	0.0	t			baseline	0.0	250.49377171643619	
66.0	228.19350527080633	pulse	0.0	t			baseline	0.0	251.19372411422046	
66.0	228.8934791001525	pulse	0.0	t			baseline	0.0	251.89369794356662	
66.0	229.59346258879395	pulse	0.0	t			baseline	0.0	252.5936814322081	
66.0	230.29344547372966	pulse	0.0	t			baseline	0.0	253.2936643171438	
66.0	230.9016460345124	ISI	1.0		12		baseline	0.0	253.90186487792653	0.10001325134589933
66.0	230.99343469757832	pulse	1.0	t			baseline	0.0	253.99365354099245	
