trial_nr	onset	event_type	phase	response	nr_frames	trial_type	stim_name	task_probe	onset_abs	duration
0.0	0.05453295223060195	baseline	0.0		701		baseline	0.0	28.02839949155441	5.848327160887038
0.0	0.7030781133175878	pulse	0.0	t			baseline	0.0	28.676944652641396	
0.0	1.403047112735294	pulse	0.0	t			baseline	0.0	29.376913652059102	
0.0	2.1030290919488834	pulse	0.0	t			baseline	0.0	30.07689563127269	
0.0	2.8030246546695707	pulse	0.0	t			baseline	0.0	30.77689119399338	
0.0	3.5030087468735474	pulse	0.0	t			baseline	0.0	31.476875286197355	
0.0	4.202987707529701	pulse	0.0	t			baseline	0.0	32.17685424685351	
0.0	4.902975723857708	pulse	0.0	t			baseline	0.0	32.876842263181516	
0.0	5.602966456887316	pulse	0.0	t			baseline	0.0	33.576832996211124	
0.0	5.90286011311764	ISI	1.0		0		baseline	0.0	33.87672665244145	0.16667023862601127
1.0	6.069530351743651	number	0.0		40	character	number-143.jpg	0.0	34.04339689106746	0.33330908425705275
1.0	6.302961717752623	pulse	0.0	t		character	number-143.jpg	0.0	34.27682825707643	
1.0	6.402839436000704	ISI	1.0		236	character	number-143.jpg	0.0	34.37670597532451	2.0166527762730766
1.0	7.0029621101648445	pulse	1.0	t		character	number-143.jpg	0.0	34.97682864948865	
1.0	7.702964615567453	pulse	1.0	t		character	number-143.jpg	0.0	35.67683115489126	
2.0	8.41949221227378	number	0.0		45	character	number-143.jpg	1.0	36.39335875159759	0.3832885429756061
2.0	8.41121804517661	pulse	0.0	t		character	number-143.jpg	1.0	36.38508458450042	
2.0	8.802780755249387	ISI	1.0		224	character	number-143.jpg	1.0	36.776647294573195	2.0166669634913887
2.0	9.10293853523308	pulse	1.0	t		character	number-143.jpg	1.0	37.07680507455689	
2.0	9.802919307023785	pulse	1.0	t		character	number-143.jpg	1.0	37.77678584634759	
2.0	10.502893739844694	pulse	1.0	t		character	number-143.jpg	1.0	38.4767602791685	
3.0	10.819447718740776	house	0.0		46	place	house-126.jpg	0.0	38.793314258064584	0.3832671112195385
3.0	11.202714829960314	ISI	1.0		352	place	house-126.jpg	0.0	39.17658136928412	3.0166413057554564
3.0	11.26451224190987	pulse	1.0	t		place	house-126.jpg	0.0	39.23837878123368	
3.0	11.902822079297039	pulse	1.0	t		place	house-126.jpg	0.0	39.87668861862085	
3.0	12.602810095625046	pulse	1.0	t		place	house-126.jpg	0.0	40.57667663494885	
3.0	13.302781811744353	pulse	1.0	t		place	house-126.jpg	0.0	41.27664835106816	
3.0	14.002814502718593	pulse	1.0	t		place	house-126.jpg	0.0	41.9766810420424	
4.0	14.21935613571577	adult	0.0		46	face	adult-62.jpg	0.0	42.19322267503958	0.3833045413284708
4.0	14.602660677044241	ISI	1.0		236	face	adult-62.jpg	0.0	42.57652721636805	2.0166370797755917
4.0	14.702767805638814	pulse	1.0	t		face	adult-62.jpg	0.0	42.67663434496262	
4.0	15.402748879285355	pulse	1.0	t		face	adult-62.jpg	0.0	43.37661541860916	
4.0	16.10273840489208	pulse	1.0	t		face	adult-62.jpg	0.0	44.07660494421589	
5.0	16.619297756819833	adult	0.0		46	face	adult-62.jpg	1.0	44.59316429614364	0.3833582716465571
5.0	16.80273215647867	pulse	0.0	t		face	adult-62.jpg	1.0	44.77659869580248	
5.0	17.00265602846639	ISI	1.0		473	face	adult-62.jpg	1.0	44.9765225677902	4.02494052687689
5.0	17.319460245752907	response	1.0	b		face	adult-62.jpg	1.0	45.293326785076715	
5.0	17.50278658106481	pulse	1.0	t		face	adult-62.jpg	1.0	45.47665312038862	
5.0	18.202761919452314	pulse	1.0	t		face	adult-62.jpg	1.0	46.17662845877612	
5.0	18.90275808588467	pulse	1.0	t		face	adult-62.jpg	1.0	46.87662462520848	
5.0	19.602748517058444	pulse	1.0	t		face	adult-62.jpg	1.0	47.57661505638225	
5.0	20.30273804266517	pulse	1.0	t		face	adult-62.jpg	1.0	48.27660458198898	
6.0	21.02759655534328	adult	0.0		44	face	adult-79.jpg	0.0	49.00146309466709	0.374975134635406
6.0	21.013305800067428	pulse	0.0	t		face	adult-79.jpg	0.0	48.987172339391236	
6.0	21.402571689978686	ISI	1.0		234	face	adult-79.jpg	0.0	49.376438229302494	2.01665790781999
6.0	21.702700793669464	pulse	1.0	t		face	adult-79.jpg	0.0	49.67656733299327	
6.0	22.40278087599154	pulse	1.0	t		face	adult-79.jpg	0.0	50.37664741531535	
6.0	23.10268769313143	pulse	1.0	t		face	adult-79.jpg	0.0	51.07655423245524	
7.0	23.419229597798676	number	0.0		46	character	number-21.jpg	0.0	51.393096137122484	0.38326590379665504
7.0	23.80249550159533	ISI	1.0		473	character	number-21.jpg	0.0	51.77636204091914	4.016603271934855
7.0	23.852789795827903	pulse	1.0	t		character	number-21.jpg	0.0	51.82665633515171	
7.0	24.502599128663405	pulse	1.0	t		character	number-21.jpg	0.0	52.47646566798721	
7.0	25.202577485608344	pulse	1.0	t		character	number-21.jpg	0.0	53.17644402493215	
7.0	25.90256550193635	pulse	1.0	t		character	number-21.jpg	0.0	53.87643204126016	
7.0	26.60255623496596	pulse	1.0	t		character	number-21.jpg	0.0	54.57642277428977	
7.0	27.30253670490083	pulse	1.0	t		character	number-21.jpg	0.0	55.27640324422464	
8.0	27.819098773530186	number	0.0		46	character	number-110.jpg	0.0	55.792965312853994	0.38332114339345935
8.0	28.002522004527236	pulse	0.0	t		character	number-110.jpg	0.0	55.976388543851044	
8.0	28.202419916923645	ISI	1.0		474	character	number-110.jpg	0.0	56.17628645624745	4.016637079775137
8.0	28.702510624566912	pulse	1.0	t		character	number-110.jpg	0.0	56.67637716389072	
8.0	29.40259281987892	pulse	1.0	t		character	number-110.jpg	0.0	57.37645935920273	
8.0	30.102562423008294	pulse	1.0	t		character	number-110.jpg	0.0	58.0764289623321	
8.0	30.802543194799	pulse	1.0	t		character	number-110.jpg	0.0	58.77640973412281	
8.0	31.502539059375522	pulse	1.0	t		character	number-110.jpg	0.0	59.47640559869933	
9.0	32.21905699669878	limb	0.0		45	body	limb-37.jpg	0.0	60.19292353602259	0.38330454132892555
9.0	32.210792187128845	pulse	0.0	t		body	limb-37.jpg	0.0	60.18465872645265	
9.0	32.60236153802771	ISI	1.0		233	body	limb-37.jpg	0.0	60.576228077351516	2.0166669634913887
9.0	32.902514488319866	pulse	1.0	t		body	limb-37.jpg	0.0	60.876381027643674	
9.0	33.60250250464787	pulse	1.0	t		body	limb-37.jpg	0.0	61.57636904397168	
9.0	34.30247784303583	pulse	1.0	t		body	limb-37.jpg	0.0	62.27634438235964	
10.0	34.6190285015191	number	0.0		46	character	number-29.jpg	0.0	62.592895040842905	0.3832656019408205
10.0	35.00229410345992	ISI	1.0		353	character	number-29.jpg	0.0	62.976160642783725	3.0166437206012233
10.0	35.05296903775343	pulse	1.0	t		character	number-29.jpg	0.0	63.026835577077236	
10.0	35.70239259898108	pulse	1.0	t		character	number-29.jpg	0.0	63.676259138304886	
10.0	36.40237035221435	pulse	1.0	t		character	number-29.jpg	0.0	64.37623689153816	
10.0	37.102361085243956	pulse	1.0	t		character	number-29.jpg	0.0	65.07622762456776	
10.0	37.80235785538753	pulse	1.0	t		character	number-29.jpg	0.0	65.77622439471133	
11.0	38.01893782406114	limb	0.0		46	body	limb-70.jpg	0.0	65.99280436338495	0.38330001349277154
11.0	38.40223783755391	ISI	1.0		229	body	limb-70.jpg	0.0	66.37610437687772	2.016640702044242
11.0	38.502341343879834	pulse	1.0	t		body	limb-70.jpg	0.0	66.47620788320364	
11.0	39.20232543608381	pulse	1.0	t		body	limb-70.jpg	0.0	67.17619197540762	
11.0	39.90230983014317	pulse	1.0	t		body	limb-70.jpg	0.0	67.87617636946698	
12.0	40.418878539598154	adult	0.0		46	face	adult-113.jpg	0.0	68.39274507892196	0.38335223453213985
12.0	40.60230931698834	pulse	0.0	t		face	adult-113.jpg	0.0	68.57617585631215	
12.0	40.802230774130294	ISI	1.0		233	face	adult-113.jpg	0.0	68.7760973134541	2.01663466492937
12.0	41.30237913621568	pulse	1.0	t		face	adult-113.jpg	0.0	69.27624567553949	
12.0	42.00237469893682	pulse	1.0	t		face	adult-113.jpg	0.0	69.97624123826063	
12.0	42.70234128350876	pulse	1.0	t		face	adult-113.jpg	0.0	70.67620782283257	
13.0	42.818865439059664	car	0.0		46	object	car-141.jpg	0.0	70.79273197838347	0.3832897503989443
13.0	43.20215518945861	ISI	1.0		473	object	car-141.jpg	0.0	71.17602172878242	4.016600253377419
13.0	43.40226138230037	pulse	1.0	t		object	car-141.jpg	0.0	71.37612792162417	
13.0	44.10224124852357	pulse	1.0	t		object	car-141.jpg	0.0	72.07610778784738	
13.0	44.802209946085895	pulse	1.0	t		object	car-141.jpg	0.0	72.7760764854097	
13.0	45.502211545921	pulse	1.0	t		object	car-141.jpg	0.0	73.47607808524481	
13.0	46.20219412884626	pulse	1.0	t		object	car-141.jpg	0.0	74.17606066817007	
13.0	46.90219240826855	pulse	1.0	t		object	car-141.jpg	0.0	74.87605894759236	
14.0	47.21875544283603	house	0.0		46	place	house-45.jpg	0.0	75.19262198215984	0.38332144524883915
14.0	47.602076888084866	ISI	1.0		233	place	house-45.jpg	0.0	75.57594342740867	2.0166850748346405
14.0	47.65227609776639	pulse	1.0	t		place	house-45.jpg	0.0	75.6261426370902	
14.0	48.30216662979001	pulse	1.0	t		place	house-45.jpg	0.0	76.27603316911382	
14.0	49.002224978500635	pulse	1.0	t		place	house-45.jpg	0.0	76.97609151782444	
15.0	49.61876196291951	house	0.0		46	place	house-143.jpg	0.0	77.59262850224331	0.3832559425582076
15.0	49.70214990698332	pulse	0.0	t		place	house-143.jpg	0.0	77.67601644630713	
15.0	50.002017905477715	ISI	1.0		356	place	house-143.jpg	0.0	77.97588444480152	3.0166491540039715
15.0	50.40214064001293	pulse	1.0	t		place	house-143.jpg	0.0	78.37600717933674	
15.0	51.102110544997686	pulse	1.0	t		place	house-143.jpg	0.0	79.0759770843215	
15.0	51.80211637081311	pulse	1.0	t		place	house-143.jpg	0.0	79.77598291013692	
15.0	52.50208808693242	pulse	1.0	t		place	house-143.jpg	0.0	80.47595462625623	
16.0	53.018667059481686	house	0.0		46	place	house-143.jpg	1.0	80.9925335988055	0.3833033339060421
16.0	53.20208757377759	pulse	0.0	t		place	house-143.jpg	1.0	81.1759541131014	
16.0	53.40197039338773	ISI	1.0		234	place	house-143.jpg	1.0	81.37583693271154	2.016657304108321
16.0	53.90207468453809	pulse	1.0	t		place	house-143.jpg	1.0	81.8759412238619	
16.0	54.60206421014482	pulse	1.0	t		place	house-143.jpg	1.0	82.57593074946863	
16.0	54.84370514612692	response	1.0	b		place	house-143.jpg	1.0	82.81757168545073	
16.0	55.30204468007969	pulse	1.0	t		place	house-143.jpg	1.0	83.2759112194035	
17.0	55.41862769749605	adult	0.0		46	face	adult-99.jpg	0.0	83.39249423681986	0.3833341231893428
17.0	55.80196182068539	ISI	1.0		835	face	adult-99.jpg	0.0	83.7758283600092	7.016564936258419
17.0	56.002100312088714	pulse	1.0	t		face	adult-99.jpg	0.0	83.97596685141252	
17.0	56.70207625418789	pulse	1.0	t		face	adult-99.jpg	0.0	84.6759427935117	
17.0	57.402058837113145	pulse	1.0	t		face	adult-99.jpg	0.0	85.37592537643695	
17.0	58.102060738804084	pulse	1.0	t		face	adult-99.jpg	0.0	86.07592727812789	
17.0	58.80204754770921	pulse	1.0	t		face	adult-99.jpg	0.0	86.77591408703302	
17.0	59.502042808574515	pulse	1.0	t		face	adult-99.jpg	0.0	87.47590934789832	
17.0	60.20201995809657	pulse	1.0	t		face	adult-99.jpg	0.0	88.17588649742038	
17.0	60.902017633807645	pulse	1.0	t		face	adult-99.jpg	0.0	88.87588417313145	
17.0	61.60201319652833	pulse	1.0	t		face	adult-99.jpg	0.0	89.57587973585214	
17.0	62.30197887553322	pulse	1.0	t		face	adult-99.jpg	0.0	90.27584541485703	
18.0	62.81852675694381	adult	0.0		46	face	adult-97.jpg	0.0	90.79239329626762	0.38325714998109106
18.0	63.001911954120715	pulse	0.0	t		face	adult-97.jpg	0.0	90.97577849344452	
18.0	63.2017839069249	ISI	1.0		233	face	adult-97.jpg	0.0	91.17565044624871	2.016665152356836
18.0	63.70189906488122	pulse	1.0	t		face	adult-97.jpg	0.0	91.67576560420503	
18.0	64.40188587378634	pulse	1.0	t		face	adult-97.jpg	0.0	92.37575241311015	
18.0	65.10186906042281	pulse	1.0	t		face	adult-97.jpg	0.0	93.07573559974662	
19.0	65.21844905928174	limb	0.0		46	body	limb-61.jpg	0.0	93.19231559860555	0.38328975039848956
19.0	65.60173880968023	ISI	1.0		353	body	limb-61.jpg	0.0	93.57560534900404	3.0166452298799413
19.0	65.80185496376089	pulse	1.0	t		body	limb-61.jpg	0.0	93.7757215030847	
19.0	66.50184720606876	pulse	1.0	t		body	limb-61.jpg	0.0	94.47571374539257	
19.0	67.2018264685812	pulse	1.0	t		body	limb-61.jpg	0.0	95.17569300790501	
19.0	67.90181237191882	pulse	1.0	t		body	limb-61.jpg	0.0	95.87567891124263	
20.0	68.61838403956017	number	0.0		45	character	number-14.jpg	0.0	96.59225057888398	0.3833280860749255
20.0	68.61004436977237	pulse	0.0	t		character	number-14.jpg	0.0	96.58391090909618	
20.0	69.0017121256351	ISI	1.0		953	character	number-14.jpg	0.0	96.9755786649589	8.016551352751321
20.0	69.30187050933046	pulse	1.0	t		character	number-14.jpg	0.0	97.27573704865426	
20.0	70.00185309225526	pulse	1.0	t		character	number-14.jpg	0.0	97.97571963157907	
20.0	70.70184714569768	pulse	1.0	t		character	number-14.jpg	0.0	98.67571368502149	
20.0	71.40182127666276	pulse	1.0	t		character	number-14.jpg	0.0	99.37568781598657	
20.0	72.10180899113493	pulse	1.0	t		character	number-14.jpg	0.0	100.07567553045874	
20.0	72.8018021390103	pulse	1.0	t		character	number-14.jpg	0.0	100.77566867833411	
20.0	73.50179438131818	pulse	1.0	t		character	number-14.jpg	0.0	101.47566092064199	
20.0	74.20177968094458	pulse	1.0	t		character	number-14.jpg	0.0	102.17564622026839	
20.0	74.90176377314856	pulse	1.0	t		character	number-14.jpg	0.0	102.87563031247237	
20.0	75.60175631731227	pulse	1.0	t		character	number-14.jpg	0.0	103.57562285663607	
20.0	76.30174433364027	pulse	1.0	t		character	number-14.jpg	0.0	104.27561087296408	
21.0	77.01826347838642	house	0.0		45	place	house-93.jpg	0.0	104.99213001771022	0.38331329514448953
21.0	77.01001678015973	pulse	0.0	t		place	house-93.jpg	0.0	104.98388331948354	
21.0	77.4015767735309	ISI	1.0		232	place	house-93.jpg	0.0	105.37544331285471	2.0166600208099226
21.0	77.70170859392283	pulse	1.0	t		place	house-93.jpg	0.0	105.67557513324664	
21.0	78.40169781767372	pulse	1.0	t		place	house-93.jpg	0.0	106.37556435699753	
21.0	79.10167889132026	pulse	1.0	t		place	house-93.jpg	0.0	107.07554543064407	
22.0	79.41823679434083	car	0.0		46	object	car-3.jpg	0.0	107.39210333366464	0.3832529240007716
22.0	79.8014897183416	ISI	1.0		353	object	car-3.jpg	0.0	107.77535625766541	3.016647946581088
22.0	79.85417712470962	pulse	1.0	t		object	car-3.jpg	0.0	107.82804366403343	
22.0	80.50160300479274	pulse	1.0	t		object	car-3.jpg	0.0	108.47546954411655	
22.0	81.20158166359352	pulse	1.0	t		object	car-3.jpg	0.0	109.17544820291732	
22.0	81.9015708873444	pulse	1.0	t		object	car-3.jpg	0.0	109.87543742666821	
22.0	82.60156584635388	pulse	1.0	t		object	car-3.jpg	0.0	110.57543238567769	
23.0	82.81813766492269	house	0.0		46	place	house-85.jpg	0.0	110.7920042042465	0.38329035411015866
23.0	83.20142801903285	ISI	1.0		233	place	house-85.jpg	0.0	111.17529455835665	2.0166684727701067
23.0	83.30155808866175	pulse	1.0	t		place	house-85.jpg	0.0	111.27542462798556	
23.0	84.00152286209959	pulse	1.0	t		place	house-85.jpg	0.0	111.9753894014234	
23.0	84.7015289897704	pulse	1.0	t		place	house-85.jpg	0.0	112.6753955290942	
24.0	85.21809649180295	limb	0.0		46	body	limb-18.jpg	0.0	113.19196303112676	0.38333804731337295
24.0	85.40151398754142	pulse	0.0	t		body	limb-18.jpg	0.0	113.37538052686523	
24.0	85.60143453911633	ISI	1.0		233	body	limb-18.jpg	0.0	113.57530107844013	2.016636777919757
24.0	86.10157112882871	pulse	1.0	t		body	limb-18.jpg	0.0	114.07543766815252	
24.0	86.80155099505237	pulse	1.0	t		body	limb-18.jpg	0.0	114.77541753437617	
24.0	87.50153116313186	pulse	1.0	t		body	limb-18.jpg	0.0	115.47539770245567	
25.0	87.61807131703608	limb	0.0		46	body	limb-48.jpg	0.0	115.59193785635989	0.383287939263937
25.0	88.00135925630002	ISI	1.0		233	body	limb-48.jpg	0.0	115.97522579562383	2.0166373816309715
25.0	88.20146605285345	pulse	1.0	t		body	limb-48.jpg	0.0	116.17533259217726	
25.0	88.90143444855948	pulse	1.0	t		body	limb-48.jpg	0.0	116.87530098788329	
25.0	89.60142880385774	pulse	1.0	t		body	limb-48.jpg	0.0	117.57529534318155	
26.0	90.01799663793099	car	0.0		46	object	car-40.jpg	0.0	117.9918631772548	0.38332114339345935
26.0	90.30142195173266	pulse	0.0	t		object	car-40.jpg	0.0	118.27528849105647	
26.0	90.40131778132445	ISI	1.0		353	object	car-40.jpg	0.0	118.37518432064826	3.0166404001884075
26.0	91.00142053301079	pulse	1.0	t		object	car-40.jpg	0.0	118.9752870723346	
26.0	91.70139707882163	pulse	1.0	t		object	car-40.jpg	0.0	119.67526361814544	
26.0	92.40138630257252	pulse	1.0	t		object	car-40.jpg	0.0	120.37525284189633	
26.0	93.10137190405476	pulse	1.0	t		object	car-40.jpg	0.0	121.07523844337857	
27.0	93.41795818151286	house	0.0		46	place	house-137.jpg	0.0	121.39182472083667	0.38332929349735423
27.0	93.80128747501021	ISI	1.0		233	place	house-137.jpg	0.0	121.77515401433402	2.0166394946213586
27.0	93.85617480585415	pulse	1.0	t		place	house-137.jpg	0.0	121.83004134517796	
27.0	94.50141977837166	pulse	1.0	t		place	house-137.jpg	0.0	122.47528631769546	
27.0	95.20141020954543	pulse	1.0	t		place	house-137.jpg	0.0	123.17527674886924	
28.0	95.81792696963157	number	0.0		46	character	number-119.jpg	0.0	123.79179350895538	0.3832665075078694
28.0	95.90131159328212	pulse	0.0	t		character	number-119.jpg	0.0	123.87517813260592	
28.0	96.20119347713944	ISI	1.0		713	character	number-119.jpg	0.0	124.17506001646325	6.016617459153622
28.0	96.60131741909754	pulse	1.0	t		character	number-119.jpg	0.0	124.57518395842135	
28.0	97.30129245562966	pulse	1.0	t		character	number-119.jpg	0.0	125.27515899495347	
28.0	98.00128349051465	pulse	1.0	t		character	number-119.jpg	0.0	125.97515002983846	
28.0	98.70127784581291	pulse	1.0	t		character	number-119.jpg	0.0	126.67514438513672	
28.0	99.40126193801643	pulse	1.0	t		character	number-119.jpg	0.0	127.37512847734024	
28.0	100.10124633207579	pulse	1.0	t		character	number-119.jpg	0.0	128.0751128713996	
28.0	100.80124249850815	pulse	1.0	t		character	number-119.jpg	0.0	128.77510903783195	
28.0	101.50122538328924	pulse	1.0	t		character	number-119.jpg	0.0	129.47509192261305	
29.0	102.21781093629306	car	0.0		45	object	car-56.jpg	0.0	130.19167747561687	0.3833208415376248
29.0	102.20973629582613	pulse	0.0	t		object	car-56.jpg	0.0	130.18360283514994	
29.0	102.60113177783069	ISI	1.0		352	object	car-56.jpg	0.0	130.5749983171545	3.016635268641039
29.0	102.90127386131735	pulse	1.0	t		object	car-56.jpg	0.0	130.87514040064116	
29.0	103.60124980341652	pulse	1.0	t		object	car-56.jpg	0.0	131.57511634274033	
29.0	104.3012474791276	pulse	1.0	t		object	car-56.jpg	0.0	132.2751140184514	
29.0	105.00123489174393	pulse	1.0	t		object	car-56.jpg	0.0	132.97510143106774	
30.0	105.61776704647173	limb	0.0		46	body	limb-84.jpg	0.0	133.59163358579553	0.38327314833395576
30.0	105.70115649981426	pulse	0.0	t		body	limb-84.jpg	0.0	133.67502303913807	
30.0	106.00104019480568	ISI	1.0		351	body	limb-84.jpg	0.0	133.9749067341295	3.016628929671242
30.0	106.40114059201778	pulse	1.0	t		body	limb-84.jpg	0.0	134.3750071313416	
30.0	107.10111804339567	pulse	1.0	t		body	limb-84.jpg	0.0	135.07498458271948	
30.0	107.8011066634349	pulse	1.0	t		body	limb-84.jpg	0.0	135.7749732027587	
30.0	108.50110282986725	pulse	1.0	t		body	limb-84.jpg	0.0	136.47496936919106	
31.0	109.01766912447692	limb	0.0		46	body	limb-79.jpg	0.0	136.99153566380073	0.3832963912241212
31.0	109.20108299794674	pulse	0.0	t		body	limb-79.jpg	0.0	137.17494953727055	
31.0	109.40096551570105	ISI	1.0		232	body	limb-79.jpg	0.0	137.37483205502485	2.0166669634913887
31.0	109.90108248479191	pulse	1.0	t		body	limb-79.jpg	0.0	137.87494902411572	
31.0	110.60106627514006	pulse	1.0	t		body	limb-79.jpg	0.0	138.57493281446386	
31.0	111.3010518766223	pulse	1.0	t		body	limb-79.jpg	0.0	139.2749184159461	
32.0	111.41763247919243	adult	0.0		46	face	adult-81.jpg	0.0	139.39149901851624	0.3833383491692075
32.0	111.80097082836164	ISI	1.0		353	face	adult-81.jpg	0.0	139.77483736768545	3.0166271185366895
32.0	112.00110177337228	pulse	1.0	t		face	adult-81.jpg	0.0	139.9749683126961	
32.0	112.70108677114331	pulse	1.0	t		face	adult-81.jpg	0.0	140.67495331046712	
32.0	113.40108263571983	pulse	1.0	t		face	adult-81.jpg	0.0	141.37494917504364	
32.0	114.10107185947072	pulse	1.0	t		face	adult-81.jpg	0.0	142.07493839879453	
33.0	114.81759794689833	car	0.0		45	object	car-73.jpg	0.0	142.79146448622214	0.38329669307995573
33.0	114.8093449097014	pulse	0.0	t		object	car-73.jpg	0.0	142.7832114490252	
33.0	115.20089463997829	ISI	1.0		592	object	car-73.jpg	0.0	143.1747611793021	5.016615044307855
33.0	115.50105241996243	pulse	1.0	t		object	car-73.jpg	0.0	143.47491895928624	
33.0	116.20102504164879	pulse	1.0	t		object	car-73.jpg	0.0	144.1748915809726	
33.0	116.90101849137955	pulse	1.0	t		object	car-73.jpg	0.0	144.87488503070335	
33.0	117.60099986688192	pulse	1.0	t		object	car-73.jpg	0.0	145.57486640620573	
33.0	118.30098848692114	pulse	1.0	t		object	car-73.jpg	0.0	146.27485502624495	
33.0	119.00097982366196	pulse	1.0	t		object	car-73.jpg	0.0	146.97484636298577	
33.0	119.70097055669157	pulse	1.0	t		object	car-73.jpg	0.0	147.67483709601538	
34.0	120.21750968428614	adult	0.0		46	face	adult-110.jpg	0.0	148.19137622360995	0.38326982792113995
34.0	120.40089457960721	pulse	0.0	t		face	adult-110.jpg	0.0	148.37476111893102	
34.0	120.60077951220728	ISI	1.0		234	face	adult-110.jpg	0.0	148.5746460515311	2.0166515688497384
34.0	121.10087293655215	pulse	1.0	t		face	adult-110.jpg	0.0	149.07473947587596	
34.0	121.80086366958176	pulse	1.0	t		face	adult-110.jpg	0.0	149.77473020890557	
34.0	122.50084987477521	pulse	1.0	t		face	adult-110.jpg	0.0	150.47471641409902	
35.0	122.61743108105702	adult	0.0		46	face	adult-14.jpg	0.0	150.59129762038083	0.3833075598859068
35.0	123.00073864094293	ISI	1.0		233	face	adult-14.jpg	0.0	150.97460518026674	2.0166413057554564
35.0	123.20084815419796	pulse	1.0	t		face	adult-14.jpg	0.0	151.17471469352176	
35.0	123.90082560557539	pulse	1.0	t		face	adult-14.jpg	0.0	151.8746921448992	
35.0	124.60082237571942	pulse	1.0	t		face	adult-14.jpg	0.0	152.57468891504323	
36.0	125.01737994669838	adult	0.0		46	face	adult-26.jpg	0.0	152.9912464860222	0.3832994097815572
36.0	125.30080737348999	pulse	0.0	t		face	adult-26.jpg	0.0	153.2746739128138	
36.0	125.40067935647994	ISI	1.0		353	face	adult-26.jpg	0.0	153.37454589580375	3.016686282257524
36.0	126.00079297497223	pulse	1.0	t		face	adult-26.jpg	0.0	153.97465951429604	
36.0	126.70084256986684	pulse	1.0	t		face	adult-26.jpg	0.0	154.67470910919064	
36.0	127.40082153052344	pulse	1.0	t		face	adult-26.jpg	0.0	155.37468806984725	
36.0	128.10082554520432	pulse	1.0	t		face	adult-26.jpg	0.0	156.07469208452812	
37.0	128.41736563873746	house	0.0		46	place	house-41.jpg	0.0	156.39123217806127	0.3832677149312076
37.0	128.80063335366867	ISI	1.0		230	place	house-41.jpg	0.0	156.77449989299248	2.0166382871980204
37.0	128.8778549891167	pulse	1.0	t		place	house-41.jpg	0.0	156.85172152844052	
37.0	129.50072913248778	pulse	1.0	t		place	house-41.jpg	0.0	157.47459567181158	
37.0	130.20081706305882	pulse	1.0	t		place	house-41.jpg	0.0	158.17468360238263	
38.0	130.8172716408667	limb	0.0		46	body	limb-52.jpg	0.0	158.7911381801905	0.3833051450401399
38.0	130.9006967131836	pulse	0.0	t		body	limb-52.jpg	0.0	158.87456325250741	
38.0	131.20057678590683	ISI	1.0		473	body	limb-52.jpg	0.0	159.17444332523064	4.016664548645622
38.0	131.60069469075052	pulse	1.0	t		body	limb-52.jpg	0.0	159.57456123007432	
38.0	132.3006766699641	pulse	1.0	t		body	limb-52.jpg	0.0	160.2745432092879	
38.0	133.00067011969486	pulse	1.0	t		body	limb-52.jpg	0.0	160.97453665901867	
38.0	133.70065451375422	pulse	1.0	t		body	limb-52.jpg	0.0	161.67452105307802	
38.0	134.4006431337939	pulse	1.0	t		body	limb-52.jpg	0.0	162.3745096731177	
38.0	135.1006999732258	pulse	1.0	t		body	limb-52.jpg	0.0	163.0745665125496	
39.0	135.21724133455245	car	0.0		46	object	car-60.jpg	0.0	163.19110787387626	0.3832592629710234
39.0	135.60050059752348	ISI	1.0		233	object	car-60.jpg	0.0	163.5743671368473	2.016650059571475
39.0	135.80062339242977	pulse	1.0	t		object	car-60.jpg	0.0	163.77448993175358	
39.0	136.50059359927036	pulse	1.0	t		object	car-60.jpg	0.0	164.47446013859417	
39.0	137.20059006755855	pulse	1.0	t		object	car-60.jpg	0.0	165.17445660688236	
40.0	137.61715065709495	house	0.0		46	place	house-57.jpg	0.0	165.59101719641876	0.3833211433930046
40.0	137.90058653584674	pulse	0.0	t		place	house-57.jpg	0.0	165.87445307517055	
40.0	138.00047180048796	ISI	1.0		350	place	house-57.jpg	0.0	165.97433833981177	3.016652474417242
40.0	138.60057334475187	pulse	1.0	t		place	house-57.jpg	0.0	166.57443988407567	
40.0	139.30054747571648	pulse	1.0	t		place	house-57.jpg	0.0	167.2744140150403	
40.0	140.00054334029346	pulse	1.0	t		place	house-57.jpg	0.0	167.97440987961727	
40.0	140.7005334696114	pulse	1.0	t		place	house-57.jpg	0.0	168.6744000089352	
41.0	141.0171242749052	adult	0.0		46	face	adult-128.jpg	0.0	168.990990814229	0.38330393761725645
41.0	141.40042821252246	ISI	1.0		354	face	adult-128.jpg	0.0	169.37429475184626	3.016649455859806
41.0	141.44870218643155	pulse	1.0	t		face	adult-128.jpg	0.0	169.42256872575535	
41.0	142.10057560866971	pulse	1.0	t		face	adult-128.jpg	0.0	170.07444214799352	
41.0	142.80056181386317	pulse	1.0	t		face	adult-128.jpg	0.0	170.77442835318698	
41.0	143.500550132047	pulse	1.0	t		face	adult-128.jpg	0.0	171.47441667137082	
41.0	144.20053875208623	pulse	1.0	t		face	adult-128.jpg	0.0	172.17440529141004	
42.0	144.41707766838226	limb	0.0		46	body	limb-85.jpg	0.0	172.39094420770607	0.3832728464781212
42.0	144.80035051486038	ISI	1.0		473	body	limb-85.jpg	0.0	172.7742170541842	4.016600857089088
42.0	144.90046186943482	pulse	1.0	t		body	limb-85.jpg	0.0	172.87432840875863	
42.0	145.6004483764841	pulse	1.0	t		body	limb-85.jpg	0.0	173.57431491580792	
42.0	146.300425827862	pulse	1.0	t		body	limb-85.jpg	0.0	174.2742923671858	
42.0	147.0003957328472	pulse	1.0	t		body	limb-85.jpg	0.0	174.97426227217102	
42.0	147.7004175570155	pulse	1.0	t		body	limb-85.jpg	0.0	175.6742840963393	
42.0	148.4003904805577	pulse	1.0	t		body	limb-85.jpg	0.0	176.3742570198815	
43.0	148.81695137194947	car	0.0		46	object	car-105.jpg	0.0	176.79081791127328	0.3833075598859068
43.0	149.10038543956716	pulse	0.0	t		object	car-105.jpg	0.0	177.07425197889097	
43.0	149.20025893183538	ISI	1.0		232	object	car-105.jpg	0.0	177.1741254711592	2.0166835655559225
43.0	149.80036681506908	pulse	1.0	t		object	car-105.jpg	0.0	177.7742333543929	
43.0	150.50043512501816	pulse	1.0	t		object	car-105.jpg	0.0	178.47430166434197	
44.0	151.2169424973913	car	0.0		45	object	car-38.jpg	0.0	179.1908090367151	0.383304239473091
44.0	151.2086852342145	pulse	0.0	t		object	car-38.jpg	0.0	179.1825517735383	
44.0	151.6002467368644	ISI	1.0		233	object	car-38.jpg	0.0	179.5741132761882	2.0166687746259413
44.0	151.90040512055975	pulse	1.0	t		object	car-38.jpg	0.0	179.87427165988356	
44.0	152.60039132575366	pulse	1.0	t		object	car-38.jpg	0.0	180.57425786507747	
44.0	153.30036817341988	pulse	1.0	t		object	car-38.jpg	0.0	181.2742347127437	
45.0	153.61691551149033	house	0.0		46	place	house-21.jpg	0.0	181.59078205081414	0.38327254462228666
45.0	154.00018805611262	ISI	1.0		354	place	house-21.jpg	0.0	181.97405459543643	3.016626816680855
45.0	154.04646253774354	pulse	1.0	t		place	house-21.jpg	0.0	182.02032907706734	
45.0	154.70027387369328	pulse	1.0	t		place	house-21.jpg	0.0	182.67414041301708	
45.0	155.40027547352884	pulse	1.0	t		place	house-21.jpg	0.0	183.37414201285264	
45.0	156.10025654717538	pulse	1.0	t		place	house-21.jpg	0.0	184.07412308649918	
45.0	156.80023973381185	pulse	1.0	t		place	house-21.jpg	0.0	184.77410627313566	
46.0	157.01681487279347	car	0.0		46	object	car-14.jpg	0.0	184.99068141211728	0.3833117858662263
46.0	157.4001266586597	ISI	1.0		233	object	car-14.jpg	0.0	185.3739931979835	2.016640098332573
46.0	157.50025552086572	pulse	1.0	t		object	car-14.jpg	0.0	185.47412206018953	
46.0	158.20021818131363	pulse	1.0	t		object	car-14.jpg	0.0	186.17408472063744	
46.0	158.90020408465125	pulse	1.0	t		object	car-14.jpg	0.0	186.87407062397506	
47.0	159.41676675699227	house	0.0		46	place	house-82.jpg	0.0	187.39063329631608	0.38334891411932404
47.0	159.60018606386484	pulse	0.0	t		place	house-82.jpg	0.0	187.57405260318865	
47.0	159.8001156711116	ISI	1.0		235	place	house-82.jpg	0.0	187.7739822104354	2.0166539836955053
47.0	160.30025618494847	pulse	1.0	t		place	house-82.jpg	0.0	188.27412272427227	
47.0	161.00024208828654	pulse	1.0	t		place	house-82.jpg	0.0	188.97410862761035	
47.0	161.70022738791295	pulse	1.0	t		place	house-82.jpg	0.0	189.67409392723675	
48.0	161.8167696548071	car	0.0		46	object	car-103.jpg	0.0	189.7906361941309	0.3832710353440234
48.0	162.20004069015113	ISI	1.0		233	object	car-103.jpg	0.0	190.17390722947493	2.016651870705573
48.0	162.40014869412698	pulse	1.0	t		object	car-103.jpg	0.0	190.3740152334508	
48.0	163.10012886220647	pulse	1.0	t		object	car-103.jpg	0.0	191.07399540153028	
48.0	163.8001280471958	pulse	1.0	t		object	car-103.jpg	0.0	191.77399458651962	
49.0	164.2166925608567	limb	0.0		46	body	limb-96.jpg	0.0	192.1905591001805	0.38330906916417007
49.0	164.50011063012107	pulse	0.0	t		body	limb-96.jpg	0.0	192.47397716944488	
49.0	164.60000163002087	ISI	1.0		714	body	limb-96.jpg	0.0	192.57386816934468	6.016612025750874
49.0	165.2000980427374	pulse	1.0	t		body	limb-96.jpg	0.0	193.17396458206122	
49.0	165.90015035433362	pulse	1.0	t		body	limb-96.jpg	0.0	193.87401689365743	
49.0	166.60006834013484	pulse	1.0	t		body	limb-96.jpg	0.0	194.57393487945865	
49.0	167.30005122491548	pulse	1.0	t		body	limb-96.jpg	0.0	195.2739177642393	
49.0	168.0001168181634	pulse	1.0	t		body	limb-96.jpg	0.0	195.9739833574872	
49.0	168.70010121222276	pulse	1.0	t		body	limb-96.jpg	0.0	196.67396775154657	
49.0	169.40008620999333	pulse	1.0	t		body	limb-96.jpg	0.0	197.37395274931714	
49.0	170.1000733207543	pulse	1.0	t		body	limb-96.jpg	0.0	198.0739398600781	
50.0	170.61661365577174	car	0.0		46	object	car-117.jpg	0.0	198.59048019509555	0.38327163905523776
50.0	170.8000015696498	pulse	0.0	t		object	car-117.jpg	0.0	198.7738681089736	
50.0	170.99988529482698	ISI	1.0		353	object	car-117.jpg	0.0	198.9737518341508	3.0166277222483586
50.0	171.4999772098936	pulse	1.0	t		object	car-117.jpg	0.0	199.4738437492174	
50.0	172.19996673549986	pulse	1.0	t		object	car-117.jpg	0.0	200.17383327482366	
50.0	172.89995867595235	pulse	1.0	t		object	car-117.jpg	0.0	200.87382521527616	
50.0	173.5999442774346	pulse	1.0	t		object	car-117.jpg	0.0	201.5738108167584	
51.0	174.01651301707534	limb	0.0		46	body	limb-47.jpg	0.0	201.99037955639915	0.3833099747316737
51.0	174.29993531231958	pulse	0.0	t		body	limb-47.jpg	0.0	202.27380185164338	
51.0	174.399822991807	ISI	1.0		232	body	limb-47.jpg	0.0	202.37368953113082	2.016637985342186
51.0	174.99991397112035	pulse	1.0	t		body	limb-47.jpg	0.0	202.97378051044416	
51.0	175.6999363990003	pulse	1.0	t		body	limb-47.jpg	0.0	203.67380293832412	
52.0	176.4164609771492	number	0.0		45	character	number-131.jpg	0.0	204.390327516473	0.3833383491692075
52.0	176.40837305503055	pulse	0.0	t		character	number-131.jpg	0.0	204.38223959435436	
52.0	176.7997993263184	ISI	1.0		232	character	number-131.jpg	0.0	204.77366586564222	2.0166684727701067
52.0	177.0999546914568	pulse	1.0	t		character	number-131.jpg	0.0	205.0738212307806	
52.0	177.79994210407358	pulse	1.0	t		character	number-131.jpg	0.0	205.7738086433974	
52.0	178.49993676122722	pulse	1.0	t		character	number-131.jpg	0.0	206.47380330055103	
53.0	178.8164677990885	number	0.0		46	character	number-43.jpg	0.0	206.79033433841232	0.38327073348818885
53.0	179.1997385325767	ISI	1.0		235	character	number-43.jpg	0.0	207.1736050719005	2.0166527762730766
53.0	179.2337308068818	pulse	1.0	t		character	number-43.jpg	0.0	207.2075973462056	
53.0	179.89982495386903	pulse	1.0	t		character	number-43.jpg	0.0	207.87369149319284	
53.0	180.5998316852515	pulse	1.0	t		character	number-43.jpg	0.0	208.5736982245753	
54.0	181.21639130884978	car	0.0		46	object	car-104.jpg	0.0	209.1902578481736	0.3832927689554708
54.0	181.29980883477356	pulse	0.0	t		object	car-104.jpg	0.0	209.27367537409737	
54.0	181.59968407780525	ISI	1.0		353	object	car-104.jpg	0.0	209.57355061712906	3.0166488521485917
54.0	181.99981586801186	pulse	1.0	t		object	car-104.jpg	0.0	209.97368240733567	
54.0	182.69978486742957	pulse	1.0	t		object	car-104.jpg	0.0	210.67365140675338	
54.0	183.3997659410761	pulse	1.0	t		object	car-104.jpg	0.0	211.37363248039992	
54.0	184.09974973142425	pulse	1.0	t		object	car-104.jpg	0.0	212.07361627074806	
55.0	184.61633292995384	number	0.0		46	character	number-31.jpg	0.0	212.59019946927765	0.38333412318888804
55.0	184.79975193497057	pulse	0.0	t		character	number-31.jpg	0.0	212.77361847429438	
55.0	184.99966705314273	ISI	1.0		232	character	number-31.jpg	0.0	212.97353359246654	2.0166452298799413
55.0	185.4998108873924	pulse	1.0	t		character	number-31.jpg	0.0	213.47367742671622	
55.0	186.19978894248197	pulse	1.0	t		character	number-31.jpg	0.0	214.17365548180578	
55.0	186.89977544953126	pulse	1.0	t		character	number-31.jpg	0.0	214.87364198885507	
56.0	187.01631228302267	house	0.0		46	place	house-28.jpg	0.0	214.99017882234648	0.3832671112195385
56.0	187.3995793942422	ISI	1.0		473	place	house-28.jpg	0.0	215.37344593356602	4.01661474245202
56.0	187.59970279285972	pulse	1.0	t		place	house-28.jpg	0.0	215.57356933218352	
56.0	188.299677527536	pulse	1.0	t		place	house-28.jpg	0.0	216.2735440668598	
56.0	188.9996694679885	pulse	1.0	t		place	house-28.jpg	0.0	216.9735360073123	
56.0	189.69964873050048	pulse	1.0	t		place	house-28.jpg	0.0	217.6735152698243	
56.0	190.39963855796304	pulse	1.0	t		place	house-28.jpg	0.0	218.37350509728685	
56.0	191.09963683738533	pulse	1.0	t		place	house-28.jpg	0.0	219.07350337670914	
57.0	191.41619413669423	number	0.0		46	character	number-120.jpg	0.0	219.39006067601804	0.38332295452755716
57.0	191.7995170912218	ISI	1.0		592	character	number-120.jpg	0.0	219.7733836305456	5.016631646372389
57.0	191.86167008920756	pulse	1.0	t		character	number-120.jpg	0.0	219.83553662853137	
57.0	192.49961649231	pulse	1.0	t		character	number-120.jpg	0.0	220.4734830316338	
57.0	193.19966518163756	pulse	1.0	t		character	number-120.jpg	0.0	221.17353172096136	
57.0	193.8996531979651	pulse	1.0	t		character	number-120.jpg	0.0	221.87351973728892	
57.0	194.59964725140753	pulse	1.0	t		character	number-120.jpg	0.0	222.57351379073134	
57.0	195.2996343621685	pulse	1.0	t		character	number-120.jpg	0.0	223.2735009014923	
57.0	195.99962147292945	pulse	1.0	t		character	number-120.jpg	0.0	223.97348801225326	
57.0	196.69960194286432	pulse	1.0	t		character	number-120.jpg	0.0	224.67346848218813	
58.0	196.81614873759418	car	0.0		46	object	car-144.jpg	0.0	224.79001527691798	0.38327043163280905
58.0	197.19941916922699	ISI	1.0		354	object	car-144.jpg	0.0	225.1732857085508	3.016627722247904
58.0	197.3995205323772	pulse	1.0	t		object	car-144.jpg	0.0	225.37338707170102	
58.0	198.0994979837551	pulse	1.0	t		object	car-144.jpg	0.0	226.0733645230789	
58.0	198.79949415018746	pulse	1.0	t		object	car-144.jpg	0.0	226.77336068951126	
58.0	199.49948548692828	pulse	1.0	t		object	car-144.jpg	0.0	227.4733520262521	
59.0	200.2160468914749	limb	0.0		45	body	limb-27.jpg	0.0	228.1899134307987	0.3833117858657715
59.0	200.20773378499007	pulse	0.0	t		body	limb-27.jpg	0.0	228.18160032431388	
59.0	200.59935867734066	ISI	1.0		594	body	limb-27.jpg	0.0	228.57322521666447	5.016617459153622
59.0	200.89945578432526	pulse	1.0	t		body	limb-27.jpg	0.0	228.87332232364906	
59.0	201.59943806539468	pulse	1.0	t		body	limb-27.jpg	0.0	229.5733046047185	
59.0	202.29942728914557	pulse	1.0	t		body	limb-27.jpg	0.0	230.27329382846938	
59.0	202.99949499538343	pulse	1.0	t		body	limb-27.jpg	0.0	230.97336153470724	
59.0	203.6994781820199	pulse	1.0	t		body	limb-27.jpg	0.0	231.6733447213437	
59.0	204.39947223546233	pulse	1.0	t		body	limb-27.jpg	0.0	232.37333877478613	
59.0	205.09944063116836	pulse	1.0	t		body	limb-27.jpg	0.0	233.07330717049217	
60.0	205.61597613649428	limb	0.0		46	body	limb-55.jpg	0.0	233.5898426758181	0.38328642998567375
60.0	205.799364654084	pulse	0.0	t		body	limb-55.jpg	0.0	233.7732311934078	
60.0	205.99926256647996	ISI	1.0		233	body	limb-55.jpg	0.0	233.97312910580376	2.016633155651107
60.0	206.49935689639233	pulse	1.0	t		body	limb-55.jpg	0.0	234.47322343571614	
60.0	207.19932951807868	pulse	1.0	t		body	limb-55.jpg	0.0	235.1731960574025	
60.0	207.89932477894354	pulse	1.0	t		body	limb-55.jpg	0.0	235.87319131826735	
61.0	208.01589572213106	number	0.0		46	character	number-25.jpg	0.0	235.98976226145487	0.3833111821545572
61.0	208.39920690428562	ISI	1.0		230	character	number-25.jpg	0.0	236.37307344360943	2.0166669634913887
61.0	208.59932758620198	pulse	1.0	t		character	number-25.jpg	0.0	236.5731941255258	
61.0	209.29931560253	pulse	1.0	t		character	number-25.jpg	0.0	237.2731821418538	
61.0	209.99929999658934	pulse	1.0	t		character	number-25.jpg	0.0	237.97316653591315	
62.0	210.415873867777	adult	0.0		46	face	adult-100.jpg	0.0	238.38974040710082	0.38328884483144066
62.0	210.69929012590728	pulse	0.0	t		face	adult-100.jpg	0.0	238.6731566652311	
62.0	210.79916271260845	ISI	1.0		473	face	adult-100.jpg	0.0	238.77302925193226	4.016668170914272
62.0	211.39928116079227	pulse	1.0	t		face	adult-100.jpg	0.0	239.37314770011608	
62.0	212.09932713341823	pulse	1.0	t		face	adult-100.jpg	0.0	240.07319367274204	
62.0	212.79929975510458	pulse	1.0	t		face	adult-100.jpg	0.0	240.7731662944284	
62.0	213.49930558092	pulse	1.0	t		face	adult-100.jpg	0.0	241.47317212024382	
62.0	214.19928725827776	pulse	1.0	t		face	adult-100.jpg	0.0	242.17315379760157	
63.0	214.81583088352272	number	0.0		47	character	number-54.jpg	0.0	242.78969742284653	0.39160134760459187
63.0	214.89920645150187	pulse	0.0	t		character	number-54.jpg	0.0	242.87307299082568	
63.0	215.2074322311273	ISI	1.0		233	character	number-54.jpg	0.0	243.18129877045112	2.0166373816314263
63.0	215.59920744762576	pulse	1.0	t		character	number-54.jpg	0.0	243.57307398694957	
63.0	216.29919093611807	pulse	1.0	t		character	number-54.jpg	0.0	244.27305747544187	
63.0	216.99922694750558	pulse	1.0	t		character	number-54.jpg	0.0	244.97309348682938	
64.0	217.22406961275874	house	0.0		46	place	house-72.jpg	0.0	245.19793615208255	0.3833202378259557
64.0	217.6073898505847	ISI	1.0		233	place	house-72.jpg	0.0	245.5812563899085	2.016651266993904
64.0	217.69916606320703	pulse	1.0	t		place	house-72.jpg	0.0	245.67303260253084	
64.0	218.39914713685357	pulse	1.0	t		place	house-72.jpg	0.0	246.37301367617738	
64.0	219.09912971977838	pulse	1.0	t		place	house-72.jpg	0.0	247.07299625910218	
65.0	219.6240411175786	adult	0.0		46	face	adult-5.jpg	0.0	247.5979076569024	0.3832852225627903
65.0	219.79911894352927	pulse	0.0	t		face	adult-5.jpg	0.0	247.77298548285307	
65.0	220.0073263401414	ISI	1.0		599	face	adult-5.jpg	0.0	247.9811928794652	5.000002414845767
65.0	220.49910484686734	pulse	1.0	t		face	adult-5.jpg	0.0	248.47297138619115	
65.0	221.1991698364036	pulse	1.0	t		face	adult-5.jpg	0.0	249.1730363757274	
65.0	221.89915332489545	pulse	1.0	t		face	adult-5.jpg	0.0	249.87301986421926	
65.0	222.5991476801937	pulse	1.0	t		face	adult-5.jpg	0.0	250.57301421951752	
65.0	223.29912815012858	pulse	1.0	t		face	adult-5.jpg	0.0	251.2729946894524	
65.0	223.9991086200639	pulse	1.0	t		face	adult-5.jpg	0.0	251.97297515938772	
65.0	224.69910991804318	pulse	1.0	t		face	adult-5.jpg	0.0	252.67297645736699	
66.0	225.00732875498716	baseline	0.0		708		baseline	0.0	252.98119529431096	5.899880495321213
66.0	225.39910185849567	pulse	0.0	t			baseline	0.0	253.37296839781948	
66.0	226.09907991358477	pulse	0.0	t			baseline	0.0	254.07294645290858	
66.0	226.79906823176862	pulse	0.0	t			baseline	0.0	254.77293477109242	
66.0	227.49905654995246	pulse	0.0	t			baseline	0.0	255.47292308927626	
66.0	228.19904516999168	pulse	0.0	t			baseline	0.0	256.1729117093155	
66.0	228.89901899910092	pulse	0.0	t			baseline	0.0	256.8728855384247	
66.0	229.59901908965776	pulse	0.0	t			baseline	0.0	257.57288562898157	
66.0	230.2989992577368	pulse	0.0	t			baseline	0.0	258.2728657970606	
66.0	230.90720925030837	ISI	1.0		12		baseline	0.0	258.8810757896322	0.1000011772371181
66.0	230.9989899907664	pulse	1.0	t			baseline	0.0	258.9728565300902	
