trial_nr	onset	event_type	phase	response	nr_frames	trial_type	stim_name	task_probe	onset_abs	duration
0.0	0.054301540869346354	baseline	0.0		41.0		baseline	0.0	97.95307574608341	0.34938034110018634
0.0	0.4036818819695327	ISI	1.0		11.0		baseline	0.0	98.3024560871836	0.09998880125385767
1.0	0.5036706832233904	baseline	0.0		48.0		baseline	0.0	98.40244488843746	0.40000078481898527
1.0	0.7038049474322179	pulse	0.0	t			baseline	0.0	98.60257915264629	
1.0	0.9036714680423756	ISI	1.0		11.0		baseline	0.0	98.80244567325644	0.09999453646014445
2.0	1.00366600450252	baseline	0.0		48.0		baseline	0.0	98.90244020971659	0.3999850884629268
2.0	1.4036510929654469	ISI	1.0		11.0		baseline	0.0	99.30242529817951	0.09999906425582594
2.0	1.408123950495792	pulse	1.0	t			baseline	0.0	99.30689815570986	
3.0	1.5036501572212728	baseline	0.0		48.0		baseline	0.0	99.40242436243534	0.3999868995797442
3.0	1.903637056801017	ISI	1.0		11.0		baseline	0.0	99.80241126201508	0.10000087537446234
4.0	2.0036379321754794	baseline	0.0		48.0		baseline	0.0	99.90241213738955	0.3999878051381529
4.0	2.1037643783911335	pulse	0.0	t			baseline	0.0	100.0025385836052	
4.0	2.4036257373136323	ISI	1.0		11.0		baseline	0.0	100.3023999425277	0.09998517901840387
5.0	2.503610916332036	baseline	0.0		48.0		baseline	0.0	100.4023851215461	0.3999929366418655
5.0	2.8037288502946467	pulse	0.0	t			baseline	0.0	100.70250305550871	
5.0	2.9036038529739017	ISI	1.0		11.0		baseline	0.0	100.80237805818797	0.09999212163529592
6.0	3.0035959746091976	baseline	0.0		48.0		baseline	0.0	100.90237017982327	0.3999875032877753
6.0	3.403583477896973	ISI	1.0		11.0		baseline	0.0	101.30235768311104	0.09999936610802251
7.0	3.5035828440049954	baseline	0.0		47.0		baseline	0.0	101.40235704921906	0.39998629587535106
7.0	3.507746000374027	pulse	0.0	t			baseline	0.0	101.4065202055881	
7.0	3.9035691398803465	ISI	1.0		11.0		baseline	0.0	101.80234334509441	0.09999815869559825
8.0	4.003567298575945	baseline	0.0		48.0		baseline	0.0	101.90234150379001	0.4000122552315588
8.0	4.203694922018258	pulse	0.0	t			baseline	0.0	102.10246912723233	
8.0	4.4035795538075035	ISI	1.0		11.0		baseline	0.0	102.30235375902157	0.0999794438121171
9.0	4.503558997619621	baseline	0.0		48.0		baseline	0.0	102.40233320283369	0.39998750328595634
9.0	4.903546500905577	ISI	1.0		11.0		baseline	0.0	102.80232070611964	0.0999903105202975
9.0	4.9080727864147775	pulse	1.0	t			baseline	0.0	102.80684699162884	
10.0	5.0035368114258745	baseline	0.0		48.0		baseline	0.0	102.90231101663994	0.4000095385526947
10.0	5.403546349978569	ISI	1.0		11.0		baseline	0.0	103.30232055519264	0.0999866882848437
11.0	5.503533038263413	baseline	0.0		48.0		baseline	0.0	103.40230724347748	0.3999872014319408
11.0	5.603643486270812	pulse	0.0	t			baseline	0.0	103.50241769148488	
11.0	5.903520239695354	ISI	1.0		11.0		baseline	0.0	103.80229444490942	0.10000268649309874
12.0	6.003522926188452	baseline	0.0		48.0		baseline	0.0	103.90229713140252	0.39998629587353207
12.0	6.303624560086973	pulse	0.0	t			baseline	0.0	104.20239876530104	
12.0	6.4035092220619845	ISI	1.0		11.0		baseline	0.0	104.30228342727605	0.09999725313718955
13.0	6.503506475199174	baseline	0.0		48.0		baseline	0.0	104.40228068041324	0.3999914273754257
13.0	6.9034979025746	ISI	1.0		11.0		baseline	0.0	104.80227210778867	0.09999423460794787
14.0	7.003492137182548	baseline	0.0		47.0		baseline	0.0	104.90226634239662	0.39998659772754763
14.0	7.007701477057708	pulse	0.0	t			baseline	0.0	104.90647568227178	
14.0	7.403478734910095	ISI	1.0		11.0		baseline	0.0	105.30225294012416	0.09999061237249407
15.0	7.503469347282589	baseline	0.0		48.0		baseline	0.0	105.40224355249666	0.4000152737608005
15.0	7.7035996874019474	pulse	0.0	t			baseline	0.0	105.60237389261601	
15.0	7.90348462104339	ISI	1.0		11.0		baseline	0.0	105.80225882625746	0.09998004751832923
16.0	8.003464668561719	baseline	0.0		48.0		baseline	0.0	105.90223887377579	0.3999896162567893
16.0	8.403454284818508	ISI	1.0		11.0		baseline	0.0	106.30222849003258	0.09998699013704027
16.0	8.407944046117336	pulse	1.0	t			baseline	0.0	106.3067182513314	
17.0	8.503441274955549	baseline	0.0		48.0		baseline	0.0	106.40221548016962	0.3999959551692882
17.0	8.903437230124837	ISI	1.0		11.0		baseline	0.0	106.8022114353389	0.09999966796203807
18.0	9.003436898086875	baseline	0.0		48.0		baseline	0.0	106.90221110330094	0.39999746443572803
18.0	9.103553383154576	pulse	0.0	t			baseline	0.0	107.00232758836864	
18.0	9.403434362522603	ISI	1.0		11.0		baseline	0.0	107.30220856773667	0.09999544201855315
19.0	9.503429804541156	baseline	0.0		48.0		baseline	0.0	107.40220400975522	0.3999832773461094
19.0	9.803537475501798	pulse	0.0	t			baseline	0.0	107.70231168071587	
19.0	9.903413081887265	ISI	1.0		11.0		baseline	0.0	107.80218728710133	0.09998789569544897
20.0	10.003400977582714	baseline	0.0		48.0		baseline	0.0	107.90217518279678	0.3999986718463333
20.0	10.403399649429048	ISI	1.0		11.0		baseline	0.0	108.30217385464312	0.09999242348931148
21.0	10.50339207291836	baseline	0.0		47.0		baseline	0.0	108.40216627813243	0.39999474775868293
21.0	10.507553418168754	pulse	0.0	t			baseline	0.0	108.40632762338282	
21.0	10.903386820677042	ISI	1.0		11.0		baseline	0.0	108.80216102589111	0.09998759384143341
22.0	11.003374414518476	baseline	0.0		48.0		baseline	0.0	108.90214861973254	0.40000561446686334
22.0	11.203498415725335	pulse	0.0	t			baseline	0.0	109.1022726209394	
22.0	11.403380028985339	ISI	1.0		11.0		baseline	0.0	109.3021542341994	0.09999121607688721
23.0	11.503371245062226	baseline	0.0		48.0		baseline	0.0	109.4021454502763	0.39999082366921357
23.0	11.90336206873144	ISI	1.0		3.0		baseline	0.0	109.80213627394551	0.1250791232141637
23.0	11.975814331437505	pulse	1.0	t			baseline	0.0	109.87458853665157	
24.0	12.028441191945603	body	0.0		45.0	body	body-57.jpg	0.0	109.92721539715967	0.3748555256152031
24.0	12.403296717560806	ISI	1.0		7.0	body	body-57.jpg	0.0	110.30207092277487	0.11670058991148835
25.0	12.519997307472295	body	0.0		46.0	body	body-71.jpg	0.0	110.41877151268636	0.38330227769256453
25.0	12.603424039149104	pulse	0.0	t		body	body-71.jpg	0.0	110.50219824436317	
25.0	12.90329958516486	ISI	1.0		6.0	body	body-71.jpg	0.0	110.80207379037893	0.1166682916409627
26.0	13.019967876805822	body	0.0		46.0	body	body-141.jpg	0.0	110.91874208201989	0.383320087017637
26.0	13.303459144652152	pulse	0.0	t		body	body-141.jpg	0.0	111.20223334986622	
26.0	13.403287963823459	ISI	1.0		6.0	body	body-141.jpg	0.0	111.30206216903753	0.11669515655921714
27.0	13.519983120382676	body	0.0		46.0	body	body-82.jpg	0.0	111.41875732559674	0.38329020357195986
27.0	13.903273323954636	ISI	1.0		6.0	body	body-82.jpg	0.0	111.8020475291687	0.1166646694055089
28.0	14.019937993360145	body	0.0		45.0	body	body-19.jpg	0.0	111.91871219857421	0.38331555922377447
28.0	14.01189270575378	pulse	0.0	t		body	body-19.jpg	0.0	111.91066691096785	
28.0	14.40325355258392	ISI	1.0		7.0	body	body-19.jpg	0.0	112.30202775779799	0.11668972320330795
29.0	14.519943275787227	body	0.0		46.0	body	body-27.jpg	0.0	112.4187174810013	0.3832871850427182
29.0	14.703365751338424	pulse	0.0	t		body	body-27.jpg	0.0	112.60213995655249	
29.0	14.903230460829946	ISI	1.0		7.0	body	body-27.jpg	0.0	112.80200466604401	0.11669847694065538
30.0	15.019928937770601	body	0.0		46.0	body	body-108.jpg	0.0	112.91870314298467	0.3833040888112009
30.0	15.403233026581802	ISI	1.0		6.0	body	body-108.jpg	0.0	113.30200723179587	0.11668519540762645
30.0	15.444158254276772	pulse	1.0	t		body	body-108.jpg	0.0	113.34293245949084	
31.0	15.519918221989428	body	0.0		46.0	body	body-33.jpg	0.0	113.4186924272035	0.3833034851049888
31.0	15.903221707094417	ISI	1.0		7.0	body	body-33.jpg	0.0	113.80199591230848	0.11668066761376394
32.0	16.01990237470818	body	0.0		46.0	body	body-114.jpg	0.0	113.91867657992225	0.38330408880938194
32.0	16.103328804532794	pulse	0.0	t		body	body-114.jpg	0.0	114.00210300974686	
32.0	16.403206463517563	ISI	1.0		8.0	body	body-114.jpg	0.0	114.30198066873163	0.11668428985103674
33.0	16.5198907533686	body	0.0		46.0	body	body-42.jpg	0.0	114.41866495858267	0.38328839245514246
33.0	16.80331500985085	pulse	0.0	t		body	body-42.jpg	0.0	114.70208921506492	
33.0	16.903179145823742	ISI	1.0		7.0	body	body-42.jpg	0.0	114.80195335103781	0.11670149546989705
34.0	17.01988064129364	body	0.0		46.0	body	body-50.jpg	0.0	114.9186548465077	0.38330227769256453
34.0	17.403182918986204	ISI	1.0		7.0	body	body-50.jpg	0.0	115.30195712420027	0.11667855464293098
35.0	17.519861473629135	body	0.0		45.0	body	body-142.jpg	0.0	115.4186356788432	0.38328567577809736
35.0	17.511687596650518	pulse	0.0	t		body	body-142.jpg	0.0	115.41046180186459	
35.0	17.903147149407232	ISI	1.0		1.0	body	body-142.jpg	0.0	115.8019213546213	0.11668942135111138
36.0	18.019836570758343	word	0.0		46.0	character	word-3.jpg	0.0	115.91861077597241	0.3833336704010435
36.0	18.20329647607832	pulse	0.0	t		character	word-3.jpg	0.0	116.10207068129239	
36.0	18.403170241159387	ISI	1.0		7.0	character	word-3.jpg	0.0	116.30194444637345	0.11670240103012475
37.0	18.51987264218951	word	0.0		46.0	character	word-85.jpg	0.0	116.41864684740358	0.38327028127605445
37.0	18.903142923465566	ISI	1.0		8.0	character	word-85.jpg	0.0	116.80191712867963	0.11668368614300562
37.0	18.934325544218154	pulse	1.0	t		character	word-85.jpg	0.0	116.83309974943222	
38.0	19.01982660960857	word	0.0		46.0	character	word-85.jpg	1.0	116.91860081482264	0.38327390351150825
38.0	19.40310051312008	ISI	1.0		7.0	character	word-85.jpg	1.0	117.30187471833415	0.11672685112171166
39.0	19.51982736424179	word	0.0		46.0	character	word-8.jpg	0.0	117.41860156945586	0.3832871850427182
39.0	19.603235682887316	pulse	0.0	t		character	word-8.jpg	0.0	117.50200988810138	
39.0	19.90311454928451	ISI	1.0		7.0	character	word-8.jpg	0.0	117.80188875449858	0.1166691972011904
40.0	20.0197837464857	word	0.0		46.0	character	word-124.jpg	0.0	117.91855795169977	0.383317974046804
40.0	20.303220680794766	pulse	0.0	t		character	word-124.jpg	0.0	118.20199488600883	
40.0	20.403101720532504	ISI	1.0		7.0	character	word-124.jpg	0.0	118.30187592574657	0.11668610096785414
41.0	20.51978782150036	word	0.0		46.0	character	word-144.jpg	0.0	118.41856202671443	0.38328869430733903
41.0	20.903076515807697	ISI	1.0		7.0	character	word-144.jpg	0.0	118.80185072102176	0.11669274173436861
42.0	21.019769257542066	word	0.0		45.0	character	word-74.jpg	0.0	118.91854346275613	0.38330740919263917
42.0	21.011537122936716	pulse	0.0	t		character	word-74.jpg	0.0	118.91031132815078	
42.0	21.403076666734705	ISI	1.0		7.0	character	word-74.jpg	0.0	119.30185087194877	0.11668338429080904
43.0	21.519760051025514	word	0.0		46.0	character	word-139.jpg	0.0	119.41853425623958	0.3832859776321129
43.0	21.703171056164138	pulse	0.0	t		character	word-139.jpg	0.0	119.6019452613782	
43.0	21.903046028657627	ISI	1.0		7.0	character	word-139.jpg	0.0	119.8018202338717	0.11670089176368492
44.0	22.019746920421312	word	0.0		46.0	character	word-31.jpg	0.0	119.91852112563538	0.38330318325097323
44.0	22.403050103672285	ISI	1.0		8.0	character	word-31.jpg	0.0	120.30182430888635	0.11667070646581124
44.0	22.435078214637542	pulse	1.0	t		character	word-31.jpg	0.0	120.33385241985161	
45.0	22.519720810138097	word	0.0		46.0	character	word-14.jpg	0.0	120.41849501535216	0.38331827590081957
45.0	22.903039086038916	ISI	1.0		7.0	character	word-14.jpg	0.0	120.80181329125298	0.11668308243679348
46.0	23.01972216847571	word	0.0		46.0	character	word-143.jpg	0.0	120.91849637368978	0.3832850720718852
46.0	23.103144372358656	pulse	0.0	t		character	word-143.jpg	0.0	121.00191857757272	
46.0	23.403007240547595	ISI	1.0		7.0	character	word-143.jpg	0.0	121.30178144576166	0.11669968435307965
47.0	23.519706924900674	word	0.0		46.0	character	word-118.jpg	0.0	121.41848113011474	0.3832862794843095
47.0	23.803127257295273	pulse	0.0	t		character	word-118.jpg	0.0	121.70190146250934	
47.0	23.902993204384984	ISI	1.0		6.0	character	word-118.jpg	0.0	121.80176740959905	0.11668489355542988
48.0	24.019678097940414	word	0.0		46.0	character	word-37.jpg	0.0	121.91845230315448	0.38329292024900496
48.0	24.40297101818942	ISI	1.0		7.0	character	word-37.jpg	0.0	122.30174522340349	0.11669998620527622
49.0	24.519671004394695	word	0.0		45.0	character	word-119.jpg	0.0	122.41844520960876	0.38334483896323945
49.0	24.51136733063322	pulse	0.0	t		character	word-119.jpg	0.0	122.41014153584729	
49.0	24.903015843357935	ISI	1.0		5.0	character	word-119.jpg	0.0	122.801790048572	0.11667221573043207
50.0	25.019688059088367	word	0.0		46.0	character	word-1.jpg	0.0	122.91846226430243	0.38326575348219194
50.0	25.20307884007707	pulse	0.0	t		character	word-1.jpg	0.0	123.10185304529114	
50.0	25.40295381257056	ISI	1.0		6.0	character	word-1.jpg	0.0	123.30172801778463	0.11668972320330795
51.0	25.519643535773866	word	0.0		46.0	character	word-58.jpg	0.0	123.41841774098793	0.38329744804468646
51.0	25.902940983818553	ISI	1.0		7.0	character	word-58.jpg	0.0	123.80171518903262	0.11669757138042769
51.0	25.942635858746144	pulse	1.0	t		character	word-58.jpg	0.0	123.84141006396021	
52.0	26.01963855519898	word	0.0		46.0	character	word-59.jpg	0.0	123.91841276041305	0.3833062017820339
52.0	26.402944756981015	ISI	1.0		6.0	character	word-59.jpg	0.0	124.30171896219508	0.11668579911383858
53.0	26.519630556094853	word	0.0		46.0	character	word-70.jpg	0.0	124.41840476130892	0.38330227769256453
53.0	26.603053061831815	pulse	0.0	t		character	word-70.jpg	0.0	124.50182726704588	
53.0	26.902932833787418	ISI	1.0		6.0	character	word-70.jpg	0.0	124.80170703900149	0.1166655749657366
54.0	27.019598408753154	word	0.0		46.0	character	word-47.jpg	0.0	124.91837261396722	0.3833025795447611
54.0	27.303023268941615	pulse	0.0	t		character	word-47.jpg	0.0	125.20179747415568	
54.0	27.402900988297915	ISI	1.0		8.0	character	word-47.jpg	0.0	125.30167519351198	0.11669757138042769
55.0	27.519598559678343	word	0.0		46.0	character	word-47.jpg	1.0	125.41837276489241	0.3832923165446118
55.0	27.902890876222955	ISI	1.0		3.0	character	word-47.jpg	1.0	125.80166508143702	0.11669425099898945
56.0	28.019585127221944	word	0.0		45.0	character	word-131.jpg	0.0	125.91835933243601	0.3832917128365807
56.0	28.01130952578751	pulse	0.0	t		character	word-131.jpg	0.0	125.91008373100158	
56.0	28.402876840058525	ISI	1.0		6.0	character	word-131.jpg	0.0	126.30165104527259	0.11669847694065538
57.0	28.51957531699918	word	0.0		46.0	character	word-106.jpg	0.0	126.41834952221325	0.3832877887489303
57.0	28.70299447216712	pulse	0.0	t		character	word-106.jpg	0.0	126.60176867738119	
57.0	28.90286310574811	ISI	1.0		7.0	character	word-106.jpg	0.0	126.80163731096218	0.11668851579270267
58.0	29.019551621540813	word	0.0		46.0	character	word-132.jpg	0.0	126.91832582675488	0.3832935239552171
58.0	29.40284514549603	ISI	1.0		7.0	character	word-132.jpg	0.0	127.3016193507101	0.11668579911383858
58.0	29.436419045596267	pulse	1.0	t		character	word-132.jpg	0.0	127.33519325081033	
59.0	29.51953094460987	word	0.0		46.0	character	word-104.jpg	0.0	127.41830514982394	0.38330469251741306
59.0	29.902835637127282	ISI	1.0		8.0	character	word-104.jpg	0.0	127.80160984234135	0.11670089176368492
60.0	30.019536528890967	house	0.0		46.0	place	house-116.jpg	0.0	127.91831073410503	0.3833025795447611
60.0	30.1029644679802	pulse	0.0	t		place	house-116.jpg	0.0	128.00173867319427	
60.0	30.402839108435728	ISI	1.0		3.0	place	house-116.jpg	0.0	128.3016133136498	0.11668187502618821
61.0	30.519520983461916	house	0.0		46.0	place	house-144.jpg	0.0	128.41829518867598	0.38328929801355116
61.0	30.802930449148334	pulse	0.0	t		place	house-144.jpg	0.0	128.7017046543624	
61.0	30.902810281475467	ISI	1.0		5.0	place	house-144.jpg	0.0	128.80158448668953	0.11670179732391261
62.0	31.01951207879938	house	0.0		46.0	place	house-55.jpg	0.0	128.91828628401345	0.3833315574302105
62.0	31.40284363622959	ISI	1.0		7.0	place	house-55.jpg	0.0	129.30161784144366	0.11668036576156737
63.0	31.519524001991158	house	0.0		45.0	place	house-131.jpg	0.0	129.41829820720523	0.38330469251741306
63.0	31.51124326905665	pulse	0.0	t		place	house-131.jpg	0.0	129.41001747427072	
63.0	31.90282869450857	ISI	1.0		7.0	place	house-131.jpg	0.0	129.80160289972264	0.11667644167209801
64.0	32.01950513618067	house	0.0		46.0	place	house-94.jpg	0.0	129.91827934139474	0.3832805442762037
64.0	32.20290678387573	pulse	0.0	t		place	house-94.jpg	0.0	130.1016809890898	
64.0	32.40278568045687	ISI	1.0		8.0	place	house-94.jpg	0.0	130.30155988567094	0.11668791208649054
65.0	32.51947359254336	house	0.0		46.0	place	house-94.jpg	1.0	130.41824779775743	0.38329473136764136
65.0	32.902768323911005	ISI	1.0		6.0	place	house-94.jpg	1.0	130.80154252912507	0.11667312128884078
65.0	32.94711354592437	pulse	1.0	t		place	house-94.jpg	1.0	130.84588775113843	
66.0	33.019441445199845	house	0.0		45.0	place	house-69.jpg	0.0	130.9182156504139	0.38330227769256453
66.0	33.023809257892935	response	0.0	b		place	house-69.jpg	0.0	130.922583463107	
66.0	33.40274372289241	ISI	1.0		7.0	place	house-69.jpg	0.0	131.30151792810648	0.11668821393868711
67.0	33.5194319368311	house	0.0		46.0	place	house-9.jpg	0.0	131.41820614204516	0.38331676663619874
67.0	33.602880703776464	pulse	0.0	t		place	house-9.jpg	0.0	131.50165490899053	
67.0	33.902748703467296	ISI	1.0		6.0	place	house-9.jpg	0.0	131.80152290868136	0.11666587681793317
68.0	34.01941458028523	house	0.0		46.0	place	house-17.jpg	0.0	131.9181887854993	0.3833028813969577
68.0	34.30283853491528	pulse	0.0	t		place	house-17.jpg	0.0	132.20161274012935	
68.0	34.40271746168219	ISI	1.0		8.0	place	house-17.jpg	0.0	132.30149166689625	0.11669093061573221
69.0	34.51940839229792	house	0.0		46.0	place	house-67.jpg	0.0	132.418182597512	0.3832953350738535
69.0	34.90270372737177	ISI	1.0		7.0	place	house-67.jpg	0.0	132.80147793258584	0.11669545841141371
70.0	35.019399185783186	house	0.0		45.0	place	house-97.jpg	0.0	132.91817339099725	0.38329141098438413
70.0	35.011116339876025	pulse	0.0	t		place	house-97.jpg	0.0	132.9098905450901	
70.0	35.40269059676757	ISI	1.0		6.0	place	house-97.jpg	0.0	133.30146480198164	0.11668459170323331
71.0	35.5193751884708	house	0.0		46.0	place	house-5.jpg	0.0	133.41814939368487	0.38331948331142485
71.0	35.70281547334707	pulse	0.0	t		place	house-5.jpg	0.0	133.60158967856114	
71.0	35.90269467178223	ISI	1.0		3.0	place	house-5.jpg	0.0	133.8014688769963	0.11668127131997608
72.0	36.019375943102204	word	0.0		46.0	character	word-97.jpg	0.0	133.91815014831627	0.3833040888112009
72.0	36.402680031913405	ISI	1.0		6.0	character	word-97.jpg	0.0	134.30145423712747	0.11668549726164201
72.0	36.44666363405122	pulse	1.0	t		character	word-97.jpg	0.0	134.3454378392653	
73.0	36.51936552917505	word	0.0		46.0	character	word-88.jpg	0.0	134.41813973438911	0.3833007684261247
73.0	36.90266629760117	ISI	1.0		7.0	character	word-88.jpg	0.0	134.80144050281524	0.11668428985103674
74.0	37.01935058745221	word	0.0		46.0	character	word-141.jpg	0.0	134.91812479266628	0.38330318325097323
74.0	37.10282863413704	pulse	0.0	t		character	word-141.jpg	0.0	135.0016028393511	
74.0	37.40265377070318	ISI	1.0		6.0	character	word-141.jpg	0.0	135.30142797591725	0.11668338429080904
75.0	37.51933715499399	word	0.0		46.0	character	word-83.jpg	0.0	135.41811136020806	0.3832932221030205
75.0	37.802746922534425	pulse	0.0	t		character	word-83.jpg	0.0	135.7015211277485	
75.0	37.90263037709701	ISI	1.0		8.0	character	word-83.jpg	0.0	135.80140458231108	0.11667946020133968
76.0	38.01930983729835	word	0.0		46.0	character	word-80.jpg	0.0	135.91808404251242	0.3833351796674833
76.0	38.402645016965835	ISI	1.0		8.0	character	word-80.jpg	0.0	136.3014192221799	0.11671356959050172
77.0	38.519358586556336	word	0.0		45.0	character	word-80.jpg	1.0	136.4181327917704	0.38328959986574773
77.0	38.51106759061986	pulse	0.0	t		character	word-80.jpg	1.0	136.40984179583393	
77.0	38.902648186422084	ISI	1.0		6.0	character	word-80.jpg	1.0	136.80142239163615	0.1166710083198268
77.0	38.94510592172264	response	1.0	b		character	word-80.jpg	1.0	136.8438801269367	
78.0	39.01931919474191	word	0.0		46.0	character	word-50.jpg	0.0	136.91809339995598	0.3832663571865851
78.0	39.202686431195616	pulse	0.0	t		character	word-50.jpg	0.0	137.10146063640968	
78.0	39.402585551928496	ISI	1.0		6.0	character	word-50.jpg	0.0	137.30135975714256	0.11667583796588588
79.0	39.51926138989438	word	0.0		46.0	character	word-69.jpg	0.0	137.41803559510845	0.38331223884051724
79.0	39.9025736287349	ISI	1.0		7.0	character	word-69.jpg	0.0	137.80134783394897	0.11669787323444325
79.0	39.93597094483994	pulse	1.0	t		character	word-69.jpg	0.0	137.834745150054	
80.0	40.01927150196934	word	0.0		46.0	character	word-5.jpg	0.0	137.9180457071834	0.3832877887489303
80.0	40.40255929071827	ISI	1.0		7.0	character	word-5.jpg	0.0	138.30133349593234	0.1166809694677795
81.0	40.51924026018605	word	0.0		46.0	character	word-112.jpg	0.0	138.41801446540012	0.3833062017802149
81.0	40.602678462277254	pulse	0.0	t		character	word-112.jpg	0.0	138.50145266749132	
81.0	40.90254646196627	ISI	1.0		7.0	character	word-112.jpg	0.0	138.80132066718033	0.11669485470520158
82.0	41.01924131667147	word	0.0		46.0	character	word-63.jpg	0.0	138.91801552188554	0.38330891845726
82.0	41.30266557315554	pulse	0.0	t		character	word-63.jpg	0.0	139.2014397783696	
82.0	41.40255023512873	ISI	1.0		7.0	character	word-63.jpg	0.0	139.3013244403428	0.1166682916427817
83.0	41.51921852677151	word	0.0		46.0	character	word-45.jpg	0.0	139.41799273198558	0.38331676663437975
83.0	41.90253529340589	ISI	1.0		8.0	character	word-45.jpg	0.0	139.80130949861996	0.11670058991148835
84.0	42.01923588331738	car	0.0		45.0	object	car-140.jpg	0.0	139.91801008853145	0.3832696775698423
84.0	42.010959376324536	pulse	0.0	t		object	car-140.jpg	0.0	139.9097335815386	
84.0	42.40250556088722	ISI	1.0		4.0	object	car-140.jpg	0.0	140.3012797661013	0.11669787323444325
85.0	42.519203434121664	car	0.0		46.0	object	car-107.jpg	0.0	140.41797763933573	0.38331193698832067
85.0	42.7026289282021	pulse	0.0	t		object	car-107.jpg	0.0	140.60140313341617	
85.0	42.902515371109985	ISI	1.0		7.0	object	car-107.jpg	0.0	140.80128957632405	0.11668157317217265
86.0	43.01919694428216	car	0.0		46.0	object	car-139.jpg	0.0	140.91797114949622	0.3832877887489303
86.0	43.40248473303109	ISI	1.0		8.0	object	car-139.jpg	0.0	141.30125893824516	0.1166809694677795
86.0	43.4342149150998	pulse	1.0	t		object	car-139.jpg	0.0	141.33298912031387	
87.0	43.51916570249887	car	0.0		46.0	object	car-44.jpg	0.0	141.41793990771293	0.38330107028014027
87.0	43.90246677277901	ISI	1.0		6.0	object	car-44.jpg	0.0	141.80124097799307	0.11670089176368492
88.0	44.01916766454269	car	0.0		46.0	object	car-95.jpg	0.0	141.91794186975676	0.3832895998675667
88.0	44.102598018456774	pulse	0.0	t		object	car-95.jpg	0.0	142.00137222367084	
88.0	44.40245726441026	ISI	1.0		6.0	object	car-95.jpg	0.0	142.30123146962433	0.11669576026361028
89.0	44.51915302467387	car	0.0		46.0	object	car-20.jpg	0.0	142.41792722988794	0.3832962406322622
89.0	44.80257697930392	pulse	0.0	t		object	car-20.jpg	0.0	142.701351184518	
89.0	44.90244926530613	ISI	1.0		8.0	object	car-20.jpg	0.0	142.8012234705202	0.11667191387641651
90.0	45.01912117918255	car	0.0		46.0	object	car-20.jpg	1.0	142.91789538439662	0.3833297463152121
90.0	45.40245092549776	ISI	1.0		7.0	object	car-20.jpg	1.0	143.30122513071183	0.11669545840959472
91.0	45.519146383907355	car	0.0		45.0	object	car-65.jpg	0.0	143.41792058912142	0.38331314439892594
91.0	45.51158194810523	pulse	0.0	t		object	car-65.jpg	0.0	143.4103561533193	
91.0	45.52353593001499	response	0.0	b		object	car-65.jpg	0.0	143.42231013522905	
91.0	45.90245952830628	ISI	1.0		7.0	object	car-65.jpg	0.0	143.80123373352035	0.11668881764489925
92.0	46.01914834595118	car	0.0		46.0	object	car-45.jpg	0.0	143.91792255116525	0.3832672627468128
92.0	46.20253701396905	pulse	0.0	t		object	car-45.jpg	0.0	144.10131121918312	
92.0	46.40241560869799	ISI	1.0		7.0	object	car-45.jpg	0.0	144.30118981391206	0.11667161202421994
93.0	46.51908722072221	car	0.0		46.0	object	car-108.jpg	0.0	144.41786142593628	0.3833164647821832
93.0	46.902403685504396	ISI	1.0		6.0	object	car-108.jpg	0.0	144.80117789071846	0.11668610096785414
93.0	46.94984380617461	pulse	1.0	t		object	car-108.jpg	0.0	144.84861801138868	
94.0	47.01908978647225	car	0.0		46.0	object	car-103.jpg	0.0	144.91786399168632	0.3833016739863524
94.0	47.4023914604586	ISI	1.0		7.0	object	car-103.jpg	0.0	145.30116566567267	0.11666768793656956
95.0	47.51905914839517	car	0.0		46.0	object	car-127.jpg	0.0	145.41783335360924	0.38330589992801833
95.0	47.602493426396904	pulse	0.0	t		object	car-127.jpg	0.0	145.50126763161097	
95.0	47.90236504832319	ISI	1.0		4.0	object	car-127.jpg	0.0	145.80113925353726	0.11670028805747279
96.0	48.01906533638066	word	0.0		46.0	character	word-92.jpg	0.0	145.91783954159473	0.383299862869535
96.0	48.30248204653981	pulse	0.0	t		character	word-92.jpg	0.0	146.20125625175388	
96.0	48.4023651992502	ISI	1.0		7.0	character	word-92.jpg	0.0	146.30113940446427	0.11668489355542988
97.0	48.51905009280563	word	0.0		46.0	character	word-126.jpg	0.0	146.4178242980197	0.3832862794843095
97.0	48.90233637228994	ISI	1.0		7.0	character	word-126.jpg	0.0	146.801110577504	0.11668549726164201
98.0	49.01902186955158	word	0.0		45.0	character	word-56.jpg	0.0	146.91779607476565	0.38330469251559407
98.0	49.010612849097015	pulse	0.0	t		character	word-56.jpg	0.0	146.90938705431108	
98.0	49.402326562067174	ISI	1.0		6.0	character	word-56.jpg	0.0	147.30110076728124	0.11669696767603455
99.0	49.51902352974321	word	0.0		46.0	character	word-91.jpg	0.0	147.41779773495728	0.3832850720718852
99.0	49.702433629321604	pulse	0.0	t		character	word-91.jpg	0.0	147.60120783453567	
99.0	49.90230860181509	ISI	1.0		6.0	character	word-91.jpg	0.0	147.80108280702916	0.11670089176368492
100.0	50.01900949357878	word	0.0		46.0	character	word-15.jpg	0.0	147.91778369879285	0.38330197583854897
100.0	50.40231146941733	ISI	1.0		7.0	character	word-15.jpg	0.0	148.3010856746314	0.1166864028218697
100.0	50.43807953886608	pulse	1.0	t		character	word-15.jpg	0.0	148.33685374408014	
101.0	50.5189978722392	word	0.0		46.0	character	word-103.jpg	0.0	148.41777207745326	0.38330016472173156
101.0	50.90229803696093	ISI	1.0		7.0	character	word-103.jpg	0.0	148.801072242175	0.11668459170323331
102.0	51.01898262866416	word	0.0		46.0	character	word-75.jpg	0.0	148.91775683387823	0.3833028813969577
102.0	51.10240875663476	pulse	0.0	t		character	word-75.jpg	0.0	149.00118296184883	
102.0	51.40228551006112	ISI	1.0		7.0	character	word-75.jpg	0.0	149.3010597152752	0.11669183617414092
103.0	51.51897734623526	word	0.0		46.0	character	word-33.jpg	0.0	149.41775155144933	0.38327299795309955
103.0	51.802378360040166	pulse	0.0	t		character	word-33.jpg	0.0	149.70115256525423	
103.0	51.90225034418836	ISI	1.0		7.0	character	word-33.jpg	0.0	149.80102454940243	0.11670602326557855
104.0	52.01895636745394	word	0.0		46.0	character	word-81.jpg	0.0	149.917730572668	0.3833345759612712
104.0	52.40229094341521	ISI	1.0		7.0	character	word-81.jpg	0.0	150.30106514862928	0.12501392296871927
105.0	52.52730486638393	word	0.0		44.0	character	word-12.jpg	0.0	150.426079071598	0.3749801908979862
105.0	52.51206823326356	pulse	0.0	t		character	word-12.jpg	0.0	150.41084243847763	
105.0	52.902285057281915	ISI	1.0		7.0	character	word-12.jpg	0.0	150.80105926249598	0.11667885649694654
106.0	53.01896391377886	word	0.0		46.0	character	word-16.jpg	0.0	150.91773811899293	0.38326756459900935
106.0	53.202353185501124	pulse	0.0	t		character	word-16.jpg	0.0	151.1011273907152	
106.0	53.40223147837787	ISI	1.0		7.0	character	word-16.jpg	0.0	151.30100568359194	0.11667161202421994
107.0	53.51890309040209	word	0.0		46.0	character	word-136.jpg	0.0	151.41767729561616	0.3833170684883953
107.0	53.902220158890486	ISI	1.0		7.0	character	word-136.jpg	0.0	151.80099436410455	0.11668278058459691
107.0	53.93477168293066	pulse	1.0	t		character	word-136.jpg	0.0	151.83354588814473	
108.0	54.01890293947508	adult	0.0		46.0	face	adult-122.jpg	0.0	151.91767714468915	0.38330318325097323
108.0	54.40220612272606	ISI	1.0		8.0	face	adult-122.jpg	0.0	152.30098032794012	0.11668519540944544
109.0	54.5188913181355	adult	0.0		46.0	face	adult-122.jpg	1.0	152.41766552334957	0.38330318325097323
109.0	54.60231744610792	pulse	0.0	t		face	adult-122.jpg	1.0	152.50109165132199	
109.0	54.902194501386475	ISI	1.0		6.0	face	adult-122.jpg	1.0	152.80096870660054	0.11668821393868711
110.0	55.01888271532516	adult	0.0		45.0	face	adult-50.jpg	0.0	152.91765692053923	0.3832980517508986
110.0	55.02332085976195	response	0.0	b		face	adult-50.jpg	0.0	152.92209506497602	
110.0	55.302273164274084	pulse	0.0	t		face	adult-50.jpg	0.0	153.20104736948815	
110.0	55.40218076707606	ISI	1.0		3.0	face	adult-50.jpg	0.0	153.30095497229013	0.11668519540944544
111.0	55.518865962485506	adult	0.0		46.0	face	adult-67.jpg	0.0	153.41764016769957	0.3833016739845334
111.0	55.90216763647004	ISI	1.0		7.0	face	adult-67.jpg	0.0	153.8009418416841	0.11667221573225106
112.0	56.01883985220229	adult	0.0		45.0	face	adult-57.jpg	0.0	153.91761405741636	0.38331495551574335
112.0	56.01053195249733	pulse	0.0	t		face	adult-57.jpg	0.0	153.9093061577114	
112.0	56.402154807718034	ISI	1.0		6.0	face	adult-57.jpg	0.0	154.3009290129321	0.11668157317399164
113.0	56.518836380892026	adult	0.0		46.0	face	adult-21.jpg	0.0	154.4176105861061	0.38329201469059626
113.0	56.70226127126625	pulse	0.0	t		face	adult-21.jpg	0.0	154.60103547648032	
113.0	56.90212839558262	ISI	1.0		7.0	face	adult-21.jpg	0.0	154.8009026007967	0.11668308243861247
114.0	57.018811478021235	adult	0.0		46.0	face	adult-48.jpg	0.0	154.9175856832353	0.38330197583854897
114.0	57.40211345385978	ISI	1.0		7.0	face	adult-48.jpg	0.0	155.30088765907385	0.11669968435307965
114.0	57.438683848542496	pulse	1.0	t		face	adult-48.jpg	0.0	155.33745805375656	
115.0	57.51881313821286	adult	0.0		46.0	face	adult-63.jpg	0.0	155.41758734342693	0.38328959986574773
115.0	57.90210273807861	ISI	1.0		7.0	face	adult-63.jpg	0.0	155.80087694329268	0.11669666582201899
116.0	58.01879940390063	adult	0.0		46.0	face	adult-71.jpg	0.0	155.9175736091147	0.3833031832527922
116.0	58.102224928166834	pulse	0.0	t		face	adult-71.jpg	0.0	156.0009991333809	
116.0	58.40210258715342	ISI	1.0		6.0	face	adult-71.jpg	0.0	156.3008767923675	0.11668247873058135
117.0	58.518785065884	adult	0.0		46.0	face	adult-86.jpg	0.0	156.41755927109807	0.38330288139877666
117.0	58.80220237974936	pulse	0.0	t		face	adult-86.jpg	0.0	156.70097658496343	
117.0	58.90208794728278	ISI	1.0		3.0	face	adult-86.jpg	0.0	156.80086215249685	0.11668489355542988
118.0	59.01877284083821	adult	0.0		46.0	face	adult-130.jpg	0.0	156.91754704605228	0.38333397225687804
118.0	59.40210681309509	ISI	1.0		7.0	face	adult-130.jpg	0.0	157.30088101830916	0.11668127131997608
119.0	59.518788084415064	adult	0.0		45.0	face	adult-44.jpg	0.0	157.41756228962913	0.38330499436779064
119.0	59.51072468562779	pulse	0.0	t		face	adult-44.jpg	0.0	157.40949889084186	
119.0	59.902093078782855	ISI	1.0		6.0	face	adult-44.jpg	0.0	157.80086728399692	0.1166891194989148
120.0	60.01878219828177	car	0.0		46.0	object	car-73.jpg	0.0	157.91755640349584	0.3832663571865851
120.0	60.2021693570332	pulse	0.0	t		object	car-73.jpg	0.0	158.10094356224727	
120.0	60.402048555468355	ISI	1.0		7.0	object	car-73.jpg	0.0	158.30082276068242	0.11668489355542988
121.0	60.518733449023784	car	0.0		46.0	object	car-36.jpg	0.0	158.41750765423785	0.38329110913218756
121.0	60.90202455815597	ISI	1.0		6.0	object	car-36.jpg	0.0	158.80079876337004	0.11670994735322893
121.0	60.943435165450865	pulse	1.0	t		object	car-36.jpg	0.0	158.84220937066493	
122.0	61.0187345055092	car	0.0		46.0	object	car-83.jpg	0.0	158.91750871072327	0.3832871850427182
122.0	61.40202169055192	ISI	1.0		6.0	object	car-83.jpg	0.0	159.300795895766	0.11668579911565757
123.0	61.51870748966758	car	0.0		46.0	object	car-109.jpg	0.0	159.41748169488164	0.38330227769256453
123.0	61.60213301393378	pulse	0.0	t		object	car-109.jpg	0.0	159.50090721914785	
123.0	61.90200976736014	ISI	1.0		7.0	object	car-109.jpg	0.0	159.8007839725742	0.11668398799702118
124.0	62.01869375535716	car	0.0		46.0	object	car-60.jpg	0.0	159.91746796057123	0.38328024242400716
124.0	62.30208541171851	pulse	0.0	t		object	car-60.jpg	0.0	160.20085961693258	
124.0	62.40197399778117	ISI	1.0		6.0	object	car-60.jpg	0.0	160.30074820299524	0.11669847694065538
125.0	62.518672474721825	car	0.0		46.0	object	car-55.jpg	0.0	160.4174466799359	0.38330861660506343
125.0	62.90198109132689	ISI	1.0		7.0	object	car-55.jpg	0.0	160.80075529654096	0.11667825278891542
126.0	63.018659344115804	car	0.0		45.0	object	car-84.jpg	0.0	160.91743354932987	0.38330861660506343
126.0	63.01056153409081	pulse	0.0	t		object	car-84.jpg	0.0	160.90933573930488	
126.0	63.40196796072087	ISI	1.0		7.0	object	car-84.jpg	0.0	161.30074216593493	0.11668670467406628
127.0	63.51865466539493	car	0.0		46.0	object	car-47.jpg	0.0	161.417428870609	0.3833016739863524
127.0	63.702074424269085	pulse	0.0	t		object	car-47.jpg	0.0	161.60084862948315	
127.0	63.901956339381286	ISI	1.0		7.0	object	car-47.jpg	0.0	161.80073054459535	0.11668398799702118
128.0	64.01864032737831	car	0.0		46.0	object	car-126.jpg	0.0	161.91741453259237	0.3833025795447611
128.0	64.40194290692307	ISI	1.0		7.0	object	car-126.jpg	0.0	162.30071711213714	0.11667161202603893
128.0	64.43464022595617	pulse	1.0	t		object	car-126.jpg	0.0	162.33341443117024	
129.0	64.51861451894911	car	0.0		46.0	object	car-126.jpg	1.0	162.41738872416317	0.3833146536635468
129.0	64.90192917261265	ISI	1.0		6.0	object	car-126.jpg	1.0	162.80070337782672	0.11668549726164201
129.0	64.94507543457075	response	1.0	b		object	car-126.jpg	1.0	162.84384963978482	
130.0	65.0186146698743	car	0.0		46.0	object	car-42.jpg	0.0	162.91738887508836	0.38330288139877666
130.0	65.10201031069482	pulse	0.0	t		object	car-42.jpg	0.0	163.0007845159089	
130.0	65.40191755127307	ISI	1.0		7.0	object	car-42.jpg	0.0	163.30069175648714	0.11666798978876614
131.0	65.51858554106184	car	0.0		46.0	object	car-27.jpg	0.0	163.4173597462759	0.38331857775301614
131.0	65.80202126795848	pulse	0.0	t		object	car-27.jpg	0.0	163.70079547317255	
131.0	65.90190411881485	ISI	1.0		7.0	object	car-27.jpg	0.0	163.80067832402892	0.11668308243861247
132.0	66.01858720125347	car	0.0		46.0	object	car-96.jpg	0.0	163.91736140646753	0.3833336704028625
132.0	66.40192087165633	ISI	1.0		6.0	object	car-96.jpg	0.0	164.3006950768704	0.11668066761376394
133.0	66.5186015392701	car	0.0		45.0	object	car-144.jpg	0.0	164.41737574448416	0.38330589992801833
133.0	66.51060967964077	pulse	0.0	t		object	car-144.jpg	0.0	164.40938388485483	
133.0	66.90190743919811	ISI	1.0		7.0	object	car-144.jpg	0.0	164.80068164441218	0.11668881764489925
134.0	67.01859625684301	car	0.0		46.0	object	car-16.jpg	0.0	164.91737046205708	0.38326756459900935
134.0	67.20198492485906	pulse	0.0	t		object	car-16.jpg	0.0	165.10075913007313	
134.0	67.40186382144202	ISI	1.0		7.0	object	car-16.jpg	0.0	165.3006380266561	0.11668549726164201
135.0	67.51854931870366	car	0.0		46.0	object	car-121.jpg	0.0	165.41732352391773	0.38330952216347214
135.0	67.90185884086713	ISI	1.0		7.0	object	car-121.jpg	0.0	165.8006330460812	0.1166628582886915
135.0	67.94212753832107	pulse	1.0	t		object	car-121.jpg	0.0	165.84090174353514	
136.0	68.01852169915583	car	0.0		46.0	object	car-64.jpg	0.0	165.9172959043699	0.38331495551756234
136.0	68.40183665467339	ISI	1.0		6.0	object	car-64.jpg	0.0	166.30061085988746	0.11668308243679348
137.0	68.51851973711018	car	0.0		46.0	object	car-106.jpg	0.0	166.41729394232425	0.38330499436960963
137.0	68.60194767620123	pulse	0.0	t		object	car-106.jpg	0.0	166.5007218814153	
137.0	68.90182473147979	ISI	1.0		7.0	object	car-106.jpg	0.0	166.80059893669386	0.1166836861448246
138.0	69.01850841762462	car	0.0		46.0	object	car-113.jpg	0.0	166.91728262283868	0.3833025795447611
138.0	69.30192965557762	pulse	0.0	t		object	car-113.jpg	0.0	167.2007038607917	
138.0	69.40181099716938	ISI	1.0		7.0	object	car-113.jpg	0.0	167.30058520238344	0.11668217687838478
139.0	69.51849317404776	car	0.0		46.0	object	car-40.jpg	0.0	167.41726737926183	0.38330469251559407
139.0	69.90179786656336	ISI	1.0		6.0	object	car-40.jpg	0.0	167.80057207177742	0.11668036576156737
140.0	70.01847823232492	car	0.0		45.0	object	car-5.jpg	0.0	167.917252437539	0.38330650363423047
140.0	70.01029379049214	pulse	0.0	t		object	car-5.jpg	0.0	167.9090679957062	
140.0	70.40178473595915	ISI	1.0		6.0	object	car-5.jpg	0.0	168.30055894117322	0.11669847694065538
141.0	70.51848321289981	car	0.0		46.0	object	car-79.jpg	0.0	168.41725741811388	0.38327299795309955
141.0	70.70188908653654	pulse	0.0	t		object	car-79.jpg	0.0	168.6006632917506	
141.0	70.90175621085291	ISI	1.0		5.0	object	car-79.jpg	0.0	168.80053041606698	0.11669485470338259
142.0	71.01845106555629	car	0.0		46.0	object	car-46.jpg	0.0	168.91722527077036	0.38329382580923266
142.0	71.40174489136552	ISI	1.0		6.0	object	car-46.jpg	0.0	169.3005190965796	0.11669908064686751
142.0	71.44529110852818	pulse	1.0	t		object	car-46.jpg	0.0	169.34406531374225	
143.0	71.51844397201239	car	0.0		46.0	object	car-10.jpg	0.0	169.41721817722646	0.38330046657392813
143.0	71.90174443858632	ISI	1.0		5.0	object	car-10.jpg	0.0	169.8005186438004	0.11668428984921775
144.0	72.01842872843554	house	0.0		46.0	place	house-102.jpg	0.0	169.9172029336496	0.38330378695718537
144.0	72.10185576196636	pulse	0.0	t		place	house-102.jpg	0.0	170.00062996718043	
144.0	72.40173251539272	ISI	1.0		7.0	place	house-102.jpg	0.0	170.3005067206068	0.11668308243861247
145.0	72.51841559783134	house	0.0		46.0	place	house-58.jpg	0.0	170.4171898030454	0.383290807278172
145.0	72.80182566722397	pulse	0.0	t		place	house-58.jpg	0.0	170.70059987243803	
145.0	72.90170640510951	ISI	1.0		7.0	place	house-58.jpg	0.0	170.80048061032358	0.11670240103012475
146.0	73.01840880613963	house	0.0		46.0	place	house-77.jpg	0.0	170.9171830113537	0.38331223884051724
146.0	73.40172104498015	ISI	1.0		6.0	place	house-77.jpg	0.0	171.30049525019422	0.11668096946596052
147.0	73.51840201444611	house	0.0		45.0	place	house-86.jpg	0.0	171.41717621966018	0.3833052962218062
147.0	73.51020670590697	pulse	0.0	t		place	house-86.jpg	0.0	171.40898091112103	
147.0	73.90170731066792	ISI	1.0		6.0	place	house-86.jpg	0.0	171.80048151588198	0.11668308243861247
148.0	74.01839039310653	house	0.0		46.0	place	house-140.jpg	0.0	171.9171645983206	0.383272696099084
148.0	74.2017857018891	pulse	0.0	t		place	house-140.jpg	0.0	172.10055990710316	
148.0	74.40166308920561	ISI	1.0		6.0	place	house-140.jpg	0.0	172.30043729441968	0.11669696767603455
149.0	74.51836005688165	house	0.0		46.0	place	house-11.jpg	0.0	172.41713426209571	0.3832953350738535
149.0	74.9016553919555	ISI	1.0		7.0	place	house-11.jpg	0.0	172.80042959716957	0.11669394914497389
149.0	74.94182810015991	pulse	1.0	t		place	house-11.jpg	0.0	172.84060230537398	
150.0	75.01834934110047	house	0.0		46.0	place	house-76.jpg	0.0	172.91712354631454	0.3833034851049888
150.0	75.40165282620546	ISI	1.0		7.0	place	house-76.jpg	0.0	173.30042703141953	0.11668278058459691
151.0	75.51833560679006	house	0.0		46.0	place	house-22.jpg	0.0	173.41710981200413	0.3832877887489303
151.0	75.60175539584998	pulse	0.0	t		place	house-22.jpg	0.0	173.50052960106404	
151.0	75.80172605573898	response	0.0	b		place	house-22.jpg	0.0	173.70050026095305	
151.0	75.90162339553899	ISI	1.0		6.0	place	house-22.jpg	0.0	173.80039760075306	0.11669968435307965
152.0	76.01832307989207	house	0.0		46.0	place	house-95.jpg	0.0	173.91709728510614	0.3833028813969577
152.0	76.30174431784508	pulse	0.0	t		place	house-95.jpg	0.0	174.20051852305915	
152.0	76.40162596128903	ISI	1.0		7.0	place	house-95.jpg	0.0	174.3004001665031	0.11668459170323331
153.0	76.51831055299226	house	0.0		46.0	place	house-95.jpg	1.0	174.41708475820633	0.38330197583854897
153.0	76.90161252883081	ISI	1.0		7.0	place	house-95.jpg	1.0	174.80038673404488	0.11667946020315867
154.0	77.01829198903397	house	0.0		45.0	place	house-125.jpg	0.0	174.91706619424804	0.3833071073404426
154.0	77.00996114850386	pulse	0.0	t		place	house-125.jpg	0.0	174.90873535371793	
154.0	77.19340958341127	response	0.0	b		place	house-125.jpg	0.0	175.09218378862533	
154.0	77.40159909637441	ISI	1.0		7.0	place	house-125.jpg	0.0	175.30037330158848	0.11668851579088368
155.0	77.5182876121653	house	0.0		46.0	place	house-83.jpg	0.0	175.41706181737936	0.38330740919263917
155.0	77.70170525806861	pulse	0.0	t		place	house-83.jpg	0.0	175.60047946328268	
155.0	77.90159502135793	ISI	1.0		11.0	place	house-83.jpg	0.0	175.800369226572	0.0999884994016611
156.0	78.0015835207596	baseline	0.0		48.0		baseline	0.0	175.90035772597366	0.39997754213800363
156.0	78.4015610628976	ISI	1.0		11.0		baseline	0.0	176.30033526811167	0.09999031051847851
156.0	78.40625548051867	pulse	1.0	t			baseline	0.0	176.30502968573273	
157.0	78.50155137341608	baseline	0.0		48.0		baseline	0.0	176.40032557863015	0.40001648117322475
157.0	78.9015678545893	ISI	1.0		11.0		baseline	0.0	176.80034205980337	0.0999839716077986
158.0	79.0015518261971	baseline	0.0		48.0		baseline	0.0	176.90032603141117	0.39997542916535167
158.0	79.10166076493806	pulse	0.0	t			baseline	0.0	177.00043497015213	
158.0	79.40152725536245	ISI	1.0		11.0		baseline	0.0	177.30030146057652	0.10001445875968784
159.0	79.50154171412214	baseline	0.0		48.0		baseline	0.0	177.4003159193362	0.39997844769641233
159.0	79.8016388202268	pulse	0.0	t			baseline	0.0	177.70041302544087	
159.0	79.90152016181855	ISI	1.0		11.0		baseline	0.0	177.80029436703262	0.09999453646014445
160.0	80.0015146982787	baseline	0.0		48.0		baseline	0.0	177.90028890349276	0.40005904244389967
160.0	80.4015737407226	ISI	1.0		11.0		baseline	0.0	178.30034794593666	0.10000208278506761
161.0	80.50157582350766	baseline	0.0		47.0		baseline	0.0	178.40035002872173	0.39998840884618403
161.0	80.50593729728826	pulse	0.0	t			baseline	0.0	178.40471150250232	
161.0	80.90156423235385	ISI	1.0		11.0		baseline	0.0	178.80033843756792	0.10002411805362499
162.0	81.00158835040747	baseline	0.0		48.0		baseline	0.0	178.90036255562154	0.39997452360876196
162.0	81.2016854866979	pulse	0.0	t			baseline	0.0	179.10045969191196	
162.0	81.40156287401624	ISI	1.0		11.0		baseline	0.0	179.3003370792303	0.09998578272279701
163.0	81.50154865673903	baseline	0.0		48.0		baseline	0.0	179.4003228619531	0.4000031996420148
163.0	81.90155185638105	ISI	1.0		11.0		baseline	0.0	179.80032606159511	0.09998699013704027
163.0	81.90622303132295	pulse	1.0	t			baseline	0.0	179.80499723653702	
164.0	82.00153884651809	baseline	0.0		48.0		baseline	0.0	179.90031305173216	0.39998750328595634
164.0	82.40152634980404	ISI	1.0		11.0		baseline	0.0	180.3003005550181	0.09999815869741724
165.0	82.50152450850146	baseline	0.0		48.0		baseline	0.0	180.40029871371553	0.40000380334640795
165.0	82.60163556021507	pulse	0.0	t			baseline	0.0	180.50040976542914	
165.0	82.90152831184787	ISI	1.0		11.0		baseline	0.0	180.80030251706194	0.0999839716077986
166.0	83.00151228345567	baseline	0.0		48.0		baseline	0.0	180.90028648866974	0.3999841829026991
166.0	83.30162085997472	pulse	0.0	t			baseline	0.0	181.2003950651888	
166.0	83.40149646635837	ISI	1.0		11.0		baseline	0.0	181.30027067157243	0.09999785684340168
167.0	83.50149432320177	baseline	0.0		48.0		baseline	0.0	181.40026852841584	0.39998810699398746
167.0	83.90148243019576	ISI	1.0		4.0		baseline	0.0	181.80025663540982	0.1166592360514187
168.0	84.01814166624717	adult	0.0		45.0	face	adult-38.jpg	0.0	181.91691587146124	0.3832889961613546
168.0	84.00995571514977	pulse	0.0	t		face	adult-38.jpg	0.0	181.90872992036384	
168.0	84.40143066240853	ISI	1.0		7.0	face	adult-38.jpg	0.0	182.3002048676226	0.11670300473451789
169.0	84.51813366714305	adult	0.0		46.0	face	adult-99.jpg	0.0	182.41690787235711	0.3832515663907543
169.0	84.70151237401114	pulse	0.0	t		face	adult-99.jpg	0.0	182.6002865792252	
169.0	84.9013852335338	ISI	1.0		7.0	face	adult-99.jpg	0.0	182.80015943874787	0.11670270288232132
170.0	85.01808793641612	adult	0.0		46.0	face	adult-41.jpg	0.0	182.9168621416302	0.3833007684279437
170.0	85.40138870484407	ISI	1.0		7.0	face	adult-41.jpg	0.0	183.30016291005813	0.11668398799702118
170.0	85.43412405735216	pulse	1.0	t		face	adult-41.jpg	0.0	183.33289826256623	
171.0	85.51807269284109	adult	0.0		46.0	face	adult-32.jpg	0.0	183.41684689805516	0.3832862794824905
171.0	85.90135897232358	ISI	1.0		7.0	face	adult-32.jpg	0.0	183.80013317753765	0.11668459170323331
172.0	86.01804356402681	adult	0.0		46.0	face	adult-92.jpg	0.0	183.91681776924088	0.3833040888112009
172.0	86.10147301238248	pulse	0.0	t		face	adult-92.jpg	0.0	184.00024721759655	
172.0	86.40134765283801	ISI	1.0		5.0	face	adult-92.jpg	0.0	184.30012185805208	0.11670058990966936
173.0	86.51804824274768	adult	0.0		46.0	face	adult-60.jpg	0.0	184.41682244796175	0.38330197584036796
173.0	86.80146525476084	pulse	0.0	t		face	adult-60.jpg	0.0	184.7002394599749	
173.0	86.90135021858805	ISI	1.0		8.0	face	adult-60.jpg	0.0	184.80012442380212	0.11668670467406628
174.0	87.01803692326212	adult	0.0		46.0	face	adult-76.jpg	0.0	184.91681112847618	0.38329865545529174
174.0	87.40133557871741	ISI	1.0		7.0	face	adult-76.jpg	0.0	185.30010978393148	0.1166773472323257
175.0	87.51801292594973	adult	0.0		45.0	face	adult-9.jpg	0.0	185.4167871311638	0.383317974046804
175.0	87.50989368436058	pulse	0.0	t		face	adult-9.jpg	0.0	185.40866788957464	
175.0	87.90133089999654	ISI	1.0		5.0	face	adult-9.jpg	0.0	185.8001051052106	0.1166782527907344
176.0	88.01800915278727	adult	0.0		46.0	face	adult-36.jpg	0.0	185.91678335800134	0.38330137213233684
176.0	88.20143011907203	pulse	0.0	t		face	adult-36.jpg	0.0	186.1002043242861	
176.0	88.40131052491961	ISI	1.0		7.0	face	adult-36.jpg	0.0	186.30008473013368	0.11668247873240034
177.0	88.51799300365201	adult	0.0		46.0	face	adult-33.jpg	0.0	186.41676720886608	0.3833025795447611
177.0	88.90129558319677	ISI	1.0		8.0	face	adult-33.jpg	0.0	186.80006978841084	0.11668398799702118
177.0	88.9333161478371	pulse	1.0	t		face	adult-33.jpg	0.0	186.83209035305117	
178.0	89.01797957119379	adult	0.0		46.0	face	adult-33.jpg	1.0	186.91675377640786	0.38328748689673375
178.0	89.3347202471814	response	0.0	b		face	adult-33.jpg	1.0	187.23349445239546	
178.0	89.40126705809053	ISI	1.0		6.0	face	adult-33.jpg	1.0	187.3000412633046	0.1167066269699717
179.0	89.5179736850605	adult	0.0		46.0	face	adult-54.jpg	0.0	187.41674789027456	0.3832962406322622
179.0	89.60139347412041	pulse	0.0	t		face	adult-54.jpg	0.0	187.50016767933448	
179.0	89.90126992569276	ISI	1.0		7.0	face	adult-54.jpg	0.0	187.80004413090683	0.11667070646581124
180.0	90.01794063215857	adult	0.0		46.0	face	adult-27.jpg	0.0	187.91671483737264	0.38329956101551943
180.0	90.3013627756718	pulse	0.0	t		face	adult-27.jpg	0.0	188.20013698088587	
180.0	90.40124019317409	ISI	1.0		7.0	face	adult-27.jpg	0.0	188.30001439838816	0.11668187502618821
181.0	90.51792206820028	adult	0.0		46.0	face	adult-88.jpg	0.0	188.41669627341435	0.38335480011119216
181.0	90.90127686831147	ISI	1.0		7.0	face	adult-88.jpg	0.0	188.80005107352554	0.11666497125952446
182.0	91.017941839571	adult	0.0		45.0	face	adult-15.jpg	0.0	188.91671604478506	0.38330559807582176
182.0	91.00977128297563	pulse	0.0	t		face	adult-15.jpg	0.0	188.9085454881897	
182.0	91.40124743764682	ISI	1.0		6.0	face	adult-15.jpg	0.0	189.30002164286088	0.11669394914497389
183.0	91.51794138679179	adult	0.0		46.0	face	adult-137.jpg	0.0	189.41671559200586	0.38326032012810174
183.0	91.7013270362786	pulse	0.0	t		face	adult-137.jpg	0.0	189.60010124149267	
183.0	91.90120170691989	ISI	1.0		6.0	face	adult-137.jpg	0.0	189.79997591213396	0.11670028805747279
184.0	92.01790199497736	adult	0.0		46.0	face	adult-85.jpg	0.0	189.91667620019143	0.38329020357195986
184.0	92.40119219854932	ISI	1.0		7.0	face	adult-85.jpg	0.0	190.2999664037634	0.1084693608663656
184.0	92.44042221988275	pulse	1.0	t		face	adult-85.jpg	0.0	190.33919642509682	
185.0	92.50966155941569	adult	0.0		47.0	face	adult-85.jpg	1.0	190.40843576462976	0.39151750852943223
185.0	92.90117906794512	ISI	1.0		6.0	face	adult-85.jpg	1.0	190.7999532731592	0.10853124072673381
186.0	93.00971030867186	adult	0.0		47.0	face	adult-119.jpg	0.0	190.90848451388592	0.39146649537542544
186.0	93.0346388374328	response	0.0	b		face	adult-119.jpg	0.0	190.93341304264686	
186.0	93.10127409126471	pulse	0.0	t		face	adult-119.jpg	0.0	191.00004829647878	
186.0	93.40117680404728	ISI	1.0		6.0	face	adult-119.jpg	0.0	191.29995100926135	0.10835344931911095
187.0	93.50953025336639	adult	0.0		47.0	face	adult-98.jpg	0.0	191.40830445858046	0.3916207422516891
187.0	93.80126905032012	pulse	0.0	t		face	adult-98.jpg	0.0	191.70004325553418	
187.0	93.90115099561808	ISI	1.0		6.0	face	adult-98.jpg	0.0	191.79992520083215	0.10836582529191219
188.0	94.00951682091	adult	0.0		47.0	face	adult-79.jpg	0.0	191.90829102612406	0.39163372192888346
188.0	94.40115054283888	ISI	1.0		6.0	face	adult-79.jpg	0.0	192.29992474805294	0.10835827896698902
189.0	94.50950882180587	adult	0.0		46.0	face	adult-121.jpg	0.0	192.40828302701993	0.39163100525183836
189.0	94.50551047716726	pulse	0.0	t		face	adult-121.jpg	0.0	192.40428468238133	
189.0	94.9011398270577	ISI	1.0		7.0	face	adult-121.jpg	0.0	192.79991403227177	0.10835375117130752
190.0	95.00949357822901	adult	0.0		47.0	face	adult-30.jpg	0.0	192.90826778344308	0.3916325145164592
190.0	95.20124176281024	pulse	0.0	t		face	adult-30.jpg	0.0	193.1000159680243	
190.0	95.40112609274547	ISI	1.0		6.0	face	adult-30.jpg	0.0	193.29990029795954	0.10834831781903631
191.0	95.50947441056451	adult	0.0		47.0	face	adult-45.jpg	0.0	193.40824861577858	0.39163855157676153
191.0	95.90111296214127	ISI	1.0		11.0	face	adult-45.jpg	0.0	193.79988716735534	0.0999839716059796
191.0	95.90557434925904	pulse	1.0	t		face	adult-45.jpg	0.0	193.8043485544731	
192.0	96.00109693374725	baseline	0.0		48.0		baseline	0.0	193.89987113896132	0.39998569216913893
192.0	96.40108262591639	ISI	1.0		11.0		baseline	0.0	194.29985683113046	0.10003166437854816
193.0	96.50111429029494	baseline	0.0		48.0		baseline	0.0	194.399888495509	0.3999624494881573
193.0	96.60117553626515	pulse	0.0	t			baseline	0.0	194.4999497414792	
193.0	96.9010767397831	ISI	1.0		11.0		baseline	0.0	194.79985094499716	0.09999332904953917
194.0	97.00107006883263	baseline	0.0		48.0		baseline	0.0	194.8998442740467	0.3999859940213355
194.0	97.30117713608524	pulse	0.0	t			baseline	0.0	195.1999513412993	
194.0	97.40105606285397	ISI	1.0		11.0		baseline	0.0	195.29983026806804	0.09999363090173574
195.0	97.5010496937557	baseline	0.0		48.0		baseline	0.0	195.39982389896977	0.40008651106472826
195.0	97.90113620482043	ISI	1.0		11.0		baseline	0.0	195.7999104100345	0.0999794438121171
196.0	98.00111564863255	baseline	0.0		47.0		baseline	0.0	195.89988985384662	0.3999850884629268
196.0	98.00562261555024	pulse	0.0	t			baseline	0.0	195.9043968207643	
196.0	98.40110073709548	ISI	1.0		11.0		baseline	0.0	196.29987494230954	0.09999000866628194
197.0	98.50109074576176	baseline	0.0		48.0		baseline	0.0	196.39986495097583	0.39999565331709164
197.0	98.70120931361453	pulse	0.0	t			baseline	0.0	196.5999835188286	
197.0	98.90108639907885	ISI	1.0		11.0		baseline	0.0	196.79986060429292	0.09999876240181038
198.0	99.00108516148066	baseline	0.0		48.0		baseline	0.0	196.89985936669473	0.40000350149603037
198.0	99.40108866297669	ISI	1.0		11.0		baseline	0.0	197.29986286819076	0.09998457531219174
198.0	99.40580058807063	pulse	1.0	t			baseline	0.0	197.3045747932847	
199.0	99.50107323828888	baseline	0.0		48.0		baseline	0.0	197.39984744350295	0.39998931440459273
199.0	99.90106255269347	ISI	1.0		11.0		baseline	0.0	197.79983675790754	0.1000232124933973
200.0	100.00108576518687	baseline	0.0		48.0		baseline	0.0	197.89985997040094	0.39997814584421576
200.0	100.10119168540041	pulse	0.0	t			baseline	0.0	197.99996589061448	
200.0	100.40106391103109	ISI	1.0		11.0		baseline	0.0	198.29983811624516	0.0999848771662073
201.0	100.5010487881973	baseline	0.0		48.0		baseline	0.0	198.39982299341136	0.39998629587353207
201.0	100.8011558554499	pulse	0.0	t			baseline	0.0	198.69993006066397	
201.0	100.90103508407083	ISI	1.0		11.0		baseline	0.0	198.7998092892849	0.09999604572658427
202.0	101.00103112979741	baseline	0.0		48.0		baseline	0.0	198.89980533501148	0.39998931440459273
202.0	101.401020444202	ISI	1.0		11.0		baseline	0.0	199.29979464941607	0.10000359204968845
203.0	101.50102403625169	baseline	0.0		47.0		baseline	0.0	199.39979824146576	0.39998659772754763
203.0	101.50536105993888	pulse	0.0	t			baseline	0.0	199.40413526515295	
203.0	101.90101063397924	ISI	1.0		11.0		baseline	0.0	199.7997848391933	0.09999514016817557
204.0	102.00100577414742	baseline	0.0		48.0		baseline	0.0	199.89977997936148	0.39998840884436504
204.0	102.20111921049829	pulse	0.0	t			baseline	0.0	200.09989341571236	
204.0	102.40099418299178	ISI	1.0		11.0		baseline	0.0	200.29976838820585	0.10000298834529531
205.0	102.50099717133708	baseline	0.0		48.0		baseline	0.0	200.39977137655114	0.4000071237296652
205.0	102.90100429506674	ISI	1.0		11.0		baseline	0.0	200.7997785002808	0.09997612342885986
205.0	102.90577357222901	pulse	1.0	t			baseline	0.0	200.80454777744308	
206.0	103.0009804184956	baseline	0.0		48.0		baseline	0.0	200.89975462370967	0.4000041052004235
206.0	103.40098452369602	ISI	1.0		11.0		baseline	0.0	201.2997587289101	0.09998638643082813
207.0	103.50097091012685	baseline	0.0		48.0		baseline	0.0	201.39974511534092	0.39998810699216847
207.0	103.60114082317159	pulse	0.0	t			baseline	0.0	201.49991502838566	
207.0	103.90095901711902	ISI	1.0		11.0		baseline	0.0	201.7997332223331	0.09999544202037214
208.0	104.0009544591394	baseline	0.0		48.0		baseline	0.0	201.89972866435346	0.39998478660891124
208.0	104.30106333751064	pulse	0.0	t			baseline	0.0	202.1998375427247	
208.0	104.4009392457483	ISI	1.0		11.0		baseline	0.0	202.29971345096237	0.0999912160787062
209.0	104.50093046182701	baseline	0.0		48.0		baseline	0.0	202.39970466704108	0.4000131607899675
209.0	104.90094362261698	ISI	1.0		11.0		baseline	0.0	202.79971782783105	0.099985782724616
210.0	105.0009294053416	baseline	0.0		47.0		baseline	0.0	202.89970361055566	0.39997905140262446
210.0	105.0052863513265	pulse	0.0	t			baseline	0.0	202.90406055654057	
210.0	105.40090845674422	ISI	1.0		11.0		baseline	0.0	203.2996826619583	0.10000781799317338
211.0	105.50091627473739	baseline	0.0		48.0		baseline	0.0	203.39969047995146	0.3999899181089859
211.0	105.70102669255903	pulse	0.0	t			baseline	0.0	203.5998008977731	
211.0	105.90090619284638	ISI	1.0		11.0		baseline	0.0	203.79968039806045	0.10002291064120072
212.0	106.00092910348758	baseline	0.0		48.0		baseline	0.0	203.89970330870165	0.3999642606067937
212.0	106.40089336409437	ISI	1.0		11.0		baseline	0.0	204.29966756930844	0.09999483831416
212.0	106.4055467297112	pulse	1.0	t			baseline	0.0	204.30432093492527	
213.0	106.50088820240853	baseline	0.0		48.0		baseline	0.0	204.3996624076226	0.39998810699216847
213.0	106.9008763094007	ISI	1.0		11.0		baseline	0.0	204.79965051461477	0.10000057352044678
214.0	107.00087688292115	baseline	0.0		48.0		baseline	0.0	204.89965108813522	0.39998539031694236
214.0	107.10105554970323	pulse	0.0	t			baseline	0.0	204.9998297549173	
214.0	107.40086227323809	ISI	1.0		11.0		baseline	0.0	205.29963647845216	0.09999061237067508
215.0	107.50085288560877	baseline	0.0		48.0		baseline	0.0	205.39962709082283	0.40001919785026985
215.0	107.80097021586516	pulse	0.0	t			baseline	0.0	205.69974442107923	
215.0	107.90087208345903	ISI	1.0		4.0		baseline	0.0	205.7996462886731	0.1166263340783189
216.0	108.01749841753735	word	0.0		46.0	character	word-98.jpg	0.0	205.91627262275142	0.3832989573074883
216.0	108.40079737484484	ISI	1.0		6.0	character	word-98.jpg	0.0	206.2995715800589	0.11671990850300062
217.0	108.51751728334784	word	0.0		45.0	character	word-77.jpg	0.0	206.4162914885619	0.38326756459900935
217.0	108.506399132355	pulse	0.0	t		character	word-77.jpg	0.0	206.40517333756907	
217.0	108.90078484794685	ISI	1.0		5.0	character	word-77.jpg	0.0	206.79955905316092	0.11670602326557855
218.0	109.01749087121243	word	0.0		46.0	character	word-10.jpg	0.0	206.9162650764265	0.3832479441534815
218.0	109.20087350216818	pulse	0.0	t		character	word-10.jpg	0.0	207.09964770738225	
218.0	109.40073881536591	ISI	1.0		6.0	character	word-10.jpg	0.0	207.29951302057998	0.11669817508845881
219.0	109.51743699045437	word	0.0		46.0	character	word-82.jpg	0.0	207.41621119566844	0.3832926183968084
219.0	109.90072960885118	ISI	1.0		6.0	character	word-82.jpg	0.0	207.79950381406525	0.11669334543876175
219.0	109.94212119940676	pulse	1.0	t		character	word-82.jpg	0.0	207.84089540462082	
220.0	110.01742295428994	word	0.0		46.0	character	word-135.jpg	0.0	207.916197159504	0.3833071073404426
220.0	110.40073006163038	ISI	1.0		4.0	character	word-135.jpg	0.0	208.29950426684445	0.11668428984921775
221.0	110.5174143514796	word	0.0		46.0	character	word-27.jpg	0.0	208.41618855669367	0.3833007684279437
221.0	110.60084379983527	pulse	0.0	t		character	word-27.jpg	0.0	208.49961800504934	
221.0	110.90071511990755	ISI	1.0		6.0	character	word-27.jpg	0.0	208.7994893251216	0.11668489355542988
222.0	111.01740001346298	word	0.0		46.0	character	word-138.jpg	0.0	208.91617421867704	0.3832859776321129
222.0	111.300808875445	pulse	0.0	t		character	word-138.jpg	0.0	209.19958308065907	
222.0	111.40068599109509	ISI	1.0		7.0	character	word-138.jpg	0.0	209.29946019630916	0.11670149546989705
223.0	111.51738748656499	word	0.0		46.0	character	word-129.jpg	0.0	209.41616169177905	0.38330227769074554
223.0	111.90068976425573	ISI	1.0		7.0	character	word-129.jpg	0.0	209.7994639694698	0.11669364729277731
224.0	112.01738341154851	word	0.0		45.0	character	word-120.jpg	0.0	209.91615761676258	0.3832760164823412
224.0	112.00919081968641	pulse	0.0	t		character	word-120.jpg	0.0	209.90796502490048	
224.0	112.40065942803085	ISI	1.0		6.0	character	word-120.jpg	0.0	210.29943363324492	0.11670270288232132
225.0	112.51736213091317	word	0.0		46.0	character	word-123.jpg	0.0	210.41613633612724	0.38329473136764136
225.0	112.70078219164134	pulse	0.0	t		character	word-123.jpg	0.0	210.5995563968554	
225.0	112.90065686228081	ISI	1.0		7.0	character	word-123.jpg	0.0	210.79943106749488	0.11669032690952008
226.0	113.01734718919033	word	0.0		46.0	character	word-116.jpg	0.0	210.9161213944044	0.38328839245514246
226.0	113.40063558164547	ISI	1.0		7.0	character	word-116.jpg	0.0	211.29940978685954	0.11669726952823112
226.0	113.43495234194233	pulse	1.0	t		character	word-116.jpg	0.0	211.3337265471564	
227.0	113.5173328511737	word	0.0		46.0	character	word-13.jpg	0.0	211.41610705638777	0.38327752574696206
227.0	113.90061037692067	ISI	1.0		11.0	character	word-13.jpg	0.0	211.79938458213473	0.10000449760991614
228.0	114.00061487453058	baseline	0.0		48.0		baseline	0.0	211.89938907974465	0.39999354034625867
228.0	114.10073135959829	pulse	0.0	t			baseline	0.0	211.99950556481235	
228.0	114.40060841487684	ISI	1.0		11.0		baseline	0.0	212.2993826200909	0.0999921216371149
229.0	114.50060053651396	baseline	0.0		48.0		baseline	0.0	212.39937474172802	0.40001014226072584
229.0	114.80072662050588	pulse	0.0	t			baseline	0.0	212.69950082571995	
229.0	114.90061067877468	ISI	1.0		11.0		baseline	0.0	212.79938488398875	0.099985782724616
230.0	115.0005964614993	baseline	0.0		48.0		baseline	0.0	212.89937066671337	0.4000545146482182
230.0	115.40065097614752	ISI	1.0		11.0		baseline	0.0	213.29942518136158	0.10002774028907879
231.0	115.5006787164366	baseline	0.0		47.0		baseline	0.0	213.39945292165066	0.3999585254005069
231.0	115.50516244067512	pulse	0.0	t			baseline	0.0	213.4039366458892	
231.0	115.9006372418371	ISI	1.0		11.0		baseline	0.0	213.79941144705117	0.10000359205150744
232.0	116.00064083388861	baseline	0.0		48.0		baseline	0.0	213.89941503910268	0.3999832773442904
232.0	116.2007497424438	pulse	0.0	t			baseline	0.0	214.09952394765787	
232.0	116.4006241112329	ISI	1.0		11.0		baseline	0.0	214.29939831644697	0.09999423460794787
233.0	116.50061834584085	baseline	0.0		48.0		baseline	0.0	214.39939255105492	0.3999950496108795
233.0	116.90061339545173	ISI	1.0		11.0		baseline	0.0	214.7993876006658	0.10000359204968845
233.0	116.90534856322665	pulse	1.0	t			baseline	0.0	214.80412276844072	
234.0	117.00061698750142	baseline	0.0		48.0		baseline	0.0	214.89939119271548	0.39999927555254544
234.0	117.40061626305396	ISI	1.0		11.0		baseline	0.0	215.29939046826803	0.09999634758059983
235.0	117.50061261063456	baseline	0.0		48.0		baseline	0.0	215.39938681584863	0.39997814584239677
235.0	117.60072366234635	pulse	0.0	t			baseline	0.0	215.49949786756042	
235.0	117.90059075647696	ISI	1.0		11.0		baseline	0.0	215.79936496169103	0.09999514016817557
236.0	118.00058589664513	baseline	0.0		48.0		baseline	0.0	215.8993601018592	0.39998569216731994
236.0	118.30069507686858	pulse	0.0	t			baseline	0.0	216.19946928208265	
236.0	118.40057158881245	ISI	1.0		11.0		baseline	0.0	216.29934579402652	0.0999912160787062
237.0	118.50056280489116	baseline	0.0		48.0		baseline	0.0	216.39933701010523	0.39999535146489507
237.0	118.90055815635606	ISI	1.0		11.0		baseline	0.0	216.79933236157012	0.10002381619960943
238.0	119.00058197255566	baseline	0.0		47.0		baseline	0.0	216.89935617776973	0.39996275134217285
238.0	119.00508833576714	pulse	0.0	t			baseline	0.0	216.9038625409812	
238.0	119.40054472389784	ISI	1.0		11.0		baseline	0.0	217.2993189291119	0.10000479946211271
239.0	119.50054952335995	baseline	0.0		48.0		baseline	0.0	217.39932372857402	0.39998206993186614
239.0	119.70066537453567	pulse	0.0	t			baseline	0.0	217.59943957974974	
239.0	119.90053159329182	ISI	1.0		7.0		baseline	0.0	217.79930579850588	0.11664776563884516
240.0	120.01717935893066	house	0.0		46.0	place	house-68.jpg	0.0	217.91595356414473	0.38327299795309955
240.0	120.40045235688376	ISI	1.0		7.0	place	house-68.jpg	0.0	218.29922656209783	0.11669304358656518
240.0	120.43287589525971	pulse	1.0	t		place	house-68.jpg	0.0	218.33165010047378	
241.0	120.51714540047033	house	0.0		46.0	place	house-68.jpg	1.0	218.4159196056844	0.3832850720718852
241.0	120.90043047254221	ISI	1.0		6.0	place	house-68.jpg	1.0	218.79920467775628	0.11668942135111138
241.0	120.94356224555668	response	1.0	b		place	house-68.jpg	1.0	218.84233645077074	
242.0	121.01711989389332	house	0.0		46.0	place	house-134.jpg	0.0	218.9158940991074	0.38330227769256453
242.0	121.10054270148248	pulse	0.0	t		place	house-134.jpg	0.0	218.99931690669655	
242.0	121.40042217158589	ISI	1.0		7.0	place	house-134.jpg	0.0	219.29919637679996	0.11669243988035305
243.0	121.51711461146624	house	0.0		46.0	place	house-12.jpg	0.0	219.4158888166803	0.38331042772188084
243.0	121.80054369759637	pulse	0.0	t		place	house-12.jpg	0.0	219.69931790281044	
243.0	121.90042503918812	ISI	1.0		6.0	place	house-12.jpg	0.0	219.7991992444022	0.11666798978876614
244.0	122.01709302897689	house	0.0		46.0	place	house-89.jpg	0.0	219.91586723419096	0.38330227769256453
244.0	122.40039530666945	ISI	1.0		3.0	place	house-89.jpg	0.0	220.29916951188352	0.11669213802815648
245.0	122.51708744469761	house	0.0		45.0	place	house-59.jpg	0.0	220.41586164991168	0.3833206907238491
245.0	122.50904185523723	pulse	0.0	t		place	house-59.jpg	0.0	220.4078160604513	
245.0	122.90040813542146	ISI	1.0		7.0	place	house-59.jpg	0.0	220.79918234063553	0.11667432870126504
246.0	123.01708246412272	house	0.0		46.0	place	house-32.jpg	0.0	220.9158566693368	0.3832880906029459
246.0	123.20049588408438	pulse	0.0	t		place	house-32.jpg	0.0	221.09927008929844	
246.0	123.40037055472567	ISI	1.0		7.0	place	house-32.jpg	0.0	221.29914475993974	0.11669696767421556
247.0	123.51706752239988	house	0.0		46.0	place	house-126.jpg	0.0	221.41584172761395	0.38330499436960963
247.0	123.9003725167695	ISI	1.0		7.0	place	house-126.jpg	0.0	221.79914672198356	0.11666889534717484
247.0	123.9377793460717	pulse	1.0	t		place	house-126.jpg	0.0	221.83655355128576	
248.0	124.01704141211667	house	0.0		46.0	place	house-74.jpg	0.0	221.91581561733074	0.38330378695718537
248.0	124.40034519907385	ISI	1.0		6.0	place	house-74.jpg	0.0	222.29911940428792	0.10837759755850129
249.0	124.50872279663236	house	0.0		47.0	place	house-129.jpg	0.0	222.40749700184642	0.391606857012448
249.0	124.60059658224054	pulse	0.0	t		place	house-129.jpg	0.0	222.4993707874546	
249.0	124.9003296536448	ISI	1.0		6.0	place	house-129.jpg	0.0	222.79910385885887	0.10837186235221452
250.0	125.00870151599702	house	0.0		47.0	place	house-101.jpg	0.0	222.90747572121109	0.39161470519138675
250.0	125.30044121850915	pulse	0.0	t		place	house-101.jpg	0.0	223.19921542372322	
250.0	125.4003162211884	ISI	1.0		6.0	place	house-101.jpg	0.0	223.29909042640247	0.10854301299332292
251.0	125.50885923418173	house	0.0		47.0	place	house-142.jpg	0.0	223.4076334393958	0.39146166572754737
251.0	125.90032089990927	ISI	1.0		5.0	place	house-142.jpg	0.0	223.79909510512334	0.10832809366911533
252.0	126.00864899357839	adult	0.0		46.0	face	adult-72.jpg	0.0	223.90742319879246	0.3916735665225133
252.0	126.0039669519283	pulse	0.0	t		face	adult-72.jpg	0.0	223.90274115714237	
252.0	126.4003225601009	ISI	1.0		6.0	face	adult-72.jpg	0.0	224.29909676531497	0.11669243988035305
253.0	126.51701499998126	adult	0.0		46.0	face	adult-17.jpg	0.0	224.41578920519532	0.38329473136764136
253.0	126.70043656997223	pulse	0.0	t		face	adult-17.jpg	0.0	224.5992107751863	
253.0	126.9003097313489	ISI	1.0		5.0	face	adult-17.jpg	0.0	224.79908393656297	0.11669153432194435
254.0	127.01700126567084	adult	0.0		46.0	face	adult-89.jpg	0.0	224.9157754708849	0.38329744804468646
254.0	127.40029871371553	ISI	1.0		2.0	face	adult-89.jpg	0.0	225.2990729189296	0.11669274173254962
254.0	127.47873943778723	pulse	1.0	t		face	adult-89.jpg	0.0	225.3775136430013	
255.0	127.51699145544808	adult	0.0		46.0	face	adult-108.jpg	0.0	225.41576566066215	0.38328658133650606
255.0	127.90027803678458	ISI	1.0		4.0	face	adult-108.jpg	0.0	225.79905224199865	0.11670873994262365
256.0	128.0169867767272	adult	0.0		46.0	face	adult-102.jpg	0.0	225.91576098194128	0.3832826572470367
256.0	128.10040958431637	pulse	0.0	t		face	adult-102.jpg	0.0	225.99918378953043	
256.0	128.40026943397424	ISI	1.0		5.0	face	adult-102.jpg	0.0	226.2990436391883	0.11670028805929178
257.0	128.51696972203354	adult	0.0		46.0	face	adult-75.jpg	0.0	226.4157439272476	0.3833016739863524
257.0	128.80039307295738	pulse	0.0	t		face	adult-75.jpg	0.0	226.69916727817144	
257.0	128.9002713960199	ISI	1.0		5.0	face	adult-75.jpg	0.0	226.79904560123396	0.1166728194366442
258.0	129.01694421545653	adult	0.0		46.0	face	adult-128.jpg	0.0	226.9157184206706	0.3832672627449938
258.0	129.40021147820153	ISI	1.0		6.0	face	adult-128.jpg	0.0	227.2989856834156	0.11668066761558293
259.0	129.5168921458171	adult	0.0		45.0	face	adult-1.jpg	0.0	227.41566635103118	0.3833055980740028
259.0	129.5086192610579	pulse	0.0	t		face	adult-1.jpg	0.0	227.40739346627197	
259.0	129.9001977438911	ISI	1.0		6.0	face	adult-1.jpg	0.0	227.79897194910518	0.11670089176368492
260.0	130.0168986356548	adult	0.0		46.0	face	adult-144.jpg	0.0	227.91567284086887	0.3832859776321129
260.0	130.2003087352332	pulse	0.0	t		face	adult-144.jpg	0.0	228.09908294044726	
260.0	130.4001846132869	ISI	1.0		7.0	face	adult-144.jpg	0.0	228.29895881850098	0.11669726952823112
261.0	130.51688188281514	adult	0.0		46.0	face	adult-31.jpg	0.0	228.4156560880292	0.3832790350115829
261.0	130.90016091782672	ISI	1.0		7.0	face	adult-31.jpg	0.0	228.7989351230408	0.11671628626754682
261.0	130.9403683391247	pulse	1.0	t		face	adult-31.jpg	0.0	228.83914254433876	
262.0	131.01687720409427	adult	0.0		46.0	face	adult-26.jpg	0.0	228.91565140930834	0.38329050542415644
262.0	131.40016770951843	ISI	1.0		5.0	face	adult-26.jpg	0.0	229.2989419147325	0.11668972320512694
263.0	131.51685743272355	adult	0.0		46.0	face	adult-80.jpg	0.0	229.41563163793762	0.3832871850427182
263.0	131.60027601437105	pulse	0.0	t		face	adult-80.jpg	0.0	229.49905021958511	
263.0	131.90014461776627	ISI	1.0		7.0	face	adult-80.jpg	0.0	229.79891882298034	0.11670119361770048
264.0	132.01684581138397	house	0.0		46.0	place	house-87.jpg	0.0	229.91562001659804	0.38330318325097323
264.0	132.30026584192456	pulse	0.0	t		place	house-87.jpg	0.0	230.19904004713862	
264.0	132.40014899463495	ISI	1.0		7.0	place	house-87.jpg	0.0	230.298923199849	0.11668157317217265
265.0	132.51683056780712	house	0.0		46.0	place	house-124.jpg	0.0	230.4156047730212	0.38330499436960963
265.0	132.90013556217673	ISI	1.0		7.0	place	house-124.jpg	0.0	230.7989097673908	0.11667644167209801
266.0	133.01681200384883	house	0.0		45.0	place	house-56.jpg	0.0	230.9155862090629	0.3832932221030205
266.0	133.00688587029254	pulse	0.0	t		place	house-56.jpg	0.0	230.9056600755066	
266.0	133.40010522595185	ISI	1.0		7.0	place	house-56.jpg	0.0	231.29887943116591	0.11670632511777512
267.0	133.51681155106962	house	0.0		46.0	place	house-13.jpg	0.0	231.4155857562837	0.38329654248445877
267.0	133.70023221550218	pulse	0.0	t		place	house-13.jpg	0.0	231.59900642071625	
267.0	133.90010809355408	ISI	1.0		6.0	place	house-13.jpg	0.0	231.79888229876815	0.1166891194989148
268.0	134.016797213053	house	0.0		46.0	place	house-119.jpg	0.0	231.91557141826706	0.3832971461906709
268.0	134.40009435924367	ISI	1.0		6.0	place	house-119.jpg	0.0	232.29886856445773	0.11668730838027841
268.0	134.44110893542347	pulse	1.0	t		place	house-119.jpg	0.0	232.33988314063754	
269.0	134.51678166762395	house	0.0		46.0	place	house-46.jpg	0.0	232.415555872838	0.3832841665134765
269.0	134.90006583413742	ISI	1.0		7.0	place	house-46.jpg	0.0	232.7988400393515	0.11670481585315429
270.0	135.01677064999058	house	0.0		46.0	place	house-51.jpg	0.0	232.91554485520464	0.3833143518113502
270.0	135.10022666140685	pulse	0.0	t		place	house-51.jpg	0.0	232.99900086662092	
270.0	135.40008500180193	ISI	1.0		6.0	place	house-51.jpg	0.0	233.298859207016	0.1167066269699717
271.0	135.5167916287719	house	0.0		46.0	place	house-135.jpg	0.0	233.41556583398597	0.3832944295154448
271.0	135.80020411298938	pulse	0.0	t		place	house-135.jpg	0.0	233.69897831820344	
271.0	135.90008605828734	ISI	1.0		6.0	place	house-135.jpg	0.0	233.7988602635014	0.11669334543876175
272.0	136.0167794037261	house	0.0		46.0	place	house-96.jpg	0.0	233.91555360894017	0.38327933686559845
272.0	136.4000587405917	ISI	1.0		6.0	place	house-96.jpg	0.0	234.29883294580577	0.11670330658853345
273.0	136.51676204718024	house	0.0		45.0	place	house-43.jpg	0.0	234.4155362523943	0.38329835360309517
273.0	136.50673690584517	pulse	0.0	t		place	house-43.jpg	0.0	234.40551111105924	
273.0	136.90006040078333	ISI	1.0		7.0	place	house-43.jpg	0.0	234.7988346059974	0.11668549726164201
274.0	137.01674589804497	house	0.0		46.0	place	house-105.jpg	0.0	234.91552010325904	0.38330137213233684
274.0	137.20016746803594	pulse	0.0	t		place	house-105.jpg	0.0	235.09894167325	
274.0	137.4000472701773	ISI	1.0		7.0	place	house-105.jpg	0.0	235.29882147539138	0.11668610096967313
275.0	137.51673337114698	house	0.0		46.0	place	house-29.jpg	0.0	235.41550757636105	0.38329110913036857
275.0	137.90002448027735	ISI	1.0		7.0	place	house-29.jpg	0.0	235.79879868549142	0.11670028805929178
275.0	137.93694049662736	pulse	1.0	t		place	house-29.jpg	0.0	235.83571470184143	
276.0	138.01672476833664	house	0.0		46.0	place	house-35.jpg	0.0	235.9154989735507	0.3832663571865851
276.0	138.39999112552323	ISI	1.0		6.0	place	house-35.jpg	0.0	236.2987653307373	0.11668066761376394
277.0	138.516671793137	house	0.0		46.0	place	house-18.jpg	0.0	236.41544599835106	0.3832877887489303
277.0	138.600097015551	pulse	0.0	t		place	house-18.jpg	0.0	236.49887122076507	
277.0	138.89995958188592	ISI	1.0		6.0	place	house-18.jpg	0.0	236.7987337871	0.11669123246974777
278.0	139.01665081435567	house	0.0		46.0	place	house-1.jpg	0.0	236.91542501956974	0.3833125406927138
278.0	139.30008201345663	pulse	0.0	t		place	house-1.jpg	0.0	237.1988562186707	
278.0	139.39996335504838	ISI	1.0		7.0	place	house-1.jpg	0.0	237.29873756026245	0.11668489355542988
279.0	139.51664824860381	house	0.0		46.0	place	house-50.jpg	0.0	237.41542245381788	0.3833013721341558
279.0	139.89994962073797	ISI	1.0		7.0	place	house-50.jpg	0.0	237.79872382595204	0.11666436755331233
280.0	140.01661398829128	house	0.0		45.0	place	house-118.jpg	0.0	237.91538819350535	0.38330740919263917
280.0	140.00679289957407	pulse	0.0	t		place	house-118.jpg	0.0	237.90556710478813	
280.0	140.39992139748392	ISI	1.0		7.0	place	house-118.jpg	0.0	238.298695602698	0.1167066269699717
281.0	140.5166280244539	house	0.0		46.0	place	house-36.jpg	0.0	238.41540222966796	0.3832717905406753
281.0	140.70004295368017	pulse	0.0	t		place	house-36.jpg	0.0	238.59881715889424	
281.0	140.89989981499457	ISI	1.0		7.0	place	house-36.jpg	0.0	238.79867402020864	0.11670662697179068
282.0	141.01660644196636	house	0.0		46.0	place	house-36.jpg	1.0	238.91538064718043	0.38329110913218756
282.0	141.39989755109855	ISI	1.0		5.0	place	house-36.jpg	1.0	239.29867175631261	0.11668821393868711
282.0	141.4438962458862	pulse	1.0	t		place	house-36.jpg	1.0	239.34267045110028	
282.0	141.44406709467512	response	1.0	b		place	house-36.jpg	1.0	239.3428412998892	
283.0	141.51658576503723	house	0.0		46.0	place	house-115.jpg	0.0	239.4153599702513	0.3833107295758964
283.0	141.89989649461313	ISI	1.0		6.0	place	house-115.jpg	0.0	239.7986706998272	0.11668519540762645
284.0	142.01658169002076	house	0.0		46.0	place	house-71.jpg	0.0	239.91535589523482	0.3832862794843095
284.0	142.09999815869742	pulse	0.0	t		place	house-71.jpg	0.0	239.99877236391148	
284.0	142.39986796950507	ISI	1.0		7.0	place	house-71.jpg	0.0	240.29864217471913	0.11667161202421994
285.0	142.5165395815293	house	0.0		46.0	place	house-91.jpg	0.0	240.41531378674335	0.38331676663619874
285.0	142.7999737991613	pulse	0.0	t		place	house-91.jpg	0.0	240.69874800437537	
285.0	142.89985634816549	ISI	1.0		7.0	place	house-91.jpg	0.0	240.79863055337955	0.11669515655739815
286.0	143.01655150472288	house	0.0		46.0	place	house-47.jpg	0.0	240.91532570993695	0.38329020357195986
286.0	143.39984170829484	ISI	1.0		7.0	place	house-47.jpg	0.0	241.2986159135089	0.11669334544058074
287.0	143.51653505373542	house	0.0		45.0	place	house-48.jpg	0.0	241.4153092589495	0.3832926183968084
287.0	143.5065693774377	pulse	0.0	t		place	house-48.jpg	0.0	241.40534358265177	
287.0	143.89982767213223	ISI	1.0		3.0	place	house-48.jpg	0.0	241.7986018773463	0.11670421214694215
288.0	144.01653188427917	body	0.0		46.0	body	body-62.jpg	0.0	241.91530608949324	0.38331555922377447
288.0	144.19998665809908	pulse	0.0	t		body	body-62.jpg	0.0	242.09876086331315	
288.0	144.39984744350295	ISI	1.0		6.0	body	body-62.jpg	0.0	242.29862164871702	0.1167039102929266
289.0	144.51655135379588	body	0.0		46.0	body	body-83.jpg	0.0	242.41532555900994	0.3832980517508986
289.0	144.89984940554677	ISI	1.0		6.0	body	body-83.jpg	0.0	242.79862361076084	0.11668700652626285
289.0	144.94820021667147	pulse	1.0	t		body	body-83.jpg	0.0	242.84697442188553	
290.0	145.01653641207304	body	0.0		46.0	body	body-13.jpg	0.0	242.9153106172871	0.3832844683656731
290.0	145.3998208804387	ISI	1.0		7.0	body	body-13.jpg	0.0	243.29859508565278	0.11669968435307965
291.0	145.5165205647918	body	0.0		46.0	body	body-68.jpg	0.0	243.41529477000586	0.38330137213233684
291.0	145.5999479001748	pulse	0.0	t		body	body-68.jpg	0.0	243.49872210538888	
291.0	145.89982193692413	ISI	1.0		7.0	body	body-68.jpg	0.0	243.7985961421382	0.11667312129065976
292.0	146.0164950582148	body	0.0		46.0	body	body-80.jpg	0.0	243.91526926342885	0.3833170684883953
292.0	146.29992806843438	pulse	0.0	t		body	body-80.jpg	0.0	244.19870227364845	
292.0	146.39981212670318	ISI	1.0		6.0	body	body-80.jpg	0.0	244.29858633191725	0.11668338429080904
293.0	146.516495510994	body	0.0		46.0	body	body-5.jpg	0.0	244.41526971620806	0.3832862794843095
293.0	146.8997817904783	ISI	1.0		7.0	body	body-5.jpg	0.0	244.79855599569237	0.11668278058459691
294.0	147.0164645710629	body	0.0		45.0	body	body-59.jpg	0.0	244.91523877627696	0.3833025795447611
294.0	147.00669660847052	pulse	0.0	t		body	body-59.jpg	0.0	244.9054708136846	
294.0	147.39976715060766	ISI	1.0		7.0	body	body-59.jpg	0.0	245.29854135582173	0.11670058991148835
295.0	147.51646774051915	body	0.0		46.0	body	body-2.jpg	0.0	245.41524194573321	0.383254584919996
295.0	147.6998624455955	pulse	0.0	t		body	body-2.jpg	0.0	245.59863665080957	
295.0	147.89972232543914	ISI	1.0		7.0	body	body-2.jpg	0.0	245.7984965306532	0.11669726953005011
296.0	148.0164195949692	body	0.0		46.0	body	body-2.jpg	1.0	245.91519380018326	0.38328778874711134
296.0	148.3997073837163	ISI	1.0		7.0	body	body-2.jpg	1.0	246.29848158893037	0.11669908064686751
296.0	148.43830592860468	pulse	1.0	t		body	body-2.jpg	1.0	246.33708013381874	
297.0	148.51640646436317	body	0.0		46.0	body	body-18.jpg	0.0	246.41518066957724	0.383317974046804
297.0	148.5748370522124	response	0.0	b		body	body-18.jpg	0.0	246.47361125742646	
297.0	148.89972443840998	ISI	1.0		7.0	body	body-18.jpg	0.0	246.79849864362404	0.11665833049482899
298.0	149.0163827689048	body	0.0		46.0	body	body-55.jpg	0.0	246.91515697411887	0.3832944295136258
298.0	149.09981131170025	pulse	0.0	t		body	body-55.jpg	0.0	246.99858551691432	
298.0	149.39967719841843	ISI	1.0		6.0	body	body-55.jpg	0.0	247.2984514036325	0.11670511770716985
299.0	149.5163823161256	body	0.0		46.0	body	body-100.jpg	0.0	247.41515652133967	0.383290807278172
299.0	149.79980174295997	pulse	0.0	t		body	body-100.jpg	0.0	247.69857594817404	
299.0	149.89967312340377	ISI	1.0		7.0	body	body-100.jpg	0.0	247.79844732861784	0.11670421214694215
300.0	150.01637733555071	body	0.0		46.0	body	body-58.jpg	0.0	247.91515154076478	0.3832799405718106
300.0	150.39965727612253	ISI	1.0		7.0	body	body-58.jpg	0.0	248.2984314813366	0.11668972320330795
301.0	150.51634699932583	body	0.0		45.0	body	body-58.jpg	1.0	248.4151212045399	0.38329956101551943
301.0	150.50647157707135	pulse	0.0	t		body	body-58.jpg	1.0	248.40524578228542	
301.0	150.89964656034135	ISI	1.0		7.0	body	body-58.jpg	1.0	248.79842076555542	0.11669726952823112
302.0	151.01634382986958	body	0.0		46.0	body	body-75.jpg	0.0	248.91511803508365	0.3832871850427182
302.0	151.03310783909183	response	0.0	b		body	body-75.jpg	0.0	248.9318820443059	
302.0	151.19975121277093	pulse	0.0	t		body	body-75.jpg	0.0	249.098525417985	
302.0	151.3996310149123	ISI	1.0		7.0	body	body-75.jpg	0.0	249.29840522012637	0.11669998620527622
303.0	151.51633100111758	body	0.0		46.0	body	body-140.jpg	0.0	249.41510520633165	0.3832889961613546
303.0	151.89961999727893	ISI	1.0		7.0	body	body-140.jpg	0.0	249.798394202493	0.11669636396800342
303.0	151.93706365264552	pulse	1.0	t		body	body-140.jpg	0.0	249.8358378578596	
304.0	152.01631636124694	body	0.0		46.0	body	body-46.jpg	0.0	249.915090566461	0.38328658133832505
304.0	152.39960294258526	ISI	1.0		6.0	body	body-46.jpg	0.0	250.29837714779933	0.11670240102830576
305.0	152.51630534361357	body	0.0		46.0	body	body-125.jpg	0.0	250.41507954882763	0.38327933686559845
305.0	152.5997323771444	pulse	0.0	t		body	body-125.jpg	0.0	250.49850658235846	
305.0	152.89958468047917	ISI	1.0		5.0	body	body-125.jpg	0.0	250.79835888569323	0.11670964550103236
306.0	153.0162943259802	body	0.0		46.0	body	body-4.jpg	0.0	250.91506853119427	0.38328416651165753
306.0	153.29969896201874	pulse	0.0	t		body	body-4.jpg	0.0	251.1984731672328	
306.0	153.39957849249186	ISI	1.0		7.0	body	body-4.jpg	0.0	251.29835269770592	0.11669606211762584
307.0	153.51627455460948	body	0.0		46.0	body	body-10.jpg	0.0	251.41504875982355	0.3833209925760457
307.0	153.89959554718553	ISI	1.0		7.0	body	body-10.jpg	0.0	251.7983697523996	0.1166827805864159
308.0	154.01627832777194	body	0.0		45.0	body	body-131.jpg	0.0	251.915052532986	0.3833218981362734
308.0	154.00664529346432	pulse	0.0	t		body	body-131.jpg	0.0	251.90541949867838	
308.0	154.39960022590822	ISI	1.0		7.0	body	body-131.jpg	0.0	252.29837443112228	0.11668549726164201
309.0	154.51628572316986	body	0.0		46.0	body	body-36.jpg	0.0	252.41505992838393	0.3832850720718852
309.0	154.699705482044	pulse	0.0	t		body	body-36.jpg	0.0	252.59847968725808	
309.0	154.89957079524174	ISI	1.0		7.0	body	body-36.jpg	0.0	252.7983450004558	0.11669998620527622
310.0	155.01627078144702	body	0.0		46.0	body	body-25.jpg	0.0	252.9150449866611	0.38330046657392813
310.0	155.39957124802095	ISI	1.0		7.0	body	body-25.jpg	0.0	253.29834545323502	0.11668821393868711
310.0	155.43595902164634	pulse	1.0	t		body	body-25.jpg	0.0	253.3347332268604	
311.0	155.51625946195963	body	0.0		46.0	body	body-1.jpg	0.0	253.4150336671737	0.38328386465946096
311.0	155.8995433266191	ISI	1.0		7.0	body	body-1.jpg	0.0	253.79831753183316	0.11668428985103674
312.0	156.01622761647013	car	0.0		46.0	object	car-2.jpg	0.0	253.9150018216842	0.3833170684883953
312.0	156.09965947964884	pulse	0.0	t		object	car-2.jpg	0.0	253.9984336848629	
312.0	156.39954468495853	ISI	1.0		7.0	object	car-2.jpg	0.0	254.2983188901726	0.11668821393868711
313.0	156.51623289889721	car	0.0		46.0	object	car-19.jpg	0.0	254.41500710411128	0.38328597763029393
313.0	156.79964960905636	pulse	0.0	t		object	car-19.jpg	0.0	254.69842381427043	
313.0	156.84128449311902	response	0.0	b		object	car-19.jpg	0.0	254.7400586983331	
313.0	156.8995188765275	ISI	1.0		7.0	object	car-19.jpg	0.0	254.79829308174158	0.11670270288232132
314.0	157.01622157940983	car	0.0		46.0	object	car-7.jpg	0.0	254.9149957846239	0.38326847015741805
314.0	157.39949004956725	ISI	1.0		7.0	object	car-7.jpg	0.0	255.29826425478132	0.1166737249968719
315.0	157.51616377456412	car	0.0		45.0	object	car-56.jpg	0.0	255.4149379797782	0.38329593877824664
315.0	157.50641482870924	pulse	0.0	t		object	car-56.jpg	0.0	255.4051890339233	
315.0	157.89945971334237	ISI	1.0		6.0	object	car-56.jpg	0.0	255.79823391855643	0.11668338429262803
316.0	158.016143097635	car	0.0		46.0	object	car-30.jpg	0.0	255.91491730284906	0.3833016739845334
316.0	158.19956889356763	pulse	0.0	t		object	car-30.jpg	0.0	256.0983430987817	
316.0	158.39944477161953	ISI	1.0		7.0	object	car-30.jpg	0.0	256.2982189768336	0.11670058991148835
317.0	158.51614536153102	car	0.0		46.0	object	car-24.jpg	0.0	256.4149195667451	0.38330499436960963
317.0	158.89945035590063	ISI	1.0		7.0	object	car-24.jpg	0.0	256.7982245611147	0.11668217687838478
317.0	158.93558728969583	pulse	1.0	t		object	car-24.jpg	0.0	256.8343614949099	
318.0	159.016132532779	car	0.0		46.0	object	car-69.jpg	0.0	256.9149067379931	0.3833034851049888
318.0	159.399436017884	ISI	1.0		6.0	object	car-69.jpg	0.0	257.29821022309807	0.11667432870126504
319.0	159.51611034658526	car	0.0		46.0	object	car-118.jpg	0.0	257.41488455179933	0.3832959387800656
319.0	159.5995434171764	pulse	0.0	t		object	car-118.jpg	0.0	257.49831762239046	
319.0	159.89940628536533	ISI	1.0		7.0	object	car-118.jpg	0.0	257.7981804905794	0.11668851579088368
320.0	160.0160948011562	car	0.0		46.0	object	car-102.jpg	0.0	257.9148690063703	0.3833143518113502
320.0	160.2995278113758	pulse	0.0	t		object	car-102.jpg	0.0	258.1983020165899	
320.0	160.39940915296756	ISI	1.0		6.0	object	car-102.jpg	0.0	258.29818335818163	0.1166836861448246
321.0	160.5160928391124	car	0.0		46.0	object	car-50.jpg	0.0	258.41486704432646	0.3832877887489303
321.0	160.89938062786132	ISI	1.0		7.0	object	car-50.jpg	0.0	258.7981548330754	0.11667855464293098
322.0	161.01605918250425	car	0.0		45.0	object	car-50.jpg	1.0	258.9148333877183	0.38330680548642704
322.0	161.00639747216337	pulse	0.0	t		object	car-50.jpg	1.0	258.90517167737744	
322.0	161.39936598799068	ISI	1.0		6.0	object	car-50.jpg	1.0	259.29814019320474	0.11670149547171604
323.0	161.5160674834624	car	0.0		46.0	object	car-13.jpg	0.0	259.41484168867646	0.3832850720718852
323.0	161.69949327939503	pulse	0.0	t		object	car-13.jpg	0.0	259.5982674846091	
323.0	161.89935255553428	ISI	1.0		7.0	object	car-13.jpg	0.0	259.79812676074835	0.11668972320330795
324.0	162.0160422787376	adult	0.0		46.0	face	adult-113.jpg	0.0	259.91481648395165	0.38329956101551943
324.0	162.3993418397531	ISI	1.0		7.0	face	adult-113.jpg	0.0	260.2981160449672	0.11669817508663982
324.0	162.43640908444831	pulse	1.0	t		face	adult-113.jpg	0.0	260.3351832896624	
325.0	162.51604001483975	adult	0.0		46.0	face	adult-8.jpg	0.0	260.4148142200538	0.3833016739863524
325.0	162.8993416888261	ISI	1.0		6.0	face	adult-8.jpg	0.0	260.79811589404017	0.11668640282005072
326.0	163.01602809164615	adult	0.0		46.0	face	adult-24.jpg	0.0	260.9148022968602	0.38331646478400216
326.0	163.09948500862265	pulse	0.0	t		face	adult-24.jpg	0.0	260.9982592138367	
326.0	163.39934455643015	ISI	1.0		6.0	face	adult-24.jpg	0.0	261.2981187616442	0.11670360844073002
327.0	163.51604816487088	adult	0.0		46.0	face	adult-47.jpg	0.0	261.41482237008495	0.38328386465946096
327.0	163.79945340461563	pulse	0.0	t		face	adult-47.jpg	0.0	261.6982276098297	
327.0	163.89933202953034	ISI	1.0		6.0	face	adult-47.jpg	0.0	261.7981062347444	0.11670058991148835
328.0	164.01603261944183	adult	0.0		46.0	face	adult-34.jpg	0.0	261.9148068246559	0.38328567577809736
328.0	164.39931829521993	ISI	1.0		7.0	face	adult-34.jpg	0.0	262.298092500434	0.11668821393868711
329.0	164.51600650915861	adult	0.0		45.0	face	adult-84.jpg	0.0	262.4147807143727	0.38330227769256453
329.0	164.50601728832953	pulse	0.0	t		face	adult-84.jpg	0.0	262.4047914935436	
329.0	164.89930878685118	ISI	1.0		7.0	face	adult-84.jpg	0.0	262.79808299206525	0.11670058991148835
330.0	165.01600937676267	adult	0.0		46.0	face	adult-2.jpg	0.0	262.91478358197674	0.3832772238929465
330.0	165.19940106330796	pulse	0.0	t		face	adult-2.jpg	0.0	263.098175268522	
330.0	165.3992866006556	ISI	1.0		6.0	face	adult-2.jpg	0.0	263.2980608058697	0.11670451400095772
331.0	165.51599111465657	adult	0.0		46.0	face	adult-7.jpg	0.0	263.41476531987064	0.38326756459900935
331.0	165.89925867925558	ISI	1.0		7.0	face	adult-7.jpg	0.0	263.79803288446965	0.11667644167209801
331.0	165.93366388247523	pulse	1.0	t		face	adult-7.jpg	0.0	263.8324380876893	
332.0	166.01593512092768	adult	0.0		46.0	face	adult-95.jpg	0.0	263.91470932614175	0.38330288139877666
332.0	166.39923800232646	ISI	1.0		7.0	face	adult-95.jpg	0.0	264.2980122075405	0.11669636396800342
333.0	166.51593436629446	adult	0.0		46.0	face	adult-82.jpg	0.0	264.4147085715085	0.3832871850427182
333.0	166.59935838129604	pulse	0.0	t		face	adult-82.jpg	0.0	264.4981325865101	
333.0	166.89922155133718	ISI	1.0		3.0	face	adult-82.jpg	0.0	264.79799575655124	0.11668308243861247
334.0	167.0159046337758	adult	0.0		46.0	face	adult-139.jpg	0.0	264.91467883898986	0.3833197851654404
334.0	167.2993328143475	pulse	0.0	t		face	adult-139.jpg	0.0	265.1981070195616	
334.0	167.39922441894123	ISI	1.0		4.0	face	adult-139.jpg	0.0	265.2979986241553	0.11668127131997608
335.0	167.5159056902612	adult	0.0		46.0	face	adult-3.jpg	0.0	265.4146798954753	0.38328839245514246
335.0	167.89919408271635	ISI	1.0		6.0	face	adult-3.jpg	0.0	265.7979682879304	0.11669304358656518
336.0	168.0158871263029	body	0.0		45.0	body	body-9.jpg	0.0	265.914661331517	0.38329292024900496
336.0	168.00770962708884	pulse	0.0	t		body	body-9.jpg	0.0	265.9064838323029	
336.0	168.39918004655192	ISI	1.0		5.0	body	body-9.jpg	0.0	266.297954251766	0.11670149547171604
337.0	168.51588154202364	body	0.0		46.0	body	body-22.jpg	0.0	266.4146557472377	0.38330046657392813
337.0	168.69930462127923	pulse	0.0	t		body	body-22.jpg	0.0	266.5980788264933	
337.0	168.89918200859756	ISI	1.0		6.0	body	body-22.jpg	0.0	266.79795621381163	0.11670692882398725
338.0	169.01588893742155	body	0.0		46.0	body	body-118.jpg	0.0	266.9146631426356	0.3832681683034025
338.0	169.39915710572495	ISI	1.0		8.0	body	body-118.jpg	0.0	267.297931310939	0.11668700652808184
338.0	169.4311037163843	pulse	1.0	t		body	body-118.jpg	0.0	267.3298779215984	
339.0	169.51584411225303	body	0.0		46.0	body	body-118.jpg	1.0	267.4146183174671	0.3833143518113502
339.0	169.89915846406439	ISI	1.0		7.0	body	body-118.jpg	1.0	267.79793266927845	0.11668338429080904
340.0	170.0158418483552	body	0.0		46.0	body	body-88.jpg	0.0	267.91461605356926	0.3833007684279437
340.0	170.0992933319776	pulse	0.0	t		body	body-88.jpg	0.0	267.9980675371917	
340.0	170.39914261678314	ISI	1.0		7.0	body	body-88.jpg	0.0	268.2979168219972	0.11668549726164201
341.0	170.51582811404478	body	0.0		47.0	body	body-12.jpg	0.0	268.41460231925885	0.3915962921582832
341.0	170.79923939084983	pulse	0.0	t		body	body-12.jpg	0.0	268.6980135960639	
341.0	170.90742440620306	ISI	1.0		6.0	body	body-12.jpg	0.0	268.80619861141713	0.10839359576675633
342.0	171.01581800196982	body	0.0		47.0	body	body-123.jpg	0.0	268.9145922071839	0.391627081162369
342.0	171.4074450831322	ISI	1.0		6.0	body	body-123.jpg	0.0	269.30621928834626	0.1250519564455317
342.0	171.49921654057835	pulse	1.0	t		body	body-123.jpg	0.0	269.3979907457924	
343.0	171.53249703957772	body	0.0		44.0	body	body-66.jpg	0.0	269.4312712447918	0.366638483659699
343.0	171.89913552323742	ISI	1.0		7.0	body	body-66.jpg	0.0	269.7979097284515	0.11667221573043207
344.0	172.01580773896785	body	0.0		47.0	body	body-95.jpg	0.0	269.9145819441819	0.391599914393737
344.0	172.1991970106901	pulse	0.0	t		body	body-95.jpg	0.0	270.0979712159042	
344.0	172.4074076533616	ISI	1.0		6.0	body	body-95.jpg	0.0	270.30618185857566	0.11670240103012475
345.0	172.5241100543917	body	0.0		46.0	body	body-64.jpg	0.0	270.4228842596058	0.38328205354264355
345.0	172.8991850271268	pulse	0.0	t		body	body-64.jpg	0.0	270.7979592323409	
345.0	172.90739210793436	ISI	1.0		7.0	body	body-64.jpg	0.0	270.8061663131484	0.11670179732209363
346.0	173.02409390525645	body	0.0		46.0	body	body-39.jpg	0.0	270.9228681104705	0.38329201469059626
346.0	173.40738591994705	ISI	1.0		3.0	body	body-39.jpg	0.0	271.3061601251611	0.11668127131997608
347.0	173.52406719126702	body	0.0		46.0	body	body-101.jpg	0.0	271.4228413964811	0.3833013721341558
347.0	173.59923945121955	pulse	0.0	t		body	body-101.jpg	0.0	271.4980136564336	
347.0	173.90736856340118	ISI	1.0		4.0	body	body-101.jpg	0.0	271.80614276861525	0.11670179732209363
348.0	174.02407036072327	adult	0.0		46.0	face	adult-68.jpg	0.0	271.92284456593734	0.38328567577809736
348.0	174.29914415623352	pulse	0.0	t		face	adult-68.jpg	0.0	272.1979183614476	
348.0	174.40735603650137	ISI	1.0		7.0	face	adult-68.jpg	0.0	272.30613024171544	0.11669938250088308
349.0	174.52405541900225	adult	0.0		46.0	face	adult-96.jpg	0.0	272.4228296242163	0.38330137213233684
349.0	174.9073567911346	ISI	1.0		6.0	face	adult-96.jpg	0.0	272.80613099634866	0.11668821393868711
349.0	174.99913700231627	pulse	1.0	t		face	adult-96.jpg	0.0	272.89791120753034	
350.0	175.02404500507328	adult	0.0		46.0	face	adult-13.jpg	0.0	272.92281921028734	0.3832850720718852
350.0	175.40733007714516	ISI	1.0		6.0	face	adult-13.jpg	0.0	273.30610428235923	0.10835012893585372
351.0	175.51568020608102	adult	0.0		47.0	face	adult-91.jpg	0.0	273.4144544112951	0.39165002199115406
351.0	175.69912109466532	pulse	0.0	t		face	adult-91.jpg	0.0	273.5978952998794	
351.0	175.90733022807217	ISI	1.0		6.0	face	adult-91.jpg	0.0	273.80610443328624	0.10835012893585372
352.0	176.01568035700802	adult	0.0		47.0	face	adult-64.jpg	0.0	273.9144545622221	0.3916388534289581
352.0	176.39909975365845	pulse	0.0	t		face	adult-64.jpg	0.0	274.2978739588725	
352.0	176.40731921043698	ISI	1.0		6.0	face	adult-64.jpg	0.0	274.30609341565105	0.10835405302532308
353.0	176.5156732634623	adult	0.0		47.0	face	adult-61.jpg	0.0	274.41444746867637	0.3916162144560076
353.0	176.9072894779183	ISI	1.0		5.0	face	adult-61.jpg	0.0	274.8060636831324	0.10836914567516942
354.0	177.01565862359348	adult	0.0		47.0	face	adult-100.jpg	0.0	274.91443282880755	0.39161742186843185
354.0	177.09913968880755	pulse	0.0	t		face	adult-100.jpg	0.0	274.9979138940216	
354.0	177.4072760454619	ISI	1.0		4.0	face	adult-100.jpg	0.0	275.306050250676	0.10835344931911095
355.0	177.51562949478102	adult	0.0		47.0	face	adult-125.jpg	0.0	275.4144036999951	0.39163674045812513
355.0	177.79905163829244	pulse	0.0	t		face	adult-125.jpg	0.0	275.6978258435065	
355.0	177.90726623523915	ISI	1.0		4.0	face	adult-125.jpg	0.0	275.8060404404532	0.10833413072759868
356.0	178.01560036596675	adult	0.0		47.0	face	adult-39.jpg	0.0	275.9143745711808	0.3916952999388741
356.0	178.40729566590562	ISI	1.0		6.0	face	adult-39.jpg	0.0	276.3060698711197	0.11669062876171665
356.0	178.49911209944548	pulse	1.0	t		face	adult-39.jpg	0.0	276.39788630465955	
357.0	178.52398629466734	adult	0.0		46.0	face	adult-46.jpg	0.0	276.4227604998814	0.3832509626845422
357.0	178.90723725735188	ISI	1.0		4.0	face	adult-46.jpg	0.0	276.80601146256595	0.11670089176550391
358.0	179.02393814911738	adult	0.0		46.0	face	adult-42.jpg	0.0	276.92271235433145	0.3832850720718852
358.0	179.19901499334082	pulse	0.0	t		face	adult-42.jpg	0.0	277.0977891985549	
358.0	179.40722322118927	ISI	1.0		7.0	face	adult-42.jpg	0.0	277.30599742640334	0.11670481585315429
359.0	179.52392803704242	adult	0.0		46.0	face	adult-127.jpg	0.0	277.4227022422565	0.38328416651165753
359.0	179.89899365233396	pulse	0.0	t		face	adult-127.jpg	0.0	277.797767857548	
359.0	179.90721220355408	ISI	1.0		3.0	face	adult-127.jpg	0.0	277.80598640876815	0.11669787323444325
360.0	180.02391007678852	word	0.0		46.0	character	word-52.jpg	0.0	277.9226842820026	0.38330288139877666
360.0	180.4072129581873	ISI	1.0		7.0	character	word-52.jpg	0.0	278.30598716340137	0.11668247873240034
361.0	180.5238954369197	word	0.0		46.0	character	word-32.jpg	0.0	278.42266964213377	0.38329473136764136
361.0	180.59898891324337	pulse	0.0	t		character	word-32.jpg	0.0	278.49776311845744	
361.0	180.90719016828734	ISI	1.0		6.0	character	word-32.jpg	0.0	278.8059643735014	0.11669062876171665
362.0	181.02388079704906	word	0.0		46.0	character	word-125.jpg	0.0	278.9226550022631	0.3833052962218062
362.0	181.29896877964893	pulse	0.0	t		character	word-125.jpg	0.0	279.197742984863	
362.0	181.40718609327087	ISI	1.0		7.0	character	word-125.jpg	0.0	279.30596029848493	0.11666587681793317
363.0	181.5238519700888	word	0.0		46.0	character	word-101.jpg	0.0	279.42262617530287	0.38330499436960963
363.0	181.9071569644584	ISI	1.0		7.0	character	word-101.jpg	0.0	279.8059311696725	0.12503354341242812
363.0	181.99894804234827	pulse	1.0	t		character	word-101.jpg	0.0	279.89772224756234	
364.0	182.03219050787084	word	0.0		45.0	character	word-133.jpg	0.0	279.9309647130849	0.37496841863139707
364.0	182.40715892650223	ISI	1.0		7.0	character	word-133.jpg	0.0	280.3059331317163	0.11667915834914311
365.0	182.52383808485138	word	0.0		46.0	character	word-34.jpg	0.0	280.42261229006544	0.3832935239570361
365.0	182.69892760690163	pulse	0.0	t		character	word-34.jpg	0.0	280.5977018121157	
365.0	182.9071316088084	ISI	1.0		6.0	character	word-34.jpg	0.0	280.8059058140225	0.11668247873240034
366.0	183.0238140875408	word	0.0		46.0	character	word-19.jpg	0.0	280.9225882927549	0.38332129443006124
366.0	183.3989135103675	pulse	0.0	t		character	word-19.jpg	0.0	281.29768771558156	
366.0	183.40713538197087	ISI	1.0		7.0	character	word-19.jpg	0.0	281.30590958718494	0.11668127131997608
367.0	183.52381665329085	word	0.0		46.0	character	word-95.jpg	0.0	281.4225908585049	0.38328688318870263
367.0	183.90710353647955	ISI	1.0		5.0	character	word-95.jpg	0.0	281.8058777416936	0.11670209917610919
368.0	184.02380563565566	word	0.0		46.0	character	word-67.jpg	0.0	281.92257984086973	0.38330107028014027
368.0	184.09890152680418	pulse	0.0	t		character	word-67.jpg	0.0	281.99767573201825	
368.0	184.4071067059358	ISI	1.0		7.0	character	word-67.jpg	0.0	282.30588091114987	0.11669877879467094
369.0	184.52380548473047	word	0.0		46.0	character	word-121.jpg	0.0	282.42257968994454	0.38330469251559407
369.0	184.7988979951242	pulse	0.0	t		character	word-121.jpg	0.0	282.6976722003383	
369.0	184.90711017724607	ISI	1.0		6.0	character	word-121.jpg	0.0	282.80588438246014	0.11670089176368492
370.0	185.02381106900975	word	0.0		46.0	character	word-17.jpg	0.0	282.9225852742238	0.38327118683446315
370.0	185.40708225584422	ISI	1.0		7.0	character	word-17.jpg	0.0	283.3058564610583	0.12501392296871927
370.0	185.49893853397953	pulse	1.0	t		character	word-17.jpg	0.0	283.3977127391936	
371.0	185.53209617881294	word	0.0		45.0	character	word-113.jpg	0.0	283.430870384027	0.37495483524799056
371.0	185.90705101406093	ISI	1.0		6.0	character	word-113.jpg	0.0	283.805825219275	0.11669908064686751
372.0	186.0237500947078	body	0.0		46.0	body	body-107.jpg	0.0	283.92252429992186	0.3832877887489303
372.0	186.19883357969593	pulse	0.0	t		body	body-107.jpg	0.0	284.09760778491	
372.0	186.40703788345672	ISI	1.0		3.0	body	body-107.jpg	0.0	284.3058120886708	0.11670149546989705
373.0	186.52373937892662	body	0.0		46.0	body	body-51.jpg	0.0	284.4225135841407	0.3832880906011269
373.0	186.89880982386603	pulse	0.0	t		body	body-51.jpg	0.0	284.7975840290801	
373.0	186.90702746952775	ISI	1.0		6.0	body	body-51.jpg	0.0	284.8058016747418	0.11669576026361028
374.0	187.02372322979136	body	0.0		46.0	body	body-89.jpg	0.0	284.9224974350054	0.3832877887489303
374.0	187.4070110185403	ISI	1.0		7.0	body	body-89.jpg	0.0	285.30578522375436	0.11668428984921775
375.0	187.5236953083895	body	0.0		46.0	body	body-61.jpg	0.0	285.4224695136036	0.38330650363423047
375.0	187.59879331250886	pulse	0.0	t		body	body-61.jpg	0.0	285.4975675177229	
375.0	187.90700181202374	ISI	1.0		2.0	body	body-61.jpg	0.0	285.8057760172378	0.11670028805929178
376.0	188.02370210008303	body	0.0		46.0	body	body-32.jpg	0.0	285.9224763052971	0.3833007684261247
376.0	188.298784649327	pulse	0.0	t		body	body-32.jpg	0.0	286.19755885454106	
376.0	188.40700286850915	ISI	1.0		6.0	body	body-32.jpg	0.0	286.3057770737232	0.11668066761558293
377.0	188.52368353612474	body	0.0		46.0	body	body-63.jpg	0.0	286.4224577413388	0.3832889961595356
377.0	188.90697253228427	ISI	1.0		5.0	body	body-63.jpg	0.0	286.80574673749834	0.12503746750189748
377.0	188.99877538244073	pulse	1.0	t		body	body-63.jpg	0.0	286.8975495876548	
378.0	189.03200999978617	body	0.0		45.0	body	body-21.jpg	0.0	286.93078420500024	0.3749644945437467
378.0	189.40697449432992	ISI	1.0		6.0	body	body-21.jpg	0.0	287.305748699544	0.11668308243679348
379.0	189.5236575767667	body	0.0		46.0	body	body-135.jpg	0.0	287.4224317819808	0.38330197584036796
379.0	189.6987374395212	pulse	0.0	t		body	body-135.jpg	0.0	287.5975116447353	
379.0	189.90695955260708	ISI	1.0		6.0	body	body-135.jpg	0.0	287.80573375782114	0.11667040461179568
380.0	190.02362995721887	body	0.0		46.0	body	body-115.jpg	0.0	287.92240416243294	0.38330650363423047
380.0	190.39871640036836	pulse	0.0	t		body	body-115.jpg	0.0	288.2974906055824	
380.0	190.4069364608531	ISI	1.0		7.0	body	body-115.jpg	0.0	288.30571066606717	0.10836431602729135
381.0	190.5153007768804	body	0.0		47.0	body	body-29.jpg	0.0	288.41407498209446	0.3916334200748679
381.0	190.90693419695526	ISI	1.0		6.0	body	body-29.jpg	0.0	288.80570840216933	0.10834952523146058
382.0	191.01528372218672	body	0.0		47.0	body	body-15.jpg	0.0	288.9140579274008	0.3916696424330439
382.0	191.09874184657383	pulse	0.0	t		body	body-15.jpg	0.0	288.9975160517879	
382.0	191.40695336461977	ISI	1.0		5.0	body	body-15.jpg	0.0	289.30572756983383	0.11668761023247498
383.0	191.52364097485224	body	0.0		46.0	body	body-116.jpg	0.0	289.4224151800663	0.38328295910105226
383.0	191.79871235553765	pulse	0.0	t		body	body-116.jpg	0.0	289.6974865607517	
383.0	191.9069239339533	ISI	1.0		5.0	body	body-116.jpg	0.0	289.80569813916736	0.11669394914679287
384.0	192.0236178831001	house	0.0		46.0	place	house-7.jpg	0.0	289.92239208831415	0.38330922031127557
384.0	192.40692710341136	ISI	1.0		6.0	place	house-7.jpg	0.0	290.30570130862543	0.12501845076258178
384.0	192.4987432350972	pulse	1.0	t		place	house-7.jpg	0.0	290.3975174403113	
385.0	192.53194555417394	house	0.0		45.0	place	house-132.jpg	0.0	290.430719759388	0.37495242042314203
385.0	192.9068979745971	ISI	1.0		5.0	place	house-132.jpg	0.0	290.80567217981115	0.11670330658853345
386.0	193.02360128118562	house	0.0		46.0	place	house-8.jpg	0.0	290.9223754863997	0.3832989573093073
386.0	193.19868869026322	pulse	0.0	t		place	house-8.jpg	0.0	291.0974628954773	
386.0	193.40690023849493	ISI	1.0		6.0	place	house-8.jpg	0.0	291.305674443709	0.10835495858373179
387.0	193.51525519707866	house	0.0		47.0	place	house-8.jpg	1.0	291.4140294022927	0.39160263107260107
387.0	193.89863444728144	pulse	0.0	t		place	house-8.jpg	1.0	291.7974086524955	
387.0	193.90685782815126	ISI	1.0		6.0	place	house-8.jpg	1.0	291.8056320333653	0.10833835666926461
388.0	194.01519618482052	house	0.0		47.0	place	house-82.jpg	0.0	291.9139703900346	0.3916297978394141
388.0	194.06529653584585	response	0.0	b		place	house-82.jpg	0.0	291.9640707410599	
388.0	194.40682598265994	ISI	1.0		3.0	place	house-82.jpg	0.0	292.305600187874	0.11669213802815648
389.0	194.5235181206881	house	0.0		46.0	place	house-108.jpg	0.0	292.42229232590216	0.38329412766142923
389.0	194.5986203507473	pulse	0.0	t		place	house-108.jpg	0.0	292.49739455596136	
389.0	194.90681224834952	ISI	1.0		6.0	place	house-108.jpg	0.0	292.8055864535636	0.11670179732391261
