trial_nr	onset	event_type	phase	response	nr_frames	trial_type	stim_name	task_probe	onset_abs	duration
0.0	0.05494694569506464	baseline	0.0		41.0		baseline	0.0	173.38054510461143	0.3489929462161854
0.0	0.40393989191125	ISI	1.0		11.0		baseline	0.0	173.7295380508276	0.10000144891137097
1.0	0.503941340822621	baseline	0.0		48.0		baseline	0.0	173.82953949973898	0.4000133420590828
1.0	0.7040670942565157	pulse	0.0	t			baseline	0.0	174.02966525317288	
1.0	0.9039546828817038	ISI	1.0		11.0		baseline	0.0	174.22955284179807	0.09999269507170538
2.0	1.0039473779534092	baseline	0.0		48.0		baseline	0.0	174.32954553686977	0.3999904009619968
2.0	1.403937778915406	ISI	1.0		11.0		baseline	0.0	174.72953593783177	0.09997941338406235
2.0	1.4084982274985123	pulse	1.0	t			baseline	0.0	174.73409638641488	
3.0	1.5039171922994683	baseline	0.0		48.0		baseline	0.0	174.82951535121583	0.4000109272069494
3.0	1.9039281195064177	ISI	1.0		11.0		baseline	0.0	175.22952627842278	0.09999843034574951
4.0	2.0039265498521672	baseline	0.0		48.0		baseline	0.0	175.32952470876853	0.3999955325234623
4.0	2.104037572687048	pulse	0.0	t			baseline	0.0	175.4296357316034	
4.0	2.4039220823756295	ISI	1.0		11.0		baseline	0.0	175.729520241292	0.09998665794091721
5.0	2.5039087403165468	baseline	0.0		48.0		baseline	0.0	175.8295068992329	0.39998587311401934
5.0	2.804016321986637	pulse	0.0	t			baseline	0.0	176.129614480903	
5.0	2.903894613430566	ISI	1.0		11.0		baseline	0.0	176.22949277234693	0.09999239321541609
6.0	3.003887006645982	baseline	0.0		48.0		baseline	0.0	176.32948516556235	0.4000009659407624
6.0	3.4038879725867446	ISI	1.0		11.0		baseline	0.0	176.7294861315031	0.10000265633743766
7.0	3.5038906289241822	baseline	0.0		47.0		baseline	0.0	176.82948878784055	0.40000519193245054
7.0	3.508015498522127	pulse	0.0	t			baseline	0.0	176.8336136574385	
7.0	3.903895820856633	ISI	1.0		11.0		baseline	0.0	177.229493979773	0.0999993359155269
8.0	4.00389515677216	baseline	0.0		48.0		baseline	0.0	177.32949331568852	0.3999931176708742
8.0	4.203994648687512	pulse	0.0	t			baseline	0.0	177.52959280760388	
8.0	4.403888274443034	ISI	1.0		11.0		baseline	0.0	177.7294864333594	0.09998484680181718
9.0	4.503873121244851	baseline	0.0		48.0		baseline	0.0	177.82947128016121	0.39999523066671827
9.0	4.903868351911569	ISI	1.0		11.0		baseline	0.0	178.22946651082793	0.09999661920710423
9.0	4.908351223364207	pulse	1.0	t			baseline	0.0	178.23394938228057	
10.0	5.003864971118674	baseline	0.0		48.0		baseline	0.0	178.32946313003504	0.4000112290632387
10.0	5.403876200181912	ISI	1.0		11.0		baseline	0.0	178.72947435909828	0.0999954117805828
11.0	5.503871611962495	baseline	0.0		48.0		baseline	0.0	178.82946977087886	0.3999795341264871
11.0	5.6039856533625425	pulse	0.0	t			baseline	0.0	178.9295838122789	
11.0	5.903851146088982	ISI	1.0		11.0		baseline	0.0	179.22944930500535	0.0999990340592376
12.0	6.00385018014822	baseline	0.0		48.0		baseline	0.0	179.32944833906458	0.3999970418058183
12.0	6.303962893379321	pulse	0.0	t			baseline	0.0	179.62956105229568	
12.0	6.403847221954038	ISI	1.0		11.0		baseline	0.0	179.7294453808704	0.10000959903800322
13.0	6.503856820992041	baseline	0.0		48.0		baseline	0.0	179.8294549799084	0.3999934195271635
13.0	6.903850240519205	ISI	1.0		11.0		baseline	0.0	180.22944839943557	0.09999963777227094
14.0	7.003849878291476	baseline	0.0		47.0		baseline	0.0	180.32944803720784	0.39999251395784086
14.0	7.007970220041443	pulse	0.0	t			baseline	0.0	180.3335683789578	
14.0	7.403842392249317	ISI	1.0		11.0		baseline	0.0	180.72944055116568	0.0999993359155269
15.0	7.5038417281648435	baseline	0.0		48.0		baseline	0.0	180.8294398870812	0.39999462695368493
15.0	7.703959029615817	pulse	0.0	t			baseline	0.0	181.02955718853218	
15.0	7.9038363551185284	ISI	1.0		11.0		baseline	0.0	181.2294345140349	0.09998303566271716
16.0	8.003819390781246	baseline	0.0		48.0		baseline	0.0	181.3294175496976	0.39999523066671827
16.0	8.403814621447964	ISI	1.0		11.0		baseline	0.0	181.72941278036433	0.09999601549361614
16.0	8.408307454166334	pulse	1.0	t			baseline	0.0	181.7339056130827	
17.0	8.50381063694158	baseline	0.0		48.0		baseline	0.0	181.82940879585794	0.39999643809278496
17.0	8.903807075034365	ISI	1.0		11.0		baseline	0.0	182.22940523395073	0.09999661920664948
18.0	9.003803694241014	baseline	0.0		48.0		baseline	0.0	182.32940185315738	0.40000881421110535
18.0	9.103933734038037	pulse	0.0	t			baseline	0.0	182.4295318929544	
18.0	9.40381250845212	ISI	1.0		11.0		baseline	0.0	182.72941066736848	0.10000054334159358
19.0	9.503813051793713	baseline	0.0		48.0		baseline	0.0	182.82941121071008	0.3999931176708742
19.0	9.803909162915716	pulse	0.0	t			baseline	0.0	183.12950732183208	
19.0	9.903806169464588	ISI	1.0		11.0		baseline	0.0	183.22940432838095	0.09999088393260536
20.0	10.003797053397193	baseline	0.0		48.0		baseline	0.0	183.32939521231356	0.399987080540086
20.0	10.403784133937279	ISI	1.0		11.0		baseline	0.0	183.72938229285364	0.0999990340592376
21.0	10.503783167996517	baseline	0.0		47.0		baseline	0.0	183.82938132691288	0.39999251395784086
21.0	10.507922526708171	pulse	0.0	t			baseline	0.0	183.83352068562453	
21.0	10.903775681954357	ISI	1.0		11.0		baseline	0.0	184.22937384087072	0.09999752477642687
22.0	11.003773206730784	baseline	0.0		48.0		baseline	0.0	184.32937136564715	0.3999931176708742
22.0	11.203888998898947	pulse	0.0	t			baseline	0.0	184.5294871578153	
22.0	11.403766324401658	ISI	1.0		11.0		baseline	0.0	184.72936448331802	0.09999420435451611
23.0	11.503760528756175	baseline	0.0		48.0		baseline	0.0	184.82935868767254	0.4000199829029043
23.0	11.903780511659079	ISI	1.0		5.0		baseline	0.0	185.22937867057544	0.1250039241349441
23.0	11.958265013136952	pulse	1.0	t			baseline	0.0	185.28386317205332	
24.0	12.028784435794023	car	0.0		45.0	object	car-65.jpg	0.0	185.3543825947104	0.37494958995785055
24.0	12.403734025751874	ISI	1.0		7.0	object	car-65.jpg	0.0	185.72933218466824	0.11668838021387273
25.0	12.520422405965746	car	0.0		46.0	object	car-65.jpg	1.0	185.8460205648821	0.3833052807990498
25.0	12.60384830863768	pulse	0.0	t		object	car-65.jpg	1.0	185.92944646755404	
25.0	12.903727686764796	ISI	1.0		4.0	object	car-65.jpg	1.0	186.22932584568116	0.11669320991813947
26.0	13.020420896682936	car	0.0		46.0	object	car-9.jpg	0.0	186.3460190555993	0.3832977343854509
26.0	13.303837924772779	pulse	0.0	t		object	car-9.jpg	0.0	186.62943608368914	
26.0	13.403718631068386	ISI	1.0		5.0	object	car-9.jpg	0.0	186.72931678998475	0.11670649160623725
27.0	13.520425122674624	car	0.0		46.0	object	car-16.jpg	0.0	186.846023281591	0.38330105480736165
27.0	13.903726177481985	ISI	1.0		6.0	object	car-16.jpg	0.0	187.22932433639835	0.11667026882150822
28.0	14.020396446303494	car	0.0		45.0	object	car-45.jpg	0.0	187.34599460521986	0.38330739379489387
28.0	14.007882983501986	pulse	0.0	t		object	car-45.jpg	0.0	187.33348114241835	
28.0	14.403703840098387	ISI	1.0		4.0	object	car-45.jpg	0.0	187.72930199901475	0.11671645287151478
29.0	14.520420292969902	car	0.0		46.0	object	car-115.jpg	0.0	187.84601845188627	0.38327630257163037
29.0	14.703829533160842	pulse	0.0	t		object	car-115.jpg	0.0	188.0294276920772	
29.0	14.903696595541533	ISI	1.0		5.0	object	car-115.jpg	0.0	188.2292947544579	0.11670468046668248
30.0	15.020401276008215	car	0.0		46.0	object	car-23.jpg	0.0	188.34599943492458	0.383303469659495
30.0	15.40370474566771	ISI	1.0		6.0	object	car-23.jpg	0.0	188.72930290458407	0.11668898392690608
30.0	15.446828876320978	pulse	1.0	t		object	car-23.jpg	0.0	188.77242703523734	
31.0	15.520393729594616	car	0.0		46.0	object	car-51.jpg	0.0	188.84599188851098	0.3832874712634293
31.0	15.903681200858045	ISI	1.0		6.0	object	car-51.jpg	0.0	189.2292793597744	0.11670468046668248
32.0	16.020385881324728	car	0.0		46.0	object	car-134.jpg	0.0	189.3459840402411	0.38329471581982943
32.0	16.103809671000818	pulse	0.0	t		object	car-134.jpg	0.0	189.42940782991718	
32.0	16.403680597144557	ISI	1.0		7.0	object	car-134.jpg	0.0	189.72927875606092	0.11668385236589529
33.0	16.520364449510453	car	0.0		46.0	object	car-135.jpg	0.0	189.84596260842682	0.3832606060313992
33.0	16.803759743929277	pulse	0.0	t		object	car-135.jpg	0.0	190.12935790284564	
33.0	16.903625055541852	ISI	1.0		6.0	object	car-135.jpg	0.0	190.22922321445822	0.11671283059331472
34.0	17.020337886135167	car	0.0		46.0	object	car-34.jpg	0.0	190.34593604505153	0.3832681524445434
34.0	17.40360603857971	ISI	1.0		6.0	object	car-34.jpg	0.0	190.72920419749607	0.11671766029803621
35.0	17.520323698877746	car	0.0		45.0	object	car-123.jpg	0.0	190.8459218577941	0.38330467708601645
35.0	17.512197720862332	pulse	0.0	t		object	car-123.jpg	0.0	190.8377958797787	
35.0	17.903628375963763	ISI	1.0		11.0	object	car-123.jpg	0.0	191.22922653488013	0.09999329878473873
36.0	18.0036216747485	baseline	0.0		48.0		baseline	0.0	191.32921983366487	0.40001002163717203
36.0	18.20375437088296	pulse	0.0	t			baseline	0.0	191.52935252979933	
36.0	18.403631696385673	ISI	1.0		11.0		baseline	0.0	191.72922985530204	0.09997971524035165
37.0	18.503611411626025	baseline	0.0		48.0		baseline	0.0	191.8292095705424	0.399994928810429
37.0	18.903606340436454	ISI	1.0		11.0		baseline	0.0	192.22920449935282	0.09999843034574951
37.0	18.908104908428868	pulse	1.0	t			baseline	0.0	192.23370306734523	
38.0	19.003604770782204	baseline	0.0		48.0		baseline	0.0	192.32920292969857	0.39999432509739563
38.0	19.4035990958796	ISI	1.0		11.0		baseline	0.0	192.72919725479596	0.09999843034574951
39.0	19.50359752622535	baseline	0.0		48.0		baseline	0.0	192.8291956851417	0.39999160838806347
39.0	19.603709756486296	pulse	0.0	t			baseline	0.0	192.92930791540266	
39.0	19.903589134613412	ISI	1.0		11.0		baseline	0.0	193.22918729352978	0.0999987322029483
40.0	20.00358786681636	baseline	0.0		48.0		baseline	0.0	193.32918602573272	0.3999961362360409
40.0	20.30369997633443	pulse	0.0	t			baseline	0.0	193.6292981352508	
40.0	20.4035840030524	ISI	1.0		11.0		baseline	0.0	193.72918216196877	0.10000084519833763
41.0	20.50358484825074	baseline	0.0		48.0		baseline	0.0	193.8291830071671	0.3999891935359301
41.0	20.90357404178667	ISI	1.0		11.0		baseline	0.0	194.22917220070303	0.10000084519833763
42.0	21.003574886985007	baseline	0.0		47.0		baseline	0.0	194.32917304590137	0.400009719780428
42.0	21.007738092363525	pulse	0.0	t			baseline	0.0	194.3333362512799	
42.0	21.403584606765435	ISI	1.0		11.0		baseline	0.0	194.7291827656818	0.09999722292013757
43.0	21.503581829685572	baseline	0.0		48.0		baseline	0.0	194.82917998860194	0.3999795341264871
43.0	21.703681623457214	pulse	0.0	t			baseline	0.0	195.02927978237358	
43.0	21.90356136381206	ISI	1.0		11.0		baseline	0.0	195.22915952272842	0.09999812848946021
44.0	22.00355949230152	baseline	0.0		48.0		baseline	0.0	195.32915765121788	0.39999251395784086
44.0	22.40355200625936	ISI	1.0		11.0		baseline	0.0	195.72915016517572	0.09999873220249356
44.0	22.40804151855582	pulse	1.0	t			baseline	0.0	195.73363967747218	
45.0	22.503550738461854	baseline	0.0		48.0		baseline	0.0	195.82914889737822	0.4000634502444882
45.0	22.903614188706342	ISI	1.0		11.0		baseline	0.0	196.2292123476227	0.099991789501928
46.0	23.00360597820827	baseline	0.0		48.0		baseline	0.0	196.32920413712463	0.4000181717638043
46.0	23.103729980874505	pulse	0.0	t			baseline	0.0	196.42932813979087	
46.0	23.403624149972075	ISI	1.0		11.0		baseline	0.0	196.72922230888844	0.09999661920664948
47.0	23.503620769178724	baseline	0.0		48.0		baseline	0.0	196.8292189280951	0.39999251395784086
47.0	23.803728954562303	pulse	0.0	t			baseline	0.0	197.12932711347867	
47.0	23.903613283136565	ISI	1.0		5.0		baseline	0.0	197.22921144205293	0.11671705658500287
48.0	24.020330339721568	body	0.0		46.0	body	body-66.jpg	0.0	197.34592849863793	0.38319600873182935
48.0	24.403526348453397	ISI	1.0		6.0	body	body-66.jpg	0.0	197.72912450736976	0.11667690966532973
49.0	24.520203258118727	body	0.0		45.0	body	body-9.jpg	0.0	197.8458014170351	0.3833264107570358
49.0	24.51230246508112	pulse	0.0	t		body	body-9.jpg	0.0	197.83790062399748	
49.0	24.903529668875763	ISI	1.0		7.0	body	body-9.jpg	0.0	198.22912782779213	0.11668475793476318
50.0	25.020214426810526	body	0.0		46.0	body	body-94.jpg	0.0	198.3458125857269	0.3832913953983734
50.0	25.203629402275965	pulse	0.0	t		body	body-94.jpg	0.0	198.52922756119233	
50.0	25.4035058222089	ISI	1.0		6.0	body	body-94.jpg	0.0	198.72910398112526	0.11669894519263835
51.0	25.520204767401538	body	0.0		46.0	body	body-124.jpg	0.0	198.8458029263179	0.38330769565118317
51.0	25.90351246305272	ISI	1.0		7.0	body	body-124.jpg	0.0	199.22911062196908	0.11668717278780605
51.0	25.938977889612488	pulse	1.0	t		body	body-124.jpg	0.0	199.26457604852885	
52.0	26.020199635840527	body	0.0		46.0	body	body-93.jpg	0.0	199.3457977947569	0.3832916972546627
52.0	26.40349133309519	ISI	1.0		7.0	body	body-93.jpg	0.0	199.72908949201155	0.11666091126880929
53.0	26.520152244364	body	0.0		46.0	body	body-93.jpg	1.0	199.84575040328036	0.38333063674826917
53.0	26.60361829395515	pulse	0.0	t		body	body-93.jpg	1.0	199.92921645287151	
53.0	26.903482881112268	ISI	1.0		6.0	body	body-93.jpg	1.0	200.22908104002863	0.11670317118387175
53.0	26.952243578907655	response	1.0	b		body	body-93.jpg	1.0	200.27784173782402	
54.0	27.02018605229614	body	0.0		46.0	body	body-114.jpg	0.0	200.3457842112125	0.38328958425881865
54.0	27.303580139288897	pulse	0.0	t		body	body-114.jpg	0.0	200.62917829820526	
54.0	27.40347563655496	ISI	1.0		7.0	body	body-114.jpg	0.0	200.72907379547132	0.11670407675364913
55.0	27.520179713308607	body	0.0		46.0	body	body-116.jpg	0.0	200.84577787222497	0.38330346965994977
55.0	27.903483182968557	ISI	1.0		7.0	body	body-116.jpg	0.0	201.22908134188492	0.11668173937005122
56.0	28.02016492233861	body	0.0		45.0	body	body-109.jpg	0.0	201.34576308125497	0.38331131792983797
56.0	28.010256481463784	pulse	0.0	t		body	body-109.jpg	0.0	201.33585464038015	
56.0	28.403476240268446	ISI	1.0		6.0	body	body-109.jpg	0.0	201.7290743991848	0.11668113565656313
57.0	28.52015737592501	body	0.0		46.0	body	body-141.jpg	0.0	201.84575553484137	0.3833128272126487
57.0	28.70358744421719	pulse	0.0	t		body	body-141.jpg	0.0	202.02918560313356	
57.0	28.90347020313766	ISI	1.0		6.0	body	body-141.jpg	0.0	202.22906836205402	0.11668023008678574
58.0	29.020150433224444	body	0.0		46.0	body	body-133.jpg	0.0	202.3457485921408	0.3833128272126487
58.0	29.403463260437093	ISI	1.0		7.0	body	body-133.jpg	0.0	202.72906141935346	0.11668596536128462
58.0	29.44284497372655	pulse	1.0	t		body	body-133.jpg	0.0	202.76844313264291	
59.0	29.520149225798377	body	0.0		46.0	body	body-134.jpg	0.0	202.84574738471474	0.38328928240252935
59.0	29.903438508200907	ISI	1.0		6.0	body	body-134.jpg	0.0	203.22903666711727	0.11668385236544054
60.0	30.020122360566347	word	0.0		46.0	character	word-86.jpg	0.0	203.3457205194827	0.3833535778453552
60.0	30.10358267488391	pulse	0.0	t		character	word-86.jpg	0.0	203.42918083380027	
60.0	30.403475938411702	ISI	1.0		7.0	character	word-86.jpg	0.0	203.72907409732807	0.11668928578319537
61.0	30.520165224194898	word	0.0		46.0	character	word-86.jpg	1.0	203.84576338311126	0.38329018797230674
61.0	30.80357561144092	pulse	0.0	t		character	word-86.jpg	1.0	204.12917377035728	
61.0	30.903455412167204	ISI	1.0		5.0	character	word-86.jpg	1.0	204.22905357108357	0.11670739717555989
61.0	30.96200411007885	response	1.0	b		character	word-86.jpg	1.0	204.28760226899522	
62.0	31.020162809342764	word	0.0		46.0	character	word-16.jpg	0.0	204.34576096825913	0.3832995455245509
62.0	31.403462354867315	ISI	1.0		5.0	character	word-16.jpg	0.0	204.72906051378368	0.11668415422218459
63.0	31.5201465090895	word	0.0		45.0	character	word-113.jpg	0.0	204.84574466800586	0.3832923009681508
63.0	31.510088045515204	pulse	0.0	t		character	word-113.jpg	0.0	204.83568620443157	
63.0	31.90343881005765	ISI	1.0		6.0	character	word-113.jpg	0.0	205.22903696897401	0.11670075633173838
64.0	32.02013956638939	word	0.0		46.0	character	word-21.jpg	0.0	205.34573772530575	0.3833082993642165
64.0	32.20356691797224	pulse	0.0	t		character	word-21.jpg	0.0	205.5291650768886	
64.0	32.403447865753606	ISI	1.0		7.0	character	word-21.jpg	0.0	205.72904602466997	0.11668928578319537
65.0	32.5201371515368	word	0.0		46.0	character	word-70.jpg	0.0	205.84573531045316	0.38328807497646267
65.0	32.903425226513264	ISI	1.0		7.0	character	word-70.jpg	0.0	206.22902338542963	0.11670317118387175
65.0	32.943884265788256	pulse	1.0	t		character	word-70.jpg	0.0	206.26948242470462	
66.0	33.020128397697135	word	0.0		46.0	character	word-120.jpg	0.0	206.3457265566135	0.38328626383736264
66.0	33.4034146615345	ISI	1.0		6.0	character	word-120.jpg	0.0	206.72901282045086	0.11671132131050399
67.0	33.520125982845	word	0.0		46.0	character	word-13.jpg	0.0	206.84572414176137	0.38328445269780786
67.0	33.603532566698505	pulse	0.0	t		character	word-13.jpg	0.0	206.92913072561487	
67.0	33.90341043554281	ISI	1.0		6.0	character	word-13.jpg	0.0	207.22900859445917	0.1166832486524072
68.0	34.02009368419522	word	0.0		46.0	character	word-33.jpg	0.0	207.34569184311158	0.38329713067241755
68.0	34.30350497701056	pulse	0.0	t		character	word-33.jpg	0.0	207.62910313592693	
68.0	34.403390814867635	ISI	1.0		4.0	character	word-33.jpg	0.0	207.728988973784	0.11671554730219214
69.0	34.52010636216983	word	0.0		46.0	character	word-131.jpg	0.0	207.8457045210862	0.383298338098939
69.0	34.903404700268766	ISI	1.0		7.0	character	word-131.jpg	0.0	208.22900285918513	0.11670588789274916
70.0	35.020110588161515	word	0.0		45.0	character	word-117.jpg	0.0	208.34570874707788	0.3832926028244401
70.0	35.010120042308245	pulse	0.0	t		character	word-117.jpg	0.0	208.3357182012246	
70.0	35.403403190985955	ISI	1.0		6.0	character	word-117.jpg	0.0	208.72900134990232	0.11667207996060824
71.0	35.52007527094656	word	0.0		46.0	character	word-118.jpg	0.0	208.84567342986293	0.38330377151623907
71.0	35.70351107451279	pulse	0.0	t		character	word-118.jpg	0.0	209.02910923342915	
71.0	35.9033790424628	ISI	1.0		6.0	character	word-118.jpg	0.0	209.22897720137917	0.11670498232342652
72.0	36.02008402478623	body	0.0		46.0	body	body-38.jpg	0.0	209.3456821837026	0.38328958425881865
72.0	36.40337360904505	ISI	1.0		6.0	body	body-38.jpg	0.0	209.7289717679614	0.11668083380027383
72.0	36.44779874137885	pulse	1.0	t		body	body-38.jpg	0.0	209.7733969002952	
73.0	36.52005444284532	body	0.0		46.0	body	body-72.jpg	0.0	209.84565260176169	0.38330950679073794
73.0	36.90336394963606	ISI	1.0		6.0	body	body-72.jpg	0.0	210.22896210855242	0.11670709531881585
74.0	37.020071044954875	body	0.0		46.0	body	body-36.jpg	0.0	210.34566920387124	0.38330165852084974
74.0	37.103509021888385	pulse	0.0	t		body	body-36.jpg	0.0	210.42910718080475	
74.0	37.403372703475725	ISI	1.0		6.0	body	body-36.jpg	0.0	210.7289708623921	0.11668687093060726
75.0	37.52005957440633	body	0.0		46.0	body	body-56.jpg	0.0	210.8456577333227	0.38330558265579384
75.0	37.80347871549202	pulse	0.0	t		body	body-56.jpg	0.0	211.12907687440838	
75.0	37.903365157062126	ISI	1.0		7.0	body	body-56.jpg	0.0	211.2289633159785	0.11668928578319537
76.0	38.02005444284532	body	0.0		46.0	body	body-76.jpg	0.0	211.34565260176169	0.383301658520395
76.0	38.403356101365716	ISI	1.0		7.0	body	body-76.jpg	0.0	211.72895426028208	0.1166829467961179
77.0	38.520039048161834	body	0.0		45.0	body	body-75.jpg	0.0	211.8456372070782	0.3833107142168046
77.0	38.510534793192164	pulse	0.0	t		body	body-75.jpg	0.0	211.83613295210853	
77.0	38.90334976237864	ISI	1.0		6.0	body	body-75.jpg	0.0	212.228947921295	0.11668656907431796
78.0	39.02003633145296	body	0.0		46.0	body	body-3.jpg	0.0	212.34563449036932	0.38329018797230674
78.0	39.20345251434446	pulse	0.0	t		body	body-3.jpg	0.0	212.52905067326083	
78.0	39.40332651942526	ISI	1.0		5.0	body	body-3.jpg	0.0	212.72892467834163	0.11672249000230295
79.0	39.52004900942757	body	0.0		46.0	body	body-143.jpg	0.0	212.84564716834393	0.38325456890061105
79.0	39.90330357832818	ISI	1.0		6.0	body	body-143.jpg	0.0	213.22890173724454	0.11668355050915125
79.0	39.94849331327396	pulse	1.0	t		body	body-143.jpg	0.0	213.27409147219032	
80.0	40.01998712883733	body	0.0		46.0	body	body-99.jpg	0.0	213.3455852877537	0.3832956213896068
80.0	40.403282750226936	ISI	1.0		7.0	body	body-99.jpg	0.0	213.7288809091433	0.11670136004477172
81.0	40.51998411027171	body	0.0		46.0	body	body-30.jpg	0.0	213.84558226918807	0.38328626383736264
81.0	40.60340669252173	pulse	0.0	t		body	body-30.jpg	0.0	213.9290048514381	
81.0	40.90327037410907	ISI	1.0		7.0	body	body-30.jpg	0.0	214.22886853302543	0.11670558603645986
82.0	41.01997596014553	body	0.0		46.0	body	body-107.jpg	0.0	214.3455741190619	0.3832916972546627
82.0	41.303394195660985	pulse	0.0	t		body	body-107.jpg	0.0	214.62899235457735	
82.0	41.40326765740019	ISI	1.0		7.0	body	body-107.jpg	0.0	214.72886581631656	0.11669773776611692
83.0	41.51996539516631	body	0.0		46.0	body	body-63.jpg	0.0	214.84556355408267	0.38330860122096055
83.0	41.90327399638727	ISI	1.0		7.0	body	body-63.jpg	0.0	215.22887215530363	0.11667781523510712
84.0	42.01995181162238	house	0.0		45.0	place	house-29.jpg	0.0	215.34554997053874	0.38331282721219395
84.0	42.010733716650975	pulse	0.0	t		place	house-29.jpg	0.0	215.33633187556734	
84.0	42.40326463883457	ISI	1.0		7.0	place	house-29.jpg	0.0	215.72886279775093	0.11667026882150822
85.0	42.51993490765608	house	0.0		46.0	place	house-128.jpg	0.0	215.84553306657244	0.38330829936467126
85.0	42.70336135366961	pulse	0.0	t		place	house-128.jpg	0.0	216.02895951258597	
85.0	42.90324320702075	ISI	1.0		6.0	place	house-128.jpg	0.0	216.22884136593711	0.11671373616263736
86.0	43.01995694318339	house	0.0		46.0	place	house-53.jpg	0.0	216.34555510209975	0.3832769062846637
86.0	43.40323384946805	ISI	1.0		6.0	place	house-53.jpg	0.0	216.72883200838442	0.11668385236544054
86.0	43.445055167301234	pulse	1.0	t		place	house-53.jpg	0.0	216.7706533262176	
87.0	43.51991770183349	house	0.0		46.0	place	house-106.jpg	0.0	216.84551586074986	0.3833101105037713
87.0	43.90322781233726	ISI	1.0		6.0	place	house-106.jpg	0.0	217.22882597125363	0.11668415422172984
88.0	44.01991196655899	house	0.0		46.0	place	house-28.jpg	0.0	217.34551012547536	0.383323090335125
88.0	44.1034468394414	pulse	0.0	t		place	house-28.jpg	0.0	217.42904499835777	
88.0	44.40323505689412	ISI	1.0		4.0	place	house-28.jpg	0.0	217.72883321581048	0.11668566350454057
89.0	44.51992072039866	house	0.0		46.0	place	house-90.jpg	0.0	217.84551887931502	0.3833076956516379
89.0	44.803338654057825	pulse	0.0	t		place	house-90.jpg	0.0	218.1289368129742	
89.0	44.9032284160503	ISI	1.0		7.0	place	house-90.jpg	0.0	218.22882657496666	0.11668505979150723
90.0	45.019913475841804	house	0.0		46.0	place	house-94.jpg	0.0	218.34551163475817	0.38330558265579384
90.0	45.4032190584976	ISI	1.0		4.0	place	house-94.jpg	0.0	218.72881721741396	0.11668385236544054
91.0	45.51990291086304	house	0.0		45.0	place	house-140.jpg	0.0	218.8455010697794	0.38332520333051434
91.0	45.51137848221697	pulse	0.0	t		place	house-140.jpg	0.0	218.83697664113333	
91.0	45.90322811419355	ISI	1.0		6.0	place	house-140.jpg	0.0	219.22882627310992	0.11670105818848242
92.0	46.019929172382035	house	0.0		46.0	place	house-5.jpg	0.0	219.3455273312984	0.3832744914320756
92.0	46.20332301788949	pulse	0.0	t		place	house-5.jpg	0.0	219.52892117680585	
92.0	46.40320366381411	ISI	1.0		7.0	place	house-5.jpg	0.0	219.72880182273047	0.11670045447499433
93.0	46.519904118289105	house	0.0		46.0	place	house-32.jpg	0.0	219.84550227720547	0.38327750999769705
93.0	46.9031816282868	ISI	1.0		7.0	place	house-32.jpg	0.0	220.22877978720317	0.11669592662701689
93.0	46.938036399069006	pulse	1.0	t		place	house-32.jpg	0.0	220.26363455798537	
94.0	47.01987755491382	house	0.0		46.0	place	house-27.jpg	0.0	220.34547571383018	0.38329018797230674
94.0	47.403167742886126	ISI	1.0		7.0	place	house-27.jpg	0.0	220.7287659018025	0.1167104157407266
95.0	47.51987815862685	house	0.0		46.0	place	house-46.jpg	0.0	220.84547631754322	0.3833043752292724
95.0	47.603358093619136	pulse	0.0	t		place	house-46.jpg	0.0	220.9289562525355	
95.0	47.903182533856125	ISI	1.0		6.0	place	house-46.jpg	0.0	221.2287806927725	0.11668355050915125
96.0	48.019866084365276	word	0.0		46.0	character	word-41.jpg	0.0	221.34546424328164	0.3833079975079272
96.0	48.303287942159386	pulse	0.0	t		character	word-41.jpg	0.0	221.62888610107575	
96.0	48.4031740818732	ISI	1.0		7.0	character	word-41.jpg	0.0	221.72877224078957	0.11668505979196198
97.0	48.519859141665165	word	0.0		46.0	character	word-41.jpg	1.0	221.84545730058153	0.38327328400555416
97.0	48.8949379262217	response	0.0	b		character	word-41.jpg	1.0	222.22053608513806	
97.0	48.90313242567072	ISI	1.0		6.0	character	word-41.jpg	1.0	222.22873058458708	0.11673577169040072
98.0	49.01986819736112	word	0.0		45.0	character	word-80.jpg	0.0	222.34546635627748	0.3832916972546627
98.0	49.01173135251065	pulse	0.0	t		character	word-80.jpg	0.0	222.33732951142701	
98.0	49.40315989461578	ISI	1.0		3.0	character	word-80.jpg	0.0	222.72875805353215	0.11668324865286195
99.0	49.519843143268645	word	0.0		46.0	character	word-48.jpg	0.0	222.845441302185	0.3833082993642165
99.0	49.703257515020596	pulse	0.0	t		character	word-48.jpg	0.0	223.02885567393696	
99.0	49.90315144263286	ISI	1.0		4.0	character	word-48.jpg	0.0	223.22874960154923	0.11668928578319537
100.0	50.01984072841606	word	0.0		46.0	character	word-96.jpg	0.0	223.34543888733242	0.3832856601243293
100.0	50.403126388540386	ISI	1.0		5.0	character	word-96.jpg	0.0	223.72872454745675	0.11668838021341799
100.0	50.45814728908681	pulse	1.0	t		character	word-96.jpg	0.0	223.78374544800317	
101.0	50.519814768753804	word	0.0		46.0	character	word-107.jpg	0.0	223.84541292767017	0.38330739379489387
101.0	50.9031221625487	ISI	1.0		7.0	character	word-107.jpg	0.0	224.22872032146506	0.11669532291398355
102.0	51.01981748546268	word	0.0		46.0	character	word-84.jpg	0.0	224.34541564437905	0.3832763025711756
102.0	51.103235841721016	pulse	0.0	t		character	word-84.jpg	0.0	224.42883400063738	
102.0	51.40309378803386	ISI	1.0		6.0	character	word-84.jpg	0.0	224.72869194695022	0.11672098071994697
103.0	51.519814768753804	word	0.0		46.0	character	word-142.jpg	0.0	224.84541292767017	0.3833025640901724
103.0	51.80321911886858	pulse	0.0	t		character	word-142.jpg	0.0	225.12881727778495	
103.0	51.903117332843976	ISI	1.0		6.0	character	word-142.jpg	0.0	225.22871549176034	0.11667358924341897
104.0	52.019790922087395	word	0.0		46.0	character	word-59.jpg	0.0	225.34538908100376	0.38336384096737675
104.0	52.40315476305477	ISI	1.0		6.0	character	word-59.jpg	0.0	225.72875292197114	0.11666574097307603
105.0	52.51982050402785	word	0.0		45.0	character	word-144.jpg	0.0	225.8454186629442	0.38330165852084974
105.0	52.51109896306252	pulse	0.0	t		character	word-144.jpg	0.0	225.8366971219789	
105.0	52.9031221625487	ISI	1.0		6.0	character	word-144.jpg	0.0	226.22872032146506	0.11670377489690509
106.0	53.0198259374456	word	0.0		46.0	character	word-60.jpg	0.0	226.34542409636197	0.38330558265579384
106.0	53.20323698877564	pulse	0.0	t		character	word-60.jpg	0.0	226.528835147692	
106.0	53.4031315201014	ISI	1.0		6.0	character	word-60.jpg	0.0	226.72872967901776	0.11668747464409535
107.0	53.51981899474549	word	0.0		46.0	character	word-77.jpg	0.0	226.84541715366186	0.3833028659464617
107.0	53.903121860691954	ISI	1.0		11.0	character	word-77.jpg	0.0	227.22872001960832	0.10003827540913335
107.0	53.90750602505659	pulse	1.0	t		character	word-77.jpg	0.0	227.23310418397296	
108.0	54.00316013610109	baseline	0.0		48.0		baseline	0.0	227.32875829501745	0.3999765155613204
108.0	54.40313665166241	ISI	1.0		11.0		baseline	0.0	227.72873481057877	0.10000386376395909
109.0	54.50314051542637	baseline	0.0		48.0		baseline	0.0	227.82873867434273	0.39998798610940867
109.0	54.60326783851406	pulse	0.0	t			baseline	0.0	227.92886599743042	
109.0	54.903128501535775	ISI	1.0		11.0		baseline	0.0	228.22872666045214	0.09999933591598165
110.0	55.00312783745176	baseline	0.0		48.0		baseline	0.0	228.32872599636812	0.4000106253497506
110.0	55.303255945366345	pulse	0.0	t			baseline	0.0	228.6288541042827	
110.0	55.40313846280151	ISI	1.0		11.0		baseline	0.0	228.72873662171787	0.09998243194968381
111.0	55.50312089475119	baseline	0.0		48.0		baseline	0.0	228.82871905366756	0.3999940232406516
111.0	55.90311491799184	ISI	1.0		11.0		baseline	0.0	229.2287130769082	0.10000265633743766
112.0	56.00311757432928	baseline	0.0		47.0		baseline	0.0	229.32871573324564	0.3999894953922194
112.0	56.00787000367063	pulse	0.0	t			baseline	0.0	229.333468162587	
112.0	56.4031070697215	ISI	1.0		11.0		baseline	0.0	229.72870522863786	0.09999209135867204
113.0	56.50309916108017	baseline	0.0		48.0		baseline	0.0	229.82869731999654	0.3999994566584064
113.0	56.70323517763654	pulse	0.0	t			baseline	0.0	230.0288333365529	
113.0	56.90309861773858	ISI	1.0		11.0		baseline	0.0	230.22869677665494	0.09999239321541609
114.0	57.003091010953995	baseline	0.0		48.0		baseline	0.0	230.32868916987036	0.4000018715105398
114.0	57.403092882464534	ISI	1.0		11.0		baseline	0.0	230.7286910413809	0.09999692106339353
114.0	57.40768683712304	pulse	1.0	t			baseline	0.0	230.7332849960394	
115.0	57.50308980352793	baseline	0.0		48.0		baseline	0.0	230.8286879624443	0.40001092720649467
115.0	57.90310073073442	ISI	1.0		11.0		baseline	0.0	231.2286988896508	0.09998484680181718
116.0	58.00308557753624	baseline	0.0		48.0		baseline	0.0	231.3286837364526	0.4000073049282946
116.0	58.10320143007584	pulse	0.0	t			baseline	0.0	231.4287995889922	
116.0	58.403092882464534	ISI	1.0		11.0		baseline	0.0	231.7286910413809	0.09999903405878285
117.0	58.50309191652332	baseline	0.0		48.0		baseline	0.0	231.82869007543968	0.39999462695368493
117.0	58.80319798891105	pulse	0.0	t			baseline	0.0	232.12879614782742	
117.0	58.903086543477	ISI	1.0		11.0		baseline	0.0	232.22868470239337	0.09999843034620426
118.0	59.003084973823206	baseline	0.0		48.0		baseline	0.0	232.32868313273957	0.399975609991543
118.0	59.40306058381475	ISI	1.0		11.0		baseline	0.0	232.7286587427311	0.10002589929081296
119.0	59.50308648310556	baseline	0.0		47.0		baseline	0.0	232.82868464202193	0.399985269400986
119.0	59.50745887506537	pulse	0.0	t			baseline	0.0	232.83305703398173	
119.0	59.90307175250655	ISI	1.0		6.0		baseline	0.0	233.2286699114229	0.11664974257701033
120.0	60.01972149508356	word	0.0		46.0	character	word-58.jpg	0.0	233.34531965399992	0.38330377151623907
120.0	60.20314250767933	pulse	0.0	t		character	word-58.jpg	0.0	233.5287406665957	
120.0	60.4030252665998	ISI	1.0		6.0	character	word-58.jpg	0.0	233.72862342551616	0.116686870931062
121.0	60.51971213753086	word	0.0		46.0	character	word-27.jpg	0.0	233.84531029644722	0.38330588451208314
121.0	60.90301802204294	ISI	1.0		6.0	character	word-27.jpg	0.0	234.2286161809593	0.11668747464409535
121.0	60.95041855427644	pulse	1.0	t		character	word-27.jpg	0.0	234.2760167131928	
122.0	61.01970549668704	word	0.0		46.0	character	word-79.jpg	0.0	234.3453036556034	0.38330497894230575
122.0	61.403010475629344	ISI	1.0		7.0	character	word-79.jpg	0.0	234.7286086345457	0.11668747464409535
123.0	61.51969795027344	word	0.0		46.0	character	word-143.jpg	0.0	234.8452961091898	0.3833043752292724
123.0	61.60312234366256	pulse	0.0	t		character	word-143.jpg	0.0	234.92872050257893	
123.0	61.90300232550271	ISI	1.0		6.0	character	word-143.jpg	0.0	235.22860048441908	0.11670045447544908
124.0	62.01970277997816	word	0.0		46.0	character	word-69.jpg	0.0	235.34530093889452	0.38329079168488533
124.0	62.303109243088784	pulse	0.0	t		character	word-69.jpg	0.0	235.62870740200515	
124.0	62.402993571663046	ISI	1.0		6.0	character	word-69.jpg	0.0	235.7285917305794	0.11667328738712968
125.0	62.519666859050176	word	0.0		46.0	character	word-137.jpg	0.0	235.84526501796654	0.3833197699127595
125.0	62.902986628962935	ISI	1.0		7.0	character	word-137.jpg	0.0	236.2285847878793	0.11668505979150723
126.0	63.01967168875444	word	0.0		45.0	character	word-25.jpg	0.0	236.3452698476708	0.38330739379489387
126.0	63.009811243069635	pulse	0.0	t		character	word-25.jpg	0.0	236.335409401986	
126.0	63.40297908254934	ISI	1.0		6.0	character	word-25.jpg	0.0	236.7285772414657	0.11669743590982762
127.0	63.519676518459164	word	0.0		46.0	character	word-4.jpg	0.0	236.84527467737553	0.38327901928005303
127.0	63.703087569789204	pulse	0.0	t		character	word-4.jpg	0.0	237.02868572870557	
127.0	63.90295553773922	ISI	1.0		7.0	character	word-4.jpg	0.0	237.22855369665558	0.11668777650083939
128.0	64.01964331424006	word	0.0		46.0	character	word-4.jpg	1.0	237.34524147315642	0.3833064882251165
128.0	64.40294980246517	ISI	1.0		5.0	character	word-4.jpg	1.0	237.72854796138154	0.11669170063578349
128.0	64.4435470920348	pulse	1.0	t		character	word-4.jpg	1.0	237.76914525095117	
128.0	64.45311534059101	response	1.0	b		character	word-4.jpg	1.0	237.77871349950738	
129.0	64.51964150310096	word	0.0		46.0	character	word-37.jpg	0.0	237.84523966201732	0.38329833809848424
129.0	64.90293984119944	ISI	1.0		6.0	character	word-37.jpg	0.0	238.2285380001158	0.11670860460162658
130.0	65.01964844580107	word	0.0		46.0	character	word-53.jpg	0.0	238.34524660471743	0.3833004510943283
130.0	65.10306982062502	pulse	0.0	t		character	word-53.jpg	0.0	238.4286679795414	
130.0	65.4029488968954	ISI	1.0		7.0	character	word-53.jpg	0.0	238.72854705581176	0.11669351177488352
131.0	65.51964240867028	word	0.0		46.0	character	word-140.jpg	0.0	238.84524056758664	0.3832838489847745
131.0	65.80304615507202	pulse	0.0	t		character	word-140.jpg	0.0	239.1286443139884	
131.0	65.90292625765505	ISI	1.0		6.0	character	word-140.jpg	0.0	239.22852441657142	0.11670407675364913
132.0	66.0196303344087	car	0.0		46.0	object	car-59.jpg	0.0	239.34522849332507	0.383288678689496
132.0	66.4029190130982	ISI	1.0		4.0	object	car-59.jpg	0.0	239.72851717201456	0.11668385236544054
133.0	66.51960286546364	car	0.0		45.0	object	car-79.jpg	0.0	239.84520102438	0.3833252033309691
133.0	66.51000533682372	pulse	0.0	t		object	car-79.jpg	0.0	239.8356034957401	
133.0	66.90292806879461	ISI	1.0		6.0	object	car-79.jpg	0.0	240.22852622771097	0.11668566350454057
134.0	67.01961373229915	car	0.0		46.0	object	car-109.jpg	0.0	240.3452118912155	0.3832877731197186
134.0	67.20303866902987	pulse	0.0	t		object	car-109.jpg	0.0	240.52863682794623	
134.0	67.40290150541887	ISI	1.0		6.0	object	car-109.jpg	0.0	240.72849966433523	0.11670588789320391
135.0	67.51960739331207	car	0.0		46.0	object	car-48.jpg	0.0	240.84520555222844	0.3833070919381498
135.0	67.90291448525022	ISI	1.0		6.0	object	car-48.jpg	0.0	241.22851264416659	0.11668626721802866
135.0	67.94542584713008	pulse	1.0	t		object	car-48.jpg	0.0	241.27102400604645	
136.0	68.01960075246825	car	0.0		46.0	object	car-138.jpg	0.0	241.3451989113846	0.3832723784362315
136.0	68.40287313090448	ISI	1.0		6.0	object	car-138.jpg	0.0	241.72847128982085	0.11672007515016958
137.0	68.51959320605465	car	0.0		46.0	object	car-21.jpg	0.0	241.84519136497101	0.3832995455245509
137.0	68.60301246788276	pulse	0.0	t		object	car-21.jpg	0.0	241.92861062679913	
137.0	68.9028927515792	ISI	1.0		5.0	object	car-21.jpg	0.0	242.22849091049557	0.11669320991859422
138.0	69.0195859614978	car	0.0		46.0	object	car-130.jpg	0.0	242.34518412041416	0.3832823397019638
138.0	69.30299393389123	pulse	0.0	t		object	car-130.jpg	0.0	242.6285920928076	
138.0	69.40286830119976	ISI	1.0		7.0	object	car-130.jpg	0.0	242.72846646011612	0.11670920831465992
139.0	69.51957750951442	car	0.0		46.0	object	car-22.jpg	0.0	242.84517566843078	0.3833028659469164
139.0	69.90288037546134	ISI	1.0		7.0	object	car-22.jpg	0.0	243.2284785343777	0.11668204122634052
140.0	70.01956241668768	car	0.0		45.0	object	car-24.jpg	0.0	243.34516057560404	0.38329713067241755
140.0	70.00991628914471	pulse	0.0	t		object	car-24.jpg	0.0	243.33551444806108	
140.0	70.4028595473601	ISI	1.0		7.0	object	car-24.jpg	0.0	243.72845770627646	0.11670286932758245
141.0	70.51956241668768	car	0.0		46.0	object	car-133.jpg	0.0	243.84516057560404	0.3832569837527444
141.0	70.70295324362951	pulse	0.0	t		object	car-133.jpg	0.0	244.02855140254587	
141.0	70.90281940044042	ISI	1.0		7.0	object	car-133.jpg	0.0	244.22841755935679	0.11669894519263835
142.0	71.01951834563306	car	0.0		46.0	object	car-72.jpg	0.0	244.34511650454942	0.3833110160730939
142.0	71.40282936170615	ISI	1.0		7.0	object	car-72.jpg	0.0	244.72842752062252	0.11668868207016203
142.0	71.4402348202384	pulse	1.0	t		object	car-72.jpg	0.0	244.76583297915477	
143.0	71.51951804377632	car	0.0		46.0	object	car-127.jpg	0.0	244.84511620269268	0.383300149238039
143.0	71.90281819301435	ISI	1.0		6.0	object	car-127.jpg	0.0	245.22841635193072	0.1166750985262297
144.0	72.01949329154058	body	0.0		46.0	body	body-6.jpg	0.0	245.34509145045695	0.3833173550601714
144.0	72.10293338146948	pulse	0.0	t		body	body-6.jpg	0.0	245.42853154038585	
144.0	72.40281064660076	ISI	1.0		6.0	body	body-6.jpg	0.0	245.72840880551712	0.11668898392690608
145.0	72.51949963052766	body	0.0		46.0	body	body-16.jpg	0.0	245.84509778944403	0.383288678689496
145.0	72.80291967718267	pulse	0.0	t		body	body-16.jpg	0.0	246.12851783609904	
145.0	72.90278830921716	ISI	1.0		5.0	body	body-16.jpg	0.0	246.22838646813352	0.11670045447499433
146.0	73.01948876369215	body	0.0		46.0	body	body-97.jpg	0.0	246.34508692260852	0.3833079975079272
146.0	73.40279676120008	ISI	1.0		7.0	body	body-97.jpg	0.0	246.72839492011644	0.1166793245174631
147.0	73.51947608571754	body	0.0		45.0	body	body-21.jpg	0.0	246.8450742446339	0.3832962251030949
147.0	73.51131237563504	pulse	0.0	t		body	body-21.jpg	0.0	246.8369105345514	
147.0	73.90277231082064	ISI	1.0		7.0	body	body-21.jpg	0.0	247.228370469737	0.11669230434836209
148.0	74.019464615169	body	0.0		46.0	body	body-110.jpg	0.0	247.34506277408536	0.38332007176950356
148.0	74.20290011687894	pulse	0.0	t		body	body-110.jpg	0.0	247.5284982757953	
148.0	74.4027846869385	ISI	1.0		7.0	body	body-110.jpg	0.0	247.72838284585487	0.11668264493937386
149.0	74.51946733187788	body	0.0		46.0	body	body-59.jpg	0.0	247.84506549079424	0.3833076956516379
149.0	74.90277502752951	ISI	1.0		7.0	body	body-59.jpg	0.0	248.22837318644588	0.11668596536128462
149.0	74.937343638313	pulse	1.0	t		body	body-59.jpg	0.0	248.26294179722936	
150.0	75.0194609928908	body	0.0		46.0	body	body-112.jpg	0.0	248.34505915180716	0.38330588451208314
150.0	75.40276687740288	ISI	1.0		7.0	body	body-112.jpg	0.0	248.72836503631925	0.11667992823049644
151.0	75.51944680563338	body	0.0		46.0	body	body-142.jpg	0.0	248.84504496454974	0.38329592324635087
151.0	75.60286787860059	pulse	0.0	t		body	body-142.jpg	0.0	248.92846603751696	
151.0	75.90274272887973	ISI	1.0		7.0	body	body-142.jpg	0.0	249.2283408877961	0.1166904932097168
152.0	76.01943322208945	body	0.0		46.0	body	body-64.jpg	0.0	249.3450313810058	0.38331916619972617
152.0	76.30286805971446	pulse	0.0	t		body	body-64.jpg	0.0	249.62846621863082	
152.0	76.40275238828917	ISI	1.0		7.0	body	body-64.jpg	0.0	249.72835054720554	0.11668566350454057
153.0	76.51943805179371	body	0.0		46.0	body	body-64.jpg	1.0	249.84503621071008	0.38333667387905734
153.0	76.90277472567277	ISI	1.0		6.0	body	body-64.jpg	1.0	250.22837288458913	0.1166832486524072
153.0	76.94978042955381	response	1.0	b		body	body-64.jpg	1.0	250.27537858847018	
154.0	77.01945797432518	body	0.0		45.0	body	body-130.jpg	0.0	250.34505613324154	0.3833089030777046
154.0	77.01140776230113	pulse	0.0	t		body	body-130.jpg	0.0	250.3370059212175	
154.0	77.40276687740288	ISI	1.0		6.0	body	body-130.jpg	0.0	250.72836503631925	0.11668656907431796
155.0	77.5194534464772	body	0.0		46.0	body	body-102.jpg	0.0	250.84505160539356	0.38327388771904225
155.0	77.70284578270184	pulse	0.0	t		body	body-102.jpg	0.0	251.0284439416182	
155.0	77.90272733419624	ISI	1.0		6.0	body	body-102.jpg	0.0	251.2283254931126	0.11667630595229639
156.0	78.01940364014854	adult	0.0		46.0	face	adult-103.jpg	0.0	251.3450017990649	0.383301658520395
156.0	78.40270529866893	ISI	1.0		6.0	face	adult-103.jpg	0.0	251.7283034575853	0.1167025674708384
156.0	78.44673620636377	pulse	1.0	t		face	adult-103.jpg	0.0	251.77233436528013	
157.0	78.51940786613977	adult	0.0		46.0	face	adult-28.jpg	0.0	251.84500602505614	0.38329018797230674
157.0	78.90269805411208	ISI	1.0		7.0	face	adult-28.jpg	0.0	252.22829621302844	0.11669351177488352
158.0	79.01939156588696	adult	0.0		46.0	face	adult-93.jpg	0.0	252.34498972480333	0.3832977343854509
158.0	79.10282229826316	pulse	0.0	t		face	adult-93.jpg	0.0	252.42842045717953	
158.0	79.40268930027241	ISI	1.0		7.0	face	adult-93.jpg	0.0	252.72828745918878	0.11669351177488352
159.0	79.5193828120473	adult	0.0		46.0	face	adult-33.jpg	0.0	252.84498097096366	0.3832986399552283
159.0	79.8028107069722	pulse	0.0	t		face	adult-33.jpg	0.0	253.12840886588856	
159.0	79.90268145200253	ISI	1.0		6.0	face	adult-33.jpg	0.0	253.2282796109189	0.10835351747391542
160.0	80.01103496947644	adult	0.0		47.0	face	adult-133.jpg	0.0	253.3366331283928	0.3916392379692297
160.0	80.40267420744567	ISI	1.0		6.0	face	adult-133.jpg	0.0	253.72827236636203	0.1166989451921836
161.0	80.51937315263785	adult	0.0		45.0	face	adult-81.jpg	0.0	253.84497131155422	0.3832950176770282
161.0	80.50818755674891	pulse	0.0	t		face	adult-81.jpg	0.0	253.83378571566527	
161.0	80.90266817031488	ISI	1.0		2.0	face	adult-81.jpg	0.0	254.22826632923125	0.10845675240989294
162.0	81.01112492272478	adult	0.0		47.0	face	adult-2.jpg	0.0	254.33672308164114	0.3915387197421296
162.0	81.20279537266015	pulse	0.0	t		face	adult-2.jpg	0.0	254.5283935315765	
162.0	81.4026636424669	ISI	1.0		7.0	face	adult-2.jpg	0.0	254.72826180138327	0.11669803962286096
163.0	81.51936168208977	adult	0.0		46.0	face	adult-20.jpg	0.0	254.84495984100613	0.3833055826553391
163.0	81.9026672647451	ISI	1.0		7.0	face	adult-20.jpg	0.0	255.22826542366147	0.11668656907431796
163.0	81.93968453576872	pulse	1.0	t		face	adult-20.jpg	0.0	255.26528269468508	
164.0	82.01935383381942	adult	0.0		46.0	face	adult-134.jpg	0.0	255.3449519927358	0.38330588451208314
164.0	82.4026597183315	ISI	1.0		7.0	face	adult-134.jpg	0.0	255.72825787724787	0.11668385236589529
165.0	82.5193435706974	adult	0.0		46.0	face	adult-57.jpg	0.0	255.84494172961377	0.3832929046807294
165.0	82.60275921024686	pulse	0.0	t		face	adult-57.jpg	0.0	255.92835736916322	
165.0	82.90263647537813	ISI	1.0		7.0	face	adult-57.jpg	0.0	256.2282346342945	0.11668143751330717
166.0	83.01931791289144	adult	0.0		46.0	face	adult-59.jpg	0.0	256.3449160718078	0.38332761818310246
166.0	83.30276240992589	pulse	0.0	t		face	adult-59.jpg	0.0	256.62836056884225	
166.0	83.40264553107454	ISI	1.0		5.0	face	adult-59.jpg	0.0	256.7282436899909	0.11668415422218459
167.0	83.51932968529673	adult	0.0		46.0	face	adult-73.jpg	0.0	256.8449278442131	0.38332399590444766
167.0	83.90265368120117	ISI	1.0		11.0	face	adult-73.jpg	0.0	257.22825184011754	0.10004008654823338
168.0	84.0026937677494	baseline	0.0		47.0		baseline	0.0	257.32829192666577	0.39998858982289676
168.0	84.00707038570044	pulse	0.0	t			baseline	0.0	257.3326685446168	
168.0	84.4026823575723	ISI	1.0		11.0		baseline	0.0	257.72828051648867	0.09998605422788387
168.0	84.45279869308206	response	1.0	b			baseline	0.0	257.7783968519984	
169.0	84.50266841180019	baseline	0.0		48.0		baseline	0.0	257.82826657071655	0.40000156965379574
169.0	84.702776355698	pulse	0.0	t			baseline	0.0	258.02837451461437	
169.0	84.90266998145398	ISI	1.0		11.0		baseline	0.0	258.22826814037035	0.10002167329957956
170.0	85.00269165475356	baseline	0.0		48.0		baseline	0.0	258.3282898136699	0.39997983598323117
170.0	85.4026714907368	ISI	1.0		11.0		baseline	0.0	258.72826964965316	0.09998243194922907
170.0	85.40733275940374	pulse	1.0	t			baseline	0.0	258.7329309183201	
171.0	85.50265392268602	baseline	0.0		48.0		baseline	0.0	258.8282520816024	0.4000142476288602
171.0	85.90266817031488	ISI	1.0		11.0		baseline	0.0	259.22826632923125	0.09999601549361614
172.0	86.0026641858085	baseline	0.0		48.0		baseline	0.0	259.32826234472486	0.40002843488582585
172.0	86.10278215134349	pulse	0.0	t			baseline	0.0	259.42838031025985	
172.0	86.40269262069432	ISI	1.0		11.0		baseline	0.0	259.7282907796107	0.09996250941821927
173.0	86.50265513011254	baseline	0.0		48.0		baseline	0.0	259.8282532890289	0.40000700307155057
173.0	86.80278172874478	pulse	0.0	t			baseline	0.0	260.12837988766114	
173.0	86.9026621331841	ISI	1.0		11.0		baseline	0.0	260.22826029210046	0.0999993359155269
174.0	87.00266146909962	baseline	0.0		48.0		baseline	0.0	260.328259628016	0.3999931176708742
174.0	87.4026545867705	ISI	1.0		11.0		baseline	0.0	260.72825274568686	0.09998726165395055
175.0	87.50264184842445	baseline	0.0		47.0		baseline	0.0	260.8282400073408	0.3999891935359301
175.0	87.50784344029535	pulse	0.0	t			baseline	0.0	260.8334415992117	
175.0	87.90263104196038	ISI	1.0		11.0		baseline	0.0	261.22822920087674	0.10001201389059133
176.0	88.00264305585097	baseline	0.0		48.0		baseline	0.0	261.32824121476733	0.3999795341264871
176.0	88.20274103848305	pulse	0.0	t			baseline	0.0	261.5283391973994	
176.0	88.40262258997745	ISI	1.0		11.0		baseline	0.0	261.7282207488938	0.09999782663317092
177.0	88.50262041661063	baseline	0.0		48.0		baseline	0.0	261.828218575527	0.39999643809278496
177.0	88.90261685470341	ISI	1.0		11.0		baseline	0.0	262.2282150136198	0.09999812848946021
177.0	88.90724159872889	pulse	1.0	t			baseline	0.0	262.23283975764525	
178.0	89.00261498319287	baseline	0.0		48.0		baseline	0.0	262.32821314210923	0.3999934195271635
178.0	89.40260840272003	ISI	1.0		11.0		baseline	0.0	262.7282065616364	0.0999990340592376
179.0	89.50260743677927	baseline	0.0		48.0		baseline	0.0	262.82820559569564	0.39999341952761824
179.0	89.60272359117516	pulse	0.0	t			baseline	0.0	262.9283217500915	
179.0	89.90260085630689	ISI	1.0		6.0		baseline	0.0	263.22819901522325	0.1166642316902653
180.0	90.01926508799716	adult	0.0		46.0	face	adult-55.jpg	0.0	263.3448632469135	0.38327358586275295
180.0	90.30265434528519	pulse	0.0	t		face	adult-55.jpg	0.0	263.62825250420155	
180.0	90.40253867385991	ISI	1.0		7.0	face	adult-55.jpg	0.0	263.7281368327763	0.11668958763948467
181.0	90.51922826149939	adult	0.0		46.0	face	adult-69.jpg	0.0	263.84482642041576	0.383288678689496
181.0	90.90251694018889	ISI	1.0		7.0	face	adult-69.jpg	0.0	264.22811509910525	0.11669320991859422
182.0	91.01921015010748	adult	0.0		45.0	face	adult-30.jpg	0.0	264.34480830902385	0.3833143364950047
182.0	91.01120249985524	pulse	0.0	t		face	adult-30.jpg	0.0	264.3368006587716	
182.0	91.40252448660249	ISI	1.0		6.0	face	adult-30.jpg	0.0	264.72812264551885	0.11668505979196198
183.0	91.51920954639445	adult	0.0		46.0	face	adult-39.jpg	0.0	264.8448077053108	0.3832916972546627
183.0	91.7026239181464	pulse	0.0	t		face	adult-39.jpg	0.0	265.02822207706276	
183.0	91.90250124364911	ISI	1.0		7.0	face	adult-39.jpg	0.0	265.2280994025655	0.11668988949622872
184.0	92.01919113314534	adult	0.0		46.0	face	adult-5.jpg	0.0	265.3447892920617	0.3833028659469164
184.0	92.40249399909226	ISI	1.0		5.0	face	adult-5.jpg	0.0	265.7280921580086	0.11669683219679428
184.0	92.45459081535091	pulse	1.0	t		face	adult-5.jpg	0.0	265.7801889742673	
185.0	92.51919083128905	adult	0.0		46.0	face	adult-113.jpg	0.0	265.8447889902054	0.3832992436682616
185.0	92.90249007495731	ISI	1.0		6.0	face	adult-113.jpg	0.0	266.2280882338737	0.11669713405308357
186.0	93.0191872090104	adult	0.0		46.0	face	adult-129.jpg	0.0	266.34478536792676	0.3833070919381498
186.0	93.10260133927704	pulse	0.0	t		face	adult-129.jpg	0.0	266.4281994981934	
186.0	93.40249430094855	ISI	1.0		7.0	face	adult-129.jpg	0.0	266.7280924598649	0.11668656907431796
187.0	93.51918087002286	adult	0.0		46.0	face	adult-130.jpg	0.0	266.84477902893923	0.3833058845125379
187.0	93.80259970925181	pulse	0.0	t		face	adult-130.jpg	0.0	267.1281978681682	
187.0	93.9024867545354	ISI	1.0		7.0	face	adult-130.jpg	0.0	267.22808491345177	0.11667419295599757
188.0	94.0191609474914	adult	0.0		46.0	face	adult-130.jpg	1.0	267.34475910640776	0.3833194680564702
188.0	94.40248041554787	ISI	1.0		7.0	face	adult-130.jpg	1.0	267.72807857446423	0.11668747464409535
189.0	94.51916789019197	adult	0.0		45.0	face	adult-50.jpg	0.0	267.84476604910833	0.38330467708601645
189.0	94.5111146596023	pulse	0.0	t		face	adult-50.jpg	0.0	267.83671281851866	
189.0	94.61925416079066	response	0.0	b		face	adult-50.jpg	0.0	267.944852319707	
189.0	94.90247256727798	ISI	1.0		4.0	face	adult-50.jpg	0.0	268.22807072619435	0.11668385236544054
190.0	95.01915641964342	adult	0.0		46.0	face	adult-11.jpg	0.0	268.3447545785598	0.38330105480736165
190.0	95.20258286565695	pulse	0.0	t		face	adult-11.jpg	0.0	268.5281810245733	
190.0	95.40245747445078	ISI	1.0		7.0	face	adult-11.jpg	0.0	268.72805563336715	0.11669109692275015
191.0	95.51914857137353	adult	0.0		46.0	face	adult-60.jpg	0.0	268.8447467302899	0.3833082993642165
191.0	95.90245687073775	ISI	1.0		6.0	face	adult-60.jpg	0.0	269.2280550296541	0.11669894519263835
191.0	95.94576000231837	pulse	1.0	t		face	adult-60.jpg	0.0	269.27135816123473	
192.0	96.01915581593039	house	0.0		46.0	place	house-6.jpg	0.0	269.34475397484675	0.38332490147422504
192.0	96.40248071740461	ISI	1.0		7.0	place	house-6.jpg	0.0	269.728078876321	0.1166874746436406
193.0	96.51916819204826	house	0.0		46.0	place	house-80.jpg	0.0	269.8447663509646	0.38327268029297556
193.0	96.60255938121827	pulse	0.0	t		place	house-80.jpg	0.0	269.92815754013463	
193.0	96.90244087234123	ISI	1.0		6.0	place	house-80.jpg	0.0	270.2280390312576	0.11667087253454156
194.0	97.01911174487577	house	0.0		46.0	place	house-55.jpg	0.0	270.34470990379214	0.38332218476534763
194.0	97.30255835490607	pulse	0.0	t		place	house-55.jpg	0.0	270.62815651382243	
194.0	97.40243392964112	ISI	1.0		7.0	place	house-55.jpg	0.0	270.7280320885575	0.11669743590982762
195.0	97.51913136555095	house	0.0		46.0	place	house-3.jpg	0.0	270.8447295244673	0.38327388771904225
195.0	97.90240525326999	ISI	1.0		6.0	place	house-3.jpg	0.0	271.22800341218635	0.11670196375780506
196.0	98.0191072170278	house	0.0		45.0	place	house-136.jpg	0.0	271.34470537594416	0.3832956213896068
196.0	98.0116417011186	pulse	0.0	t		place	house-136.jpg	0.0	271.33723986003497	
196.0	98.4024028384174	ISI	1.0		7.0	place	house-136.jpg	0.0	271.72800099733377	0.11669139877903945
197.0	98.51909423719644	house	0.0		46.0	place	house-63.jpg	0.0	271.8446923961128	0.3833179587736595
197.0	98.70252853148031	pulse	0.0	t		place	house-63.jpg	0.0	272.0281266903967	
197.0	98.9024121959701	ISI	1.0		7.0	place	house-63.jpg	0.0	272.22801035488646	0.11668445607892863
198.0	99.01909665204903	house	0.0		46.0	place	house-70.jpg	0.0	272.3446948109654	0.3832956213896068
198.0	99.40239227343864	ISI	1.0		7.0	place	house-70.jpg	0.0	272.727990432355	0.11669592662701689
198.0	99.4355083505593	pulse	1.0	t		place	house-70.jpg	0.0	272.76110650947567	
199.0	99.51908820006565	house	0.0		46.0	place	house-70.jpg	1.0	272.844686358982	0.38329169725511747
199.0	99.90237989732077	ISI	1.0		7.0	place	house-70.jpg	1.0	273.22797805623713	0.1167218862892696
200.0	100.01910178361004	house	0.0		46.0	place	house-56.jpg	0.0	273.3446999425264	0.38327479328881964
200.0	100.10250746189377	pulse	0.0	t		place	house-56.jpg	0.0	273.42810562081013	
200.0	100.1070890404344	response	0.0	b		place	house-56.jpg	0.0	273.43268719935077	
200.0	100.40237657689886	ISI	1.0		7.0	place	house-56.jpg	0.0	273.7279747358152	0.11669743590982762
201.0	100.51907401280869	house	0.0		46.0	place	house-72.jpg	0.0	273.84467217172505	0.3833067900814058
201.0	100.80249919102471	pulse	0.0	t		place	house-72.jpg	0.0	274.1280973499411	
201.0	100.9023808028901	ISI	1.0		6.0	place	house-72.jpg	0.0	274.22797896180646	0.11668958763993942
202.0	101.01907039053003	house	0.0		46.0	place	house-45.jpg	0.0	274.3446685494464	0.38330739379489387
202.0	101.40237778432493	ISI	1.0		6.0	place	house-45.jpg	0.0	274.7279759432413	0.10834174506862837
203.0	101.51071952939355	house	0.0		46.0	place	house-65.jpg	0.0	274.8363176883099	0.3916452751000179
203.0	101.50609901135977	pulse	0.0	t		place	house-65.jpg	0.0	274.83169717027613	
203.0	101.90236480449357	ISI	1.0		5.0	place	house-65.jpg	0.0	275.22796296340994	0.10835351747391542
204.0	102.01071832196749	body	0.0		47.0	body	body-24.jpg	0.0	275.33631648088385	0.3916199191507985
204.0	102.20244280422321	pulse	0.0	t		body	body-24.jpg	0.0	275.5280409631396	
204.0	102.40233824111829	ISI	1.0		5.0	body	body-24.jpg	0.0	275.72793640003465	0.10837072329650255
205.0	102.51070896441479	body	0.0		47.0	body	body-77.jpg	0.0	275.83630712333115	0.3916673106273265
205.0	102.90237627504212	ISI	1.0		6.0	body	body-77.jpg	0.0	276.2279744339585	0.1166947192009502
205.0	102.94551308367	pulse	1.0	t		body	body-77.jpg	0.0	276.27111124258636	
206.0	103.01907099424307	body	0.0		46.0	body	body-84.jpg	0.0	276.34466915315943	0.3833040733729831
206.0	103.40237506761605	ISI	1.0		5.0	body	body-84.jpg	0.0	276.7279732265324	0.11669894519263835
207.0	103.51907401280869	body	0.0		46.0	body	body-2.jpg	0.0	276.84467217172505	0.3832775099972423
207.0	103.60249840619736	pulse	0.0	t		body	body-2.jpg	0.0	276.9280965651137	
207.0	103.90235152280593	ISI	1.0		6.0	body	body-2.jpg	0.0	277.2279496817223	0.11670347304061579
208.0	104.01905499584655	body	0.0		46.0	body	body-106.jpg	0.0	277.3446531547629	0.3832926028244401
208.0	104.30249134275437	pulse	0.0	t		body	body-106.jpg	0.0	277.62808950167073	
208.0	104.40234759867099	ISI	1.0		4.0	body	body-106.jpg	0.0	277.72794575758735	0.1167025674708384
209.0	104.51905016614182	body	0.0		46.0	body	body-135.jpg	0.0	277.8446483250582	0.38328656569365194
209.0	104.90233673183548	ISI	1.0		7.0	body	body-135.jpg	0.0	278.22793489075184	0.11669532291398355
210.0	105.01903205474946	body	0.0		45.0	body	body-81.jpg	0.0	278.3446302136658	0.3832965269593842
210.0	105.01035549040807	pulse	0.0	t		body	body-81.jpg	0.0	278.33595364932444	
210.0	105.40232858170884	ISI	1.0		7.0	body	body-81.jpg	0.0	278.7279267406252	0.11669260620556088
211.0	105.5190211879144	body	0.0		46.0	body	body-83.jpg	0.0	278.84461934683077	0.38326754873151003
211.0	105.70242288169175	pulse	0.0	t		body	body-83.jpg	0.0	279.0280210406081	
211.0	105.90228873664591	ISI	1.0		6.0	body	body-83.jpg	0.0	279.2278868955623	0.11670136004477172
212.0	106.01899009669069	body	0.0		46.0	body	body-17.jpg	0.0	279.34458825560705	0.38329290468118415
212.0	106.40228300137187	ISI	1.0		7.0	body	body-17.jpg	0.0	279.72788116028823	0.11667872080442976
212.0	106.442058637444	pulse	1.0	t		body	body-17.jpg	0.0	279.76765679636037	
213.0	106.5189617221763	body	0.0		46.0	body	body-54.jpg	0.0	279.84455988109266	0.3833070919381498
213.0	106.90226881411445	ISI	1.0		7.0	body	body-54.jpg	0.0	280.2278669730308	0.11669743590982762
214.0	107.01896625002428	body	0.0		46.0	body	body-45.jpg	0.0	280.34456440894064	0.38329984738129497
214.0	107.10240030282239	pulse	0.0	t		body	body-45.jpg	0.0	280.42799846173875	
214.0	107.40226609740557	ISI	1.0		7.0	body	body-45.jpg	0.0	280.72786425632194	0.11670136004477172
215.0	107.51896745745034	body	0.0		46.0	body	body-113.jpg	0.0	280.8445656163667	0.38328415084151857
215.0	107.8023878059621	pulse	0.0	t		body	body-113.jpg	0.0	281.12798596487846	
215.0	107.90225160829186	ISI	1.0		7.0	body	body-113.jpg	0.0	281.2278497672082	0.11670739717555989
216.0	108.01895900546742	car	0.0		46.0	object	car-6.jpg	0.0	281.3445571643838	0.38330860122096055
216.0	108.40226760668838	ISI	1.0		7.0	object	car-6.jpg	0.0	281.72786576560475	0.11667902266071906
217.0	108.5189466293491	car	0.0		45.0	object	car-71.jpg	0.0	281.84454478826547	0.3833155439215261
217.0	108.5107904656802	pulse	0.0	t		object	car-71.jpg	0.0	281.83638862459657	
217.0	108.90226217327063	ISI	1.0		7.0	object	car-71.jpg	0.0	282.227860332187	0.11668415422218459
218.0	109.01894632749281	car	0.0		46.0	object	car-118.jpg	0.0	282.3445444864092	0.38330618636837244
218.0	109.20237005679746	pulse	0.0	t		object	car-118.jpg	0.0	282.5279682157138	
218.0	109.40225251386119	ISI	1.0		4.0	object	car-118.jpg	0.0	282.72785067277755	0.11669743590982762
219.0	109.51894994977101	car	0.0		46.0	object	car-81.jpg	0.0	282.8445481086874	0.3832808304196078
219.0	109.90223078019062	ISI	1.0		6.0	object	car-81.jpg	0.0	283.227828939107	0.11667781523465237
219.0	109.94860288719747	pulse	1.0	t		object	car-81.jpg	0.0	283.27420104611383	
220.0	110.01890859542527	car	0.0		46.0	object	car-108.jpg	0.0	283.34450675434164	0.38332882560916914
220.0	110.40223742103444	ISI	1.0		6.0	object	car-108.jpg	0.0	283.7278355799508	0.11668656907431796
221.0	110.51892399010876	car	0.0		46.0	object	car-4.jpg	0.0	283.8445221490251	0.3833052807990498
221.0	110.60233661109305	pulse	0.0	t		object	car-4.jpg	0.0	283.9279347700094	
221.0	110.90222927090781	ISI	1.0		7.0	object	car-4.jpg	0.0	284.2278274298242	0.11668355050915125
222.0	111.01891282141696	car	0.0		46.0	object	car-4.jpg	1.0	284.3445109803333	0.38330950679073794
222.0	111.30233618849388	pulse	0.0	t		object	car-4.jpg	1.0	284.62793434741025	
222.0	111.4022223282077	ISI	1.0		6.0	object	car-4.jpg	1.0	284.72782048712406	0.11668475793521793
222.0	111.45068569731302	response	1.0	b		object	car-4.jpg	1.0	284.7762838562294	
223.0	111.51890708614292	car	0.0		46.0	object	car-14.jpg	0.0	284.8445052450593	0.3833381831614133
223.0	111.90224526930433	ISI	1.0		7.0	object	car-14.jpg	0.0	285.2278434282207	0.1166829467961179
224.0	112.01892821610045	car	0.0		45.0	object	car-114.jpg	0.0	285.3445263750168	0.38330980864702724
224.0	112.00948916214293	pulse	0.0	t		object	car-114.jpg	0.0	285.3350873210593	
224.0	112.40223802474748	ISI	1.0		7.0	object	car-114.jpg	0.0	285.72783618366384	0.11668958763993942
225.0	112.51892761238742	car	0.0		46.0	object	car-110.jpg	0.0	285.8445257713038	0.38330226223342834
225.0	112.70234983240925	pulse	0.0	t		object	car-110.jpg	0.0	286.0279479913256	
225.0	112.90222987462084	ISI	1.0		6.0	object	car-110.jpg	0.0	286.2278280335372	0.11669411548791686
226.0	113.01892399010876	car	0.0		46.0	object	car-35.jpg	0.0	286.3445221490251	0.38326875615803147
226.0	113.40219274626679	ISI	1.0		6.0	object	car-35.jpg	0.0	286.72779090518316	0.11668626721802866
226.0	113.44992200027036	pulse	1.0	t		object	car-35.jpg	0.0	286.7755201591867	
227.0	113.51887901348482	car	0.0		46.0	object	car-128.jpg	0.0	286.8444771724012	0.3832953195328628
227.0	113.90217433301768	ISI	1.0		6.0	object	car-128.jpg	0.0	287.22777249193405	0.1166904932097168
228.0	114.0188648262274	car	0.0		46.0	object	car-19.jpg	0.0	287.34446298514376	0.38331252535590465
228.0	114.102371928308	pulse	0.0	t		object	car-19.jpg	0.0	287.42797008722437	
228.0	114.4021773515833	ISI	1.0		7.0	object	car-19.jpg	0.0	287.72777551049967	0.11668505979150723
229.0	114.51886241137481	car	0.0		46.0	object	car-112.jpg	0.0	287.8444605702912	0.3832847545545519
229.0	114.8022721949078	pulse	0.0	t		object	car-112.jpg	0.0	288.12787035382416	
229.0	114.90214716592936	ISI	1.0		7.0	object	car-112.jpg	0.0	288.2277453248457	0.11670679346252655
230.0	115.01885395939189	car	0.0		46.0	object	car-70.jpg	0.0	288.34445211830825	0.38330950679073794
230.0	115.40216346618263	ISI	1.0		7.0	object	car-70.jpg	0.0	288.727761625099	0.11667509852577496
231.0	115.5188385647084	car	0.0		45.0	object	car-40.jpg	0.0	288.84443672362477	0.38331524206478207
231.0	115.50949399184765	pulse	0.0	t		object	car-40.jpg	0.0	288.835092150764	
231.0	115.90215380677319	ISI	1.0		7.0	object	car-40.jpg	0.0	289.22775196568955	0.11668536164825127
232.0	116.01883916842144	car	0.0		46.0	object	car-40.jpg	1.0	289.3444373273378	0.3833067900818605
232.0	116.202251427178	pulse	0.0	t		object	car-40.jpg	1.0	289.52784958609436	
232.0	116.4021459585033	ISI	1.0		5.0	object	car-40.jpg	1.0	289.72774411741966	0.11667509852577496
233.0	116.51882105702907	car	0.0		45.0	object	car-10.jpg	0.0	289.84441921594544	0.38331705320433684
233.0	116.50968144475792	response	0.0	b		object	car-10.jpg	0.0	289.8352796036743	
233.0	116.90213811023341	ISI	1.0		6.0	object	car-10.jpg	0.0	290.2277362691498	0.11668475793521793
233.0	116.94747545302653	pulse	1.0	t		object	car-10.jpg	0.0	290.2730736119429	
234.0	117.01882286816863	car	0.0		46.0	object	car-56.jpg	0.0	290.344421027085	0.38329833809848424
234.0	117.40212120626711	ISI	1.0		7.0	object	car-56.jpg	0.0	290.7277193651835	0.11669562477072759
235.0	117.51881683103784	car	0.0		46.0	object	car-43.jpg	0.0	290.8444149899542	0.3832965269593842
235.0	117.6022862010509	pulse	0.0	t		object	car-43.jpg	0.0	290.92788435996727	
235.0	117.90211335799722	ISI	1.0		7.0	object	car-43.jpg	0.0	291.2277115169136	0.1166947192009502
236.0	118.01880807719817	car	0.0		46.0	object	car-61.jpg	0.0	291.34440623611454	0.38330860122096055
236.0	118.30222087929633	pulse	0.0	t		object	car-61.jpg	0.0	291.6278190382127	
236.0	118.40211667841913	ISI	1.0		5.0	object	car-61.jpg	0.0	291.7277148373355	0.11668445607847389
237.0	118.51880113449761	car	0.0		46.0	object	car-31.jpg	0.0	291.84439929341397	0.38331131792983797
237.0	118.90211245242745	ISI	1.0		6.0	object	car-31.jpg	0.0	292.2277106113438	0.11667419295645232
238.0	119.0187866453839	car	0.0		45.0	object	car-47.jpg	0.0	292.34438480430026	0.3833224866216369
238.0	119.00910278577385	pulse	0.0	t		object	car-47.jpg	0.0	292.3347009446902	
238.0	119.40210913200553	ISI	1.0		6.0	object	car-47.jpg	0.0	292.7277072909219	0.11671162316724804
239.0	119.51882075517278	car	0.0		46.0	object	car-111.jpg	0.0	292.84441891408915	0.3832992436682616
239.0	119.70223422135496	pulse	0.0	t		object	car-111.jpg	0.0	293.0278323802713	
239.0	119.90211999884104	ISI	1.0		7.0	object	car-111.jpg	0.0	293.2277181577574	0.11669351177488352
240.0	120.01881351061593	house	0.0		46.0	place	house-121.jpg	0.0	293.3444116695323	0.38327690628420896
240.0	120.40209041690014	ISI	1.0		6.0	place	house-121.jpg	0.0	293.7276885758165	0.11668113565701788
240.0	120.44817908061759	pulse	1.0	t		place	house-121.jpg	0.0	293.77377723953396	
241.0	120.51877155255715	house	0.0		46.0	place	house-31.jpg	0.0	293.8443697114735	0.3832850564108412
241.0	120.902056608968	ISI	1.0		6.0	place	house-31.jpg	0.0	294.22765476788436	0.11670739717555989
242.0	121.01876400614356	house	0.0		46.0	place	house-86.jpg	0.0	294.3443621650599	0.38330739379489387
242.0	121.10219836079841	pulse	0.0	t		place	house-86.jpg	0.0	294.4277965197148	
242.0	121.40207139993845	ISI	1.0		6.0	place	house-86.jpg	0.0	294.7276695588548	0.11668656907431796
243.0	121.51875796901277	house	0.0		46.0	place	house-108.jpg	0.0	294.84435612792913	0.38330497894230575
243.0	121.80218163794598	pulse	0.0	t		place	house-108.jpg	0.0	295.12777979686234	
243.0	121.90206294795507	ISI	1.0		6.0	place	house-108.jpg	0.0	295.22766110687144	0.11668475793521793
244.0	122.01874770589029	house	0.0		46.0	place	house-79.jpg	0.0	295.34434586480666	0.3833079975079272
244.0	122.40205570339822	ISI	1.0		6.0	place	house-79.jpg	0.0	295.7276538623146	0.11669019135297276
245.0	122.51874589475119	house	0.0		45.0	place	house-138.jpg	0.0	295.84434405366756	0.38330377151623907
245.0	122.50880515522658	pulse	0.0	t		place	house-138.jpg	0.0	295.83440331414295	
245.0	122.90204966626743	ISI	1.0		7.0	place	house-138.jpg	0.0	296.2276478251838	0.11668204122634052
246.0	123.01873170749377	house	0.0		46.0	place	house-84.jpg	0.0	296.34432986641013	0.3833076956516379
246.0	123.20215875722033	pulse	0.0	t		place	house-84.jpg	0.0	296.5277569161367	
246.0	123.40203940314541	ISI	1.0		7.0	place	house-84.jpg	0.0	296.7276375620618	0.11668777650038464
247.0	123.5187271796458	house	0.0		46.0	place	house-89.jpg	0.0	296.84432533856216	0.38330497894230575
247.0	123.9020321585881	ISI	1.0		7.0	place	house-89.jpg	0.0	297.22763031750446	0.11667207996060824
247.0	123.94127743272247	pulse	1.0	t		place	house-89.jpg	0.0	297.26687559163884	
248.0	124.01870423854871	house	0.0		46.0	place	house-71.jpg	0.0	297.34430239746507	0.3833206754825369
248.0	124.40202491403124	ISI	1.0		6.0	place	house-71.jpg	0.0	297.7276230729476	0.1166750985262297
249.0	124.51870001255747	house	0.0		46.0	place	house-22.jpg	0.0	297.84429817147384	0.3833134309252273
249.0	124.60213497092536	pulse	0.0	t		place	house-22.jpg	0.0	297.9277331298417	
249.0	124.9020134434827	ISI	1.0		6.0	place	house-22.jpg	0.0	298.22761160239907	0.1166750985262297
250.0	125.01868854200893	house	0.0		46.0	place	house-112.jpg	0.0	298.3442867009253	0.3833197699127595
250.0	125.30212579448653	pulse	0.0	t		place	house-112.jpg	0.0	298.6277239534029	
250.0	125.40200831192169	ISI	1.0		7.0	place	house-112.jpg	0.0	298.72760647083805	0.11668505979196198
251.0	125.51869337171365	house	0.0		46.0	place	house-74.jpg	0.0	298.84429153063	0.3832862638369079
251.0	125.90197963555056	ISI	1.0		6.0	place	house-74.jpg	0.0	299.2275777944669	0.11670347304061579
252.0	126.01868310859118	adult	0.0		45.0	face	adult-102.jpg	0.0	299.34428126750754	0.3833309386050132
252.0	126.00888212864402	pulse	0.0	t		face	adult-102.jpg	0.0	299.3344802875604	
252.0	126.40201404719619	ISI	1.0		4.0	face	adult-102.jpg	0.0	299.72761220611255	0.1167025674708384
253.0	126.51871661466703	adult	0.0		46.0	face	adult-21.jpg	0.0	299.8443147735834	0.38329230096769606
253.0	126.70213611797999	pulse	0.0	t		face	adult-21.jpg	0.0	300.02773427689635	
253.0	126.90200891563472	ISI	1.0		7.0	face	adult-21.jpg	0.0	300.2276070745511	0.11669985076241574
254.0	127.01870876639714	adult	0.0		46.0	face	adult-137.jpg	0.0	300.3443069253135	0.3832929046807294
254.0	127.40200167107787	ISI	1.0		5.0	face	adult-137.jpg	0.0	300.72759982999423	0.11669894519263835
254.0	127.45436442294704	pulse	1.0	t		face	adult-137.jpg	0.0	300.7799625818634	
255.0	127.51870061627051	adult	0.0		46.0	face	adult-61.jpg	0.0	300.84429877518687	0.3833028659464617
255.0	127.90200348221697	ISI	1.0		7.0	face	adult-61.jpg	0.0	301.22760164113333	0.11668958763993942
256.0	128.0186930698569	adult	0.0		46.0	face	adult-136.jpg	0.0	301.3442912287733	0.38328143413264115
256.0	128.10211655767625	pulse	0.0	t		face	adult-136.jpg	0.0	301.4277147165926	
256.0	128.40197450398955	ISI	1.0		5.0	face	adult-136.jpg	0.0	301.7275726629059	0.11672641413724705
257.0	128.5187009181268	adult	0.0		46.0	face	adult-83.jpg	0.0	301.84429907704316	0.3832871694066853
257.0	128.8021064756681	pulse	0.0	t		face	adult-83.jpg	0.0	302.12770463458446	
257.0	128.90198808753348	ISI	1.0		7.0	face	adult-83.jpg	0.0	302.22758624644985	0.11669139877903945
258.0	129.01867948631252	adult	0.0		46.0	face	adult-87.jpg	0.0	302.3442776452289	0.38330165852084974
258.0	129.40198114483337	ISI	1.0		5.0	face	adult-87.jpg	0.0	302.72757930374974	0.11666996696476417
259.0	129.51865111179814	adult	0.0		45.0	face	adult-38.jpg	0.0	302.8442492707145	0.38332309033467027
259.0	129.51113941183849	pulse	0.0	t		face	adult-38.jpg	0.0	302.83673757075485	
259.0	129.9019742021328	ISI	1.0		7.0	face	adult-38.jpg	0.0	303.22757236104917	0.11669260620510613
260.0	130.0186668083379	adult	0.0		46.0	face	adult-1.jpg	0.0	303.3442649672543	0.3833013566641057
260.0	130.20208299122942	pulse	0.0	t		face	adult-1.jpg	0.0	303.5276811501458	
260.0	130.40196816500202	ISI	1.0		7.0	face	adult-1.jpg	0.0	303.7275663239184	0.1166790226611738
261.0	130.5186471876632	adult	0.0		46.0	face	adult-1.jpg	1.0	303.84424534657956	0.38331282721219395
261.0	130.90196001487539	ISI	1.0		7.0	face	adult-1.jpg	1.0	304.22755817379175	0.116686870931062
261.0	130.9405104152579	pulse	1.0	t		face	adult-1.jpg	1.0	304.26610857417427	
261.0	130.96877082810124	response	1.0	b		face	adult-1.jpg	1.0	304.2943689870176	
262.0	131.01864688580645	adult	0.0		46.0	face	adult-7.jpg	0.0	304.3442450447228	0.3833040733729831
262.0	131.40195095917943	ISI	1.0		7.0	face	adult-7.jpg	0.0	304.7275491180958	0.11668807835712869
263.0	131.51863903753656	adult	0.0		46.0	face	adult-70.jpg	0.0	304.8442371964529	0.38328928240252935
263.0	131.60206161978658	pulse	0.0	t		face	adult-70.jpg	0.0	304.92765977870295	
263.0	131.9019283199391	ISI	1.0		7.0	face	adult-70.jpg	0.0	305.22752647885545	0.11671675472825882
264.0	132.01864507466735	adult	0.0		46.0	face	adult-9.jpg	0.0	305.3442432335837	0.38328143413264115
264.0	132.30204308579505	pulse	0.0	t		face	adult-9.jpg	0.0	305.6276412447114	
264.0	132.4019265088	ISI	1.0		7.0	face	adult-9.jpg	0.0	305.72752466771635	0.11669713405308357
265.0	132.51862364285307	adult	0.0		46.0	face	adult-56.jpg	0.0	305.84422180176944	0.383288678689496
265.0	132.90191232154257	ISI	1.0		4.0	face	adult-56.jpg	0.0	306.22751048045893	0.11668445607847389
266.0	133.01859677762104	adult	0.0		45.0	face	adult-47.jpg	0.0	306.3441949365374	0.38330829936467126
266.0	133.00960054720554	pulse	0.0	t		face	adult-47.jpg	0.0	306.3351987061219	
266.0	133.4019050769857	ISI	1.0		7.0	face	adult-47.jpg	0.0	306.7275032359021	0.11670317118387175
267.0	133.51860824816958	adult	0.0		46.0	face	adult-85.jpg	0.0	306.84420640708595	0.38328928240252935
267.0	133.7020295626221	pulse	0.0	t		face	adult-85.jpg	0.0	307.02762772153847	
267.0	133.9018975305721	ISI	1.0		7.0	face	adult-85.jpg	0.0	307.2274956894885	0.11668807835712869
268.0	134.01858560892924	adult	0.0		46.0	face	adult-99.jpg	0.0	307.3441837678456	0.38330105480736165
268.0	134.4018866637366	ISI	1.0		7.0	face	adult-99.jpg	0.0	307.72748482265297	0.11670739717555989
268.0	134.43916111653107	pulse	1.0	t		face	adult-99.jpg	0.0	307.76475927544743	
269.0	134.51859406091216	adult	0.0		46.0	face	adult-74.jpg	0.0	307.8441922198285	0.3832883768332067
269.0	134.90188243774537	ISI	1.0		5.0	face	adult-74.jpg	0.0	308.22748059666174	0.11670558603600512
270.0	135.01858802378138	adult	0.0		46.0	face	adult-34.jpg	0.0	308.34418618269774	0.383286867550396
270.0	135.10201302088353	pulse	0.0	t		face	adult-34.jpg	0.0	308.4276111797999	
270.0	135.40187489133177	ISI	1.0		7.0	face	adult-34.jpg	0.0	308.72747305024814	0.1167064916057825
271.0	135.51858138293755	adult	0.0		46.0	face	adult-37.jpg	0.0	308.8441795418539	0.3832859619806186
271.0	135.80199448689245	pulse	0.0	t		face	adult-37.jpg	0.0	309.1275926458088	
271.0	135.90186734491817	ISI	1.0		7.0	face	adult-37.jpg	0.0	309.22746550383454	0.11670528417971582
272.0	136.0185726290979	adult	0.0		46.0	face	adult-67.jpg	0.0	309.34417078801425	0.3832760007148863
272.0	136.40184862981278	ISI	1.0		6.0	face	adult-67.jpg	0.0	309.72744678872914	0.11670890645837062
273.0	136.51855753627115	adult	0.0		45.0	face	adult-116.jpg	0.0	309.8441556951875	0.38330558265579384
273.0	136.5089597057745	pulse	0.0	t		face	adult-116.jpg	0.0	309.83455786469085	
273.0	136.90186311892694	ISI	1.0		7.0	face	adult-116.jpg	0.0	310.2274612778433	0.11669320991813947
274.0	137.01855632884508	adult	0.0		46.0	face	adult-63.jpg	0.0	310.34415448776144	0.3833064882251165
274.0	137.20198337857164	pulse	0.0	t		face	adult-63.jpg	0.0	310.527581537488	
274.0	137.4018628170702	ISI	1.0		3.0	face	adult-63.jpg	0.0	310.72746097598656	0.11668445607847389
275.0	137.51854727314867	adult	0.0		46.0	face	adult-17.jpg	0.0	310.84414543206503	0.38329169725511747
275.0	137.9018389704038	ISI	1.0		6.0	face	adult-17.jpg	0.0	311.22743712932015	0.11670196375780506
275.0	137.94526556130813	pulse	1.0	t		face	adult-17.jpg	0.0	311.2708637202245	
276.0	138.0185409341616	car	0.0		46.0	object	car-26.jpg	0.0	311.34413909307796	0.3832947158202842
276.0	138.40183564998188	ISI	1.0		6.0	object	car-26.jpg	0.0	311.72743380889824	0.11669985076196099
277.0	138.51853550074384	car	0.0		46.0	object	car-2.jpg	0.0	311.8441336596602	0.38328656569365194
277.0	138.60194721615835	pulse	0.0	t		object	car-2.jpg	0.0	311.9275453750747	
277.0	138.9018220664375	ISI	1.0		6.0	object	car-2.jpg	0.0	312.22742022535385	0.1167101138844373
278.0	139.01853218032193	car	0.0		46.0	object	car-119.jpg	0.0	312.3441303392383	0.3832974325291616
278.0	139.30194558613312	pulse	0.0	t		object	car-119.jpg	0.0	312.6275437450495	
278.0	139.4018296128511	ISI	1.0		7.0	object	car-119.jpg	0.0	312.72742777176745	0.11668807835712869
279.0	139.51851769120822	car	0.0		46.0	object	car-27.jpg	0.0	312.8441158501246	0.3832889805457853
279.0	139.901806671754	ISI	1.0		6.0	object	car-27.jpg	0.0	313.22740483067037	0.11670015261870503
280.0	140.0185068243727	car	0.0		45.0	object	car-137.jpg	0.0	313.34410498328907	0.38330860122096055
280.0	140.00866418822352	pulse	0.0	t		object	car-137.jpg	0.0	313.3342623471399	
280.0	140.40181542559367	ISI	1.0		6.0	object	car-137.jpg	0.0	313.72741358451003	0.11668898392690608
281.0	140.51850440952057	car	0.0		46.0	object	car-53.jpg	0.0	313.84410256843694	0.3832898861155627
281.0	140.70192602582938	pulse	0.0	t		object	car-53.jpg	0.0	314.02752418474574	
281.0	140.90179429563614	ISI	1.0		7.0	object	car-53.jpg	0.0	314.2273924545525	0.11669985076196099
282.0	141.0184941463981	car	0.0		46.0	object	car-126.jpg	0.0	314.34409230531446	0.38328566012387455
282.0	141.40177980652197	ISI	1.0		6.0	object	car-126.jpg	0.0	314.72737796543834	0.1167264141377018
282.0	141.44550825396527	pulse	1.0	t		object	car-126.jpg	0.0	314.77110641288164	
283.0	141.51850622065967	car	0.0		46.0	object	car-68.jpg	0.0	314.84410437957604	0.38327117101016484
283.0	141.90177739166984	ISI	1.0		7.0	object	car-68.jpg	0.0	315.2273755505862	0.11669954890567169
284.0	142.0184769405755	car	0.0		46.0	object	car-28.jpg	0.0	315.3440750994919	0.3833082993642165
284.0	142.1018946931208	pulse	0.0	t		object	car-28.jpg	0.0	315.4274928520372	
284.0	142.40178523993973	ISI	1.0		5.0	object	car-28.jpg	0.0	315.7273833988561	0.1166907950660061
285.0	142.51847603500573	car	0.0		46.0	object	car-94.jpg	0.0	315.8440741939221	0.38328535826758525
285.0	142.8018827999731	pulse	0.0	t		object	car-94.jpg	0.0	316.12748095888946	
285.0	142.90176139327332	ISI	1.0		6.0	object	car-94.jpg	0.0	316.2273595521897	0.1167064916057825
286.0	143.0184678848791	car	0.0		46.0	object	car-90.jpg	0.0	316.34406604379546	0.3832883768332067
286.0	143.4017562617123	ISI	1.0		7.0	object	car-90.jpg	0.0	316.72735442062867	0.1166986433358943
287.0	143.5184549050482	car	0.0		45.0	object	car-97.jpg	0.0	316.84405306396457	0.38330890307724985
287.0	143.50838074493367	pulse	0.0	t		object	car-97.jpg	0.0	316.83397890385004	
287.0	143.90176380812545	ISI	1.0		7.0	object	car-97.jpg	0.0	317.2273619670418	0.11668988949668346
288.0	144.01845369762214	adult	0.0		46.0	face	adult-80.jpg	0.0	317.3440518565385	0.383278717423309
288.0	144.2018635415261	pulse	0.0	t		face	adult-80.jpg	0.0	317.5274617004425	
288.0	144.40173241504544	ISI	1.0		6.0	face	adult-80.jpg	0.0	317.7273305739618	0.1167101138844373
289.0	144.51844252892988	adult	0.0		46.0	face	adult-111.jpg	0.0	317.84404068784625	0.38330558265579384
289.0	144.90174811158568	ISI	1.0		6.0	face	adult-111.jpg	0.0	318.22734627050204	0.11669019135297276
289.0	144.94557345497742	pulse	1.0	t		face	adult-111.jpg	0.0	318.2711716138938	
290.0	145.01843830293865	adult	0.0		46.0	face	adult-98.jpg	0.0	318.344036461855	0.38330226223342834
290.0	145.40174056517208	ISI	1.0		5.0	face	adult-98.jpg	0.0	318.72733872408844	0.11668596536128462
291.0	145.51842653053336	adult	0.0		46.0	face	adult-115.jpg	0.0	318.8440246894497	0.3833064882251165
291.0	145.60185032020945	pulse	0.0	t		face	adult-115.jpg	0.0	318.9274484791258	
291.0	145.90173301875848	ISI	1.0		6.0	face	adult-115.jpg	0.0	319.22733117767484	0.11668777650083939
292.0	146.01842079525932	adult	0.0		46.0	face	adult-124.jpg	0.0	319.3440189541757	0.38330346965994977
292.0	146.30183903077477	pulse	0.0	t		face	adult-124.jpg	0.0	319.62743718969114	
292.0	146.40172426491927	ISI	1.0		6.0	face	adult-124.jpg	0.0	319.72732242383563	0.11668958763948467
293.0	146.51841385255875	adult	0.0		46.0	face	adult-26.jpg	0.0	319.8440120114751	0.3833040733729831
293.0	146.90171792593173	ISI	1.0		7.0	face	adult-26.jpg	0.0	320.2273160848481	0.1166832486524072
294.0	147.01840117458414	adult	0.0		45.0	face	adult-94.jpg	0.0	320.3439993335005	0.3832962251030949
294.0	147.008215629407	pulse	0.0	t		face	adult-94.jpg	0.0	320.33381378832337	
294.0	147.40169739968724	ISI	1.0		7.0	face	adult-94.jpg	0.0	320.7272955586036	0.11669260620510613
295.0	147.51839000589234	adult	0.0		46.0	face	adult-42.jpg	0.0	320.8439881648087	0.38331222349961536
295.0	147.70181765933194	pulse	0.0	t		face	adult-42.jpg	0.0	321.0274158182483	
295.0	147.90170222939196	ISI	1.0		7.0	face	adult-42.jpg	0.0	321.2273003883083	0.11668083379981908
296.0	148.01838306319178	adult	0.0		46.0	face	adult-112.jpg	0.0	321.34398122210814	0.383298338098939
296.0	148.40168140129072	ISI	1.0		4.0	face	adult-112.jpg	0.0	321.7272795602071	0.11670407675364913
296.0	148.45949960637927	pulse	1.0	t		face	adult-112.jpg	0.0	321.78509776529563	
297.0	148.51838547804437	adult	0.0		46.0	face	adult-49.jpg	0.0	321.84398363696073	0.3832606060313992
297.0	148.90164608407576	ISI	1.0		7.0	face	adult-49.jpg	0.0	322.2272442429921	0.11669743590982762
298.0	149.0183435199856	adult	0.0		46.0	face	adult-31.jpg	0.0	322.34394167890196	0.383290187971852
298.0	149.101768215231	pulse	0.0	t		face	adult-31.jpg	0.0	322.42736637414737	
298.0	149.40163370795744	ISI	1.0		6.0	face	adult-31.jpg	0.0	322.7272318668738	0.11670015261870503
299.0	149.51833386057615	adult	0.0		46.0	face	adult-41.jpg	0.0	322.8439320194925	0.38328566012387455
299.0	149.80175481280094	pulse	0.0	t		face	adult-41.jpg	0.0	323.1273529717173	
299.0	149.90161952070002	ISI	1.0		6.0	face	adult-41.jpg	0.0	323.2272176796164	0.11670679346252655
300.0	150.01832631416255	word	0.0		46.0	character	word-111.jpg	0.0	323.3439244730789	0.38330558265579384
300.0	150.40163189681834	ISI	1.0		5.0	character	word-111.jpg	0.0	323.7272300557347	0.1166600056990319
301.0	150.51829190251738	word	0.0		45.0	character	word-115.jpg	0.0	323.84389006143374	0.3833170532038821
301.0	150.50805323058967	pulse	0.0	t		character	word-115.jpg	0.0	323.83365138950603	
301.0	150.90160895572126	ISI	1.0		7.0	character	word-115.jpg	0.0	324.2272071146376	0.1167061897494932
302.0	151.01831514547075	word	0.0		46.0	character	word-115.jpg	1.0	324.3439133043871	0.3832859619806186
302.0	151.2017258949445	pulse	0.0	t		character	word-115.jpg	1.0	324.52732405386087	
302.0	151.40160110745137	ISI	1.0		5.0	character	word-115.jpg	1.0	324.72719926636773	0.11670015261870503
303.0	151.51830126007007	word	0.0		46.0	character	word-9.jpg	0.0	324.84389941898644	0.3832929046807294
303.0	151.56840038975724	response	0.0	b		character	word-9.jpg	0.0	324.8939985486736	
303.0	151.9015941647508	ISI	1.0		7.0	character	word-9.jpg	0.0	325.22719232366717	0.11670075633173838
303.0	151.93930812066537	pulse	1.0	t		character	word-9.jpg	0.0	325.26490627958174	
304.0	152.01829492108254	word	0.0		46.0	character	word-105.jpg	0.0	325.3438930799989	0.3832907916853401
304.0	152.40158571276788	ISI	1.0		6.0	character	word-105.jpg	0.0	325.72718387168425	0.11670136004477172
305.0	152.51828707281265	word	0.0		46.0	character	word-46.jpg	0.0	325.843885231729	0.38329290468118415
305.0	152.6016993919402	pulse	0.0	t		character	word-46.jpg	0.0	325.92729755085657	
305.0	152.90157997749384	ISI	1.0		7.0	character	word-46.jpg	0.0	326.2271781364102	0.11668566350454057
306.0	153.01826564099838	word	0.0		46.0	character	word-61.jpg	0.0	326.34386379991474	0.383286867550396
306.0	153.30167482081788	pulse	0.0	t		character	word-61.jpg	0.0	326.62727297973424	
306.0	153.40155250854878	ISI	1.0		5.0	character	word-61.jpg	0.0	326.72715066746514	0.11671856586735885
307.0	153.51827107441613	word	0.0		46.0	character	word-50.jpg	0.0	326.8438692333325	0.38330497894230575
307.0	153.90157605335844	ISI	1.0		6.0	character	word-50.jpg	0.0	327.2271742122748	0.11666694839959746
308.0	154.01824300175804	word	0.0		45.0	character	word-95.jpg	0.0	327.3438411606744	0.3833128272126487
308.0	154.0082162331205	pulse	0.0	t		character	word-95.jpg	0.0	327.33381439203686	
308.0	154.4015558289707	ISI	1.0		7.0	character	word-95.jpg	0.0	327.72715398788705	0.11668173936959647
309.0	154.51823756834028	word	0.0		46.0	character	word-87.jpg	0.0	327.84383572725665	0.3833427110098455
309.0	154.70172136709607	pulse	0.0	t		character	word-87.jpg	0.0	328.02731952601243	
309.0	154.90158027935013	ISI	1.0		5.0	character	word-87.jpg	0.0	328.2271784382665	0.11670166190151576
310.0	155.01828194125164	word	0.0		46.0	character	word-119.jpg	0.0	328.343880100168	0.3833092049339939
310.0	155.40159114618564	ISI	1.0		6.0	character	word-119.jpg	0.0	328.727189305102	0.11668656907431796
310.0	155.44367839962933	pulse	1.0	t		character	word-119.jpg	0.0	328.7692765585457	
311.0	155.51827771525996	word	0.0		46.0	character	word-82.jpg	0.0	328.8438758741763	0.38328807497646267
311.0	155.90156579023642	ISI	1.0		6.0	character	word-82.jpg	0.0	329.2271639491528	0.11670347304061579
312.0	156.01826926327703	house	0.0		46.0	place	house-105.jpg	0.0	329.3438674221934	0.38331282721219395
312.0	156.10169305295312	pulse	0.0	t		place	house-105.jpg	0.0	329.4272912118695	
312.0	156.40158209048923	ISI	1.0		6.0	place	house-105.jpg	0.0	329.7271802494056	0.11666694839959746
313.0	156.51824903888883	house	0.0		46.0	place	house-2.jpg	0.0	329.8438471978052	0.38330105480736165
313.0	156.80167150039597	pulse	0.0	t		place	house-2.jpg	0.0	330.12726965931233	
313.0	156.9015500936962	ISI	1.0		7.0	place	house-2.jpg	0.0	330.22714825261255	0.11670075633173838
314.0	157.01825085002793	house	0.0		46.0	place	house-125.jpg	0.0	330.3438490089443	0.38330829936467126
314.0	157.4015591493926	ISI	1.0		6.0	place	house-125.jpg	0.0	330.72715730830896	0.11668928578319537
315.0	157.5182484351758	house	0.0		45.0	place	house-47.jpg	0.0	330.84384659409216	0.3832874712634293
315.0	157.50808915151765	pulse	0.0	t		place	house-47.jpg	0.0	330.833687310434	
315.0	157.90153590643922	ISI	1.0		6.0	place	house-47.jpg	0.0	331.2271340653556	0.11670860460162658
316.0	158.01824451104085	house	0.0		46.0	place	house-88.jpg	0.0	331.3438426699572	0.38328264155870784
316.0	158.20165435494482	pulse	0.0	t		place	house-88.jpg	0.0	331.5272525138612	
316.0	158.40152715259956	ISI	1.0		7.0	place	house-88.jpg	0.0	331.7271253115159	0.11668385236544054
317.0	158.518211004965	house	0.0		46.0	place	house-50.jpg	0.0	331.84380916388136	0.38330980864702724
317.0	158.90152081361202	ISI	1.0		6.0	place	house-50.jpg	0.0	332.2271189725284	0.11668838021387273
317.0	158.94870159428547	pulse	1.0	t		place	house-50.jpg	0.0	332.27429975320183	
318.0	159.0182091938259	house	0.0		46.0	place	house-77.jpg	0.0	332.34380735274226	0.3833031678032057
318.0	159.4015123616291	ISI	1.0		4.0	place	house-77.jpg	0.0	332.72711052054547	0.11669019135297276
319.0	159.51820255298207	house	0.0		46.0	place	house-135.jpg	0.0	332.84380071189844	0.3833025640901724
319.0	159.60163237978895	pulse	0.0	t		place	house-135.jpg	0.0	332.9272305387053	
319.0	159.90150511707225	ISI	1.0		6.0	place	house-135.jpg	0.0	333.2271032759886	0.11669653034005023
320.0	160.0182016474123	house	0.0		46.0	place	house-122.jpg	0.0	333.34379980632866	0.3832965269593842
320.0	160.3016198829282	pulse	0.0	t		place	house-122.jpg	0.0	333.62721804184457	
320.0	160.40149817437168	ISI	1.0		6.0	place	house-122.jpg	0.0	333.72709633328805	0.11670588789274916
321.0	160.51820406226443	house	0.0		46.0	place	house-113.jpg	0.0	333.8438022211808	0.38330316780366047
321.0	160.9015072300681	ISI	1.0		7.0	place	house-113.jpg	0.0	334.22710538898446	0.11668143751330717
322.0	161.0181886675814	house	0.0		45.0	place	house-113.jpg	1.0	334.34378682649776	0.3833095067902832
322.0	161.0081600878043	pulse	0.0	t		place	house-113.jpg	1.0	334.33375824672066	
322.0	161.40149817437168	ISI	1.0		7.0	place	house-113.jpg	1.0	334.72709633328805	0.11668838021387273
322.0	161.45164590296145	response	1.0	b		place	house-113.jpg	1.0	334.7772440618778	
323.0	161.51818655458555	house	0.0		46.0	place	house-117.jpg	0.0	334.8437847135019	0.38328867868904126
323.0	161.7015728536794	pulse	0.0	t		place	house-117.jpg	0.0	335.0271710125958	
323.0	161.9014752332746	ISI	1.0		5.0	place	house-117.jpg	0.0	335.22707339219096	0.11669562477072759
324.0	162.01817085804532	house	0.0		46.0	place	house-38.jpg	0.0	335.3437690169617	0.3833140346387154
324.0	162.40148489268404	ISI	1.0		7.0	place	house-38.jpg	0.0	335.7270830516004	0.11668536164825127
324.0	162.44069756631188	pulse	1.0	t		place	house-38.jpg	0.0	335.76629572522825	
325.0	162.5181702543323	house	0.0		46.0	place	house-111.jpg	0.0	335.84376841324865	0.38330588451208314
325.0	162.90147613884437	ISI	1.0		7.0	place	house-111.jpg	0.0	336.22707429776074	0.1166871727873513
326.0	163.01816331163172	house	0.0		46.0	place	house-41.jpg	0.0	336.3437614705481	0.3833052807990498
326.0	163.1015991755694	pulse	0.0	t		place	house-41.jpg	0.0	336.42719733448575	
326.0	163.40146859243077	ISI	1.0		7.0	place	house-41.jpg	0.0	336.72706675134714	0.11668838021387273
327.0	163.51815697264465	house	0.0		46.0	place	house-24.jpg	0.0	336.843755131561	0.3833067900818605
327.0	163.801573397021	pulse	0.0	t		place	house-24.jpg	0.0	337.12717155593737	
327.0	163.9014637627265	ISI	1.0		7.0	place	house-24.jpg	0.0	337.22706192164287	0.11667207996060824
328.0	164.01813584268712	house	0.0		46.0	place	house-126.jpg	0.0	337.3437340016035	0.38330226223342834
328.0	164.40143810492054	ISI	1.0		4.0	place	house-126.jpg	0.0	337.7270362638369	0.11670075633173838
329.0	164.51813886125228	house	0.0		45.0	place	house-69.jpg	0.0	337.84373702016865	0.3833061863688272
329.0	164.50812537430238	pulse	0.0	t		place	house-69.jpg	0.0	337.83372353321874	
329.0	164.9014450476211	ISI	1.0		6.0	place	house-69.jpg	0.0	338.2270432065375	0.11666634468610937
330.0	165.01811139230722	house	0.0		46.0	place	house-144.jpg	0.0	338.3437095512236	0.3833119216428713
330.0	165.20154719587345	pulse	0.0	t		place	house-144.jpg	0.0	338.5271453547898	
330.0	165.4014233139501	ISI	1.0		7.0	place	house-144.jpg	0.0	338.72702147286645	0.11670800088859323
331.0	165.51813131483868	house	0.0		46.0	place	house-18.jpg	0.0	338.84372947375505	0.3832793211367971
331.0	165.90141063597548	ISI	1.0		7.0	place	house-18.jpg	0.0	339.22700879489184	0.11670769903230394
331.0	165.93861294505723	pulse	1.0	t		place	house-18.jpg	0.0	339.2642111039736	
332.0	166.01811833500778	house	0.0		46.0	place	house-115.jpg	0.0	339.34371649392415	0.3832929046807294
332.0	166.4014112396885	ISI	1.0		7.0	place	house-115.jpg	0.0	339.7270093986049	0.11670830274533728
333.0	166.51811954243385	house	0.0		46.0	place	house-64.jpg	0.0	339.8437177013502	0.3832799248498304
333.0	166.6015225040087	pulse	0.0	t		place	house-64.jpg	0.0	339.92712066292506	
333.0	166.90139946728368	ISI	1.0		5.0	place	house-64.jpg	0.0	340.22699762620005	0.1167179621543255
334.0	167.018117429438	house	0.0		46.0	place	house-60.jpg	0.0	340.34371558835437	0.3832421927827454
334.0	167.30147861406795	pulse	0.0	t		place	house-60.jpg	0.0	340.6270767729843	
334.0	167.40135962222075	ISI	1.0		6.0	place	house-60.jpg	0.0	340.7269577811371	0.11670528417971582
335.0	167.51806490640047	house	0.0		46.0	place	house-35.jpg	0.0	340.84366306531683	0.3832874712634293
335.0	167.9013523776639	ISI	1.0		6.0	place	house-35.jpg	0.0	341.22695053658026	0.1166986433358943
336.0	168.0180510209998	car	0.0		45.0	object	car-50.jpg	0.0	341.34364917991616	0.38331011050331654
336.0	168.00805866400742	pulse	0.0	t		object	car-50.jpg	0.0	341.3336568229238	
336.0	168.4013611315031	ISI	1.0		6.0	object	car-50.jpg	0.0	341.7269592904195	0.11668385236589529
337.0	168.518044983869	car	0.0		46.0	object	car-32.jpg	0.0	341.84364314278537	0.38329230096769606
337.0	168.70147233545185	pulse	0.0	t		object	car-32.jpg	0.0	342.0270704943682	
337.0	168.9013372848367	ISI	1.0		6.0	object	car-32.jpg	0.0	342.22693544375306	0.11670286932758245
338.0	169.01804015416428	car	0.0		46.0	object	car-39.jpg	0.0	342.34363831308065	0.38328837683275196
338.0	169.40132853099703	ISI	1.0		5.0	object	car-39.jpg	0.0	342.7269266899134	0.11668566350499532
338.0	169.45732442816325	pulse	1.0	t		object	car-39.jpg	0.0	342.7829225870796	
339.0	169.51801419450203	car	0.0		46.0	object	car-69.jpg	0.0	342.8436123534184	0.38330860122096055
339.0	169.901322795723	ISI	1.0		6.0	object	car-69.jpg	0.0	343.22692095463935	0.11670830274533728
340.0	170.01803109846833	car	0.0		46.0	object	car-88.jpg	0.0	343.3436292573847	0.3832633227398219
340.0	170.10145428443093	pulse	0.0	t		object	car-88.jpg	0.0	343.4270524433473	
340.0	170.40129442120815	ISI	1.0		7.0	object	car-88.jpg	0.0	343.7268925801245	0.11672369742882438
341.0	170.51801811863697	car	0.0		46.0	object	car-55.jpg	0.0	343.84361627755334	0.3833004510943283
341.0	170.80143514672636	pulse	0.0	t		object	car-55.jpg	0.0	344.1270333056427	
341.0	170.9013185697313	ISI	1.0		5.0	object	car-55.jpg	0.0	344.22691672864767	0.11667660780858569
342.0	171.0179951775399	car	0.0		46.0	object	car-124.jpg	0.0	344.34359333645625	0.3833040733729831
342.0	171.40129925091287	ISI	1.0		6.0	object	car-124.jpg	0.0	344.72689740982923	0.1166944173446609
343.0	171.51799366825753	car	0.0		45.0	object	car-78.jpg	0.0	344.8435918271739	0.3832980362417402
343.0	171.5084154584356	pulse	0.0	t		object	car-78.jpg	0.0	344.83401361735196	
343.0	171.90129170449927	ISI	1.0		6.0	object	car-78.jpg	0.0	345.22688986341564	0.11668747464409535
344.0	172.01797917914337	car	0.0		46.0	object	car-107.jpg	0.0	345.34357733805973	0.38330467708601645
344.0	172.20144486650725	pulse	0.0	t		object	car-107.jpg	0.0	345.5270430254236	
344.0	172.40128385622938	ISI	1.0		7.0	object	car-107.jpg	0.0	345.72688201514575	0.11668415422218459
345.0	172.51796801045157	car	0.0		46.0	object	car-107.jpg	1.0	345.84356616936793	0.383324599617481
345.0	172.90129261006905	ISI	1.0		5.0	object	car-107.jpg	1.0	346.2268907689854	0.11666875953869749
345.0	172.95527874640175	pulse	1.0	t		object	car-107.jpg	1.0	346.2808769053181	
346.0	173.01796136960775	car	0.0		46.0	object	car-3.jpg	0.0	346.3435595285241	0.38335478527142186
346.0	173.16810179326922	response	0.0	b		object	car-3.jpg	0.0	346.4936999521856	
346.0	173.40131615487917	ISI	1.0		6.0	object	car-3.jpg	0.0	346.72691431379553	0.11670196375780506
347.0	173.51801811863697	car	0.0		46.0	object	car-38.jpg	0.0	346.84361627755334	0.38327509514510893
347.0	173.6014850737979	pulse	0.0	t		object	car-38.jpg	0.0	346.92708323271427	
347.0	173.90129321378208	ISI	1.0		6.0	object	car-38.jpg	0.0	347.22689137269845	0.11668747464409535
348.0	174.01798068842618	word	0.0		46.0	character	word-31.jpg	0.0	347.34357884734254	0.3833052807990498
348.0	174.30140526292917	pulse	0.0	t		character	word-31.jpg	0.0	347.62700342184553	
348.0	174.40128596922523	ISI	1.0		6.0	character	word-31.jpg	0.0	347.7268841281416	0.11668958763993942
349.0	174.51797555686517	word	0.0		46.0	character	word-44.jpg	0.0	347.84357371578153	0.3833028659464617
349.0	174.90127842281163	ISI	1.0		6.0	character	word-44.jpg	0.0	348.226876581728	0.11670166190151576
350.0	175.01798008471314	word	0.0		45.0	character	word-1.jpg	0.0	348.3435782436295	0.38330739379489387
350.0	175.00817668991385	pulse	0.0	t		character	word-1.jpg	0.0	348.3337748488302	
350.0	175.40128747850804	ISI	1.0		6.0	character	word-1.jpg	0.0	348.7268856374244	0.11668777650038464
351.0	175.51797525500842	word	0.0		46.0	character	word-81.jpg	0.0	348.8435734139248	0.3832877731197186
351.0	175.70139747503072	pulse	0.0	t		character	word-81.jpg	0.0	349.0269956339471	
351.0	175.90126302812814	ISI	1.0		6.0	character	word-81.jpg	0.0	349.2268611870445	0.11668536164825127
352.0	176.0179483897764	word	0.0		46.0	character	word-66.jpg	0.0	349.34354654869276	0.3833079975079272
352.0	176.40125638728432	ISI	1.0		6.0	character	word-66.jpg	0.0	349.7268545462007	0.11669622848376093
352.0	176.44469988215542	pulse	1.0	t		character	word-66.jpg	0.0	349.7702980410718	
353.0	176.51795261576808	word	0.0		46.0	character	word-106.jpg	0.0	349.84355077468445	0.38329592324635087
353.0	176.90124853901443	ISI	1.0		6.0	character	word-106.jpg	0.0	350.2268466979308	0.1167064916057825
354.0	177.01795503062021	word	0.0		46.0	character	word-102.jpg	0.0	350.3435531895366	0.38328656569365194
354.0	177.10137338687855	pulse	0.0	t		character	word-102.jpg	0.0	350.4269715457949	
354.0	177.40124159631387	ISI	1.0		6.0	character	word-102.jpg	0.0	350.72683975523023	0.11669622848376093
355.0	177.51793782479763	word	0.0		46.0	character	word-125.jpg	0.0	350.843535983714	0.38331252535590465
355.0	177.80136571972253	pulse	0.0	t		character	word-125.jpg	0.0	351.1269638786389	
355.0	177.90125035015353	ISI	1.0		6.0	character	word-125.jpg	0.0	351.2268485090699	0.11668596536128462
356.0	178.01793631551482	word	0.0		46.0	character	word-68.jpg	0.0	351.3435344744312	0.3832898861155627
356.0	178.40122620163038	ISI	1.0		6.0	character	word-68.jpg	0.0	351.72682436054674	0.11670105818848242
357.0	178.51792725981886	word	0.0		45.0	character	word-85.jpg	0.0	351.8435254187352	0.3832916972546627
357.0	178.50801791337472	pulse	0.0	t		character	word-85.jpg	0.0	351.8336160722911	
357.0	178.90121895707352	ISI	1.0		5.0	character	word-85.jpg	0.0	352.2268171159899	0.11670045447544908
358.0	179.01791941154897	word	0.0		46.0	character	word-49.jpg	0.0	352.34351757046534	0.383277208140953
358.0	179.20131204963036	pulse	0.0	t		character	word-49.jpg	0.0	352.5269102085467	
358.0	179.40119661968993	ISI	1.0		6.0	character	word-49.jpg	0.0	352.7267947786063	0.11670317118387175
359.0	179.5178997908738	word	0.0		46.0	character	word-138.jpg	0.0	352.84349794979016	0.38328626383736264
359.0	179.90118605471116	ISI	1.0		7.0	character	word-138.jpg	0.0	353.2267842136275	0.11668596536128462
359.0	179.94151318267905	pulse	1.0	t		character	word-138.jpg	0.0	353.2671113415954	
360.0	180.01787202007245	word	0.0		46.0	character	word-52.jpg	0.0	353.3434701789888	0.3833070919381498
360.0	180.4011791120106	ISI	1.0		7.0	character	word-52.jpg	0.0	353.72677727092696	0.11668536164825127
361.0	180.51786447365885	word	0.0		46.0	character	word-52.jpg	1.0	353.8434626325752	0.3833101105037713
361.0	180.60169848637088	pulse	0.0	t		character	word-52.jpg	1.0	353.92729664528724	
361.0	180.89293329694965	response	0.0	b		character	word-52.jpg	1.0	354.218531455866	
361.0	180.90117458416262	ISI	1.0		7.0	character	word-52.jpg	1.0	354.226772743079	0.1166907950660061
362.0	181.01786537922862	word	0.0		46.0	character	word-101.jpg	0.0	354.343463538145	0.3832832452717412
362.0	181.30126369221261	pulse	0.0	t		character	word-101.jpg	0.0	354.626861851129	
362.0	181.40114862450037	ISI	1.0		7.0	character	word-101.jpg	0.0	354.72674678341673	0.11671101945375995
363.0	181.51785964395413	word	0.0		46.0	character	word-133.jpg	0.0	354.8434578028705	0.38328143413264115
363.0	181.90114107808677	ISI	1.0		7.0	character	word-133.jpg	0.0	355.22673923700313	0.1166871727873513
364.0	182.01782825087412	word	0.0		45.0	character	word-47.jpg	0.0	355.3434264097905	0.3833040733729831
364.0	182.0079026041767	pulse	0.0	t		character	word-47.jpg	0.0	355.33350076309307	
364.0	182.4011323242471	ISI	1.0		6.0	character	word-47.jpg	0.0	355.72673048316346	0.11669019135297276
365.0	182.51782251560007	word	0.0		46.0	character	word-62.jpg	0.0	355.84342067451644	0.3833064882251165
365.0	182.70125198017877	pulse	0.0	t		character	word-62.jpg	0.0	356.02685013909513	
365.0	182.9011290038252	ISI	1.0		6.0	character	word-62.jpg	0.0	356.22672716274155	0.11669954890567169
366.0	183.01782855273086	word	0.0		46.0	character	word-26.jpg	0.0	356.3434267116472	0.38329048982859604
366.0	183.40111904255946	ISI	1.0		7.0	character	word-26.jpg	0.0	356.7267172014758	0.11668566350499532
366.0	183.43859422995183	pulse	1.0	t		character	word-26.jpg	0.0	356.7641923888682	
367.0	183.51780470606445	word	0.0		46.0	character	word-30.jpg	0.0	356.8434028649808	0.3833055826553391
367.0	183.9011102887198	ISI	1.0		7.0	character	word-30.jpg	0.0	357.22670844763616	0.1166871727873513
368.0	184.01779746150714	word	0.0		46.0	character	word-108.jpg	0.0	357.3433956204235	0.3833224866220917
368.0	184.1013096951492	pulse	0.0	t		character	word-108.jpg	0.0	357.4269078540656	
368.0	184.40111994812924	ISI	1.0		6.0	character	word-108.jpg	0.0	357.7267181070456	0.11668445607847389
369.0	184.5178044042077	word	0.0		46.0	character	word-92.jpg	0.0	357.8434025631241	0.38329048982859604
369.0	184.8012153951663	pulse	0.0	t		character	word-92.jpg	0.0	358.1268135540827	
369.0	184.9010948940363	ISI	1.0		7.0	character	word-92.jpg	0.0	358.22669305295267	0.11671615101522548
370.0	185.01781104505153	word	0.0		46.0	character	word-122.jpg	0.0	358.3434092039679	0.38330829936467126
370.0	185.4011193444162	ISI	1.0		7.0	character	word-122.jpg	0.0	358.72671750333257	0.11668596536128462
371.0	185.5178053097775	word	0.0		45.0	character	word-42.jpg	0.0	358.84340346869385	0.3833067900814058
371.0	185.50813442999834	pulse	0.0	t		character	word-42.jpg	0.0	358.8337325889147	
371.0	185.9011120998589	ISI	1.0		6.0	character	word-42.jpg	0.0	359.22671025877526	0.11670528418017057
372.0	186.01781738403906	adult	0.0		46.0	face	adult-12.jpg	0.0	359.3434155429554	0.38328686754994123
372.0	186.20123598178225	pulse	0.0	t		face	adult-12.jpg	0.0	359.5268341406986	
372.0	186.401104251589	ISI	1.0		5.0	face	adult-12.jpg	0.0	359.72670241050537	0.11669562477072759
373.0	186.51779987635973	adult	0.0		46.0	face	adult-144.jpg	0.0	359.8433980352761	0.3832621153137552
373.0	186.9010619916735	ISI	1.0		7.0	face	adult-144.jpg	0.0	360.22666015058985	0.11670649160623725
373.0	186.93986534783562	pulse	1.0	t		face	adult-144.jpg	0.0	360.265463506752	
374.0	187.01776848327972	adult	0.0		46.0	face	adult-120.jpg	0.0	360.3433666421961	0.38328143413264115
374.0	187.40104991741237	ISI	1.0		7.0	face	adult-120.jpg	0.0	360.72664807632873	0.11670920831465992
375.0	187.51775912572703	adult	0.0		46.0	face	adult-139.jpg	0.0	360.8433572846434	0.3833028659464617
375.0	187.6011795949812	pulse	0.0	t		face	adult-139.jpg	0.0	360.92677775389757	
375.0	187.9010619916735	ISI	1.0		6.0	face	adult-139.jpg	0.0	361.22666015058985	0.11669170063578349
376.0	188.01775369230927	adult	0.0		46.0	face	adult-23.jpg	0.0	361.34335185122563	0.38330588451208314
376.0	188.3011746445336	pulse	0.0	t		face	adult-23.jpg	0.0	361.62677280344997	
376.0	188.40105957682135	ISI	1.0		7.0	face	adult-23.jpg	0.0	361.7266577357377	0.11668475793521793
377.0	188.51774433475657	adult	0.0		46.0	face	adult-121.jpg	0.0	361.84334249367294	0.38329048982859604
377.0	188.90103482458517	ISI	1.0		7.0	face	adult-121.jpg	0.0	362.22663298350153	0.1167101138844373
378.0	189.0177449384696	adult	0.0		45.0	face	adult-91.jpg	0.0	362.34334309738597	0.3832823397019638
378.0	189.00792826198267	pulse	0.0	t		face	adult-91.jpg	0.0	362.33352642089903	
378.0	189.40102727817157	ISI	1.0		6.0	face	adult-91.jpg	0.0	362.72662543708793	0.11670075633173838
379.0	189.5177280345033	adult	0.0		46.0	face	adult-82.jpg	0.0	362.84332619341967	0.3832935083942175
379.0	189.70115448051683	pulse	0.0	t		face	adult-82.jpg	0.0	363.0267526394332	
379.0	189.90102154289752	ISI	1.0		4.0	face	adult-82.jpg	0.0	363.2266197018139	0.11669290806185018
380.0	190.01771445095937	adult	0.0		46.0	face	adult-62.jpg	0.0	363.34331260987574	0.3832992436682616
380.0	190.40101369462764	ISI	1.0		7.0	face	adult-62.jpg	0.0	363.726611853544	0.116686870931062
380.0	190.43741185789077	pulse	1.0	t		face	adult-62.jpg	0.0	363.76301001680713	
381.0	190.5177005655587	adult	0.0		46.0	face	adult-62.jpg	1.0	363.84329872447506	0.3833043752292724
381.0	190.90100494078797	ISI	1.0		5.0	face	adult-62.jpg	1.0	364.22660309970433	0.116686870931062
382.0	191.01769181171903	adult	0.0		46.0	face	adult-45.jpg	0.0	364.3432899706354	0.3833206754825369
382.0	191.10112677008692	pulse	0.0	t		face	adult-45.jpg	0.0	364.4267249290033	
382.0	191.15108855504923	response	0.0	b		face	adult-45.jpg	0.0	364.4766867139656	
382.0	191.40101248720157	ISI	1.0		6.0	face	adult-45.jpg	0.0	364.72661064611793	0.11669170063532874
383.0	191.5177041878369	adult	0.0		46.0	face	adult-72.jpg	0.0	364.84330234675326	0.3832850564108412
383.0	191.80110944352145	pulse	0.0	t		face	adult-72.jpg	0.0	365.1267076024378	
383.0	191.90098924424774	ISI	1.0		7.0	face	adult-72.jpg	0.0	365.2265874031641	0.11670105818848242
384.0	192.01769030243622	body	0.0		46.0	body	body-95.jpg	0.0	365.3432884613526	0.38329199911140677
384.0	192.40098230154763	ISI	1.0		6.0	body	body-95.jpg	0.0	365.726580460464	0.116686870931062
385.0	192.5176691724787	body	0.0		45.0	body	body-67.jpg	0.0	365.84326733139505	0.38335116299276706
385.0	192.50796599404975	pulse	0.0	t		body	body-67.jpg	0.0	365.8335641529661	
385.0	192.90102033547146	ISI	1.0		4.0	body	body-67.jpg	0.0	366.2266184943878	0.11667509852577496
386.0	193.01769543399723	body	0.0		46.0	body	body-23.jpg	0.0	366.3432935929136	0.3832663413058981
386.0	193.2011034667621	pulse	0.0	t		body	body-23.jpg	0.0	366.52670162567847	
386.0	193.40096177530313	ISI	1.0		7.0	body	body-23.jpg	0.0	366.7265599342195	0.11671071759747065
387.0	193.5176724929006	body	0.0		46.0	body	body-58.jpg	0.0	366.84327065181697	0.38328958425881865
387.0	193.90096207715942	ISI	1.0		4.0	body	body-58.jpg	0.0	367.2265602360758	0.11669803962286096
387.0	193.96361723142036	pulse	1.0	t		body	body-58.jpg	0.0	367.2892153903367	
388.0	194.01766011678228	body	0.0		46.0	body	body-120.jpg	0.0	367.34325827569864	0.3833067900818605
388.0	194.40096690686414	ISI	1.0		6.0	body	body-120.jpg	0.0	367.7265650657805	0.11667117439083086
389.0	194.51763808125497	body	0.0		46.0	body	body-15.jpg	0.0	367.84323624017134	0.3833064882251165
389.0	194.6010887361631	pulse	0.0	t		body	body-15.jpg	0.0	367.92668689507946	
