trial_nr	onset	event_type	phase	response	nr_frames	face_age	face_sex	face_eth	attractiveness	expression	face_id	sub_id	ses	run	trial_type	catch	rating_type	onset_abs	duration
-1.0	0.06112836389002041	fix	0.0		713													22.610598122693773	5.958021414910036
-1.0	0.7026728189048299	pulse	0.0	t														23.252142577708582	
-1.0	1.4026530774863204	pulse	0.0	t														23.952122836290073	
-1.0	2.1026514474615396	pulse	0.0	t														24.652121206265292	
-1.0	2.8026386487435957	pulse	0.0	t														25.352108407547348	
-1.0	3.5026367168611614	pulse	0.0	t														26.052106475664914	
-1.0	4.20261697544629	pulse	0.0	t														26.752086734250042	
-1.0	4.902613836136879	pulse	0.0	t														27.452083594940632	
-1.0	5.602597113283991	pulse	0.0	t														28.152066872087744	
0.0	6.019149778800056	face	0.0		144	36.0	female	white	2.7548746518105847	neutral	011	sub-09	1.0	6.0	011_neutral	0.0		28.56861953760381	1.2333058241383696
0.0	6.302597898113163	pulse	0.0	t		36.0	female	white	2.7548746518105847	neutral	011	sub-09	1.0	6.0	011_neutral	0.0		28.852067656916915	
0.0	7.002568195428466	pulse	0.0	t		36.0	female	white	2.7548746518105847	neutral	011	sub-09	1.0	6.0	011_neutral	0.0		29.55203795423222	
0.0	7.252455602938426	fix	1.0		444	36.0	female	white	2.7548746518105847	neutral	011	sub-09	1.0	6.0	011_neutral	0.0		29.801925361742178	3.758267246877949
0.0	7.7025653579767095	pulse	1.0	t		36.0	female	white	2.7548746518105847	neutral	011	sub-09	1.0	6.0	011_neutral	0.0		30.252035116780462	
0.0	8.40255799267834	pulse	1.0	t		36.0	female	white	2.7548746518105847	neutral	011	sub-09	1.0	6.0	011_neutral	0.0		30.952027751482092	
0.0	9.102538553117483	pulse	1.0	t		36.0	female	white	2.7548746518105847	neutral	011	sub-09	1.0	6.0	011_neutral	0.0		31.652008311921236	
0.0	9.802534810096404	pulse	1.0	t		36.0	female	white	2.7548746518105847	neutral	011	sub-09	1.0	6.0	011_neutral	0.0		32.352004568900156	
0.0	10.502528350363718	pulse	1.0	t		36.0	female	white	2.7548746518105847	neutral	011	sub-09	1.0	6.0	011_neutral	0.0		33.05199810916747	
1.0	11.010722849816375	face	0.0		146	23.0	male	white	2.6275368085953046	neutral	141	sub-09	1.0	6.0	141_neutral	0.0		33.56019260862013	1.241671476247575
1.0	11.202512231226137	pulse	0.0	t		23.0	male	white	2.6275368085953046	neutral	141	sub-09	1.0	6.0	141_neutral	0.0		33.75198199002989	
1.0	11.902504865927767	pulse	0.0	t		23.0	male	white	2.6275368085953046	neutral	141	sub-09	1.0	6.0	141_neutral	0.0		34.45197462473152	
1.0	12.25239432606395	fix	1.0		445	23.0	male	white	2.6275368085953046	neutral	141	sub-09	1.0	6.0	141_neutral	0.0		34.8018640848677	3.75826271902406
1.0	12.602490256071178	pulse	1.0	t		23.0	male	white	2.6275368085953046	neutral	141	sub-09	1.0	6.0	141_neutral	0.0		35.15196001487493	
1.0	13.302476249926258	pulse	1.0	t		23.0	male	white	2.6275368085953046	neutral	141	sub-09	1.0	6.0	141_neutral	0.0		35.85194600873001	
1.0	14.002467677200912	pulse	1.0	t		23.0	male	white	2.6275368085953046	neutral	141	sub-09	1.0	6.0	141_neutral	0.0		36.551937436004664	
1.0	14.702467556457123	pulse	1.0	t		23.0	male	white	2.6275368085953046	neutral	141	sub-09	1.0	6.0	141_neutral	0.0		37.251937315260875	
1.0	15.402450531750219	pulse	1.0	t		23.0	male	white	2.6275368085953046	neutral	141	sub-09	1.0	6.0	141_neutral	0.0		37.95192029055397	
2.0	16.01065704508801	face	0.0		146	32.0	male	white	2.389176283326701	smiling	092	sub-09	1.0	6.0	092_smiling	0.0		38.56012680389176	1.2416431017336436
2.0	16.102451618433406	pulse	0.0	t		32.0	male	white	2.389176283326701	smiling	092	sub-09	1.0	6.0	092_smiling	0.0		38.65192137723716	
2.0	16.802427952879952	pulse	0.0	t		32.0	male	white	2.389176283326701	smiling	092	sub-09	1.0	6.0	092_smiling	0.0		39.351897711683705	
2.0	17.252300146821653	fix	1.0		444	32.0	male	white	2.389176283326701	smiling	092	sub-09	1.0	6.0	092_smiling	0.0		39.801769905625406	3.758275397001853
2.0	17.502429341420793	pulse	1.0	t		32.0	male	white	2.389176283326701	smiling	092	sub-09	1.0	6.0	092_smiling	0.0		40.051899100224546	
2.0	18.20241382599488	pulse	1.0	t		32.0	male	white	2.389176283326701	smiling	092	sub-09	1.0	6.0	092_smiling	0.0		40.751883584798634	
2.0	18.902400121707615	pulse	1.0	t		32.0	male	white	2.389176283326701	smiling	092	sub-09	1.0	6.0	092_smiling	0.0		41.45186988051137	
2.0	19.602384908139356	pulse	1.0	t		32.0	male	white	2.389176283326701	smiling	092	sub-09	1.0	6.0	092_smiling	0.0		42.15185466694311	
2.0	20.302370600136783	pulse	1.0	t		32.0	male	white	2.389176283326701	smiling	092	sub-09	1.0	6.0	092_smiling	0.0		42.851840358940535	
3.0	21.010575543823506	face	0.0		147	24.0	female	black	3.0955033824114606	neutral	099	sub-09	1.0	6.0	099_neutral	0.0		43.56004530262726	1.2416485351495794
3.0	21.0032485800657	pulse	0.0	t		24.0	female	black	3.0955033824114606	neutral	099	sub-09	1.0	6.0	099_neutral	0.0		43.552718338869454	
3.0	21.702356775109365	pulse	0.0	t		24.0	female	black	3.0955033824114606	neutral	099	sub-09	1.0	6.0	099_neutral	0.0		44.25182653391312	
3.0	22.252224078973086	fix	1.0		443	24.0	female	black	3.0955033824114606	neutral	099	sub-09	1.0	6.0	099_neutral	0.0		44.80169383777684	3.7582636245970207
3.0	22.40233310955591	pulse	1.0	t		24.0	female	black	3.0955033824114606	neutral	099	sub-09	1.0	6.0	099_neutral	0.0		44.951802868359664	
3.0	23.102346874213254	pulse	1.0	t		24.0	female	black	3.0955033824114606	neutral	099	sub-09	1.0	6.0	099_neutral	0.0		45.651816633017006	
3.0	23.802330755075673	pulse	1.0	t		24.0	female	black	3.0955033824114606	neutral	099	sub-09	1.0	6.0	099_neutral	0.0		46.351800513879425	
3.0	24.50231795635773	pulse	1.0	t		24.0	female	black	3.0955033824114606	neutral	099	sub-09	1.0	6.0	099_neutral	0.0		47.05178771516148	
3.0	25.202303044643486	pulse	1.0	t		24.0	female	black	3.0955033824114606	neutral	099	sub-09	1.0	6.0	099_neutral	0.0		47.75177280344724	
3.0	25.902289944071526	pulse	1.0	t		24.0	female	black	3.0955033824114606	neutral	099	sub-09	1.0	6.0	099_neutral	0.0		48.45175970287528	
4.0	26.010487703570107	face	0.0		147	24.0	male	white	3.1153999204138483	smiling	012	sub-09	1.0	6.0	012_smiling	0.0		48.55995746237386	1.2416663446892926
4.0	26.602277447211236	pulse	0.0	t		24.0	male	white	3.1153999204138483	smiling	012	sub-09	1.0	6.0	012_smiling	0.0		49.15174720601499	
4.0	27.2521540482594	fix	1.0		443	24.0	male	white	3.1153999204138483	smiling	012	sub-09	1.0	6.0	012_smiling	0.0		49.80162380706315	3.758259398604423
4.0	27.302277930182754	pulse	1.0	t		24.0	male	white	3.1153999204138483	smiling	012	sub-09	1.0	6.0	012_smiling	0.0		49.85174768898651	
4.0	28.002243699651444	pulse	1.0	t		24.0	male	white	3.1153999204138483	smiling	012	sub-09	1.0	6.0	012_smiling	0.0		50.5517134584552	
4.0	28.702244484476978	pulse	1.0	t		24.0	male	white	3.1153999204138483	smiling	012	sub-09	1.0	6.0	012_smiling	0.0		51.25171424328073	
4.0	29.40224436373319	pulse	1.0	t		24.0	male	white	3.1153999204138483	smiling	012	sub-09	1.0	6.0	012_smiling	0.0		51.95171412253694	
4.0	30.10222854645326	pulse	1.0	t		24.0	male	white	3.1153999204138483	smiling	012	sub-09	1.0	6.0	012_smiling	0.0		52.651698305257014	
4.0	30.802216351446987	pulse	1.0	t		24.0	male	white	3.1153999204138483	smiling	012	sub-09	1.0	6.0	012_smiling	0.0		53.35168611025074	
5.0	31.010413446863822	face	0.0		146	28.0	female	white	5.676880222841227	neutral	124	sub-09	1.0	6.0	124_neutral	0.0		53.559883205667575	1.2416796263714787
5.0	31.502202345305705	pulse	0.0	t		28.0	female	white	5.676880222841227	neutral	124	sub-09	1.0	6.0	124_neutral	0.0		54.05167210410946	
5.0	32.20219739485765	pulse	0.0	t		28.0	female	white	5.676880222841227	neutral	124	sub-09	1.0	6.0	124_neutral	0.0		54.7516671536614	
5.0	32.2520930732353	fix	1.0		445	28.0	female	white	5.676880222841227	neutral	124	sub-09	1.0	6.0	124_neutral	0.0		54.80156283203905	3.7583481444307836
5.0	32.90219516111756	pulse	1.0	t		28.0	female	white	5.676880222841227	neutral	124	sub-09	1.0	6.0	124_neutral	0.0		55.45166491992131	
5.0	33.602178740122326	pulse	1.0	t		28.0	female	white	5.676880222841227	neutral	124	sub-09	1.0	6.0	124_neutral	0.0		56.15164849892608	
5.0	34.30216956368531	pulse	1.0	t		28.0	female	white	5.676880222841227	neutral	124	sub-09	1.0	6.0	124_neutral	0.0		56.85163932248906	
5.0	35.00215042597847	pulse	1.0	t		28.0	female	white	5.676880222841227	neutral	124	sub-09	1.0	6.0	124_neutral	0.0		57.55162018478222	
5.0	35.70214245696843	pulse	1.0	t		28.0	female	white	5.676880222841227	neutral	124	sub-09	1.0	6.0	124_neutral	0.0		58.251612215772184	
6.0	36.010441217666084	face	0.0		146	34.0	male	white	2.651014723438122	smiling	121	sub-09	1.0	6.0	121_smiling	0.0		58.55991097646984	1.2415766932936094
6.0	36.402132978670124	pulse	0.0	t		34.0	male	white	2.651014723438122	smiling	121	sub-09	1.0	6.0	121_smiling	0.0		58.95160273747388	
6.0	37.10211384096692	pulse	0.0	t		34.0	male	white	2.651014723438122	smiling	121	sub-09	1.0	6.0	121_smiling	0.0		59.651583599770674	
6.0	37.252017910959694	fix	1.0		445	34.0	male	white	2.651014723438122	smiling	121	sub-09	1.0	6.0	121_smiling	0.0		59.801487669763446	3.7665770555213385
6.0	37.802121870350675	pulse	1.0	t		34.0	male	white	2.651014723438122	smiling	121	sub-09	1.0	6.0	121_smiling	0.0		60.35159162915443	
6.0	38.502107260494085	pulse	1.0	t		34.0	male	white	2.651014723438122	smiling	121	sub-09	1.0	6.0	121_smiling	0.0		61.05157701929784	
6.0	39.20206337055424	pulse	1.0	t		34.0	male	white	2.651014723438122	smiling	121	sub-09	1.0	6.0	121_smiling	0.0		61.751533129357995	
6.0	39.90207049436867	pulse	1.0	t		34.0	male	white	2.651014723438122	smiling	121	sub-09	1.0	6.0	121_smiling	0.0		62.451540253172425	
6.0	40.60206795877457	pulse	1.0	t		34.0	male	white	2.651014723438122	smiling	121	sub-09	1.0	6.0	121_smiling	0.0		63.15153771757832	
7.0	41.01859496648103	face	0.0		145	40.0	male	white	1.868682849184242	neutral	172	sub-09	1.0	6.0	172_neutral	0.0		63.568064725284785	1.2333465747724404
7.0	41.3020563674836	pulse	0.0	t		40.0	male	white	1.868682849184242	neutral	172	sub-09	1.0	6.0	172_neutral	0.0		63.851526126287354	
7.0	42.002045681761956	pulse	0.0	t		40.0	male	white	1.868682849184242	neutral	172	sub-09	1.0	6.0	172_neutral	0.0		64.55151544056571	
7.0	42.25194154125347	fix	1.0		445	40.0	male	white	1.868682849184242	neutral	172	sub-09	1.0	6.0	172_neutral	0.0		64.80141130005723	3.7665770555249765
7.0	42.70204556101817	pulse	1.0	t		40.0	male	white	1.868682849184242	neutral	172	sub-09	1.0	6.0	172_neutral	0.0		65.25151531982192	
7.0	43.40203457343887	pulse	1.0	t		40.0	male	white	1.868682849184242	neutral	172	sub-09	1.0	6.0	172_neutral	0.0		65.95150433224262	
7.0	44.10201332273937	pulse	1.0	t		40.0	male	white	1.868682849184242	neutral	172	sub-09	1.0	6.0	172_neutral	0.0		66.65148308154312	
7.0	44.802005051871674	pulse	1.0	t		40.0	male	white	1.868682849184242	neutral	172	sub-09	1.0	6.0	172_neutral	0.0		67.35147481067543	
7.0	45.501991045726754	pulse	1.0	t		40.0	male	white	1.868682849184242	neutral	172	sub-09	1.0	6.0	172_neutral	0.0		68.0514608045305	
8.0	46.01851859677845	face	0.0		145	21.0	male	black	2.969757262236371	neutral	137	sub-09	1.0	6.0	137_neutral	0.0		68.5679883555822	1.233348084053432
8.0	46.20199666026019	pulse	0.0	t		21.0	male	black	2.969757262236371	neutral	137	sub-09	1.0	6.0	137_neutral	0.0		68.75146641906395	
8.0	46.901967561287165	pulse	0.0	t		21.0	male	black	2.969757262236371	neutral	137	sub-09	1.0	6.0	137_neutral	0.0		69.45143732009092	
8.0	47.25186668083188	fix	1.0		444	21.0	male	black	2.969757262236371	neutral	137	sub-09	1.0	6.0	137_neutral	0.0		69.80133643963563	3.7665776592366456
8.0	47.60197498695925	pulse	1.0	t		21.0	male	black	2.969757262236371	neutral	137	sub-09	1.0	6.0	137_neutral	0.0		70.151444745763	
8.0	48.301958565964014	pulse	1.0	t		21.0	male	black	2.969757262236371	neutral	137	sub-09	1.0	6.0	137_neutral	0.0		70.85142832476777	
8.0	49.00194123939946	pulse	1.0	t		21.0	male	black	2.969757262236371	neutral	137	sub-09	1.0	6.0	137_neutral	0.0		71.55141099820321	
8.0	49.70192723325454	pulse	1.0	t		21.0	male	black	2.969757262236371	neutral	137	sub-09	1.0	6.0	137_neutral	0.0		72.25139699205829	
8.0	50.401913227113255	pulse	1.0	t		21.0	male	black	2.969757262236371	neutral	137	sub-09	1.0	6.0	137_neutral	0.0		72.95138298591701	
9.0	51.01844434006853	face	0.0		145	47.0	male	east_asian	2.171110226820533	smiling	024	sub-09	1.0	6.0	024_smiling	0.0		73.56791409887228	1.2333456692031177
9.0	51.101997928057244	pulse	0.0	t		47.0	male	east_asian	2.171110226820533	smiling	024	sub-09	1.0	6.0	024_smiling	0.0		73.651467686861	
9.0	51.80188853524669	pulse	0.0	t		47.0	male	east_asian	2.171110226820533	smiling	024	sub-09	1.0	6.0	024_smiling	0.0		74.35135829405044	
9.0	52.251790009271645	fix	1.0		444	47.0	male	east_asian	2.171110226820533	smiling	024	sub-09	1.0	6.0	024_smiling	0.0		74.8012597680754	3.766573433244048
9.0	52.501901998050016	pulse	1.0	t		47.0	male	east_asian	2.171110226820533	smiling	024	sub-09	1.0	6.0	024_smiling	0.0		75.05137175685377	
9.0	53.201876219500264	pulse	1.0	t		47.0	male	east_asian	2.171110226820533	smiling	024	sub-09	1.0	6.0	024_smiling	0.0		75.75134597830402	
9.0	53.9018770043258	pulse	1.0	t		47.0	male	east_asian	2.171110226820533	smiling	024	sub-09	1.0	6.0	024_smiling	0.0		76.45134676312955	
9.0	54.60185696105327	pulse	1.0	t		47.0	male	east_asian	2.171110226820533	smiling	024	sub-09	1.0	6.0	024_smiling	0.0		77.15132671985702	
9.0	55.30185231246287	pulse	1.0	t		47.0	male	east_asian	2.171110226820533	smiling	024	sub-09	1.0	6.0	024_smiling	0.0		77.85132207126662	
10.0	56.01836344251569	face	0.0		145	27.0	male	black	3.5523278949462798	smiling	042	sub-09	1.0	6.0	042_smiling	1.0	dominance	78.56783320131944	1.233351404480345
10.0	56.004783218708326	pulse	0.0	t		27.0	male	black	3.5523278949462798	smiling	042	sub-09	1.0	6.0	042_smiling	1.0	dominance	78.55425297751208	
10.0	56.701823394607345	pulse	0.0	t		27.0	male	black	3.5523278949462798	smiling	042	sub-09	1.0	6.0	042_smiling	1.0	dominance	79.2512931534111	
10.0	57.25171484699604	fix	1.0		177	27.0	male	black	3.5523278949462798	smiling	042	sub-09	1.0	6.0	042_smiling	1.0	dominance	79.80118460579979	1.5083399942996039
10.0	57.40182568871387	pulse	1.0	t		27.0	male	black	3.5523278949462798	smiling	042	sub-09	1.0	6.0	042_smiling	1.0	dominance	79.95129544751762	
10.0	58.10180081573708	pulse	1.0	t		27.0	male	black	3.5523278949462798	smiling	042	sub-09	1.0	6.0	042_smiling	1.0	dominance	80.65127057454083	
10.0	58.76005484129564	rating	2.0		293	27.0	male	black	3.5523278949462798	smiling	042	sub-09	1.0	6.0	042_smiling	1.0	dominance	81.3095246000994	2.4915839378518285
10.0	58.8018073358362	pulse	2.0	t		27.0	male	black	3.5523278949462798	smiling	042	sub-09	1.0	6.0	042_smiling	1.0	dominance	81.35127709463995	
10.0	59.501795744545234	pulse	2.0	t		27.0	male	black	3.5523278949462798	smiling	042	sub-09	1.0	6.0	042_smiling	1.0	dominance	82.05126550334899	
10.0	60.201782040261605	pulse	2.0	t		27.0	male	black	3.5523278949462798	smiling	042	sub-09	1.0	6.0	042_smiling	1.0	dominance	82.75125179906536	
10.0	60.4767658003766	response	2.0	y		27.0	male	black	3.5523278949462798	smiling	042	sub-09	1.0	6.0	042_smiling	1.0	dominance	83.02623555918035	
10.0	60.901748413441965	pulse	2.0	t		27.0	male	black	3.5523278949462798	smiling	042	sub-09	1.0	6.0	042_smiling	1.0	dominance	83.45121817224572	
10.0	61.25163877914747	fix	3.0		444	27.0	male	black	3.5523278949462798	smiling	042	sub-09	1.0	6.0	042_smiling	1.0	dominance	83.80110853795122	3.766611165308859
10.0	61.601757650252694	pulse	3.0	t		27.0	male	black	3.5523278949462798	smiling	042	sub-09	1.0	6.0	042_smiling	1.0	dominance	84.15122740905645	
10.0	62.30174002183048	pulse	3.0	t		27.0	male	black	3.5523278949462798	smiling	042	sub-09	1.0	6.0	042_smiling	1.0	dominance	84.85120978063424	
10.0	63.00172450640457	pulse	3.0	t		27.0	male	black	3.5523278949462798	smiling	042	sub-09	1.0	6.0	042_smiling	1.0	dominance	85.55119426520832	
10.0	63.701715933679225	pulse	3.0	t		27.0	male	black	3.5523278949462798	smiling	042	sub-09	1.0	6.0	042_smiling	1.0	dominance	86.25118569248298	
10.0	64.40171973707038	pulse	3.0	t		27.0	male	black	3.5523278949462798	smiling	042	sub-09	1.0	6.0	042_smiling	1.0	dominance	86.95118949587413	
11.0	65.01824994445633	face	0.0		145	20.0	male	black	3.1070433744528456	neutral	082	sub-09	1.0	6.0	082_neutral	0.0		87.56771970326008	1.2333290670940187
11.0	65.10170935320639	pulse	0.0	t		20.0	male	black	3.1070433744528456	neutral	082	sub-09	1.0	6.0	082_neutral	0.0		87.65117911201014	
11.0	65.80169232849585	pulse	0.0	t		20.0	male	black	3.1070433744528456	neutral	082	sub-09	1.0	6.0	082_neutral	0.0		88.3511620872996	
11.0	66.25157901155035	fix	1.0		444	20.0	male	black	3.1070433744528456	neutral	082	sub-09	1.0	6.0	082_neutral	0.0		88.8010487703541	3.7665876205028326
11.0	66.50168767990544	pulse	1.0	t		20.0	male	black	3.1070433744528456	neutral	082	sub-09	1.0	6.0	082_neutral	0.0		89.0511574387092	
11.0	67.20165495865876	pulse	1.0	t		20.0	male	black	3.1070433744528456	neutral	082	sub-09	1.0	6.0	082_neutral	0.0		89.75112471746252	
11.0	67.90167808086699	pulse	1.0	t		20.0	male	black	3.1070433744528456	neutral	082	sub-09	1.0	6.0	082_neutral	0.0		90.45114783967074	
11.0	68.60164203919703	pulse	1.0	t		20.0	male	black	3.1070433744528456	neutral	082	sub-09	1.0	6.0	082_neutral	0.0		91.15111179800078	
11.0	69.30164825744214	pulse	1.0	t		20.0	male	black	3.1070433744528456	neutral	082	sub-09	1.0	6.0	082_neutral	0.0		91.85111801624589	
12.0	70.01816663205318	face	0.0		146	22.0	male	black	2.767608436132113	neutral	044	sub-09	1.0	6.0	044_neutral	0.0		92.56763639085693	1.2333372172215604
12.0	70.00439080520664	pulse	0.0	t		22.0	male	black	2.767608436132113	neutral	044	sub-09	1.0	6.0	044_neutral	0.0		92.55386056401039	
12.0	70.7016229618639	pulse	0.0	t		22.0	male	black	2.767608436132113	neutral	044	sub-09	1.0	6.0	044_neutral	0.0		93.25109272066766	
12.0	71.25150384927474	fix	1.0		443	22.0	male	black	2.767608436132113	neutral	044	sub-09	1.0	6.0	044_neutral	0.0		93.8009736080785	3.758320675482537
12.0	71.40161378542689	pulse	1.0	t		22.0	male	black	2.767608436132113	neutral	044	sub-09	1.0	6.0	044_neutral	0.0		93.95108354423064	
12.0	72.10158891244646	pulse	1.0	t		22.0	male	black	2.767608436132113	neutral	044	sub-09	1.0	6.0	044_neutral	0.0		94.65105867125021	
12.0	72.801588187991	pulse	1.0	t		22.0	male	black	2.767608436132113	neutral	044	sub-09	1.0	6.0	044_neutral	0.0		95.35105794679475	
12.0	73.50157569113071	pulse	1.0	t		22.0	male	black	2.767608436132113	neutral	044	sub-09	1.0	6.0	044_neutral	0.0		96.05104544993446	
12.0	74.20156168498579	pulse	1.0	t		22.0	male	black	2.767608436132113	neutral	044	sub-09	1.0	6.0	044_neutral	0.0		96.75103144378954	
12.0	74.9015389250053	pulse	1.0	t		22.0	male	black	2.767608436132113	neutral	044	sub-09	1.0	6.0	044_neutral	0.0		97.45100868380905	
13.0	75.00982452475728	face	0.0		147	24.0	male	white	3.1153999204138483	neutral	012	sub-09	1.0	6.0	012_neutral	0.0		97.55929428356103	1.241587560129119
13.0	75.60153669126521	pulse	0.0	t		24.0	male	white	3.1153999204138483	neutral	012	sub-09	1.0	6.0	012_neutral	0.0		98.15100645006896	
13.0	76.2514120848864	fix	1.0		443	24.0	male	white	3.1153999204138483	neutral	012	sub-09	1.0	6.0	012_neutral	0.0		98.80088184369015	3.766609354170214
13.0	76.30152570368591	pulse	1.0	t		24.0	male	white	3.1153999204138483	neutral	012	sub-09	1.0	6.0	012_neutral	0.0		98.85099546248966	
13.0	77.0015273940844	pulse	1.0	t		24.0	male	white	3.1153999204138483	neutral	012	sub-09	1.0	6.0	012_neutral	0.0		99.55099715288816	
13.0	77.70150584152725	pulse	1.0	t		24.0	male	white	3.1153999204138483	neutral	012	sub-09	1.0	6.0	012_neutral	0.0		100.250975600331	
13.0	78.40150481521414	pulse	1.0	t		24.0	male	white	3.1153999204138483	neutral	012	sub-09	1.0	6.0	012_neutral	0.0		100.95097457401789	
13.0	79.10148114966069	pulse	1.0	t		24.0	male	white	3.1153999204138483	neutral	012	sub-09	1.0	6.0	012_neutral	0.0		101.65095090846444	
13.0	79.80147801035491	pulse	1.0	t		24.0	male	white	3.1153999204138483	neutral	012	sub-09	1.0	6.0	012_neutral	0.0		102.35094776915867	
14.0	80.01802143905661	face	0.0		145	24.0	female	east_asian	4.409868682849185	smiling	030	sub-09	1.0	6.0	030_smiling	0.0		102.56749119786036	1.2333311800903175
14.0	80.50147426733383	pulse	0.0	t		24.0	female	east_asian	4.409868682849185	smiling	030	sub-09	1.0	6.0	030_smiling	0.0		103.05094402613759	
14.0	81.20145663891162	pulse	0.0	t		24.0	female	east_asian	4.409868682849185	smiling	030	sub-09	1.0	6.0	030_smiling	0.0		103.75092639771538	
14.0	81.25135261914693	fix	1.0		445	24.0	female	east_asian	4.409868682849185	smiling	030	sub-09	1.0	6.0	030_smiling	0.0		103.80082237795068	3.7582609078890528
14.0	81.90145048103659	pulse	1.0	t		24.0	female	east_asian	4.409868682849185	smiling	030	sub-09	1.0	6.0	030_smiling	0.0		104.45092023984034	
14.0	82.60142440063282	pulse	1.0	t		24.0	female	east_asian	4.409868682849185	smiling	030	sub-09	1.0	6.0	030_smiling	0.0		105.15089415943658	
14.0	83.30142065761174	pulse	1.0	t		24.0	female	east_asian	4.409868682849185	smiling	030	sub-09	1.0	6.0	030_smiling	0.0		105.8508904164155	
14.0	84.00139699205829	pulse	1.0	t		24.0	female	east_asian	4.409868682849185	smiling	030	sub-09	1.0	6.0	030_smiling	0.0		106.55086675086204	
14.0	84.70140139916475	pulse	1.0	t		24.0	female	east_asian	4.409868682849185	smiling	030	sub-09	1.0	6.0	030_smiling	0.0		107.2508711579685	
15.0	85.00961352703598	face	0.0		146	21.0	male	east_asian/white	3.501790688420215	smiling	036	sub-09	1.0	6.0	036_smiling	0.0		107.55908328583973	1.2416467240109341
15.0	85.40139886357065	pulse	0.0	t		21.0	male	east_asian/white	3.501790688420215	smiling	036	sub-09	1.0	6.0	036_smiling	0.0		107.9508686223744	
15.0	86.10137700915584	pulse	0.0	t		21.0	male	east_asian/white	3.501790688420215	smiling	036	sub-09	1.0	6.0	036_smiling	0.0		108.65084676795959	
15.0	86.25126025104692	fix	1.0		444	21.0	male	east_asian/white	3.501790688420215	smiling	036	sub-09	1.0	6.0	036_smiling	0.0		108.80073000985067	3.766594563203398
15.0	86.80136722900352	pulse	1.0	t		21.0	male	east_asian/white	3.501790688420215	smiling	036	sub-09	1.0	6.0	036_smiling	0.0		109.35083698780727	
15.0	87.50135110986594	pulse	1.0	t		21.0	male	east_asian/white	3.501790688420215	smiling	036	sub-09	1.0	6.0	036_smiling	0.0		110.05082086866969	
15.0	88.20136034667667	pulse	1.0	t		21.0	male	east_asian/white	3.501790688420215	smiling	036	sub-09	1.0	6.0	036_smiling	0.0		110.75083010548042	
15.0	88.9013424163968	pulse	1.0	t		21.0	male	east_asian/white	3.501790688420215	smiling	036	sub-09	1.0	6.0	036_smiling	0.0		111.45081217520055	
15.0	89.601319052701	pulse	1.0	t		21.0	male	east_asian/white	3.501790688420215	smiling	036	sub-09	1.0	6.0	036_smiling	0.0		112.15078881150475	
16.0	90.01785481425031	face	0.0		145	26.0	female	white	4.854755272582572	neutral	027	sub-09	1.0	6.0	027_neutral	0.0		112.56732457305407	1.2333293689480342
16.0	90.30131712081857	pulse	0.0	t		26.0	female	white	4.854755272582572	neutral	027	sub-09	1.0	6.0	027_neutral	0.0		112.85078687962232	
16.0	91.00129919054234	pulse	0.0	t		26.0	female	white	4.854755272582572	neutral	027	sub-09	1.0	6.0	027_neutral	0.0		113.5507689493461	
16.0	91.25118418319835	fix	1.0		444	26.0	female	white	4.854755272582572	neutral	027	sub-09	1.0	6.0	027_neutral	0.0		113.8006539420021	3.766593355776422
16.0	91.70129363637898	pulse	1.0	t		26.0	female	white	4.854755272582572	neutral	027	sub-09	1.0	6.0	027_neutral	0.0		114.25076339518273	
16.0	92.40128023394936	pulse	1.0	t		26.0	female	white	4.854755272582572	neutral	027	sub-09	1.0	6.0	027_neutral	0.0		114.95074999275312	
16.0	93.10126773708907	pulse	1.0	t		26.0	female	white	4.854755272582572	neutral	027	sub-09	1.0	6.0	027_neutral	0.0		115.65073749589283	
16.0	93.80131832824554	pulse	1.0	t		26.0	female	white	4.854755272582572	neutral	027	sub-09	1.0	6.0	027_neutral	0.0		116.3507880870493	
16.0	94.50124908235375	pulse	1.0	t		26.0	female	white	4.854755272582572	neutral	027	sub-09	1.0	6.0	027_neutral	0.0		117.0507188411575	
17.0	95.01777753897477	face	0.0		145	37.0	male	white	3.898925586947871	neutral	101	sub-09	1.0	6.0	101_neutral	0.0		117.56724729777852	1.2333320856596401
17.0	95.20124232077069	pulse	0.0	t		37.0	male	white	3.898925586947871	neutral	101	sub-09	1.0	6.0	101_neutral	0.0		117.75071207957444	
17.0	95.90122710719879	pulse	0.0	t		37.0	male	white	3.898925586947871	neutral	101	sub-09	1.0	6.0	101_neutral	0.0		118.45069686600254	
17.0	96.25110962463441	fix	1.0		444	37.0	male	white	3.898925586947871	neutral	101	sub-09	1.0	6.0	101_neutral	0.0		118.80057938343816	3.758333957171999
17.0	96.60123181616291	pulse	1.0	t		37.0	male	white	3.898925586947871	neutral	101	sub-09	1.0	6.0	101_neutral	0.0		119.15070157496666	
17.0	97.30121116917508	pulse	1.0	t		37.0	male	white	3.898925586947871	neutral	101	sub-09	1.0	6.0	101_neutral	0.0		119.85068092797883	
17.0	98.0011989741688	pulse	1.0	t		37.0	male	white	3.898925586947871	neutral	101	sub-09	1.0	6.0	101_neutral	0.0		120.55066873297255	
17.0	98.7011964385747	pulse	1.0	t		37.0	male	white	3.898925586947871	neutral	101	sub-09	1.0	6.0	101_neutral	0.0		121.25066619737845	
17.0	99.40117971572181	pulse	1.0	t		37.0	male	white	3.898925586947871	neutral	101	sub-09	1.0	6.0	101_neutral	0.0		121.95064947452556	
18.0	100.00944358180641	face	0.0		146	22.0	female	white	4.614007162753682	smiling	009	sub-09	1.0	6.0	009_smiling	0.0		122.55891334061016	1.241589673125418
18.0	100.10116993556949	pulse	0.0	t		22.0	female	white	4.614007162753682	smiling	009	sub-09	1.0	6.0	009_smiling	0.0		122.65063969437324	
18.0	100.80115200529326	pulse	0.0	t		22.0	female	white	4.614007162753682	smiling	009	sub-09	1.0	6.0	009_smiling	0.0		123.35062176409701	
18.0	101.25103325493183	fix	1.0		444	22.0	female	white	4.614007162753682	smiling	009	sub-09	1.0	6.0	009_smiling	0.0		123.80050301373558	3.766612070878182
18.0	101.50115822353837	pulse	1.0	t		22.0	female	white	4.614007162753682	smiling	009	sub-09	1.0	6.0	009_smiling	0.0		124.05062798234212	
18.0	102.20112882271133	pulse	1.0	t		22.0	female	white	4.614007162753682	smiling	009	sub-09	1.0	6.0	009_smiling	0.0		124.75059858151508	
18.0	102.90111028871979	pulse	1.0	t		22.0	female	white	4.614007162753682	smiling	009	sub-09	1.0	6.0	009_smiling	0.0		125.45058004752354	
18.0	103.60111137540298	pulse	1.0	t		22.0	female	white	4.614007162753682	smiling	009	sub-09	1.0	6.0	009_smiling	0.0		126.15058113420673	
18.0	104.30113570503818	pulse	1.0	t		22.0	female	white	4.614007162753682	smiling	009	sub-09	1.0	6.0	009_smiling	0.0		126.85060546384193	
19.0	105.01764532581001	face	0.0		145	31.0	male	west_asian	1.9538400318344609	smiling	070	sub-09	1.0	6.0	070_smiling	1.0	attractiveness	127.56711508461376	1.233312163130904
19.0	105.00374120993729	pulse	0.0	t		31.0	male	west_asian	1.9538400318344609	smiling	070	sub-09	1.0	6.0	070_smiling	1.0	attractiveness	127.55321096874104	
19.0	105.70109048693121	pulse	0.0	t		31.0	male	west_asian	1.9538400318344609	smiling	070	sub-09	1.0	6.0	070_smiling	1.0	attractiveness	128.25056024573496	
19.0	106.25095748894091	fix	1.0		177	31.0	male	west_asian	1.9538400318344609	smiling	070	sub-09	1.0	6.0	070_smiling	1.0	attractiveness	128.80042724774466	1.4999882275951677
19.0	106.40107316036665	pulse	1.0	t		31.0	male	west_asian	1.9538400318344609	smiling	070	sub-09	1.0	6.0	070_smiling	1.0	attractiveness	128.9505429191704	
19.0	107.10103470384274	pulse	1.0	t		31.0	male	west_asian	1.9538400318344609	smiling	070	sub-09	1.0	6.0	070_smiling	1.0	attractiveness	129.6505044626465	
19.0	107.75094571653608	rating	2.0		294	31.0	male	west_asian	1.9538400318344609	smiling	070	sub-09	1.0	6.0	070_smiling	1.0	attractiveness	130.30041547533983	2.4999517029536946
19.0	107.80107261702142	pulse	2.0	t		31.0	male	west_asian	1.9538400318344609	smiling	070	sub-09	1.0	6.0	070_smiling	1.0	attractiveness	130.35054237582517	
19.0	108.50104864961395	pulse	2.0	t		31.0	male	west_asian	1.9538400318344609	smiling	070	sub-09	1.0	6.0	070_smiling	1.0	attractiveness	131.0505184084177	
19.0	109.20103615275366	pulse	2.0	t		31.0	male	west_asian	1.9538400318344609	smiling	070	sub-09	1.0	6.0	070_smiling	1.0	attractiveness	131.7505059115574	
19.0	109.26767702074721	response	2.0	n		31.0	male	west_asian	1.9538400318344609	smiling	070	sub-09	1.0	6.0	070_smiling	1.0	attractiveness	131.81714677955097	
19.0	109.90100554449964	pulse	2.0	t		31.0	male	west_asian	1.9538400318344609	smiling	070	sub-09	1.0	6.0	070_smiling	1.0	attractiveness	132.4504753033034	
19.0	110.25089741948977	fix	3.0		444	31.0	male	west_asian	1.9538400318344609	smiling	070	sub-09	1.0	6.0	070_smiling	1.0	attractiveness	132.80036717829353	3.7665963743384054
19.0	110.6010120646024	pulse	3.0	t		31.0	male	west_asian	1.9538400318344609	smiling	070	sub-09	1.0	6.0	070_smiling	1.0	attractiveness	133.15048182340615	
19.0	111.30098960647592	pulse	3.0	t		31.0	male	west_asian	1.9538400318344609	smiling	070	sub-09	1.0	6.0	070_smiling	1.0	attractiveness	133.85045936527968	
19.0	112.00098676902417	pulse	3.0	t		31.0	male	west_asian	1.9538400318344609	smiling	070	sub-09	1.0	6.0	070_smiling	1.0	attractiveness	134.55045652782792	
19.0	112.70097064988295	pulse	3.0	t		31.0	male	west_asian	1.9538400318344609	smiling	070	sub-09	1.0	6.0	070_smiling	1.0	attractiveness	135.2504404086867	
19.0	113.40096117158828	pulse	3.0	t		31.0	male	west_asian	1.9538400318344609	smiling	070	sub-09	1.0	6.0	070_smiling	1.0	attractiveness	135.95043093039203	
20.0	114.01749379382818	face	0.0		145	26.0	male	white	2.7966573816155993	neutral	117	sub-09	1.0	6.0	117_neutral	0.0		136.56696355263193	1.2333284633823496
20.0	114.1010202147263	pulse	0.0	t		26.0	male	white	2.7966573816155993	neutral	117	sub-09	1.0	6.0	117_neutral	0.0		136.65048997353006	
20.0	114.80094191314129	pulse	0.0	t		26.0	male	white	2.7966573816155993	neutral	117	sub-09	1.0	6.0	117_neutral	0.0		137.35041167194504	
20.0	115.25082225721053	fix	1.0		1185	26.0	male	white	2.7966573816155993	neutral	117	sub-09	1.0	6.0	117_neutral	0.0		137.80029201601428	10.008265133878012
20.0	115.5009460183901	pulse	1.0	t		26.0	male	white	2.7966573816155993	neutral	117	sub-09	1.0	6.0	117_neutral	0.0		138.05041577719385	
20.0	116.2009356345261	pulse	1.0	t		26.0	male	white	2.7966573816155993	neutral	117	sub-09	1.0	6.0	117_neutral	0.0		138.75040539332986	
20.0	116.90090834669536	pulse	1.0	t		26.0	male	white	2.7966573816155993	neutral	117	sub-09	1.0	6.0	117_neutral	0.0		139.4503781054991	
20.0	117.60090882966688	pulse	1.0	t		26.0	male	white	2.7966573816155993	neutral	117	sub-09	1.0	6.0	117_neutral	0.0		140.15037858847063	
20.0	118.30089603094893	pulse	1.0	t		26.0	male	white	2.7966573816155993	neutral	117	sub-09	1.0	6.0	117_neutral	0.0		140.8503657897527	
20.0	119.00087779881505	pulse	1.0	t		26.0	male	white	2.7966573816155993	neutral	117	sub-09	1.0	6.0	117_neutral	0.0		141.5503475576188	
20.0	119.70087767807127	pulse	1.0	t		26.0	male	white	2.7966573816155993	neutral	117	sub-09	1.0	6.0	117_neutral	0.0		142.25034743687502	
20.0	120.40086487935332	pulse	1.0	t		26.0	male	white	2.7966573816155993	neutral	117	sub-09	1.0	6.0	117_neutral	0.0		142.95033463815707	
20.0	121.10084181751517	pulse	1.0	t		26.0	male	white	2.7966573816155993	neutral	117	sub-09	1.0	6.0	117_neutral	0.0		143.65031157631893	
20.0	121.80083354664384	pulse	1.0	t		26.0	male	white	2.7966573816155993	neutral	117	sub-09	1.0	6.0	117_neutral	0.0		144.3503033054476	
20.0	122.5008313129074	pulse	1.0	t		26.0	male	white	2.7966573816155993	neutral	117	sub-09	1.0	6.0	117_neutral	0.0		145.05030107171115	
20.0	123.20082666431699	pulse	1.0	t		26.0	male	white	2.7966573816155993	neutral	117	sub-09	1.0	6.0	117_neutral	0.0		145.75029642312074	
20.0	123.9008011876249	pulse	1.0	t		26.0	male	white	2.7966573816155993	neutral	117	sub-09	1.0	6.0	117_neutral	0.0		146.45027094642865	
20.0	124.6007880870493	pulse	1.0	t		26.0	male	white	2.7966573816155993	neutral	117	sub-09	1.0	6.0	117_neutral	0.0		147.15025784585305	
21.0	125.25908739108854	face	0.0		146	22.0	male	black	2.767608436132113	smiling	044	sub-09	1.0	6.0	044_smiling	0.0		147.8085571498923	1.2415788062899082
21.0	125.300798531287	pulse	0.0	t		22.0	male	black	2.767608436132113	smiling	044	sub-09	1.0	6.0	044_smiling	0.0		147.85026829009075	
21.0	126.00078150657646	pulse	0.0	t		22.0	male	black	2.767608436132113	smiling	044	sub-09	1.0	6.0	044_smiling	0.0		148.5502512653802	
21.0	126.50066619737845	fix	1.0		443	22.0	male	black	2.767608436132113	smiling	044	sub-09	1.0	6.0	044_smiling	0.0		149.0501359561822	3.766576149955654
21.0	126.70077534870506	pulse	1.0	t		22.0	male	black	2.767608436132113	smiling	044	sub-09	1.0	6.0	044_smiling	0.0		149.25024510750882	
21.0	127.4007531924326	pulse	1.0	t		22.0	male	black	2.767608436132113	smiling	044	sub-09	1.0	6.0	044_smiling	0.0		149.95022295123636	
21.0	128.10074129928762	pulse	1.0	t		22.0	male	black	2.767608436132113	smiling	044	sub-09	1.0	6.0	044_smiling	0.0		150.65021105809137	
21.0	128.80073665069722	pulse	1.0	t		22.0	male	black	2.767608436132113	smiling	044	sub-09	1.0	6.0	044_smiling	0.0		151.35020640950097	
21.0	129.50071660742105	pulse	1.0	t		22.0	male	black	2.767608436132113	smiling	044	sub-09	1.0	6.0	044_smiling	0.0		152.0501863662248	
21.0	130.2007059216994	pulse	1.0	t		22.0	male	black	2.767608436132113	smiling	044	sub-09	1.0	6.0	044_smiling	0.0		152.75017568050316	
22.0	130.2672423473341	face	0.0		146	26.0	female	white	4.854755272582572	smiling	027	sub-09	1.0	6.0	027_smiling	0.0		152.81671210613786	1.2333486877687392
22.0	130.9007097250942	pulse	0.0	t		26.0	female	white	4.854755272582572	smiling	027	sub-09	1.0	6.0	027_smiling	0.0		153.45017948389795	
22.0	131.50059103510284	fix	1.0		443	26.0	female	white	4.854755272582572	smiling	027	sub-09	1.0	6.0	027_smiling	0.0		154.0500607939066	3.7582624171700445
22.0	131.60070537835782	pulse	1.0	t		26.0	female	white	4.854755272582572	smiling	027	sub-09	1.0	6.0	027_smiling	0.0		154.15017513716157	
22.0	132.30067869423874	pulse	1.0	t		26.0	female	white	4.854755272582572	smiling	027	sub-09	1.0	6.0	027_smiling	0.0		154.8501484530425	
22.0	133.0006664992361	pulse	1.0	t		26.0	female	white	4.854755272582572	smiling	027	sub-09	1.0	6.0	027_smiling	0.0		155.55013625803986	
22.0	133.700663963642	pulse	1.0	t		26.0	female	white	4.854755272582572	smiling	027	sub-09	1.0	6.0	027_smiling	0.0		156.25013372244575	
22.0	134.40065267420505	pulse	1.0	t		26.0	female	white	4.854755272582572	smiling	027	sub-09	1.0	6.0	027_smiling	0.0		156.9501224330088	
22.0	135.10063444207117	pulse	1.0	t		26.0	female	white	4.854755272582572	smiling	027	sub-09	1.0	6.0	027_smiling	0.0		157.65010420087492	
23.0	135.2588534522729	face	0.0		147	37.0	male	white	3.898925586947871	smiling	101	sub-09	1.0	6.0	101_smiling	1.0	dominance	157.80832321107664	1.241662722408364
23.0	135.800635830612	pulse	0.0	t		37.0	male	white	3.898925586947871	smiling	101	sub-09	1.0	6.0	101_smiling	1.0	dominance	158.35010558941576	
23.0	136.50051617468125	fix	1.0		177	37.0	male	white	3.898925586947871	smiling	101	sub-09	1.0	6.0	101_smiling	1.0	dominance	159.049985933485	1.4999619660738972
23.0	136.5083001492385	pulse	1.0	t		37.0	male	white	3.898925586947871	smiling	101	sub-09	1.0	6.0	101_smiling	1.0	dominance	159.05776990804225	
23.0	137.2006229111539	pulse	1.0	t		37.0	male	white	3.898925586947871	smiling	101	sub-09	1.0	6.0	101_smiling	1.0	dominance	159.75009266995767	
23.0	137.9005926047539	pulse	1.0	t		37.0	male	white	3.898925586947871	smiling	101	sub-09	1.0	6.0	101_smiling	1.0	dominance	160.45006236355766	
23.0	138.00047814075515	rating	2.0		295	37.0	male	white	3.898925586947871	smiling	101	sub-09	1.0	6.0	101_smiling	1.0	dominance	160.5499478995589	2.4999797756136104
23.0	138.60058463574387	pulse	2.0	t		37.0	male	white	3.898925586947871	smiling	101	sub-09	1.0	6.0	101_smiling	1.0	dominance	161.15005439454762	
23.0	139.30057545930322	pulse	2.0	t		37.0	male	white	3.898925586947871	smiling	101	sub-09	1.0	6.0	101_smiling	1.0	dominance	161.85004521810697	
23.0	139.95363785425798	response	2.0	e		37.0	male	white	3.898925586947871	smiling	101	sub-09	1.0	6.0	101_smiling	1.0	dominance	162.50310761306173	
23.0	140.00056024573496	pulse	2.0	t		37.0	male	white	3.898925586947871	smiling	101	sub-09	1.0	6.0	101_smiling	1.0	dominance	162.5500300045387	
23.0	140.50045791636876	fix	3.0		443	37.0	male	white	3.898925586947871	smiling	101	sub-09	1.0	6.0	101_smiling	1.0	dominance	163.0499276751725	3.7665909409224696
23.0	140.70056555841074	pulse	3.0	t		37.0	male	white	3.898925586947871	smiling	101	sub-09	1.0	6.0	101_smiling	1.0	dominance	163.2500353172145	
23.0	141.40053736501068	pulse	3.0	t		37.0	male	white	3.898925586947871	smiling	101	sub-09	1.0	6.0	101_smiling	1.0	dominance	163.95000712381443	
23.0	142.1005227551541	pulse	3.0	t		37.0	male	white	3.898925586947871	smiling	101	sub-09	1.0	6.0	101_smiling	1.0	dominance	164.64999251395784	
23.0	142.8005126731441	pulse	3.0	t		37.0	male	white	3.898925586947871	smiling	101	sub-09	1.0	6.0	101_smiling	1.0	dominance	165.34998243194786	
23.0	143.5005246266628	pulse	3.0	t		37.0	male	white	3.898925586947871	smiling	101	sub-09	1.0	6.0	101_smiling	1.0	dominance	166.04999438546656	
23.0	144.2005048852443	pulse	3.0	t		37.0	male	white	3.898925586947871	smiling	101	sub-09	1.0	6.0	101_smiling	1.0	dominance	166.74997464404805	
24.0	144.26704885729123	face	0.0		146	27.0	female	white	4.181058495821727	neutral	039	sub-09	1.0	6.0	039_neutral	0.0		166.81651861609498	1.2333305763786484
24.0	144.90049842551525	pulse	0.0	t		27.0	female	white	4.181058495821727	neutral	039	sub-09	1.0	6.0	039_neutral	0.0		167.449968184319	
24.0	145.50037943366988	fix	1.0		443	27.0	female	white	4.181058495821727	neutral	039	sub-09	1.0	6.0	039_neutral	0.0		168.04984919247363	3.7583303348910704
24.0	145.60048502308564	pulse	1.0	t		27.0	female	white	4.181058495821727	neutral	039	sub-09	1.0	6.0	039_neutral	0.0		168.1499547818894	
24.0	146.3004601501052	pulse	1.0	t		27.0	female	white	4.181058495821727	neutral	039	sub-09	1.0	6.0	039_neutral	0.0		168.84992990890896	
24.0	147.00044554024862	pulse	1.0	t		27.0	female	white	4.181058495821727	neutral	039	sub-09	1.0	6.0	039_neutral	0.0		169.54991529905237	
24.0	147.70044662693545	pulse	1.0	t		27.0	female	white	4.181058495821727	neutral	039	sub-09	1.0	6.0	039_neutral	0.0		170.2499163857392	
24.0	148.40044922289962	pulse	1.0	t		27.0	female	white	4.181058495821727	neutral	039	sub-09	1.0	6.0	039_neutral	0.0		170.94991898170338	
24.0	149.10042314249586	pulse	1.0	t		27.0	female	white	4.181058495821727	neutral	039	sub-09	1.0	6.0	039_neutral	0.0		171.6498929012996	
25.0	149.25870976856095	face	0.0		147	24.0	female	black	3.0955033824114606	smiling	099	sub-09	1.0	6.0	099_smiling	0.0		171.8081795273647	1.2415945028296846
25.0	149.80042573846004	pulse	0.0	t		24.0	female	black	3.0955033824114606	smiling	099	sub-09	1.0	6.0	099_smiling	0.0		172.3498954972638	
25.0	150.50030427139063	fix	1.0		444	24.0	female	black	3.0955033824114606	smiling	099	sub-09	1.0	6.0	099_smiling	0.0		173.04977403019438	3.7665942613457446
25.0	150.50774714805812	pulse	1.0	t		24.0	female	black	3.0955033824114606	smiling	099	sub-09	1.0	6.0	099_smiling	0.0		173.05721690686187	
25.0	151.20040617815903	pulse	1.0	t		24.0	female	black	3.0955033824114606	smiling	099	sub-09	1.0	6.0	099_smiling	0.0		173.74987593696278	
25.0	151.90038402188657	pulse	1.0	t		24.0	female	black	3.0955033824114606	smiling	099	sub-09	1.0	6.0	099_smiling	0.0		174.44985378069032	
25.0	152.6003751473072	pulse	1.0	t		24.0	female	black	3.0955033824114606	smiling	099	sub-09	1.0	6.0	099_smiling	0.0		175.14984490611096	
25.0	153.30036717829353	pulse	1.0	t		24.0	female	black	3.0955033824114606	smiling	099	sub-09	1.0	6.0	099_smiling	0.0		175.84983693709728	
25.0	154.00035407771793	pulse	1.0	t		24.0	female	black	3.0955033824114606	smiling	099	sub-09	1.0	6.0	099_smiling	0.0		176.54982383652168	
26.0	154.26689853273638	face	0.0		145	40.0	male	black	2.408674890569041	neutral	061	sub-09	1.0	6.0	061_neutral	0.0		176.81636829154013	1.2333320856596401
26.0	154.70034882541586	pulse	0.0	t		40.0	male	black	2.408674890569041	neutral	061	sub-09	1.0	6.0	061_neutral	0.0		177.2498185842196	
26.0	155.40033451741692	pulse	0.0	t		40.0	male	black	2.408674890569041	neutral	061	sub-09	1.0	6.0	061_neutral	0.0		177.94980427622068	
26.0	155.50023061839602	fix	1.0		444	40.0	male	black	2.408674890569041	neutral	061	sub-09	1.0	6.0	061_neutral	0.0		178.04970037719977	3.766590639064816
26.0	156.10033801895042	pulse	1.0	t		40.0	male	black	2.408674890569041	neutral	061	sub-09	1.0	6.0	061_neutral	0.0		178.64980777775418	
26.0	156.80030861812338	pulse	1.0	t		40.0	male	black	2.408674890569041	neutral	061	sub-09	1.0	6.0	061_neutral	0.0		179.34977837692713	
26.0	157.50029551755142	pulse	1.0	t		40.0	male	black	2.408674890569041	neutral	061	sub-09	1.0	6.0	061_neutral	0.0		180.04976527635517	
26.0	158.2002899633917	pulse	1.0	t		40.0	male	black	2.408674890569041	neutral	061	sub-09	1.0	6.0	061_neutral	0.0		180.74975972219545	
26.0	158.9002868240823	pulse	1.0	t		40.0	male	black	2.408674890569041	neutral	061	sub-09	1.0	6.0	061_neutral	0.0		181.44975658288604	
27.0	159.26682125746083	face	0.0		145	32.0	male	white	2.389176283326701	neutral	092	sub-09	1.0	6.0	092_neutral	0.0		181.81629101626459	1.2333329912289628
27.0	159.6002764402183	pulse	0.0	t		32.0	male	white	2.389176283326701	neutral	092	sub-09	1.0	6.0	092_neutral	0.0		182.14974619902205	
27.0	160.30025911365374	pulse	0.0	t		32.0	male	white	2.389176283326701	neutral	092	sub-09	1.0	6.0	092_neutral	0.0		182.8497288724575	
27.0	160.5001542486898	fix	1.0		444	32.0	male	white	2.389176283326701	neutral	092	sub-09	1.0	6.0	092_neutral	0.0		183.04962400749355	3.758266039450973
27.0	161.00025687991365	pulse	1.0	t		32.0	male	white	2.389176283326701	neutral	092	sub-09	1.0	6.0	092_neutral	0.0		183.5497266387174	
27.0	161.70023411992952	pulse	1.0	t		32.0	male	white	2.389176283326701	neutral	092	sub-09	1.0	6.0	092_neutral	0.0		184.24970387873327	
27.0	162.40021679336496	pulse	1.0	t		32.0	male	white	2.389176283326701	neutral	092	sub-09	1.0	6.0	092_neutral	0.0		184.9496865521687	
27.0	163.10020550393165	pulse	1.0	t		32.0	male	white	2.389176283326701	neutral	092	sub-09	1.0	6.0	092_neutral	0.0		185.6496752627354	
27.0	163.80021262774608	pulse	1.0	t		32.0	male	white	2.389176283326701	neutral	092	sub-09	1.0	6.0	092_neutral	0.0		186.34968238654983	
28.0	164.25842028814077	face	0.0		146	31.0	female	white	2.1822522881018704	neutral	102	sub-09	1.0	6.0	102_neutral	0.0		186.80789004694452	1.2416397813103686
28.0	164.50020797915568	pulse	0.0	t		31.0	female	white	2.1822522881018704	neutral	102	sub-09	1.0	6.0	102_neutral	0.0		187.04967773795943	
28.0	165.20017284305504	pulse	0.0	t		31.0	female	white	2.1822522881018704	neutral	102	sub-09	1.0	6.0	102_neutral	0.0		187.7496426018588	
28.0	165.50006006945114	fix	1.0		444	31.0	female	white	2.1822522881018704	neutral	102	sub-09	1.0	6.0	102_neutral	0.0		188.0495298282549	3.766619919151708
28.0	165.90017543901922	pulse	1.0	t		31.0	female	white	2.1822522881018704	neutral	102	sub-09	1.0	6.0	102_neutral	0.0		188.44964519782297	
28.0	166.6001547920314	pulse	1.0	t		31.0	female	white	2.1822522881018704	neutral	102	sub-09	1.0	6.0	102_neutral	0.0		189.14962455083514	
28.0	167.30013957846313	pulse	1.0	t		31.0	female	white	2.1822522881018704	neutral	102	sub-09	1.0	6.0	102_neutral	0.0		189.84960933726688	
28.0	168.00015334312047	pulse	1.0	t		31.0	female	white	2.1822522881018704	neutral	102	sub-09	1.0	6.0	102_neutral	0.0		190.54962310192423	
28.0	168.70013782769456	pulse	1.0	t		31.0	female	white	2.1822522881018704	neutral	102	sub-09	1.0	6.0	102_neutral	0.0		191.2496075864983	
29.0	169.26667998860285	face	0.0		145	31.0	female	west_asian	2.364902506963788	neutral	006	sub-09	1.0	6.0	006_neutral	0.0		191.8161497474066	1.2333061259960232
29.0	169.40012985868088	pulse	0.0	t		31.0	female	west_asian	2.364902506963788	neutral	006	sub-09	1.0	6.0	006_neutral	0.0		191.94959961748464	
29.0	170.10010558941576	pulse	0.0	t		31.0	female	west_asian	2.364902506963788	neutral	006	sub-09	1.0	6.0	006_neutral	0.0		192.6495753482195	
29.0	170.49998611459887	fix	1.0		444	31.0	female	west_asian	2.364902506963788	neutral	006	sub-09	1.0	6.0	006_neutral	0.0		193.04945587340262	3.76661207088182
29.0	170.8001003371137	pulse	1.0	t		31.0	female	west_asian	2.364902506963788	neutral	006	sub-09	1.0	6.0	006_neutral	0.0		193.34957009591744	
29.0	171.50009297181168	pulse	1.0	t		31.0	female	west_asian	2.364902506963788	neutral	006	sub-09	1.0	6.0	006_neutral	0.0		194.04956273061543	
29.0	172.20007866381275	pulse	1.0	t		31.0	female	west_asian	2.364902506963788	neutral	006	sub-09	1.0	6.0	006_neutral	0.0		194.7495484226165	
29.0	172.90006465767146	pulse	1.0	t		31.0	female	west_asian	2.364902506963788	neutral	006	sub-09	1.0	6.0	006_neutral	0.0		195.44953441647522	
29.0	173.60006423507002	pulse	1.0	t		31.0	female	west_asian	2.364902506963788	neutral	006	sub-09	1.0	6.0	006_neutral	0.0		196.14953399387377	
30.0	174.2665981854807	face	0.0		145	54.0	female	white	2.286908077994429	smiling	136	sub-09	1.0	6.0	136_smiling	0.0		196.81606794428444	1.233305522284354
30.0	174.300056567914	pulse	0.0	t		54.0	female	white	2.286908077994429	smiling	136	sub-09	1.0	6.0	136_smiling	0.0		196.84952632671775	
30.0	175.00004708961933	pulse	0.0	t		54.0	female	white	2.286908077994429	smiling	136	sub-09	1.0	6.0	136_smiling	0.0		197.54951684842308	
30.0	175.49990370776504	fix	1.0		443	54.0	female	white	2.286908077994429	smiling	136	sub-09	1.0	6.0	136_smiling	0.0		198.0493734665688	3.7666175042977557
30.0	175.7000249333505	pulse	1.0	t		54.0	female	white	2.286908077994429	smiling	136	sub-09	1.0	6.0	136_smiling	0.0		198.24949469215426	
30.0	176.4000073049283	pulse	1.0	t		54.0	female	white	2.286908077994429	smiling	136	sub-09	1.0	6.0	136_smiling	0.0		198.94947706373205	
30.0	177.10000990089247	pulse	1.0	t		54.0	female	white	2.286908077994429	smiling	136	sub-09	1.0	6.0	136_smiling	0.0		199.64947965969623	
30.0	177.79999136690094	pulse	1.0	t		54.0	female	white	2.286908077994429	smiling	136	sub-09	1.0	6.0	136_smiling	0.0		200.3494611257047	
30.0	178.49998822759517	pulse	1.0	t		54.0	female	white	2.286908077994429	smiling	136	sub-09	1.0	6.0	136_smiling	0.0		201.04945798639892	
30.0	179.19997059917296	pulse	1.0	t		54.0	female	white	2.286908077994429	smiling	136	sub-09	1.0	6.0	136_smiling	0.0		201.7494403579767	
31.0	179.2665212120628	face	0.0		146	27.0	female	white	3.504576203740549	smiling	144	sub-09	1.0	6.0	144_smiling	0.0		201.81599097086655	1.2333287652363651
31.0	179.89997047842917	pulse	0.0	t		27.0	female	white	3.504576203740549	smiling	144	sub-09	1.0	6.0	144_smiling	0.0		202.44944023723292	
31.0	180.49984997729916	fix	1.0		443	27.0	female	white	3.504576203740549	smiling	144	sub-09	1.0	6.0	144_smiling	0.0		203.04931973610292	3.7665782629483147
31.0	180.599950133299	pulse	1.0	t		27.0	female	white	3.504576203740549	smiling	144	sub-09	1.0	6.0	144_smiling	0.0		203.14941989210274	
31.0	181.29993069373813	pulse	1.0	t		27.0	female	white	3.504576203740549	smiling	144	sub-09	1.0	6.0	144_smiling	0.0		203.8494004525419	
31.0	181.999930874852	pulse	1.0	t		27.0	female	white	3.504576203740549	smiling	144	sub-09	1.0	6.0	144_smiling	0.0		204.54940063365575	
31.0	182.699922000269	pulse	1.0	t		27.0	female	white	3.504576203740549	smiling	144	sub-09	1.0	6.0	144_smiling	0.0		205.24939175907275	
31.0	183.40002269961042	pulse	1.0	t		27.0	female	white	3.504576203740549	smiling	144	sub-09	1.0	6.0	144_smiling	0.0		205.94949245841417	
31.0	184.0998976102601	pulse	1.0	t		27.0	female	white	3.504576203740549	smiling	144	sub-09	1.0	6.0	144_smiling	0.0		206.64936736906384	
32.0	184.26642824024748	face	0.0		146	24.0	female	east_asian	4.409868682849185	neutral	030	sub-09	1.0	6.0	030_neutral	0.0		206.81589799905123	1.2333462729184248
32.0	184.79989628209296	pulse	0.0	t		24.0	female	east_asian	4.409868682849185	neutral	030	sub-09	1.0	6.0	030_neutral	0.0		207.3493660408967	
32.0	185.4997745131659	fix	1.0		444	24.0	female	east_asian	4.409868682849185	neutral	030	sub-09	1.0	6.0	030_neutral	0.0		208.04924427196966	3.7583774245103996
32.0	185.50722312510698	pulse	1.0	t		24.0	female	east_asian	4.409868682849185	neutral	030	sub-09	1.0	6.0	030_neutral	0.0		208.05669288391073	
32.0	186.1998622326755	pulse	1.0	t		24.0	female	east_asian	4.409868682849185	neutral	030	sub-09	1.0	6.0	030_neutral	0.0		208.74933199147927	
32.0	186.899840981976	pulse	1.0	t		24.0	female	east_asian	4.409868682849185	neutral	030	sub-09	1.0	6.0	030_neutral	0.0		209.44931074077977	
32.0	187.59983391853166	pulse	1.0	t		24.0	female	east_asian	4.409868682849185	neutral	030	sub-09	1.0	6.0	030_neutral	0.0		210.1493036773354	
32.0	188.2998253458063	pulse	1.0	t		24.0	female	east_asian	4.409868682849185	neutral	030	sub-09	1.0	6.0	030_neutral	0.0		210.84929510461006	
32.0	188.99980681181478	pulse	1.0	t		24.0	female	east_asian	4.409868682849185	neutral	030	sub-09	1.0	6.0	030_neutral	0.0		211.54927657061853	
33.0	189.2581519376763	face	0.0		146	25.0	female	black	3.858336649423	smiling	126	sub-09	1.0	6.0	126_smiling	0.0		211.80762169648006	1.241531716670579
33.0	189.69982238761077	pulse	0.0	t		25.0	female	black	3.858336649423	smiling	126	sub-09	1.0	6.0	126_smiling	0.0		212.24929214641452	
33.0	190.39980626847318	pulse	0.0	t		25.0	female	black	3.858336649423	smiling	126	sub-09	1.0	6.0	126_smiling	0.0		212.94927602727694	
33.0	190.49968365434688	fix	1.0		444	25.0	female	black	3.858336649423	smiling	126	sub-09	1.0	6.0	126_smiling	0.0		213.04915341315063	3.7666114671665127
33.0	191.09980282730976	pulse	1.0	t		25.0	female	black	3.858336649423	smiling	126	sub-09	1.0	6.0	126_smiling	0.0		213.6492725861135	
33.0	191.79977885989865	pulse	1.0	t		25.0	female	black	3.858336649423	smiling	126	sub-09	1.0	6.0	126_smiling	0.0		214.3492486187024	
33.0	192.49976455189972	pulse	1.0	t		25.0	female	black	3.858336649423	smiling	126	sub-09	1.0	6.0	126_smiling	0.0		215.04923431070347	
33.0	193.1997777128454	pulse	1.0	t		25.0	female	black	3.858336649423	smiling	126	sub-09	1.0	6.0	126_smiling	0.0		215.74924747164914	
33.0	193.89974468973742	pulse	1.0	t		25.0	female	black	3.858336649423	smiling	126	sub-09	1.0	6.0	126_smiling	0.0		216.44921444854117	
34.0	194.2662951215134	face	0.0		145	27.0	female	white	3.504576203740549	neutral	144	sub-09	1.0	6.0	144_neutral	1.0	attractiveness	216.81576488031715	1.2333305763786484
34.0	194.59974577642424	pulse	0.0	t		27.0	female	white	3.504576203740549	neutral	144	sub-09	1.0	6.0	144_neutral	1.0	attractiveness	217.149215535228	
34.0	195.29972573314808	pulse	0.0	t		27.0	female	white	3.504576203740549	neutral	144	sub-09	1.0	6.0	144_neutral	1.0	attractiveness	217.84919549195183	
34.0	195.49962569789204	fix	1.0		177	27.0	female	white	3.504576203740549	neutral	144	sub-09	1.0	6.0	144_neutral	1.0	attractiveness	218.0490954566958	1.4999764551903354
34.0	195.9997198771307	pulse	1.0	t		27.0	female	white	3.504576203740549	neutral	144	sub-09	1.0	6.0	144_neutral	1.0	attractiveness	218.54918963593445	
34.0	196.69971885082123	pulse	1.0	t		27.0	female	white	3.504576203740549	neutral	144	sub-09	1.0	6.0	144_neutral	1.0	attractiveness	219.24918860962498	
34.0	196.99960215308238	rating	2.0		295	27.0	female	white	3.504576203740549	neutral	144	sub-09	1.0	6.0	144_neutral	1.0	attractiveness	219.54907191188613	2.4999610605045746
34.0	197.39971178737687	pulse	2.0	t		27.0	female	white	3.504576203740549	neutral	144	sub-09	1.0	6.0	144_neutral	1.0	attractiveness	219.94918154618063	
34.0	197.9496856465994	response	2.0	b		27.0	female	white	3.504576203740549	neutral	144	sub-09	1.0	6.0	144_neutral	1.0	attractiveness	220.49915540540314	
34.0	198.0996857069731	pulse	2.0	t		27.0	female	white	3.504576203740549	neutral	144	sub-09	1.0	6.0	144_neutral	1.0	attractiveness	220.64915546577686	
34.0	198.7996623432773	pulse	2.0	t		27.0	female	white	3.504576203740549	neutral	144	sub-09	1.0	6.0	144_neutral	1.0	attractiveness	221.34913210208106	
34.0	199.49956321358695	fix	3.0		444	27.0	female	white	3.504576203740549	neutral	144	sub-09	1.0	6.0	144_neutral	1.0	attractiveness	222.0490329723907	3.766582790798566
34.0	199.50750113497998	pulse	3.0	t		27.0	female	white	3.504576203740549	neutral	144	sub-09	1.0	6.0	144_neutral	1.0	attractiveness	222.05697089378373	
34.0	200.19965214052354	pulse	3.0	t		27.0	female	white	3.504576203740549	neutral	144	sub-09	1.0	6.0	144_neutral	1.0	attractiveness	222.7491218993273	
34.0	200.8996378325246	pulse	3.0	t		27.0	female	white	3.504576203740549	neutral	144	sub-09	1.0	6.0	144_neutral	1.0	attractiveness	223.44910759132836	
34.0	201.5996368062115	pulse	3.0	t		27.0	female	white	3.504576203740549	neutral	144	sub-09	1.0	6.0	144_neutral	1.0	attractiveness	224.14910656501524	
34.0	202.29962098892793	pulse	3.0	t		27.0	female	white	3.504576203740549	neutral	144	sub-09	1.0	6.0	144_neutral	1.0	attractiveness	224.84909074773168	
34.0	202.99960215308238	pulse	3.0	t		27.0	female	white	3.504576203740549	neutral	144	sub-09	1.0	6.0	144_neutral	1.0	attractiveness	225.54907191188613	
35.0	203.26614600438552	face	0.0		145	20.0	male	black	2.609629924393156	smiling	043	sub-09	1.0	6.0	043_smiling	0.0		225.81561576318927	1.2333420469258272
35.0	203.69960323976557	pulse	0.0	t		20.0	male	black	2.609629924393156	smiling	043	sub-09	1.0	6.0	043_smiling	0.0		226.24907299856932	
35.0	204.39958349834706	pulse	0.0	t		20.0	male	black	2.609629924393156	smiling	043	sub-09	1.0	6.0	043_smiling	0.0		226.9490532571508	
35.0	204.49948805131135	fix	1.0		444	20.0	male	black	2.609629924393156	smiling	043	sub-09	1.0	6.0	043_smiling	0.0		227.0489578101151	3.758379839364352
35.0	205.0995915277308	pulse	1.0	t		20.0	male	black	2.609629924393156	smiling	043	sub-09	1.0	6.0	043_smiling	0.0		227.64906128653456	
35.0	205.79958295500546	pulse	1.0	t		20.0	male	black	2.609629924393156	smiling	043	sub-09	1.0	6.0	043_smiling	0.0		228.34905271380921	
35.0	206.4995526486091	pulse	1.0	t		20.0	male	black	2.609629924393156	smiling	043	sub-09	1.0	6.0	043_smiling	0.0		229.04902240741285	
35.0	207.19954739630703	pulse	1.0	t		20.0	male	black	2.609629924393156	smiling	043	sub-09	1.0	6.0	043_smiling	0.0		229.74901715511078	
35.0	207.89952976788481	pulse	1.0	t		20.0	male	black	2.609629924393156	smiling	043	sub-09	1.0	6.0	043_smiling	0.0		230.44899952668857	
36.0	208.2578678906757	face	0.0		146	36.0	female	white	2.7548746518105847	smiling	011	sub-09	1.0	6.0	011_smiling	0.0		230.80733764947945	1.2415462057833793
36.0	208.5995417214035	pulse	0.0	t		36.0	female	white	2.7548746518105847	smiling	011	sub-09	1.0	6.0	011_smiling	0.0		231.14901148020726	
36.0	209.29950990572252	pulse	0.0	t		36.0	female	white	2.7548746518105847	smiling	011	sub-09	1.0	6.0	011_smiling	0.0		231.84897966452627	
36.0	209.49941409645908	fix	1.0		443	36.0	female	white	2.7548746518105847	smiling	011	sub-09	1.0	6.0	011_smiling	0.0		232.04888385526283	3.7583608224013005
36.0	209.99951431282898	pulse	1.0	t		36.0	female	white	2.7548746518105847	smiling	011	sub-09	1.0	6.0	011_smiling	0.0		232.54898407163273	
36.0	210.699502721538	pulse	1.0	t		36.0	female	white	2.7548746518105847	smiling	011	sub-09	1.0	6.0	011_smiling	0.0		233.24897248034176	
36.0	211.3994793578422	pulse	1.0	t		36.0	female	white	2.7548746518105847	smiling	011	sub-09	1.0	6.0	011_smiling	0.0		233.94894911664596	
36.0	211.88279393582343	response	1.0	w		36.0	female	white	2.7548746518105847	smiling	011	sub-09	1.0	6.0	011_smiling	0.0		234.43226369462718	
36.0	212.09944542916855	pulse	1.0	t		36.0	female	white	2.7548746518105847	smiling	011	sub-09	1.0	6.0	011_smiling	0.0		234.6489151879723	
36.0	212.79945406226398	pulse	1.0	t		36.0	female	white	2.7548746518105847	smiling	011	sub-09	1.0	6.0	011_smiling	0.0		235.34892382106773	
37.0	213.25777491886038	face	0.0		146	25.0	female	black	3.858336649423	neutral	126	sub-09	1.0	6.0	126_neutral	0.0		235.80724467766413	1.2415453002140566
37.0	213.49945333780852	pulse	0.0	t		25.0	female	black	3.858336649423	neutral	126	sub-09	1.0	6.0	126_neutral	0.0		236.04892309661227	
37.0	214.1994471799335	pulse	0.0	t		25.0	female	black	3.858336649423	neutral	126	sub-09	1.0	6.0	126_neutral	0.0		236.74891693873724	
37.0	214.49932021907443	fix	1.0		444	25.0	female	black	3.858336649423	neutral	126	sub-09	1.0	6.0	126_neutral	0.0		237.0487899778782	3.7665951669150672
37.0	214.8994289477996	pulse	1.0	t		25.0	female	black	3.858336649423	neutral	126	sub-09	1.0	6.0	126_neutral	0.0		237.44889870660336	
37.0	215.59943154376742	pulse	1.0	t		25.0	female	black	3.858336649423	neutral	126	sub-09	1.0	6.0	126_neutral	0.0		238.14890130257118	
37.0	216.29941059492194	pulse	1.0	t		25.0	female	black	3.858336649423	neutral	126	sub-09	1.0	6.0	126_neutral	0.0		238.8488803537257	
37.0	216.999396286923	pulse	1.0	t		25.0	female	black	3.858336649423	neutral	126	sub-09	1.0	6.0	126_neutral	0.0		239.54886604572675	
37.0	217.6993750362235	pulse	1.0	t		25.0	female	black	3.858336649423	neutral	126	sub-09	1.0	6.0	126_neutral	0.0		240.24884479502725	
38.0	218.2659153859895	face	0.0		145	19.0	female	white	4.298846000795861	smiling	100	sub-09	1.0	6.0	100_smiling	0.0		240.81538514479325	1.233324841101421
38.0	218.39937944332632	pulse	0.0	t		19.0	female	white	4.298846000795861	smiling	100	sub-09	1.0	6.0	100_smiling	0.0		240.94884920213008	
38.0	219.0993636260464	pulse	0.0	t		19.0	female	white	4.298846000795861	smiling	100	sub-09	1.0	6.0	100_smiling	0.0		241.64883338485015	
38.0	219.49924022709092	fix	1.0		444	19.0	female	white	4.298846000795861	smiling	100	sub-09	1.0	6.0	100_smiling	0.0		242.04870998589467	3.766599392907665
38.0	219.7993692405762	pulse	1.0	t		19.0	female	white	4.298846000795861	smiling	100	sub-09	1.0	6.0	100_smiling	0.0		242.34883899937995	
38.0	220.49935402700794	pulse	1.0	t		19.0	female	white	4.298846000795861	smiling	100	sub-09	1.0	6.0	100_smiling	0.0		243.0488237858117	
38.0	221.19933579487042	pulse	1.0	t		19.0	female	white	4.298846000795861	smiling	100	sub-09	1.0	6.0	100_smiling	0.0		243.74880555367417	
38.0	221.89932903328736	pulse	1.0	t		19.0	female	white	4.298846000795861	smiling	100	sub-09	1.0	6.0	100_smiling	0.0		244.4487987920911	
38.0	222.59931502714244	pulse	1.0	t		19.0	female	white	4.298846000795861	smiling	100	sub-09	1.0	6.0	100_smiling	0.0		245.1487847859462	
39.0	223.2658396199986	face	0.0		145	28.0	female	white	5.676880222841227	smiling	124	sub-09	1.0	6.0	124_smiling	1.0	trustworthiness	245.81530937880234	1.2333450654914486
39.0	223.29933996049294	pulse	0.0	t		28.0	female	white	5.676880222841227	smiling	124	sub-09	1.0	6.0	124_smiling	1.0	trustworthiness	245.8488097192967	
39.0	223.99928218515197	pulse	0.0	t		28.0	female	white	5.676880222841227	smiling	124	sub-09	1.0	6.0	124_smiling	1.0	trustworthiness	246.54875194395572	
39.0	224.49918468549004	fix	1.0		177	28.0	female	white	5.676880222841227	smiling	124	sub-09	1.0	6.0	124_smiling	1.0	trustworthiness	247.0486544442938	1.4999746440480521
39.0	224.6992992702326	pulse	1.0	t		28.0	female	white	5.676880222841227	smiling	124	sub-09	1.0	6.0	124_smiling	1.0	trustworthiness	247.24876902903634	
39.0	225.3992740953945	pulse	1.0	t		28.0	female	white	5.676880222841227	smiling	124	sub-09	1.0	6.0	124_smiling	1.0	trustworthiness	247.94874385419826	
39.0	225.9991593295381	rating	2.0		294	28.0	female	white	5.676880222841227	smiling	124	sub-09	1.0	6.0	124_smiling	1.0	trustworthiness	248.54862908834184	2.499966795781802
39.0	226.0992700505194	pulse	2.0	t		28.0	female	white	5.676880222841227	smiling	124	sub-09	1.0	6.0	124_smiling	1.0	trustworthiness	248.64873980932316	
39.0	226.79926389264438	pulse	2.0	t		28.0	female	white	5.676880222841227	smiling	124	sub-09	1.0	6.0	124_smiling	1.0	trustworthiness	249.34873365144813	
39.0	227.02424783387687	response	2.0	g		28.0	female	white	5.676880222841227	smiling	124	sub-09	1.0	6.0	124_smiling	1.0	trustworthiness	249.57371759268062	
39.0	227.49924626422217	pulse	2.0	t		28.0	female	white	5.676880222841227	smiling	124	sub-09	1.0	6.0	124_smiling	1.0	trustworthiness	250.04871602302592	
39.0	228.19924463419738	pulse	2.0	t		28.0	female	white	5.676880222841227	smiling	124	sub-09	1.0	6.0	124_smiling	1.0	trustworthiness	250.74871439300114	
39.0	228.4991261253199	fix	3.0		445	28.0	female	white	5.676880222841227	smiling	124	sub-09	1.0	6.0	124_smiling	1.0	trustworthiness	251.04859588412364	3.758279924852104
39.0	228.89921915750529	pulse	3.0	t		28.0	female	white	5.676880222841227	smiling	124	sub-09	1.0	6.0	124_smiling	1.0	trustworthiness	251.44868891630904	
39.0	229.59921149034926	pulse	3.0	t		28.0	female	white	5.676880222841227	smiling	124	sub-09	1.0	6.0	124_smiling	1.0	trustworthiness	252.14868124915301	
39.0	230.2992044269049	pulse	3.0	t		28.0	female	white	5.676880222841227	smiling	124	sub-09	1.0	6.0	124_smiling	1.0	trustworthiness	252.84867418570866	
39.0	230.9991937411869	pulse	3.0	t		28.0	female	white	5.676880222841227	smiling	124	sub-09	1.0	6.0	124_smiling	1.0	trustworthiness	253.54866349999065	
39.0	231.69918124432297	pulse	3.0	t		28.0	female	white	5.676880222841227	smiling	124	sub-09	1.0	6.0	124_smiling	1.0	trustworthiness	254.24865100312672	
40.0	232.257406050172	fix	0.0		720													254.80687580897575	5.999889520506258
40.0	232.39917901058652	pulse	0.0	t														254.94864876939027	
40.0	233.09915111904047	pulse	0.0	t														255.64862087784422	
40.0	233.799151602012	pulse	0.0	t														256.34862136081574	
40.0	234.49914031257867	pulse	0.0	t														257.0486100713824	
40.0	235.19912902314172	pulse	0.0	t														257.7485987819455	
40.0	235.8991240726973	pulse	0.0	t														258.44859383150106	
40.0	236.5991043312788	pulse	0.0	t														259.14857409008255	
40.0	237.29909243813017	pulse	0.0	t														259.8485621969339	
40.0	237.99906877257672	pulse	0.0	t														260.5485385313805	
