trial_nr	onset	event_type	phase	response	nr_frames	face_age	face_sex	face_eth	attractiveness	expression	face_id	sub_id	ses	run	trial_type	catch	onset_abs	duration
-1.0	0.061346487684204476	fix	0.0		713												9.7838729609457	5.95788426413219
-1.0	0.7028251326419195	pulse	0.0	t													10.425351605903415	
-1.0	1.4028025842239913	pulse	0.0	t													11.125329057485487	
-1.0	2.102775206158185	pulse	0.0	t													11.825301679419681	
-1.0	2.8027541670053324	pulse	0.0	t													12.525280640266828	
-1.0	3.5027497297660375	pulse	0.0	t													13.225276203027533	
-1.0	4.20272084243561	pulse	0.0	t													13.925247315697106	
-1.0	4.902703727371318	pulse	0.0	t													14.625230200632814	
-1.0	5.6026769530117235	pulse	0.0	t													15.32520342627322	
0.0	6.019230751816394	face	0.0		144	31.0	female	white	2.1822522881018704	smiling	102	sub-03	1.0	4.0	102_smiling	0.0	15.74175722507789	1.2332885886589793
0.0	6.302673421331747	pulse	0.0	t		31.0	female	white	2.1822522881018704	smiling	102	sub-03	1.0	4.0	102_smiling	0.0	16.025199894593243	
0.0	7.002633063587382	pulse	0.0	t		31.0	female	white	2.1822522881018704	smiling	102	sub-03	1.0	4.0	102_smiling	0.0	16.725159536848878	
0.0	7.252519340475374	fix	1.0		444	31.0	female	white	2.1822522881018704	smiling	102	sub-03	1.0	4.0	102_smiling	0.0	16.97504581373687	3.758216966492455
0.0	7.70262409855377	pulse	1.0	t		31.0	female	white	2.1822522881018704	smiling	102	sub-03	1.0	4.0	102_smiling	0.0	17.425150571815266	
0.0	8.402615133520158	pulse	1.0	t		31.0	female	white	2.1822522881018704	smiling	102	sub-03	1.0	4.0	102_smiling	0.0	18.125141606781654	
0.0	9.102621864841694	pulse	1.0	t		31.0	female	white	2.1822522881018704	smiling	102	sub-03	1.0	4.0	102_smiling	0.0	18.82514833810319	
0.0	9.80256188665362	pulse	1.0	t		31.0	female	white	2.1822522881018704	smiling	102	sub-03	1.0	4.0	102_smiling	0.0	19.525088359915117	
0.0	10.502525151145619	pulse	1.0	t		31.0	female	white	2.1822522881018704	smiling	102	sub-03	1.0	4.0	102_smiling	0.0	20.225051624407115	
1.0	11.010736306967829	face	0.0		146	23.0	male	white	2.6275368085953046	neutral	141	sub-03	1.0	4.0	141_neutral	0.0	20.733262780229325	1.241642671869613
1.0	11.202528260231247	pulse	0.0	t		23.0	male	white	2.6275368085953046	neutral	141	sub-03	1.0	4.0	141_neutral	0.0	20.925054733492743	
1.0	11.902523219286195	pulse	0.0	t		23.0	male	white	2.6275368085953046	neutral	141	sub-03	1.0	4.0	141_neutral	0.0	21.62504969254769	
1.0	12.252378978837442	fix	1.0		444	23.0	male	white	2.6275368085953046	neutral	141	sub-03	1.0	4.0	141_neutral	0.0	21.974905452098938	3.758232059141392
1.0	12.602501274574479	pulse	1.0	t		23.0	male	white	2.6275368085953046	neutral	141	sub-03	1.0	4.0	141_neutral	0.0	22.325027747835975	
1.0	13.302479028009202	pulse	1.0	t		23.0	male	white	2.6275368085953046	neutral	141	sub-03	1.0	4.0	141_neutral	0.0	23.025005501270698	
1.0	14.002448329560593	pulse	1.0	t		23.0	male	white	2.6275368085953046	neutral	141	sub-03	1.0	4.0	141_neutral	0.0	23.72497480282209	
1.0	14.702431818202513	pulse	1.0	t		23.0	male	white	2.6275368085953046	neutral	141	sub-03	1.0	4.0	141_neutral	0.0	24.42495829146401	
1.0	15.402422249462688	pulse	1.0	t		23.0	male	white	2.6275368085953046	neutral	141	sub-03	1.0	4.0	141_neutral	0.0	25.124948722724184	
2.0	16.010611037978833	face	0.0		146	19.0	male	white	3.2522881018702745	neutral	018	sub-03	1.0	4.0	018_neutral	0.0	25.73313751124033	1.2416378422221896
2.0	16.10240090845673	pulse	0.0	t		19.0	male	white	3.2522881018702745	neutral	018	sub-03	1.0	4.0	018_neutral	0.0	25.824927381718226	
2.0	16.80236749333153	pulse	0.0	t		19.0	male	white	3.2522881018702745	neutral	018	sub-03	1.0	4.0	018_neutral	0.0	26.524893966593027	
2.0	17.252248880201023	fix	1.0		444	19.0	male	white	3.2522881018702745	neutral	018	sub-03	1.0	4.0	018_neutral	0.0	26.97477535346252	3.758227833199726
2.0	17.50235611347398	pulse	1.0	t		19.0	male	white	3.2522881018702745	neutral	018	sub-03	1.0	4.0	018_neutral	0.0	27.224882586735475	
2.0	18.20234231879249	pulse	1.0	t		19.0	male	white	3.2522881018702745	neutral	018	sub-03	1.0	4.0	018_neutral	0.0	27.924868792053985	
2.0	18.902323090757363	pulse	1.0	t		19.0	male	white	3.2522881018702745	neutral	018	sub-03	1.0	4.0	018_neutral	0.0	28.62484956401886	
2.0	19.602295712691557	pulse	1.0	t		19.0	male	white	3.2522881018702745	neutral	018	sub-03	1.0	4.0	018_neutral	0.0	29.324822185953053	
2.0	20.302285540245975	pulse	1.0	t		19.0	male	white	3.2522881018702745	neutral	018	sub-03	1.0	4.0	018_neutral	0.0	30.02481201350747	
3.0	21.01047671340075	face	0.0		147	54.0	female	white	2.286908077994429	smiling	136	sub-03	1.0	4.0	136_smiling	0.0	30.733003186662245	1.241636332957114
3.0	21.002872734857647	pulse	0.0	t		54.0	female	white	2.286908077994429	smiling	136	sub-03	1.0	4.0	136_smiling	0.0	30.725399208119143	
3.0	21.702244669351785	pulse	0.0	t		54.0	female	white	2.286908077994429	smiling	136	sub-03	1.0	4.0	136_smiling	0.0	31.42477114261328	
3.0	22.252113046357863	fix	1.0		443	54.0	female	white	2.286908077994429	smiling	136	sub-03	1.0	4.0	136_smiling	0.0	31.97463951961936	3.7582160609331368
3.0	22.402228157993704	pulse	1.0	t		54.0	female	white	2.286908077994429	smiling	136	sub-03	1.0	4.0	136_smiling	0.0	32.1247546312552	
3.0	23.1022104392232	pulse	1.0	t		54.0	female	white	2.286908077994429	smiling	136	sub-03	1.0	4.0	136_smiling	0.0	32.824736912484695	
3.0	23.802184268569818	pulse	1.0	t		54.0	female	white	2.286908077994429	smiling	136	sub-03	1.0	4.0	136_smiling	0.0	33.52471074183131	
3.0	24.502171681300297	pulse	1.0	t		54.0	female	white	2.286908077994429	smiling	136	sub-03	1.0	4.0	136_smiling	0.0	34.22469815456179	
3.0	25.20214128470434	pulse	1.0	t		54.0	female	white	2.286908077994429	smiling	136	sub-03	1.0	4.0	136_smiling	0.0	34.924667757965835	
3.0	25.902126282611334	pulse	1.0	t		54.0	female	white	2.286908077994429	smiling	136	sub-03	1.0	4.0	136_smiling	0.0	35.62465275587283	
4.0	26.010329107291	face	0.0		147	31.0	female	west_asian	2.364902506963788	smiling	006	sub-03	1.0	4.0	006_smiling	0.0	35.732855580552496	1.2416502181945361
4.0	26.60211037495901	pulse	0.0	t		31.0	female	west_asian	2.364902506963788	smiling	006	sub-03	1.0	4.0	006_smiling	0.0	36.32463684822051	
4.0	27.251979325485536	fix	1.0		443	31.0	female	west_asian	2.364902506963788	smiling	006	sub-03	1.0	4.0	006_smiling	0.0	36.97450579874703	3.7582151553742733
4.0	27.302095674718657	pulse	1.0	t		31.0	female	west_asian	2.364902506963788	smiling	006	sub-03	1.0	4.0	006_smiling	0.0	37.02462214798015	
4.0	28.00207886150747	pulse	1.0	t		31.0	female	west_asian	2.364902506963788	smiling	006	sub-03	1.0	4.0	006_smiling	0.0	37.72460533476897	
4.0	28.702062953855147	pulse	1.0	t		31.0	female	west_asian	2.364902506963788	smiling	006	sub-03	1.0	4.0	006_smiling	0.0	38.42458942711664	
4.0	29.402037688760174	pulse	1.0	t		31.0	female	west_asian	2.364902506963788	smiling	006	sub-03	1.0	4.0	006_smiling	0.0	39.12456416202167	
4.0	30.10200668845846	pulse	1.0	t		31.0	female	west_asian	2.364902506963788	smiling	006	sub-03	1.0	4.0	006_smiling	0.0	39.824533161719955	
4.0	30.801991082659242	pulse	1.0	t		31.0	female	west_asian	2.364902506963788	smiling	006	sub-03	1.0	4.0	006_smiling	0.0	40.52451755592074	
5.0	31.01019448085981	face	0.0		146	34.0	male	white	2.651014723438122	neutral	121	sub-03	1.0	4.0	121_neutral	0.0	40.732720954121305	1.241649614488324
5.0	31.501992380627144	pulse	0.0	t		34.0	male	white	2.651014723438122	neutral	121	sub-03	1.0	4.0	121_neutral	0.0	41.22451885388864	
5.0	32.201958059942626	pulse	0.0	t		34.0	male	white	2.651014723438122	neutral	121	sub-03	1.0	4.0	121_neutral	0.0	41.92448453320412	
5.0	32.25184409534813	fix	1.0		445	34.0	male	white	2.651014723438122	neutral	121	sub-03	1.0	4.0	121_neutral	0.0	41.97437056860963	3.7582154572273794
5.0	32.90195241529182	pulse	1.0	t		34.0	male	white	2.651014723438122	neutral	121	sub-03	1.0	4.0	121_neutral	0.0	42.62447888855331	
5.0	33.60192050943124	pulse	1.0	t		34.0	male	white	2.651014723438122	neutral	121	sub-03	1.0	4.0	121_neutral	0.0	43.324446982692734	
5.0	34.301898262866416	pulse	1.0	t		34.0	male	white	2.651014723438122	neutral	121	sub-03	1.0	4.0	121_neutral	0.0	44.02442473612791	
5.0	35.001888090420834	pulse	1.0	t		34.0	male	white	2.651014723438122	neutral	121	sub-03	1.0	4.0	121_neutral	0.0	44.72441456368233	
5.0	35.70187006979768	pulse	1.0	t		34.0	male	white	2.651014723438122	neutral	121	sub-03	1.0	4.0	121_neutral	0.0	45.424396543059174	
6.0	36.01005955257551	face	0.0		146	20.0	male	black	2.609629924393156	neutral	043	sub-03	1.0	4.0	043_neutral	0.0	45.73258602583701	1.2416622923137766
6.0	36.401857784381264	pulse	0.0	t		20.0	male	black	2.609629924393156	neutral	043	sub-03	1.0	4.0	043_neutral	0.0	46.12438425764276	
6.0	37.10181501181296	pulse	0.0	t		20.0	male	black	2.609629924393156	neutral	043	sub-03	1.0	4.0	043_neutral	0.0	46.824341485074456	
6.0	37.25172184488929	fix	1.0		444	20.0	male	black	2.609629924393156	neutral	043	sub-03	1.0	4.0	043_neutral	0.0	46.974248318150785	3.7582015719899573
6.0	37.80180876345639	pulse	1.0	t		20.0	male	black	2.609629924393156	neutral	043	sub-03	1.0	4.0	043_neutral	0.0	47.52433523671789	
6.0	38.501794365069145	pulse	1.0	t		20.0	male	black	2.609629924393156	neutral	043	sub-03	1.0	4.0	043_neutral	0.0	48.22432083833064	
6.0	39.201773627768944	pulse	1.0	t		20.0	male	black	2.609629924393156	neutral	043	sub-03	1.0	4.0	043_neutral	0.0	48.92430010103044	
6.0	39.901745344144274	pulse	1.0	t		20.0	male	black	2.609629924393156	neutral	043	sub-03	1.0	4.0	043_neutral	0.0	49.62427181740577	
6.0	40.601726417962254	pulse	1.0	t		20.0	male	black	2.609629924393156	neutral	043	sub-03	1.0	4.0	043_neutral	0.0	50.32425289122375	
7.0	41.009923416879246	face	0.0		146	20.0	female	white	3.9502586549940313	smiling	091	sub-03	1.0	4.0	091_smiling	0.0	50.73244989014074	1.2416647071377156
7.0	41.301717151075536	pulse	0.0	t		20.0	female	white	3.9502586549940313	smiling	091	sub-03	1.0	4.0	091_smiling	0.0	51.02424362433703	
7.0	42.00169188598056	pulse	0.0	t		20.0	female	white	3.9502586549940313	smiling	091	sub-03	1.0	4.0	091_smiling	0.0	51.72421835924206	
7.0	42.25158812401696	fix	1.0		444	20.0	female	white	3.9502586549940313	smiling	091	sub-03	1.0	4.0	091_smiling	0.0	51.97411459727846	3.766532714373625
7.0	42.70167416721051	pulse	1.0	t		20.0	female	white	3.9502586549940313	smiling	091	sub-03	1.0	4.0	091_smiling	0.0	52.42420064047201	
7.0	43.40165976882281	pulse	1.0	t		20.0	female	white	3.9502586549940313	smiling	091	sub-03	1.0	4.0	091_smiling	0.0	53.124186242084306	
7.0	44.101619109225794	pulse	1.0	t		20.0	female	white	3.9502586549940313	smiling	091	sub-03	1.0	4.0	091_smiling	0.0	53.82414558248729	
7.0	44.801614671986954	pulse	1.0	t		20.0	female	white	3.9502586549940313	smiling	091	sub-03	1.0	4.0	091_smiling	0.0	54.52414114524845	
7.0	45.50161234771895	pulse	1.0	t		20.0	female	white	3.9502586549940313	smiling	091	sub-03	1.0	4.0	091_smiling	0.0	55.22413882098044	
8.0	46.01812083839059	face	0.0		145	26.0	male	white	2.7966573816155993	neutral	117	sub-03	1.0	4.0	117_neutral	0.0	55.74064731165208	1.233317566545793
8.0	46.201582554829656	pulse	0.0	t		26.0	male	white	2.7966573816155993	neutral	117	sub-03	1.0	4.0	117_neutral	0.0	55.92410902809115	
8.0	46.9015521582337	pulse	0.0	t		26.0	male	white	2.7966573816155993	neutral	117	sub-03	1.0	4.0	117_neutral	0.0	56.624078631495195	
8.0	47.25143840493638	fix	1.0		444	26.0	male	white	2.7966573816155993	neutral	117	sub-03	1.0	4.0	117_neutral	0.0	56.973964878197876	3.7665659182021045
8.0	47.6015471172891	pulse	1.0	t		26.0	male	white	2.7966573816155993	neutral	117	sub-03	1.0	4.0	117_neutral	0.0	57.3240735905506	
8.0	48.301529096665945	pulse	1.0	t		26.0	male	white	2.7966573816155993	neutral	117	sub-03	1.0	4.0	117_neutral	0.0	58.02405556992744	
8.0	49.00149870007044	pulse	1.0	t		26.0	male	white	2.7966573816155993	neutral	117	sub-03	1.0	4.0	117_neutral	0.0	58.72402517333194	
8.0	49.70148218871191	pulse	1.0	t		26.0	male	white	2.7966573816155993	neutral	117	sub-03	1.0	4.0	117_neutral	0.0	59.4240086619734	
8.0	50.40146718661845	pulse	1.0	t		26.0	male	white	2.7966573816155993	neutral	117	sub-03	1.0	4.0	117_neutral	0.0	60.12399365987994	
9.0	51.018004323138484	face	0.0		145	27.0	male	black	3.5523278949462798	smiling	042	sub-03	1.0	4.0	042_smiling	0.0	60.74053079639998	1.2333124350452636
9.0	51.10144916599529	pulse	0.0	t		27.0	male	black	3.5523278949462798	smiling	042	sub-03	1.0	4.0	042_smiling	0.0	60.82397563925679	
9.0	51.80143899354971	pulse	0.0	t		27.0	male	black	3.5523278949462798	smiling	042	sub-03	1.0	4.0	042_smiling	0.0	61.523965466811205	
9.0	52.25131675818375	fix	1.0		444	27.0	male	black	3.5523278949462798	smiling	042	sub-03	1.0	4.0	042_smiling	0.0	61.973843231445244	3.7665293939908224
9.0	52.501411011778146	pulse	1.0	t		27.0	male	black	3.5523278949462798	smiling	042	sub-03	1.0	4.0	042_smiling	0.0	62.22393748503964	
9.0	53.201394802272716	pulse	1.0	t		27.0	male	black	3.5523278949462798	smiling	042	sub-03	1.0	4.0	042_smiling	0.0	62.92392127553421	
9.0	53.90136591494229	pulse	1.0	t		27.0	male	black	3.5523278949462798	smiling	042	sub-03	1.0	4.0	042_smiling	0.0	63.623892388203785	
9.0	54.60134397023012	pulse	1.0	t		27.0	male	black	3.5523278949462798	smiling	042	sub-03	1.0	4.0	042_smiling	0.0	64.32387044349161	
9.0	55.30132655331272	pulse	1.0	t		27.0	male	black	3.5523278949462798	smiling	042	sub-03	1.0	4.0	042_smiling	0.0	65.02385302657422	
10.0	56.01784615217457	face	0.0		146	25.0	female	black	3.858336649423	neutral	126	sub-03	1.0	4.0	126_neutral	1.0	65.74037262543607	1.2333208869285954
10.0	56.00438230163536	pulse	0.0	t		25.0	female	black	3.858336649423	neutral	126	sub-03	1.0	4.0	126_neutral	1.0	65.72690877489686	
10.0	56.70129503986118	pulse	0.0	t		25.0	female	black	3.858336649423	neutral	126	sub-03	1.0	4.0	126_neutral	1.0	66.42382151312268	
10.0	57.251167039103166	fix	1.0		236	25.0	female	black	3.858336649423	neutral	126	sub-03	1.0	4.0	126_neutral	1.0	66.97369351236466	2.0083033719088235
10.0	57.401277622944235	pulse	1.0	t		25.0	female	black	3.858336649423	neutral	126	sub-03	1.0	4.0	126_neutral	1.0	67.12380409620573	
10.0	58.1012611115857	pulse	1.0	t		25.0	female	black	3.858336649423	neutral	126	sub-03	1.0	4.0	126_neutral	1.0	67.8237875848472	
10.0	58.80123494093186	pulse	1.0	t		25.0	female	black	3.858336649423	neutral	126	sub-03	1.0	4.0	126_neutral	1.0	68.52376141419336	
10.0	59.25947041101199	rating	2.0		234	25.0	female	black	3.858336649423	neutral	126	sub-03	1.0	4.0	126_neutral	1.0	68.98199688427349	1.9915882628692998
10.0	59.50122356107431	pulse	2.0	t		25.0	female	black	3.858336649423	neutral	126	sub-03	1.0	4.0	126_neutral	1.0	69.22375003433581	
10.0	59.967867447902336	response	2.0	b		25.0	female	black	3.858336649423	neutral	126	sub-03	1.0	4.0	126_neutral	1.0	69.69039392116383	
10.0	60.201187127419416	pulse	2.0	t		25.0	female	black	3.858336649423	neutral	126	sub-03	1.0	4.0	126_neutral	1.0	69.92371360068091	
10.0	60.90117484200255	pulse	2.0	t		25.0	female	black	3.858336649423	neutral	126	sub-03	1.0	4.0	126_neutral	1.0	70.62370131526404	
10.0	61.25105867388129	fix	3.0		444	25.0	female	black	3.858336649423	neutral	126	sub-03	1.0	4.0	126_neutral	1.0	70.97358514714278	3.766547505170365
10.0	61.601167688087116	pulse	3.0	t		25.0	female	black	3.858336649423	neutral	126	sub-03	1.0	4.0	126_neutral	1.0	71.32369416134861	
10.0	62.30115570452335	pulse	3.0	t		25.0	female	black	3.858336649423	neutral	126	sub-03	1.0	4.0	126_neutral	1.0	72.02368217778485	
10.0	63.00112017642732	pulse	3.0	t		25.0	female	black	3.858336649423	neutral	126	sub-03	1.0	4.0	126_neutral	1.0	72.72364664968882	
10.0	63.70110336321568	pulse	3.0	t		25.0	female	black	3.858336649423	neutral	126	sub-03	1.0	4.0	126_neutral	1.0	73.42362983647718	
10.0	64.40108534259252	pulse	3.0	t		25.0	female	black	3.858336649423	neutral	126	sub-03	1.0	4.0	126_neutral	1.0	74.12361181585402	
11.0	65.01760617905165	face	0.0		145	25.0	female	west_asian	2.6756864305610826	neutral	064	sub-03	1.0	4.0	064_neutral	1.0	74.74013265231315	1.233317566545793
11.0	65.10107034049952	pulse	0.0	t		25.0	female	west_asian	2.6756864305610826	neutral	064	sub-03	1.0	4.0	064_neutral	1.0	74.82359681376101	
11.0	65.80105865878886	pulse	0.0	t		25.0	female	west_asian	2.6756864305610826	neutral	064	sub-03	1.0	4.0	064_neutral	1.0	75.52358513205036	
11.0	66.25092374559745	fix	1.0		236	25.0	female	west_asian	2.6756864305610826	neutral	064	sub-03	1.0	4.0	064_neutral	1.0	75.97345021885894	1.9999619665236423
11.0	66.5010306770173	pulse	1.0	t		25.0	female	west_asian	2.6756864305610826	neutral	064	sub-03	1.0	4.0	064_neutral	1.0	76.2235571502788	
11.0	67.20100812859937	pulse	1.0	t		25.0	female	west_asian	2.6756864305610826	neutral	064	sub-03	1.0	4.0	064_neutral	1.0	76.92353460186087	
11.0	67.90100188024235	pulse	1.0	t		25.0	female	west_asian	2.6756864305610826	neutral	064	sub-03	1.0	4.0	064_neutral	1.0	77.62352835350384	
11.0	68.25088571212109	rating	2.0		235	25.0	female	west_asian	2.6756864305610826	neutral	064	sub-03	1.0	4.0	064_neutral	1.0	77.97341218538259	1.9999447609038725
11.0	68.600987180002	pulse	2.0	t		25.0	female	west_asian	2.6756864305610826	neutral	064	sub-03	1.0	4.0	064_neutral	1.0	78.32351365326349	
11.0	69.30095768896535	pulse	2.0	t		25.0	female	west_asian	2.6756864305610826	neutral	064	sub-03	1.0	4.0	064_neutral	1.0	79.02348416222685	
11.0	69.32593300493772	response	2.0	b		25.0	female	west_asian	2.6756864305610826	neutral	064	sub-03	1.0	4.0	064_neutral	1.0	79.04845947819922	
11.0	70.000942988725	pulse	2.0	t		25.0	female	west_asian	2.6756864305610826	neutral	064	sub-03	1.0	4.0	064_neutral	1.0	79.7234694619865	
11.0	70.25083047302496	fix	3.0		444	25.0	female	west_asian	2.6756864305610826	neutral	064	sub-03	1.0	4.0	064_neutral	1.0	79.97335694628646	3.7583078242405463
11.0	70.70092677921957	pulse	3.0	t		25.0	female	west_asian	2.6756864305610826	neutral	064	sub-03	1.0	4.0	064_neutral	1.0	80.42345325248107	
11.0	71.4008954770652	pulse	3.0	t		25.0	female	west_asian	2.6756864305610826	neutral	064	sub-03	1.0	4.0	064_neutral	1.0	81.1234219503267	
11.0	72.10087172123531	pulse	3.0	t		25.0	female	west_asian	2.6756864305610826	neutral	064	sub-03	1.0	4.0	064_neutral	1.0	81.8233981944968	
11.0	72.80086577473139	pulse	3.0	t		25.0	female	west_asian	2.6756864305610826	neutral	064	sub-03	1.0	4.0	064_neutral	1.0	82.52339224799289	
11.0	73.50084745225513	pulse	3.0	t		25.0	female	west_asian	2.6756864305610826	neutral	064	sub-03	1.0	4.0	064_neutral	1.0	83.22337392551663	
12.0	74.00913829726551	face	0.0		146	31.0	female	east_asian	3.395941106247513	neutral	087	sub-03	1.0	4.0	087_neutral	1.0	83.731664770527	1.2415466826205375
12.0	74.20083667610379	pulse	0.0	t		31.0	female	east_asian	3.395941106247513	neutral	087	sub-03	1.0	4.0	087_neutral	1.0	83.92336314936529	
12.0	74.9008044683901	pulse	0.0	t		31.0	female	east_asian	3.395941106247513	neutral	087	sub-03	1.0	4.0	087_neutral	1.0	84.6233309416516	
12.0	75.25068497988605	fix	1.0		236	31.0	female	east_asian	3.395941106247513	neutral	087	sub-03	1.0	4.0	087_neutral	1.0	84.97321145314754	1.999943251638797
12.0	75.60078433479612	pulse	1.0	t		31.0	female	east_asian	3.395941106247513	neutral	087	sub-03	1.0	4.0	087_neutral	1.0	85.32331080805761	
12.0	76.3007753697625	pulse	1.0	t		31.0	female	east_asian	3.395941106247513	neutral	087	sub-03	1.0	4.0	087_neutral	1.0	86.023301843024	
12.0	77.00074648243162	pulse	1.0	t		31.0	female	east_asian	3.395941106247513	neutral	087	sub-03	1.0	4.0	087_neutral	1.0	86.72327295569312	
12.0	77.25062823152484	rating	2.0		235	31.0	female	east_asian	3.395941106247513	neutral	087	sub-03	1.0	4.0	087_neutral	1.0	86.97315470478634	1.9999601554059154
12.0	77.7007305747793	pulse	2.0	t		31.0	female	east_asian	3.395941106247513	neutral	087	sub-03	1.0	4.0	087_neutral	1.0	87.4232570480408	
12.0	77.86737968366424	response	2.0	e		31.0	female	east_asian	3.395941106247513	neutral	087	sub-03	1.0	4.0	087_neutral	1.0	87.58990615692574	
12.0	78.40068478368175	pulse	2.0	t		31.0	female	east_asian	3.395941106247513	neutral	087	sub-03	1.0	4.0	087_neutral	1.0	88.12321125694325	
12.0	79.10069392982723	pulse	2.0	t		31.0	female	east_asian	3.395941106247513	neutral	087	sub-03	1.0	4.0	087_neutral	1.0	88.82322040308873	
12.0	79.25058838693076	fix	3.0		444	31.0	female	east_asian	3.395941106247513	neutral	087	sub-03	1.0	4.0	087_neutral	1.0	88.97311486019225	3.76653150696211
12.0	79.80067017399733	pulse	3.0	t		31.0	female	east_asian	3.395941106247513	neutral	087	sub-03	1.0	4.0	087_neutral	1.0	89.52319664725883	
12.0	80.5006476255794	pulse	3.0	t		31.0	female	east_asian	3.395941106247513	neutral	087	sub-03	1.0	4.0	087_neutral	1.0	90.2231740988409	
12.0	81.20063594386875	pulse	3.0	t		31.0	female	east_asian	3.395941106247513	neutral	087	sub-03	1.0	4.0	087_neutral	1.0	90.92316241713024	
12.0	81.90062063992264	pulse	3.0	t		31.0	female	east_asian	3.395941106247513	neutral	087	sub-03	1.0	4.0	087_neutral	1.0	91.62314711318413	
12.0	82.6005941674157	pulse	3.0	t		31.0	female	east_asian	3.395941106247513	neutral	087	sub-03	1.0	4.0	087_neutral	1.0	92.32312064067719	
13.0	83.01711989389287	face	0.0		145	28.0	male	white	3.9076800636689217	smiling	033	sub-03	1.0	4.0	033_smiling	1.0	92.73964636715436	1.2333169628395808
13.0	83.30057765605716	pulse	0.0	t		28.0	male	white	3.9076800636689217	smiling	033	sub-03	1.0	4.0	033_smiling	1.0	93.02310412931865	
13.0	84.00056235211105	pulse	0.0	t		28.0	male	white	3.9076800636689217	smiling	033	sub-03	1.0	4.0	033_smiling	1.0	93.72308882537254	
13.0	84.25043685673245	fix	1.0		236	28.0	male	white	3.9076800636689217	smiling	033	sub-03	1.0	4.0	033_smiling	1.0	93.97296332999395	1.9999474775809176
13.0	84.70053648331032	pulse	1.0	t		28.0	male	white	3.9076800636689217	smiling	033	sub-03	1.0	4.0	033_smiling	1.0	94.42306295657181	
13.0	85.40051876453981	pulse	1.0	t		28.0	male	white	3.9076800636689217	smiling	033	sub-03	1.0	4.0	033_smiling	1.0	95.1230452378013	
13.0	86.10049531056302	pulse	1.0	t		28.0	male	white	3.9076800636689217	smiling	033	sub-03	1.0	4.0	033_smiling	1.0	95.82302178382452	
13.0	86.25038433431337	rating	2.0		235	28.0	male	white	3.9076800636689217	smiling	033	sub-03	1.0	4.0	033_smiling	1.0	95.97291080757486	1.9999583442877338
13.0	86.8004830251466	pulse	2.0	t		28.0	male	white	3.9076800636689217	smiling	033	sub-03	1.0	4.0	033_smiling	1.0	96.5230094984081	
13.0	87.30046989454195	response	2.0	e		28.0	male	white	3.9076800636689217	smiling	033	sub-03	1.0	4.0	033_smiling	1.0	97.02299636780344	
13.0	87.50045443966883	pulse	2.0	t		28.0	male	white	3.9076800636689217	smiling	033	sub-03	1.0	4.0	033_smiling	1.0	97.22298091293032	
13.0	88.20044849316491	pulse	2.0	t		28.0	male	white	3.9076800636689217	smiling	033	sub-03	1.0	4.0	033_smiling	1.0	97.92297496642641	
13.0	88.2503426786011	fix	3.0		445	28.0	male	white	3.9076800636689217	smiling	033	sub-03	1.0	4.0	033_smiling	1.0	97.9728691518626	3.758213947962304
13.0	88.90043560404274	pulse	3.0	t		28.0	male	white	3.9076800636689217	smiling	033	sub-03	1.0	4.0	033_smiling	1.0	98.62296207730424	
13.0	89.60041064080087	pulse	3.0	t		28.0	male	white	3.9076800636689217	smiling	033	sub-03	1.0	4.0	033_smiling	1.0	99.32293711406237	
13.0	90.30039684611938	pulse	3.0	t		28.0	male	white	3.9076800636689217	smiling	033	sub-03	1.0	4.0	033_smiling	1.0	100.02292331938088	
13.0	91.00036041246403	pulse	3.0	t		28.0	male	white	3.9076800636689217	smiling	033	sub-03	1.0	4.0	033_smiling	1.0	100.72288688572553	
13.0	91.70035446596012	pulse	3.0	t		28.0	male	white	3.9076800636689217	smiling	033	sub-03	1.0	4.0	033_smiling	1.0	101.42288093922161	
14.0	92.0085566265634	face	0.0		146	19.0	female	white	4.298846000795861	neutral	100	sub-03	1.0	4.0	100_neutral	0.0	101.7310830998249	1.2416351255455993
14.0	92.40033191754219	pulse	0.0	t		19.0	female	white	4.298846000795861	neutral	100	sub-03	1.0	4.0	100_neutral	0.0	102.12285839080369	
14.0	93.10030423762373	pulse	0.0	t		19.0	female	white	4.298846000795861	neutral	100	sub-03	1.0	4.0	100_neutral	0.0	102.82283071088523	
14.0	93.250191752109	fix	1.0		444	19.0	female	white	4.298846000795861	neutral	100	sub-03	1.0	4.0	100_neutral	0.0	102.9727182253705	3.758363667042886
14.0	93.80029165035421	pulse	1.0	t		19.0	female	white	4.298846000795861	neutral	100	sub-03	1.0	4.0	100_neutral	0.0	103.5228181236157	
14.0	94.50026970564204	pulse	1.0	t		19.0	female	white	4.298846000795861	neutral	100	sub-03	1.0	4.0	100_neutral	0.0	104.22279617890354	
14.0	95.20022149972056	pulse	1.0	t		19.0	female	white	4.298846000795861	neutral	100	sub-03	1.0	4.0	100_neutral	0.0	104.92274797298205	
14.0	95.90024694592694	pulse	1.0	t		19.0	female	white	4.298846000795861	neutral	100	sub-03	1.0	4.0	100_neutral	0.0	105.62277341918843	
14.0	96.60022137897931	pulse	1.0	t		19.0	female	white	4.298846000795861	neutral	100	sub-03	1.0	4.0	100_neutral	0.0	106.32274785224081	
15.0	97.00855541915189	face	0.0		146	22.0	female	west_asian	3.8205332272184642	neutral	066	sub-03	1.0	4.0	066_neutral	0.0	106.73108189241339	1.241515893615997
15.0	97.30020939541555	pulse	0.0	t		22.0	female	west_asian	3.8205332272184642	neutral	066	sub-03	1.0	4.0	066_neutral	0.0	107.02273586867705	
15.0	98.00017537658414	pulse	0.0	t		22.0	female	west_asian	3.8205332272184642	neutral	066	sub-03	1.0	4.0	066_neutral	0.0	107.72270184984563	
15.0	98.25007131276789	fix	1.0		444	22.0	female	west_asian	3.8205332272184642	neutral	066	sub-03	1.0	4.0	066_neutral	0.0	107.97259778602938	3.7665339217855944
15.0	98.7001712411984	pulse	1.0	t		22.0	female	west_asian	3.8205332272184642	neutral	066	sub-03	1.0	4.0	066_neutral	0.0	108.4226977144599	
15.0	99.40014869278048	pulse	1.0	t		22.0	female	west_asian	3.8205332272184642	neutral	066	sub-03	1.0	4.0	066_neutral	0.0	109.12267516604197	
15.0	100.10012795548027	pulse	1.0	t		22.0	female	west_asian	3.8205332272184642	neutral	066	sub-03	1.0	4.0	066_neutral	0.0	109.82265442874177	
15.0	100.80010480335659	pulse	1.0	t		22.0	female	west_asian	3.8205332272184642	neutral	066	sub-03	1.0	4.0	066_neutral	0.0	110.52263127661809	
15.0	101.50007984011472	pulse	1.0	t		22.0	female	west_asian	3.8205332272184642	neutral	066	sub-03	1.0	4.0	066_neutral	0.0	111.22260631337622	
16.0	102.01660523455348	face	0.0		145	37.0	male	white	3.898925586947871	neutral	101	sub-03	1.0	4.0	101_neutral	0.0	111.73913170781498	1.233331149930109
16.0	102.20006664913899	pulse	0.0	t		37.0	male	white	3.898925586947871	neutral	101	sub-03	1.0	4.0	101_neutral	0.0	111.92259312240049	
16.0	102.90004953407515	pulse	0.0	t		37.0	male	white	3.898925586947871	neutral	101	sub-03	1.0	4.0	101_neutral	0.0	112.62257600733665	
16.0	103.24993638448359	fix	1.0		444	37.0	male	white	3.898925586947871	neutral	101	sub-03	1.0	4.0	101_neutral	0.0	112.97246285774509	3.7582806574719143
16.0	103.60003694680563	pulse	1.0	t		37.0	male	white	3.898925586947871	neutral	101	sub-03	1.0	4.0	101_neutral	0.0	113.32256342006713	
16.0	104.30000172056225	pulse	1.0	t		37.0	male	white	3.898925586947871	neutral	101	sub-03	1.0	4.0	101_neutral	0.0	114.02252819382375	
16.0	104.99999124626356	pulse	1.0	t		37.0	male	white	3.898925586947871	neutral	101	sub-03	1.0	4.0	101_neutral	0.0	114.72251771952506	
16.0	105.69997714972897	pulse	1.0	t		37.0	male	white	3.898925586947871	neutral	101	sub-03	1.0	4.0	101_neutral	0.0	115.42250362299046	
16.0	106.39994796054543	pulse	1.0	t		37.0	male	white	3.898925586947871	neutral	101	sub-03	1.0	4.0	101_neutral	0.0	116.12247443380693	
17.0	107.0082170419555	face	0.0		146	20.0	male	black	2.609629924393156	smiling	043	sub-03	1.0	4.0	043_smiling	0.0	116.730743515217	1.241566303064701
17.0	107.09994563627743	pulse	0.0	t		20.0	male	black	2.609629924393156	smiling	043	sub-03	1.0	4.0	043_smiling	0.0	116.82247210953892	
17.0	107.79992157859442	pulse	0.0	t		20.0	male	black	2.609629924393156	smiling	043	sub-03	1.0	4.0	043_smiling	0.0	117.52244805185592	
17.0	108.2497833450202	fix	1.0		444	20.0	male	black	2.609629924393156	smiling	043	sub-03	1.0	4.0	043_smiling	0.0	117.9723098182817	3.766564408937029
17.0	108.49989812461763	pulse	1.0	t		20.0	male	black	2.609629924393156	smiling	043	sub-03	1.0	4.0	043_smiling	0.0	118.22242459787913	
17.0	109.1998722558169	pulse	1.0	t		20.0	male	black	2.609629924393156	smiling	043	sub-03	1.0	4.0	043_smiling	0.0	118.9223987290784	
17.0	109.89986389448904	pulse	1.0	t		20.0	male	black	2.609629924393156	smiling	043	sub-03	1.0	4.0	043_smiling	0.0	119.62239036775054	
17.0	110.59983319604044	pulse	1.0	t		20.0	male	black	2.609629924393156	smiling	043	sub-03	1.0	4.0	043_smiling	0.0	120.32235966930193	
17.0	111.29982694768387	pulse	1.0	t		20.0	male	black	2.609629924393156	smiling	043	sub-03	1.0	4.0	043_smiling	0.0	121.02235342094536	
18.0	112.01634775395723	face	0.0		146	25.0	female	west_asian	2.6756864305610826	smiling	064	sub-03	1.0	4.0	064_smiling	0.0	121.73887422721873	1.233318170252005
18.0	112.00252590577793	pulse	0.0	t		25.0	female	west_asian	2.6756864305610826	smiling	064	sub-03	1.0	4.0	064_smiling	0.0	121.72505237903943	
18.0	112.69978849161362	pulse	0.0	t		25.0	female	west_asian	2.6756864305610826	smiling	064	sub-03	1.0	4.0	064_smiling	0.0	122.42231496487511	
18.0	113.24966592420924	fix	1.0		443	25.0	female	west_asian	2.6756864305610826	smiling	064	sub-03	1.0	4.0	064_smiling	0.0	122.97219239747074	3.766550221846501
18.0	113.3997695654316	pulse	1.0	t		25.0	female	west_asian	2.6756864305610826	smiling	064	sub-03	1.0	4.0	064_smiling	0.0	123.1222960386931	
18.0	114.09974973369026	pulse	1.0	t		25.0	female	west_asian	2.6756864305610826	smiling	064	sub-03	1.0	4.0	064_smiling	0.0	123.82227620695176	
18.0	114.79972356303642	pulse	1.0	t		25.0	female	west_asian	2.6756864305610826	smiling	064	sub-03	1.0	4.0	064_smiling	0.0	124.52225003629792	
18.0	115.49970312758933	pulse	1.0	t		25.0	female	west_asian	2.6756864305610826	smiling	064	sub-03	1.0	4.0	064_smiling	0.0	125.22222960085082	
18.0	116.19969476626193	pulse	1.0	t		25.0	female	west_asian	2.6756864305610826	smiling	064	sub-03	1.0	4.0	064_smiling	0.0	125.92222123952342	
18.0	116.89967463266748	pulse	1.0	t		25.0	female	west_asian	2.6756864305610826	smiling	064	sub-03	1.0	4.0	064_smiling	0.0	126.62220110592898	
19.0	117.01621614605574	face	0.0		146	47.0	male	east_asian	2.171110226820533	smiling	024	sub-03	1.0	4.0	024_smiling	0.0	126.73874261931724	1.233317566545793
19.0	117.59965963057448	pulse	0.0	t		47.0	male	east_asian	2.171110226820533	smiling	024	sub-03	1.0	4.0	024_smiling	0.0	127.32218610383597	
19.0	118.24953371260153	fix	1.0		443	47.0	male	east_asian	2.171110226820533	smiling	024	sub-03	1.0	4.0	024_smiling	0.0	127.97206018586303	3.7582583203511604
19.0	118.29963044139049	pulse	1.0	t		47.0	male	east_asian	2.171110226820533	smiling	024	sub-03	1.0	4.0	024_smiling	0.0	128.022156914652	
19.0	118.9996100059434	pulse	1.0	t		47.0	male	east_asian	2.171110226820533	smiling	024	sub-03	1.0	4.0	024_smiling	0.0	128.7221364792049	
19.0	119.69959319273221	pulse	1.0	t		47.0	male	east_asian	2.171110226820533	smiling	024	sub-03	1.0	4.0	024_smiling	0.0	129.4221196659937	
19.0	120.39956309798981	pulse	1.0	t		47.0	male	east_asian	2.171110226820533	smiling	024	sub-03	1.0	4.0	024_smiling	0.0	130.1220895712513	
19.0	121.09954417180779	pulse	1.0	t		47.0	male	east_asian	2.171110226820533	smiling	024	sub-03	1.0	4.0	024_smiling	0.0	130.8220706450693	
19.0	121.7995433568044	pulse	1.0	t		47.0	male	east_asian	2.171110226820533	smiling	024	sub-03	1.0	4.0	024_smiling	0.0	131.5220698300659	
20.0	122.0077920329527	face	0.0		146	22.0	female	white	4.614007162753682	neutral	009	sub-03	1.0	4.0	009_neutral	0.0	131.7303185062142	1.2415895457447732
20.0	122.49951869541565	pulse	0.0	t		22.0	female	white	4.614007162753682	neutral	009	sub-03	1.0	4.0	009_neutral	0.0	132.22204516867714	
20.0	123.19948980808522	pulse	0.0	t		22.0	female	white	4.614007162753682	neutral	009	sub-03	1.0	4.0	009_neutral	0.0	132.9220162813467	
20.0	123.24938157869747	fix	1.0		444	22.0	female	white	4.614007162753682	neutral	009	sub-03	1.0	4.0	009_neutral	0.0	132.97190805195896	3.7665653144958924
20.0	123.89948838937607	pulse	1.0	t		22.0	female	white	4.614007162753682	neutral	009	sub-03	1.0	4.0	009_neutral	0.0	133.62201486263757	
20.0	124.59946342613421	pulse	1.0	t		22.0	female	white	4.614007162753682	neutral	009	sub-03	1.0	4.0	009_neutral	0.0	134.3219898993957	
20.0	125.29943333139136	pulse	1.0	t		22.0	female	white	4.614007162753682	neutral	009	sub-03	1.0	4.0	009_neutral	0.0	135.02195980465285	
20.0	125.99942678118168	pulse	1.0	t		22.0	female	white	4.614007162753682	neutral	009	sub-03	1.0	4.0	009_neutral	0.0	135.72195325444318	
20.0	126.6994069494408	pulse	1.0	t		22.0	female	white	4.614007162753682	neutral	009	sub-03	1.0	4.0	009_neutral	0.0	136.4219334227023	
21.0	127.01594689319336	face	0.0		145	25.0	female	black	3.858336649423	smiling	126	sub-03	1.0	4.0	126_smiling	0.0	136.73847336645485	1.2333172646926869
21.0	127.39939406031817	pulse	0.0	t		25.0	female	black	3.858336649423	smiling	126	sub-03	1.0	4.0	126_smiling	0.0	137.12192053357967	
21.0	128.09936819151744	pulse	0.0	t		25.0	female	black	3.858336649423	smiling	126	sub-03	1.0	4.0	126_smiling	0.0	137.82189466477894	
21.0	128.24926415788605	fix	1.0		444	25.0	female	black	3.858336649423	smiling	126	sub-03	1.0	4.0	126_smiling	0.0	137.97179063114754	3.7665296958439285
21.0	128.79936164130777	pulse	1.0	t		25.0	female	black	3.858336649423	smiling	126	sub-03	1.0	4.0	126_smiling	0.0	138.52188811456926	
21.0	129.49935599665696	pulse	1.0	t		25.0	female	black	3.858336649423	smiling	126	sub-03	1.0	4.0	126_smiling	0.0	139.22188246991846	
21.0	130.19929571661578	pulse	1.0	t		25.0	female	black	3.858336649423	smiling	126	sub-03	1.0	4.0	126_smiling	0.0	139.92182218987728	
21.0	130.89927920525724	pulse	1.0	t		25.0	female	black	3.858336649423	smiling	126	sub-03	1.0	4.0	126_smiling	0.0	140.62180567851874	
21.0	131.59926420316424	pulse	1.0	t		25.0	female	black	3.858336649423	smiling	126	sub-03	1.0	4.0	126_smiling	0.0	141.32179067642574	
22.0	132.01579385372997	face	0.0		146	19.0	male	white	2.243931555909272	smiling	130	sub-03	1.0	4.0	130_smiling	0.0	141.73832032699147	1.2416484070763545
22.0	132.2992513140416	pulse	0.0	t		19.0	male	white	2.243931555909272	smiling	130	sub-03	1.0	4.0	130_smiling	0.0	142.0217777873031	
22.0	132.9992239359758	pulse	0.0	t		19.0	male	white	2.243931555909272	smiling	130	sub-03	1.0	4.0	130_smiling	0.0	142.7217504092373	
22.0	133.25744226080633	fix	1.0		444	19.0	male	white	2.243931555909272	smiling	130	sub-03	1.0	4.0	130_smiling	0.0	142.97996873406782	3.766549618141198
22.0	133.69922372467863	pulse	1.0	t		19.0	male	white	2.243931555909272	smiling	130	sub-03	1.0	4.0	130_smiling	0.0	143.42175019794013	
22.0	134.39920027070184	pulse	1.0	t		19.0	male	white	2.243931555909272	smiling	130	sub-03	1.0	4.0	130_smiling	0.0	144.12172674396334	
22.0	135.09917198707717	pulse	1.0	t		19.0	male	white	2.243931555909272	smiling	130	sub-03	1.0	4.0	130_smiling	0.0	144.82169846033867	
22.0	135.79915487201288	pulse	1.0	t		19.0	male	white	2.243931555909272	smiling	130	sub-03	1.0	4.0	130_smiling	0.0	145.52168134527437	
22.0	136.4991446995673	pulse	1.0	t		19.0	male	white	2.243931555909272	smiling	130	sub-03	1.0	4.0	130_smiling	0.0	146.2216711728288	
23.0	137.02399187894753	face	0.0		145	27.0	female	white	3.504576203740549	smiling	144	sub-03	1.0	4.0	144_smiling	0.0	146.74651835220902	1.233315151721854
23.0	137.19912215114937	pulse	0.0	t		27.0	female	white	3.504576203740549	smiling	144	sub-03	1.0	4.0	144_smiling	0.0	146.92164862441086	
23.0	137.8990974897606	pulse	0.0	t		27.0	female	white	3.504576203740549	smiling	144	sub-03	1.0	4.0	144_smiling	0.0	147.6216239630221	
23.0	138.25730703066938	fix	1.0		1185	27.0	female	white	3.504576203740549	smiling	144	sub-03	1.0	4.0	144_smiling	0.0	147.97983350393088	10.016382165197228
23.0	138.59909063769783	pulse	1.0	t		27.0	female	white	3.504576203740549	smiling	144	sub-03	1.0	4.0	144_smiling	0.0	148.32161711095932	
23.0	139.2990581281315	pulse	1.0	t		27.0	female	white	3.504576203740549	smiling	144	sub-03	1.0	4.0	144_smiling	0.0	149.021584601393	
23.0	139.9990325611834	pulse	1.0	t		27.0	female	white	3.504576203740549	smiling	144	sub-03	1.0	4.0	144_smiling	0.0	149.7215590344449	
23.0	140.69902812394457	pulse	1.0	t		27.0	female	white	3.504576203740549	smiling	144	sub-03	1.0	4.0	144_smiling	0.0	150.42155459720607	
23.0	141.39900587737975	pulse	1.0	t		27.0	female	white	3.504576203740549	smiling	144	sub-03	1.0	4.0	144_smiling	0.0	151.12153235064125	
23.0	142.09898966787432	pulse	1.0	t		27.0	female	white	3.504576203740549	smiling	144	sub-03	1.0	4.0	144_smiling	0.0	151.82151614113582	
23.0	142.79896500648556	pulse	1.0	t		27.0	female	white	3.504576203740549	smiling	144	sub-03	1.0	4.0	144_smiling	0.0	152.52149147974706	
23.0	143.49895211736293	pulse	1.0	t		27.0	female	white	3.504576203740549	smiling	144	sub-03	1.0	4.0	144_smiling	0.0	153.22147859062443	
23.0	144.19893379488667	pulse	1.0	t		27.0	female	white	3.504576203740549	smiling	144	sub-03	1.0	4.0	144_smiling	0.0	153.92146026814817	
23.0	144.89891456685154	pulse	1.0	t		27.0	female	white	3.504576203740549	smiling	144	sub-03	1.0	4.0	144_smiling	0.0	154.62144104011304	
23.0	145.5988850758149	pulse	1.0	t		27.0	female	white	3.504576203740549	smiling	144	sub-03	1.0	4.0	144_smiling	0.0	155.3214115490764	
23.0	146.29887429966357	pulse	1.0	t		27.0	female	white	3.504576203740549	smiling	144	sub-03	1.0	4.0	144_smiling	0.0	156.02140077292506	
23.0	146.9988656364826	pulse	1.0	t		27.0	female	white	3.504576203740549	smiling	144	sub-03	1.0	4.0	144_smiling	0.0	156.7213921097441	
23.0	147.69883403247513	pulse	1.0	t		27.0	female	white	3.504576203740549	smiling	144	sub-03	1.0	4.0	144_smiling	0.0	157.42136050573663	
24.0	148.2736891958666	face	0.0		145	20.0	male	black	3.1070433744528456	neutral	082	sub-03	1.0	4.0	082_neutral	0.0	157.9962156691281	1.233329338812382
24.0	148.39881933223478	pulse	0.0	t		20.0	male	black	3.1070433744528456	neutral	082	sub-03	1.0	4.0	082_neutral	0.0	158.12134580549628	
24.0	149.0988055375533	pulse	0.0	t		20.0	male	black	3.1070433744528456	neutral	082	sub-03	1.0	4.0	082_neutral	0.0	158.82133201081479	
24.0	149.507018534679	fix	1.0		444	20.0	male	black	3.1070433744528456	neutral	082	sub-03	1.0	4.0	082_neutral	0.0	159.2295450079405	3.7665339217855944
24.0	149.7987790650468	pulse	1.0	t		20.0	male	black	3.1070433744528456	neutral	082	sub-03	1.0	4.0	082_neutral	0.0	159.5213055383083	
24.0	150.49875289439296	pulse	1.0	t		20.0	male	black	3.1070433744528456	neutral	082	sub-03	1.0	4.0	082_neutral	0.0	160.22127936765446	
24.0	151.19873879785837	pulse	1.0	t		20.0	male	black	3.1070433744528456	neutral	082	sub-03	1.0	4.0	082_neutral	0.0	160.92126527111986	
24.0	151.8987171549993	pulse	1.0	t		20.0	male	black	3.1070433744528456	neutral	082	sub-03	1.0	4.0	082_neutral	0.0	161.6212436282608	
24.0	152.59869792696418	pulse	1.0	t		20.0	male	black	3.1070433744528456	neutral	082	sub-03	1.0	4.0	082_neutral	0.0	162.32122440022567	
25.0	153.27355245646459	face	0.0		145	40.0	male	white	1.868682849184242	smiling	172	sub-03	1.0	4.0	172_smiling	1.0	162.99607892972608	1.233331149930109
25.0	153.29869409343155	pulse	0.0	t		40.0	male	white	1.868682849184242	smiling	172	sub-03	1.0	4.0	172_smiling	1.0	163.02122056669305	
25.0	153.99867395983756	pulse	0.0	t		40.0	male	white	1.868682849184242	smiling	172	sub-03	1.0	4.0	172_smiling	1.0	163.72120043309906	
25.0	154.5068836063947	fix	1.0		236	40.0	male	white	1.868682849184242	smiling	172	sub-03	1.0	4.0	172_smiling	1.0	164.2294100796562	1.9999462701684934
25.0	154.6986559392144	pulse	1.0	t		40.0	male	white	1.868682849184242	smiling	172	sub-03	1.0	4.0	172_smiling	1.0	164.4211824124759	
25.0	155.3986282592955	pulse	1.0	t		40.0	male	white	1.868682849184242	smiling	172	sub-03	1.0	4.0	172_smiling	1.0	165.121154732557	
25.0	156.09860057937658	pulse	1.0	t		40.0	male	white	1.868682849184242	smiling	172	sub-03	1.0	4.0	172_smiling	1.0	165.82112705263808	
25.0	156.5068298765632	rating	2.0		235	40.0	male	white	1.868682849184242	smiling	172	sub-03	1.0	4.0	172_smiling	1.0	166.22935634982468	1.9999305738137991
25.0	156.7986024810507	pulse	2.0	t		40.0	male	white	1.868682849184242	smiling	172	sub-03	1.0	4.0	172_smiling	1.0	166.5211289543122	
25.0	157.49858929007496	pulse	2.0	t		40.0	male	white	1.868682849184242	smiling	172	sub-03	1.0	4.0	172_smiling	1.0	167.22111576333646	
25.0	157.77356256853955	response	2.0	e		40.0	male	white	1.868682849184242	smiling	172	sub-03	1.0	4.0	172_smiling	1.0	167.49608904180104	
25.0	158.19855044159613	pulse	2.0	t		40.0	male	white	1.868682849184242	smiling	172	sub-03	1.0	4.0	172_smiling	1.0	167.92107691485762	
25.0	158.506760450377	fix	3.0		444	40.0	male	white	1.868682849184242	smiling	172	sub-03	1.0	4.0	172_smiling	1.0	168.22928692363848	3.766549014434986
25.0	158.8985278931782	pulse	3.0	t		40.0	male	white	1.868682849184242	smiling	172	sub-03	1.0	4.0	172_smiling	1.0	168.6210543664397	
25.0	159.59850896699572	pulse	3.0	t		40.0	male	white	1.868682849184242	smiling	172	sub-03	1.0	4.0	172_smiling	1.0	169.32103544025722	
25.0	160.29849728528552	pulse	3.0	t		40.0	male	white	1.868682849184242	smiling	172	sub-03	1.0	4.0	172_smiling	1.0	170.02102375854702	
25.0	160.99847111463168	pulse	3.0	t		40.0	male	white	1.868682849184242	smiling	172	sub-03	1.0	4.0	172_smiling	1.0	170.72099758789318	
25.0	161.69845007547838	pulse	3.0	t		40.0	male	white	1.868682849184242	smiling	172	sub-03	1.0	4.0	172_smiling	1.0	171.42097654873987	
26.0	162.27330946481197	face	0.0		145	26.0	female	white	4.854755272582572	smiling	027	sub-03	1.0	4.0	027_smiling	0.0	171.99583593807347	1.2333133406036723
26.0	162.39842964003128	pulse	0.0	t		26.0	female	white	4.854755272582572	smiling	027	sub-03	1.0	4.0	027_smiling	0.0	172.12095611329278	
26.0	163.09839320637593	pulse	0.0	t		26.0	female	white	4.854755272582572	smiling	027	sub-03	1.0	4.0	027_smiling	0.0	172.82091967963743	
26.0	163.50662280541565	fix	1.0		444	26.0	female	white	4.854755272582572	smiling	027	sub-03	1.0	4.0	027_smiling	0.0	173.22914927867714	3.766551429258925
26.0	163.7984056729042	pulse	1.0	t		26.0	female	white	4.854755272582572	smiling	027	sub-03	1.0	4.0	027_smiling	0.0	173.5209321461657	
26.0	164.49838644486908	pulse	1.0	t		26.0	female	white	4.854755272582572	smiling	027	sub-03	1.0	4.0	027_smiling	0.0	174.22091291813058	
26.0	165.19835876495063	pulse	1.0	t		26.0	female	white	4.854755272582572	smiling	027	sub-03	1.0	4.0	027_smiling	0.0	174.92088523821212	
26.0	165.898345875828	pulse	1.0	t		26.0	female	white	4.854755272582572	smiling	027	sub-03	1.0	4.0	027_smiling	0.0	175.6208723490895	
26.0	166.59835532382658	pulse	1.0	t		26.0	female	white	4.854755272582572	smiling	027	sub-03	1.0	4.0	027_smiling	0.0	176.32088179708808	
27.0	167.27317423467457	face	0.0		145	34.0	male	white	2.651014723438122	smiling	121	sub-03	1.0	4.0	121_smiling	0.0	176.99570070793607	1.2333145480156418
27.0	167.29833277540865	pulse	0.0	t		34.0	male	white	2.651014723438122	smiling	121	sub-03	1.0	4.0	121_smiling	0.0	177.02085924867015	
27.0	167.99828426763406	pulse	0.0	t		34.0	male	white	2.651014723438122	smiling	121	sub-03	1.0	4.0	121_smiling	0.0	177.72081074089556	
27.0	168.5064887826902	fix	1.0		443	34.0	male	white	2.651014723438122	smiling	121	sub-03	1.0	4.0	121_smiling	0.0	178.2290152559517	3.758353102188721
27.0	168.69827651001197	pulse	1.0	t		34.0	male	white	2.651014723438122	smiling	121	sub-03	1.0	4.0	121_smiling	0.0	178.42080298327346	
27.0	169.39823735968002	pulse	1.0	t		34.0	male	white	2.651014723438122	smiling	121	sub-03	1.0	4.0	121_smiling	0.0	179.12076383294152	
27.0	170.09823050761725	pulse	1.0	t		34.0	male	white	2.651014723438122	smiling	121	sub-03	1.0	4.0	121_smiling	0.0	179.82075698087874	
27.0	170.79821127958212	pulse	1.0	t		34.0	male	white	2.651014723438122	smiling	121	sub-03	1.0	4.0	121_smiling	0.0	180.52073775284362	
27.0	171.49819718304752	pulse	1.0	t		34.0	male	white	2.651014723438122	smiling	121	sub-03	1.0	4.0	121_smiling	0.0	181.22072365630902	
27.0	172.19816769201088	pulse	1.0	t		34.0	male	white	2.651014723438122	smiling	121	sub-03	1.0	4.0	121_smiling	0.0	181.92069416527238	
28.0	172.26484188487893	face	0.0		147	26.0	male	white	2.7966573816155993	smiling	117	sub-03	1.0	4.0	117_smiling	0.0	181.98736835814043	1.24150472505562
28.0	172.89815389732985	pulse	0.0	t		26.0	male	white	2.7966573816155993	smiling	117	sub-03	1.0	4.0	117_smiling	0.0	182.62068037059134	
28.0	173.50634660993455	fix	1.0		443	26.0	male	white	2.7966573816155993	smiling	117	sub-03	1.0	4.0	117_smiling	0.0	183.22887308319605	3.766559579289151
28.0	173.598145536002	pulse	1.0	t		26.0	male	white	2.7966573816155993	smiling	117	sub-03	1.0	4.0	117_smiling	0.0	183.3206720092635	
28.0	174.29811121531748	pulse	1.0	t		26.0	male	white	2.7966573816155993	smiling	117	sub-03	1.0	4.0	117_smiling	0.0	184.02063768857897	
28.0	174.99809862804796	pulse	1.0	t		26.0	male	white	2.7966573816155993	smiling	117	sub-03	1.0	4.0	117_smiling	0.0	184.72062510130945	
28.0	175.69810837789964	pulse	1.0	t		26.0	male	white	2.7966573816155993	smiling	117	sub-03	1.0	4.0	117_smiling	0.0	185.42063485116114	
28.0	176.39805534233028	pulse	1.0	t		26.0	male	white	2.7966573816155993	smiling	117	sub-03	1.0	4.0	117_smiling	0.0	186.12058181559178	
28.0	177.09802826611713	pulse	1.0	t		26.0	male	white	2.7966573816155993	smiling	117	sub-03	1.0	4.0	117_smiling	0.0	186.82055473937862	
29.0	177.2729061892237	face	0.0		146	19.0	male	white	2.243931555909272	neutral	130	sub-03	1.0	4.0	130_neutral	0.0	186.9954326624852	1.2416447848409007
29.0	177.7980211122017	pulse	0.0	t		19.0	male	white	2.243931555909272	neutral	130	sub-03	1.0	4.0	130_neutral	0.0	187.5205475854632	
29.0	178.4979937341359	pulse	0.0	t		19.0	male	white	2.243931555909272	neutral	130	sub-03	1.0	4.0	130_neutral	0.0	188.22052020739739	
29.0	178.5145509740646	fix	1.0		443	19.0	male	white	2.243931555909272	neutral	130	sub-03	1.0	4.0	130_neutral	0.0	188.2370774473261	3.749880390754697
29.0	179.19797812833667	pulse	1.0	t		19.0	male	white	2.243931555909272	neutral	130	sub-03	1.0	4.0	130_neutral	0.0	188.92050460159817	
29.0	179.89797912445147	pulse	1.0	t		19.0	male	white	2.243931555909272	neutral	130	sub-03	1.0	4.0	130_neutral	0.0	189.62050559771296	
29.0	180.59794963341483	pulse	1.0	t		19.0	male	white	2.243931555909272	neutral	130	sub-03	1.0	4.0	130_neutral	0.0	190.32047610667632	
29.0	181.29799560562424	pulse	1.0	t		19.0	male	white	2.243931555909272	neutral	130	sub-03	1.0	4.0	130_neutral	0.0	191.02052207888573	
29.0	181.9978997069311	pulse	1.0	t		19.0	male	white	2.243931555909272	neutral	130	sub-03	1.0	4.0	130_neutral	0.0	191.7204261801926	
30.0	182.2644313648193	face	0.0		146	24.0	male	white	3.1153999204138483	smiling	012	sub-03	1.0	4.0	012_smiling	0.0	191.9869578380808	1.2416583682252167
30.0	182.69788500669074	pulse	0.0	t		24.0	male	white	3.1153999204138483	smiling	012	sub-03	1.0	4.0	012_smiling	0.0	192.42041147995224	
30.0	183.39786426939054	pulse	0.0	t		24.0	male	white	3.1153999204138483	smiling	012	sub-03	1.0	4.0	012_smiling	0.0	193.12039074265203	
30.0	183.50608973304452	fix	1.0		444	24.0	male	white	3.1153999204138483	smiling	012	sub-03	1.0	4.0	012_smiling	0.0	193.22861620630601	3.7665423736689263
30.0	184.09785832288662	pulse	1.0	t		24.0	male	white	3.1153999204138483	smiling	012	sub-03	1.0	4.0	012_smiling	0.0	193.82038479614812	
30.0	184.79783426520407	pulse	1.0	t		24.0	male	white	3.1153999204138483	smiling	012	sub-03	1.0	4.0	012_smiling	0.0	194.52036073846557	
30.0	185.4978207723757	pulse	1.0	t		24.0	male	white	3.1153999204138483	smiling	012	sub-03	1.0	4.0	012_smiling	0.0	195.22034724563719	
30.0	186.19778977207397	pulse	1.0	t		24.0	male	white	3.1153999204138483	smiling	012	sub-03	1.0	4.0	012_smiling	0.0	195.92031624533547	
30.0	186.89777476998051	pulse	1.0	t		24.0	male	white	3.1153999204138483	smiling	012	sub-03	1.0	4.0	012_smiling	0.0	196.620301243242	
31.0	187.27263210671344	face	0.0		145	20.0	female	white	3.9502586549940313	neutral	091	sub-03	1.0	4.0	091_neutral	0.0	196.99515857997494	1.2333236036056405
31.0	187.59775524009228	pulse	0.0	t		20.0	female	white	3.9502586549940313	neutral	091	sub-03	1.0	4.0	091_neutral	0.0	197.32028171335378	
31.0	188.29773329538057	pulse	0.0	t		20.0	female	white	3.9502586549940313	neutral	091	sub-03	1.0	4.0	091_neutral	0.0	198.02025976864206	
31.0	188.50595571031909	fix	1.0		444	20.0	female	white	3.9502586549940313	neutral	091	sub-03	1.0	4.0	091_neutral	0.0	198.22848218358058	3.766541468110063
31.0	188.9977216136699	pulse	1.0	t		20.0	female	white	3.9502586549940313	neutral	091	sub-03	1.0	4.0	091_neutral	0.0	198.7202480869314	
31.0	189.69769906525198	pulse	1.0	t		20.0	female	white	3.9502586549940313	neutral	091	sub-03	1.0	4.0	091_neutral	0.0	199.42022553851348	
31.0	190.39766927236224	pulse	1.0	t		20.0	female	white	3.9502586549940313	neutral	091	sub-03	1.0	4.0	091_neutral	0.0	200.12019574562373	
31.0	191.09766332585878	pulse	1.0	t		20.0	female	white	3.9502586549940313	neutral	091	sub-03	1.0	4.0	091_neutral	0.0	200.82018979912027	
31.0	191.79764621079448	pulse	1.0	t		20.0	female	white	3.9502586549940313	neutral	091	sub-03	1.0	4.0	091_neutral	0.0	201.52017268405598	
32.0	192.27249717842915	face	0.0		145	30.0	female	black	2.7345801830481498	neutral	062	sub-03	1.0	4.0	062_neutral	0.0	201.99502365169064	1.2333326591951845
32.0	192.49762215311148	pulse	0.0	t		30.0	female	black	2.7345801830481498	neutral	062	sub-03	1.0	4.0	062_neutral	0.0	202.22014862637297	
32.0	193.19760624545916	pulse	0.0	t		30.0	female	black	2.7345801830481498	neutral	062	sub-03	1.0	4.0	062_neutral	0.0	202.92013271872065	
32.0	193.50582983762433	fix	1.0		444	30.0	female	black	2.7345801830481498	neutral	062	sub-03	1.0	4.0	062_neutral	0.0	203.22835631088583	3.7665366384626395
32.0	193.89759577116047	pulse	1.0	t		30.0	female	black	2.7345801830481498	neutral	062	sub-03	1.0	4.0	062_neutral	0.0	203.62012224442196	
32.0	194.59756265788792	pulse	1.0	t		30.0	female	black	2.7345801830481498	neutral	062	sub-03	1.0	4.0	062_neutral	0.0	204.32008913114942	
32.0	195.29754312800014	pulse	1.0	t		30.0	female	black	2.7345801830481498	neutral	062	sub-03	1.0	4.0	062_neutral	0.0	205.02006960126164	
32.0	195.9975317481426	pulse	1.0	t		30.0	female	black	2.7345801830481498	neutral	062	sub-03	1.0	4.0	062_neutral	0.0	205.7200582214041	
32.0	196.69749772931118	pulse	1.0	t		30.0	female	black	2.7345801830481498	neutral	062	sub-03	1.0	4.0	062_neutral	0.0	206.42002420257268	
33.0	197.27236647608697	face	0.0		145	22.0	male	black	2.767608436132113	smiling	044	sub-03	1.0	4.0	044_smiling	0.0	206.99489294934847	1.2333027757495074
33.0	197.39749148095416	pulse	0.0	t		22.0	male	black	2.767608436132113	smiling	044	sub-03	1.0	4.0	044_smiling	0.0	207.12001795421565	
33.0	198.09747195106593	pulse	0.0	t		22.0	male	black	2.767608436132113	smiling	044	sub-03	1.0	4.0	044_smiling	0.0	207.81999842432742	
33.0	198.50566925183648	fix	1.0		444	22.0	male	black	2.767608436132113	smiling	044	sub-03	1.0	4.0	044_smiling	0.0	208.22819572509798	3.76655807002453
33.0	198.79745242117815	pulse	1.0	t		22.0	male	black	2.767608436132113	smiling	044	sub-03	1.0	4.0	044_smiling	0.0	208.51997889443965	
33.0	199.4974627747356	pulse	1.0	t		22.0	male	black	2.767608436132113	smiling	044	sub-03	1.0	4.0	044_smiling	0.0	209.2199892479971	
33.0	200.1974070224892	pulse	1.0	t		22.0	male	black	2.767608436132113	smiling	044	sub-03	1.0	4.0	044_smiling	0.0	209.91993349575068	
33.0	200.89739051113065	pulse	1.0	t		22.0	male	black	2.767608436132113	smiling	044	sub-03	1.0	4.0	044_smiling	0.0	210.61991698439215	
33.0	201.5973824516559	pulse	1.0	t		22.0	male	black	2.767608436132113	smiling	044	sub-03	1.0	4.0	044_smiling	0.0	211.3199089249174	
34.0	202.272227321861	face	0.0		145	24.0	female	east_asian	4.409868682849185	smiling	030	sub-03	1.0	4.0	030_smiling	0.0	211.9947537951225	1.233317566545793
34.0	202.29737529774047	pulse	0.0	t		24.0	female	east_asian	4.409868682849185	smiling	030	sub-03	1.0	4.0	030_smiling	0.0	212.01990177100197	
34.0	202.9973464104096	pulse	0.0	t		24.0	female	east_asian	4.409868682849185	smiling	030	sub-03	1.0	4.0	030_smiling	0.0	212.7198728836711	
34.0	203.5055448884068	fix	1.0		443	24.0	female	east_asian	4.409868682849185	smiling	030	sub-03	1.0	4.0	030_smiling	0.0	213.2280713616683	3.7582039868134416
34.0	203.69731963605	pulse	1.0	t		24.0	female	east_asian	4.409868682849185	smiling	030	sub-03	1.0	4.0	030_smiling	0.0	213.4198461093115	
34.0	204.39730644507472	pulse	1.0	t		24.0	female	east_asian	4.409868682849185	smiling	030	sub-03	1.0	4.0	030_smiling	0.0	214.11983291833621	
34.0	205.09727333180217	pulse	1.0	t		24.0	female	east_asian	4.409868682849185	smiling	030	sub-03	1.0	4.0	030_smiling	0.0	214.81979980506367	
34.0	205.79726195194462	pulse	1.0	t		24.0	female	east_asian	4.409868682849185	smiling	030	sub-03	1.0	4.0	030_smiling	0.0	215.51978842520612	
34.0	206.4972360831439	pulse	1.0	t		24.0	female	east_asian	4.409868682849185	smiling	030	sub-03	1.0	4.0	030_smiling	0.0	216.21976255640539	
34.0	207.19722017549157	pulse	1.0	t		24.0	female	east_asian	4.409868682849185	smiling	030	sub-03	1.0	4.0	030_smiling	0.0	216.91974664875306	
35.0	207.26374887522024	face	0.0		147	31.0	male	west_asian	1.9538400318344609	neutral	070	sub-03	1.0	4.0	070_neutral	0.0	216.98627534848174	1.2416502181945361
35.0	207.89720789007515	pulse	0.0	t		31.0	male	west_asian	1.9538400318344609	neutral	070	sub-03	1.0	4.0	070_neutral	0.0	217.61973436333665	
35.0	208.50539909341478	fix	1.0		443	31.0	male	west_asian	1.9538400318344609	neutral	070	sub-03	1.0	4.0	070_neutral	0.0	218.22792556667628	3.7665565607594544
35.0	208.59719409539366	pulse	1.0	t		31.0	male	west_asian	1.9538400318344609	neutral	070	sub-03	1.0	4.0	070_neutral	0.0	218.31972056865516	
35.0	209.29716430250392	pulse	1.0	t		31.0	male	west_asian	1.9538400318344609	neutral	070	sub-03	1.0	4.0	070_neutral	0.0	219.0196907757654	
35.0	209.9971580541469	pulse	1.0	t		31.0	male	west_asian	1.9538400318344609	neutral	070	sub-03	1.0	4.0	070_neutral	0.0	219.7196845274084	
35.0	210.69713278905238	pulse	1.0	t		31.0	male	west_asian	1.9538400318344609	neutral	070	sub-03	1.0	4.0	070_neutral	0.0	220.41965926231387	
35.0	211.39711295731104	pulse	1.0	t		31.0	male	west_asian	1.9538400318344609	neutral	070	sub-03	1.0	4.0	070_neutral	0.0	221.11963943057253	
35.0	212.0970922200113	pulse	1.0	t		31.0	male	west_asian	1.9538400318344609	neutral	070	sub-03	1.0	4.0	070_neutral	0.0	221.8196186932728	
36.0	212.27195565417423	face	0.0		146	27.0	female	white	3.504576203740549	neutral	144	sub-03	1.0	4.0	144_neutral	0.0	221.99448212743573	1.2416553496955203
36.0	212.7971001587448	pulse	0.0	t		27.0	female	white	3.504576203740549	neutral	144	sub-03	1.0	4.0	144_neutral	0.0	222.5196266320063	
36.0	213.4970582917358	pulse	0.0	t		27.0	female	white	3.504576203740549	neutral	144	sub-03	1.0	4.0	144_neutral	0.0	223.2195847649973	
36.0	213.51361100386976	fix	1.0		443	27.0	female	white	3.504576203740549	neutral	144	sub-03	1.0	4.0	144_neutral	0.0	223.23613747713125	3.7498746555479556
36.0	214.19702668772788	pulse	1.0	t		27.0	female	white	3.504576203740549	neutral	144	sub-03	1.0	4.0	144_neutral	0.0	223.91955316098938	
36.0	214.8970131948995	pulse	1.0	t		27.0	female	white	3.504576203740549	neutral	144	sub-03	1.0	4.0	144_neutral	0.0	224.619539668161	
36.0	215.59699245759975	pulse	1.0	t		27.0	female	white	3.504576203740549	neutral	144	sub-03	1.0	4.0	144_neutral	0.0	225.31951893086125	
36.0	216.2969837944188	pulse	1.0	t		27.0	female	white	3.504576203740549	neutral	144	sub-03	1.0	4.0	144_neutral	0.0	226.0195102676803	
36.0	216.9969506811467	pulse	1.0	t		27.0	female	white	3.504576203740549	neutral	144	sub-03	1.0	4.0	144_neutral	0.0	226.7194771544082	
37.0	217.2634856594177	face	0.0		146	24.0	female	east_asian	2.9076800636689217	smiling	034	sub-03	1.0	4.0	034_smiling	0.0	226.9860121326792	1.2416716497564266
37.0	217.696996351503	pulse	0.0	t		24.0	female	east_asian	2.9076800636689217	smiling	034	sub-03	1.0	4.0	034_smiling	0.0	227.4195228247645	
37.0	218.39700519579537	pulse	0.0	t		24.0	female	east_asian	2.9076800636689217	smiling	034	sub-03	1.0	4.0	034_smiling	0.0	228.11953166905687	
37.0	218.50515730917414	fix	1.0		444	24.0	female	east_asian	2.9076800636689217	smiling	034	sub-03	1.0	4.0	034_smiling	0.0	228.22768378243563	3.76652999769658
37.0	219.09690507116056	pulse	1.0	t		24.0	female	east_asian	2.9076800636689217	smiling	034	sub-03	1.0	4.0	034_smiling	0.0	228.81943154442206	
37.0	219.79689067277286	pulse	1.0	t		24.0	female	east_asian	2.9076800636689217	smiling	034	sub-03	1.0	4.0	034_smiling	0.0	229.51941714603436	
37.0	220.49685816320653	pulse	1.0	t		24.0	female	east_asian	2.9076800636689217	smiling	034	sub-03	1.0	4.0	034_smiling	0.0	230.21938463646802	
37.0	221.19684648149587	pulse	1.0	t		24.0	female	east_asian	2.9076800636689217	smiling	034	sub-03	1.0	4.0	034_smiling	0.0	230.91937295475736	
37.0	221.89683208310862	pulse	1.0	t		24.0	female	east_asian	2.9076800636689217	smiling	034	sub-03	1.0	4.0	034_smiling	0.0	231.61935855637012	
38.0	222.27168730687072	face	0.0		145	26.0	female	white	4.854755272582572	neutral	027	sub-03	1.0	4.0	027_neutral	0.0	231.9942137801322	1.233331149930109
38.0	222.59681889213334	pulse	0.0	t		26.0	female	white	4.854755272582572	neutral	027	sub-03	1.0	4.0	027_neutral	0.0	232.31934536539484	
38.0	223.29683981054495	pulse	0.0	t		26.0	female	white	4.854755272582572	neutral	027	sub-03	1.0	4.0	027_neutral	0.0	233.01936628380645	
38.0	223.50501845680083	fix	1.0		444	26.0	female	white	4.854755272582572	neutral	027	sub-03	1.0	4.0	027_neutral	0.0	233.22754493006232	3.7583509892174334
38.0	223.99676987120847	pulse	1.0	t		26.0	female	white	4.854755272582572	neutral	027	sub-03	1.0	4.0	027_neutral	0.0	233.71929634446997	
38.0	224.69674702093744	pulse	1.0	t		26.0	female	white	4.854755272582572	neutral	027	sub-03	1.0	4.0	027_neutral	0.0	234.41927349419893	
38.0	225.39672537807837	pulse	1.0	t		26.0	female	white	4.854755272582572	neutral	027	sub-03	1.0	4.0	027_neutral	0.0	235.11925185133987	
38.0	226.09670645189635	pulse	1.0	t		26.0	female	white	4.854755272582572	neutral	027	sub-03	1.0	4.0	027_neutral	0.0	235.81923292515785	
38.0	226.7966851108904	pulse	1.0	t		26.0	female	white	4.854755272582572	neutral	027	sub-03	1.0	4.0	027_neutral	0.0	236.5192115841519	
39.0	227.26336944601826	face	0.0		146	40.0	male	black	2.408674890569041	neutral	061	sub-03	1.0	4.0	061_neutral	0.0	236.98589591927976	1.2414887268478196
39.0	227.49668067365155	pulse	0.0	t		40.0	male	black	2.408674890569041	neutral	061	sub-03	1.0	4.0	061_neutral	0.0	237.21920714691305	
39.0	228.19664665482014	pulse	0.0	t		40.0	male	black	2.408674890569041	neutral	061	sub-03	1.0	4.0	061_neutral	0.0	237.91917312808164	
39.0	228.50485817286608	fix	1.0		444	40.0	male	black	2.408674890569041	neutral	061	sub-03	1.0	4.0	061_neutral	0.0	238.22738464612758	3.7499108779061316
39.0	228.896645236111	pulse	1.0	t		40.0	male	black	2.408674890569041	neutral	061	sub-03	1.0	4.0	061_neutral	0.0	238.6191717093725	
39.0	229.5966362710774	pulse	1.0	t		40.0	male	black	2.408674890569041	neutral	061	sub-03	1.0	4.0	061_neutral	0.0	239.31916274433888	
39.0	230.29659289480333	pulse	1.0	t		40.0	male	black	2.408674890569041	neutral	061	sub-03	1.0	4.0	061_neutral	0.0	240.01911936806482	
39.0	230.99656461117866	pulse	1.0	t		40.0	male	black	2.408674890569041	neutral	061	sub-03	1.0	4.0	061_neutral	0.0	240.71909108444015	
39.0	231.69656138135178	pulse	1.0	t		40.0	male	black	2.408674890569041	neutral	061	sub-03	1.0	4.0	061_neutral	0.0	241.41908785461328	
40.0	232.2547690507722	fix	0.0		720												241.9772955240337	5.999847564242373
40.0	232.39655573670098	pulse	0.0	t													242.11908220996247	
40.0	233.09652503825237	pulse	0.0	t													242.81905151151386	
40.0	233.79650098056936	pulse	0.0	t													243.51902745383086	
40.0	234.4964832617993	pulse	0.0	t													244.2190097350608	
40.0	235.19645980782252	pulse	0.0	t													244.91898628108402	
40.0	235.896447220553	pulse	0.0	t													245.6189736938145	
40.0	236.59643221845954	pulse	0.0	t													246.31895869172104	
40.0	237.29640785892389	pulse	0.0	t													247.01893433218538	
40.0	237.99639496980126	pulse	0.0	t													247.71892144306275	
