trial_nr	onset	event_type	phase	response	nr_frames	face_age	face_sex	face_eth	attractiveness	expression	face_id	sub_id	ses	run	trial_type	catch	rating_type	onset_abs	duration
-1.0	0.055888001226776396	fix	0.0		714													21.570531709823626	5.965897654627952
-1.0	0.7053001942149422	pulse	0.0	t														22.219943902811792	
-1.0	1.4052910177479134	pulse	0.0	t														22.919934726344763	
-1.0	2.105290897005034	pulse	0.0	t														23.619934605601884	
-1.0	2.805284135398324	pulse	0.0	t														24.319927843995174	
-1.0	3.5052628846342486	pulse	0.0	t														25.0199065932311	
-1.0	4.2052549155969245	pulse	0.0	t														25.719898624193775	
-1.0	4.905242418699345	pulse	0.0	t														26.419886127296195	
-1.0	5.6052401849538	pulse	0.0	t														27.11988389355065	
0.0	6.021785655854728	face	0.0		144	36.0	female	white	2.7548746518105847	neutral	011	sub-17	1.0	6.0	011_neutral	1.0	trustworthiness	27.53642936445158	1.2333219231213661
0.0	6.305227386197657	pulse	0.0	t		36.0	female	white	2.7548746518105847	neutral	011	sub-17	1.0	6.0	011_neutral	1.0	trustworthiness	27.819871094794507	
0.0	7.005235415605966	pulse	0.0	t		36.0	female	white	2.7548746518105847	neutral	011	sub-17	1.0	6.0	011_neutral	1.0	trustworthiness	28.519879124202816	
0.0	7.255107578976094	fix	1.0		177	36.0	female	white	2.7548746518105847	neutral	011	sub-17	1.0	6.0	011_neutral	1.0	trustworthiness	28.769751287572944	1.5083626587847903
0.0	7.705228352141603	pulse	1.0	t		36.0	female	white	2.7548746518105847	neutral	011	sub-17	1.0	6.0	011_neutral	1.0	trustworthiness	29.219872060738453	
0.0	8.405204686518118	pulse	1.0	t		36.0	female	white	2.7548746518105847	neutral	011	sub-17	1.0	6.0	011_neutral	1.0	trustworthiness	29.91984839511497	
0.0	8.763470237760885	rating	2.0		293	36.0	female	white	2.7548746518105847	neutral	011	sub-17	1.0	6.0	011_neutral	1.0	trustworthiness	30.278113946357735	2.49159025145309
0.0	9.099998128483094	pulse	2.0	t		36.0	female	white	2.7548746518105847	neutral	011	sub-17	1.0	6.0	011_neutral	1.0	trustworthiness	30.614641837079944	
0.0	9.800026684198201	pulse	2.0	t		36.0	female	white	2.7548746518105847	neutral	011	sub-17	1.0	6.0	011_neutral	1.0	trustworthiness	31.31467039279505	
0.0	10.50000573529087	pulse	2.0	t		36.0	female	white	2.7548746518105847	neutral	011	sub-17	1.0	6.0	011_neutral	1.0	trustworthiness	32.01464944388772	
0.0	10.613508060499043	response	2.0	e		36.0	female	white	2.7548746518105847	neutral	011	sub-17	1.0	6.0	011_neutral	1.0	trustworthiness	32.12815176909589	
0.0	11.205170395511232	pulse	2.0	t		36.0	female	white	2.7548746518105847	neutral	011	sub-17	1.0	6.0	011_neutral	1.0	trustworthiness	32.71981410410808	
0.0	11.255060489213975	fix	3.0		444	36.0	female	white	2.7548746518105847	neutral	011	sub-17	1.0	6.0	011_neutral	1.0	trustworthiness	32.769704197810825	3.7582964010744035
0.0	11.905171180340403	pulse	3.0	t		36.0	female	white	2.7548746518105847	neutral	011	sub-17	1.0	6.0	011_neutral	1.0	trustworthiness	33.41981488893725	
0.0	12.605170154025473	pulse	3.0	t		36.0	female	white	2.7548746518105847	neutral	011	sub-17	1.0	6.0	011_neutral	1.0	trustworthiness	34.11981386262232	
0.0	13.30515826084229	pulse	3.0	t		36.0	female	white	2.7548746518105847	neutral	011	sub-17	1.0	6.0	011_neutral	1.0	trustworthiness	34.81980196943914	
0.0	14.005145160228494	pulse	3.0	t		36.0	female	white	2.7548746518105847	neutral	011	sub-17	1.0	6.0	011_neutral	1.0	trustworthiness	35.519788868825344	
0.0	14.70514383205591	pulse	3.0	t		36.0	female	white	2.7548746518105847	neutral	011	sub-17	1.0	6.0	011_neutral	1.0	trustworthiness	36.21978754065276	
1.0	15.013356890288378	face	0.0		146	32.0	male	white	2.389176283326701	smiling	092	sub-17	1.0	6.0	092_smiling	1.0	dominance	36.52800059888523	1.2416275308487457
1.0	15.405143409455377	pulse	0.0	t		32.0	male	white	2.389176283326701	smiling	092	sub-17	1.0	6.0	092_smiling	1.0	dominance	36.91978711805223	
1.0	16.105098613809787	pulse	0.0	t		32.0	male	white	2.389176283326701	smiling	092	sub-17	1.0	6.0	092_smiling	1.0	dominance	37.61974232240664	
1.0	16.254984421137124	fix	1.0		177	32.0	male	white	2.389176283326701	smiling	092	sub-17	1.0	6.0	092_smiling	1.0	dominance	37.769628129733974	1.499999396284693
1.0	16.80511117108017	pulse	1.0	t		32.0	male	white	2.389176283326701	smiling	092	sub-17	1.0	6.0	092_smiling	1.0	dominance	38.31975487967702	
1.0	17.50509354260521	pulse	1.0	t		32.0	male	white	2.389176283326701	smiling	092	sub-17	1.0	6.0	092_smiling	1.0	dominance	39.01973725120206	
1.0	17.754983817421817	rating	2.0		295	32.0	male	white	2.389176283326701	smiling	092	sub-17	1.0	6.0	092_smiling	1.0	dominance	39.26962752601867	2.499973738402332
1.0	18.200672115796806	pulse	2.0	t		32.0	male	white	2.389176283326701	smiling	092	sub-17	1.0	6.0	092_smiling	1.0	dominance	39.715315824393656	
1.0	18.891545636922274	response	2.0	w		32.0	male	white	2.389176283326701	smiling	092	sub-17	1.0	6.0	092_smiling	1.0	dominance	40.406189345519124	
1.0	18.90760686810154	pulse	2.0	t		32.0	male	white	2.389176283326701	smiling	092	sub-17	1.0	6.0	092_smiling	1.0	dominance	40.42225057669839	
1.0	19.6051022360989	pulse	2.0	t		32.0	male	white	2.389176283326701	smiling	092	sub-17	1.0	6.0	092_smiling	1.0	dominance	41.11974594469575	
1.0	20.25495755582415	fix	3.0		443	32.0	male	white	2.389176283326701	smiling	092	sub-17	1.0	6.0	092_smiling	1.0	dominance	41.769601264421	3.7582903639249707
1.0	20.305068307321562	pulse	3.0	t		32.0	male	white	2.389176283326701	smiling	092	sub-17	1.0	6.0	092_smiling	1.0	dominance	41.81971201591841	
1.0	21.005073921870462	pulse	3.0	t		32.0	male	white	2.389176283326701	smiling	092	sub-17	1.0	6.0	092_smiling	1.0	dominance	42.51971763046731	
1.0	21.705049954389324	pulse	3.0	t		32.0	male	white	2.389176283326701	smiling	092	sub-17	1.0	6.0	092_smiling	1.0	dominance	43.219693662986174	
1.0	22.405045909499677	pulse	3.0	t		32.0	male	white	2.389176283326701	smiling	092	sub-17	1.0	6.0	092_smiling	1.0	dominance	43.91968961809653	
1.0	23.105036431174995	pulse	3.0	t		32.0	male	white	2.389176283326701	smiling	092	sub-17	1.0	6.0	092_smiling	1.0	dominance	44.619680139771845	
1.0	23.805020613845045	pulse	3.0	t		32.0	male	white	2.389176283326701	smiling	092	sub-17	1.0	6.0	092_smiling	1.0	dominance	45.319664322441895	
2.0	24.01324791974912	face	0.0		146	27.0	female	white	4.181058495821727	neutral	039	sub-17	1.0	6.0	039_neutral	0.0		45.52789162834597	1.2416634518849605
2.0	24.50502170053187	pulse	0.0	t		27.0	female	white	4.181058495821727	neutral	039	sub-17	1.0	6.0	039_neutral	0.0		46.01966540912872	
2.0	25.2050140333522	pulse	0.0	t		27.0	female	white	4.181058495821727	neutral	039	sub-17	1.0	6.0	039_neutral	0.0		46.71965774194905	
2.0	25.25491137163408	fix	1.0		445	27.0	female	white	4.181058495821727	neutral	039	sub-17	1.0	6.0	039_neutral	0.0		46.76955508023093	3.7582616874678934
2.0	25.9050096866049	pulse	1.0	t		27.0	female	white	4.181058495821727	neutral	039	sub-17	1.0	6.0	039_neutral	0.0		47.41965339520175	
2.0	26.604994171132603	pulse	1.0	t		27.0	female	white	4.181058495821727	neutral	039	sub-17	1.0	6.0	039_neutral	0.0		48.11963787972945	
2.0	27.304989220669995	pulse	1.0	t		27.0	female	white	4.181058495821727	neutral	039	sub-17	1.0	6.0	039_neutral	0.0		48.819632929266845	
2.0	28.00497702562916	pulse	1.0	t		27.0	female	white	4.181058495821727	neutral	039	sub-17	1.0	6.0	039_neutral	0.0		49.51962073422601	
2.0	28.704967547305387	pulse	1.0	t		27.0	female	white	4.181058495821727	neutral	039	sub-17	1.0	6.0	039_neutral	0.0		50.21961125590224	
3.0	29.013173059101973	face	0.0		146	24.0	female	black	3.0955033824114606	neutral	099	sub-17	1.0	6.0	099_neutral	0.0		50.52781676769882	1.2416679797461256
3.0	29.404986141724294	pulse	0.0	t		24.0	female	black	3.0955033824114606	neutral	099	sub-17	1.0	6.0	099_neutral	0.0		50.919629850321144	
3.0	30.104957042665774	pulse	0.0	t		24.0	female	black	3.0955033824114606	neutral	099	sub-17	1.0	6.0	099_neutral	0.0		51.619600751262624	
3.0	30.2548410388481	fix	1.0		445	24.0	female	black	3.0955033824114606	neutral	099	sub-17	1.0	6.0	099_neutral	0.0		51.76948474744495	3.7583806193033524
3.0	30.804949677344666	pulse	1.0	t		24.0	female	black	3.0955033824114606	neutral	099	sub-17	1.0	6.0	099_neutral	0.0		52.319593385941516	
3.0	31.504952877033247	pulse	1.0	t		24.0	female	black	3.0955033824114606	neutral	099	sub-17	1.0	6.0	099_neutral	0.0		53.0195965856301	
3.0	32.204928607694455	pulse	1.0	t		24.0	female	black	3.0955033824114606	neutral	099	sub-17	1.0	6.0	099_neutral	0.0		53.719572316291305	
3.0	32.90491943122743	pulse	1.0	t		24.0	female	black	3.0955033824114606	neutral	099	sub-17	1.0	6.0	099_neutral	0.0		54.41956313982428	
3.0	33.60491810305484	pulse	1.0	t		24.0	female	black	3.0955033824114606	neutral	099	sub-17	1.0	6.0	099_neutral	0.0		55.11956181165169	
4.0	34.01322165815145	face	0.0		146	22.0	female	west_asian	3.8205332272184642	neutral	066	sub-17	1.0	6.0	066_neutral	0.0		55.5278653667483	1.2415611222086227
4.0	34.30490953030312	pulse	0.0	t		22.0	female	west_asian	3.8205332272184642	neutral	066	sub-17	1.0	6.0	066_neutral	0.0		55.81955323889997	
4.0	35.004894014830825	pulse	0.0	t		22.0	female	west_asian	3.8205332272184642	neutral	066	sub-17	1.0	6.0	066_neutral	0.0		56.519537723427675	
4.0	35.254782780360074	fix	1.0		445	22.0	female	west_asian	3.8205332272184642	neutral	066	sub-17	1.0	6.0	066_neutral	0.0		56.769426488956924	3.766587519643508
4.0	35.70489027179792	pulse	1.0	t		22.0	female	west_asian	3.8205332272184642	neutral	066	sub-17	1.0	6.0	066_neutral	0.0		57.21953398039477	
4.0	36.404880491616495	pulse	1.0	t		22.0	female	west_asian	3.8205332272184642	neutral	066	sub-17	1.0	6.0	066_neutral	0.0		57.919524200213345	
4.0	37.104902708325426	pulse	1.0	t		22.0	female	west_asian	3.8205332272184642	neutral	066	sub-17	1.0	6.0	066_neutral	0.0		58.619546416922276	
4.0	37.80486576097337	pulse	1.0	t		22.0	female	west_asian	3.8205332272184642	neutral	066	sub-17	1.0	6.0	066_neutral	0.0		59.31950946957022	
4.0	38.50485899936666	pulse	1.0	t		22.0	female	west_asian	3.8205332272184642	neutral	066	sub-17	1.0	6.0	066_neutral	0.0		60.01950270796351	
5.0	39.02137030000358	face	0.0		145	24.0	female	black	3.0955033824114606	smiling	099	sub-17	1.0	6.0	099_smiling	0.0		60.53601400860043	1.2333524107243647
5.0	39.20486461391465	pulse	0.0	t		24.0	female	black	3.0955033824114606	smiling	099	sub-17	1.0	6.0	099_smiling	0.0		60.7195083225115	
5.0	39.90483611857144	pulse	0.0	t		24.0	female	black	3.0955033824114606	smiling	099	sub-17	1.0	6.0	099_smiling	0.0		61.41947982716829	
5.0	40.25472271072795	fix	1.0		444	24.0	female	black	3.0955033824114606	smiling	099	sub-17	1.0	6.0	099_smiling	0.0		61.7693664193248	3.766611366381767
5.0	40.60483418668446	pulse	1.0	t		24.0	female	black	3.0955033824114606	smiling	099	sub-17	1.0	6.0	099_smiling	0.0		62.11947789528131	
5.0	41.304807502485346	pulse	1.0	t		24.0	female	black	3.0955033824114606	smiling	099	sub-17	1.0	6.0	099_smiling	0.0		62.819451211082196	
5.0	42.004827908049265	pulse	1.0	t		24.0	female	black	3.0955033824114606	smiling	099	sub-17	1.0	6.0	099_smiling	0.0		63.519471616646115	
5.0	42.704807864714894	pulse	1.0	t		24.0	female	black	3.0955033824114606	smiling	099	sub-17	1.0	6.0	099_smiling	0.0		64.21945157331174	
5.0	43.404789632524626	pulse	1.0	t		24.0	female	black	3.0955033824114606	smiling	099	sub-17	1.0	6.0	099_smiling	0.0		64.91943334112148	
6.0	44.021334077109714	face	0.0		145	25.0	female	west_asian	2.6756864305610826	smiling	064	sub-17	1.0	6.0	064_smiling	0.0		65.53597778570656	1.2333810871823516
6.0	44.10479705821763	pulse	0.0	t		25.0	female	west_asian	2.6756864305610826	smiling	064	sub-17	1.0	6.0	064_smiling	0.0		65.61944076681448	
6.0	44.80478486317679	pulse	0.0	t		25.0	female	west_asian	2.6756864305610826	smiling	064	sub-17	1.0	6.0	064_smiling	0.0		66.31942857177364	
6.0	45.254715164292065	fix	1.0		444	25.0	female	west_asian	2.6756864305610826	smiling	064	sub-17	1.0	6.0	064_smiling	0.0		66.76935887288892	3.766556428326112
6.0	45.5047811201448	pulse	1.0	t		25.0	female	west_asian	2.6756864305610826	smiling	064	sub-17	1.0	6.0	064_smiling	0.0		67.01942482874165	
6.0	46.20476560467159	pulse	1.0	t		25.0	female	west_asian	2.6756864305610826	smiling	064	sub-17	1.0	6.0	064_smiling	0.0		67.71940931326844	
6.0	46.904773030364595	pulse	1.0	t		25.0	female	west_asian	2.6756864305610826	smiling	064	sub-17	1.0	6.0	064_smiling	0.0		68.41941673896144	
6.0	47.60475660931934	pulse	1.0	t		25.0	female	west_asian	2.6756864305610826	smiling	064	sub-17	1.0	6.0	064_smiling	0.0		69.11940031791619	
6.0	48.30474743285322	pulse	1.0	t		25.0	female	west_asian	2.6756864305610826	smiling	064	sub-17	1.0	6.0	064_smiling	0.0		69.81939114145007	
7.0	49.02127159261818	face	0.0		146	27.0	male	black	3.5523278949462798	smiling	042	sub-17	1.0	6.0	042_smiling	0.0		70.53591530121503	1.2333448642875737
7.0	49.00815769757628	pulse	0.0	t		27.0	male	black	3.5523278949462798	smiling	042	sub-17	1.0	6.0	042_smiling	0.0		70.52280140617313	
7.0	49.704727872490366	pulse	0.0	t		27.0	male	black	3.5523278949462798	smiling	042	sub-17	1.0	6.0	042_smiling	0.0		71.21937158108722	
7.0	50.25461645690575	fix	1.0		443	27.0	male	black	3.5523278949462798	smiling	042	sub-17	1.0	6.0	042_smiling	0.0		71.7692601655026	3.758269233903775
7.0	50.40471145144511	pulse	1.0	t		27.0	male	black	3.5523278949462798	smiling	042	sub-17	1.0	6.0	042_smiling	0.0		71.91935516004196	
7.0	51.10472793286226	pulse	1.0	t		27.0	male	black	3.5523278949462798	smiling	042	sub-17	1.0	6.0	042_smiling	0.0		72.61937164145911	
7.0	51.80480689877095	pulse	1.0	t		27.0	male	black	3.5523278949462798	smiling	042	sub-17	1.0	6.0	042_smiling	0.0		73.3194506073678	
7.0	52.50469931677526	pulse	1.0	t		27.0	male	black	3.5523278949462798	smiling	042	sub-17	1.0	6.0	042_smiling	0.0		74.01934302537211	
7.0	53.2046916495965	pulse	1.0	t		27.0	male	black	3.5523278949462798	smiling	042	sub-17	1.0	6.0	042_smiling	0.0		74.71933535819335	
7.0	53.90467915269801	pulse	1.0	t		27.0	male	black	3.5523278949462798	smiling	042	sub-17	1.0	6.0	042_smiling	0.0		75.41932286129486	
8.0	54.012885690809526	face	0.0		147	20.0	male	black	2.609629924393156	neutral	043	sub-17	1.0	6.0	043_neutral	0.0		75.52752939940638	1.2416616407399488
8.0	54.60467088180394	pulse	0.0	t		20.0	male	black	2.609629924393156	neutral	043	sub-17	1.0	6.0	043_neutral	0.0		76.11931459040079	
8.0	55.254547331549475	fix	1.0		443	20.0	male	black	2.609629924393156	neutral	043	sub-17	1.0	6.0	043_neutral	0.0		76.76919104014632	3.7666095552376646
8.0	55.30466653505664	pulse	1.0	t		20.0	male	black	2.609629924393156	neutral	043	sub-17	1.0	6.0	043_neutral	0.0		76.81931024365349	
8.0	56.00465071772578	pulse	1.0	t		20.0	male	black	2.609629924393156	neutral	043	sub-17	1.0	6.0	043_neutral	0.0		77.51929442632263	
8.0	56.7046400319723	pulse	1.0	t		20.0	male	black	2.609629924393156	neutral	043	sub-17	1.0	6.0	043_neutral	0.0		78.21928374056915	
8.0	57.404635987082656	pulse	1.0	t		20.0	male	black	2.609629924393156	neutral	043	sub-17	1.0	6.0	043_neutral	0.0		78.9192796956795	
8.0	58.104628319902986	pulse	1.0	t		20.0	male	black	2.609629924393156	neutral	043	sub-17	1.0	6.0	043_neutral	0.0		79.61927202849984	
8.0	58.80461853972247	pulse	1.0	t		20.0	male	black	2.609629924393156	neutral	043	sub-17	1.0	6.0	043_neutral	0.0		80.31926224831932	
9.0	59.02115688678714	face	0.0		145	28.0	female	white	5.676880222841227	neutral	124	sub-17	1.0	6.0	124_neutral	0.0		80.53580059538399	1.2333336955616687
9.0	59.504611476258106	pulse	0.0	t		28.0	female	white	5.676880222841227	neutral	124	sub-17	1.0	6.0	124_neutral	0.0		81.01925518485496	
9.0	60.20460079050372	pulse	0.0	t		28.0	female	white	5.676880222841227	neutral	124	sub-17	1.0	6.0	124_neutral	0.0		81.71924449910057	
9.0	60.25449058234881	fix	1.0		445	28.0	female	white	5.676880222841227	neutral	124	sub-17	1.0	6.0	124_neutral	0.0		81.76913429094566	3.766618912818558
9.0	60.904597953043776	pulse	1.0	t		28.0	female	white	5.676880222841227	neutral	124	sub-17	1.0	6.0	124_neutral	0.0		82.41924166164063	
9.0	61.60458877657766	pulse	1.0	t		28.0	female	white	5.676880222841227	neutral	124	sub-17	1.0	6.0	124_neutral	0.0		83.1192324851745	
9.0	62.30457507224946	pulse	1.0	t		28.0	female	white	5.676880222841227	neutral	124	sub-17	1.0	6.0	124_neutral	0.0		83.81921878084631	
9.0	63.00457042364451	pulse	1.0	t		28.0	female	white	5.676880222841227	neutral	124	sub-17	1.0	6.0	124_neutral	0.0		84.51921413224136	
9.0	63.70456124717839	pulse	1.0	t		28.0	female	white	5.676880222841227	neutral	124	sub-17	1.0	6.0	124_neutral	0.0		85.21920495577524	
10.0	64.02110949516737	face	0.0		145	28.0	male	east_asian	1.5563072025467568	neutral	005	sub-17	1.0	6.0	005_neutral	0.0		85.53575320376422	1.233324337981685
10.0	64.40455659857344	pulse	0.0	t		28.0	male	east_asian	1.5563072025467568	neutral	005	sub-17	1.0	6.0	005_neutral	0.0		85.91920030717029	
10.0	65.10454712024966	pulse	0.0	t		28.0	male	east_asian	1.5563072025467568	neutral	005	sub-17	1.0	6.0	005_neutral	0.0		86.61919082884651	
10.0	65.25443383314905	fix	1.0		445	28.0	male	east_asian	1.5563072025467568	neutral	005	sub-17	1.0	6.0	005_neutral	0.0		86.7690775417459	3.758272856192889
10.0	65.80453734006824	pulse	1.0	t		28.0	male	east_asian	1.5563072025467568	neutral	005	sub-17	1.0	6.0	005_neutral	0.0		87.31918104866509	
10.0	66.50452876731651	pulse	1.0	t		28.0	male	east_asian	1.5563072025467568	neutral	005	sub-17	1.0	6.0	005_neutral	0.0		88.01917247591336	
10.0	67.20452532614127	pulse	1.0	t		28.0	male	east_asian	1.5563072025467568	neutral	005	sub-17	1.0	6.0	005_neutral	0.0		88.71916903473812	
10.0	67.90451192367073	pulse	1.0	t		28.0	male	east_asian	1.5563072025467568	neutral	005	sub-17	1.0	6.0	005_neutral	0.0		89.41915563226758	
10.0	68.60448523947252	pulse	1.0	t		28.0	male	east_asian	1.5563072025467568	neutral	005	sub-17	1.0	6.0	005_neutral	0.0		90.11912894806937	
11.0	69.01270668934194	face	0.0		146	28.0	male	white	3.9076800636689217	neutral	033	sub-17	1.0	6.0	033_neutral	0.0		90.52735039793879	1.2416676778893816
11.0	69.30451047475526	pulse	0.0	t		28.0	male	white	3.9076800636689217	neutral	033	sub-17	1.0	6.0	033_neutral	0.0		90.81915418335211	
11.0	70.00448892213353	pulse	0.0	t		28.0	male	white	3.9076800636689217	neutral	033	sub-17	1.0	6.0	033_neutral	0.0		91.51913263073038	
11.0	70.25437436723132	fix	1.0		444	28.0	male	white	3.9076800636689217	neutral	033	sub-17	1.0	6.0	033_neutral	0.0		91.76901807582817	3.7666074422349993
11.0	70.70449272553742	pulse	1.0	t		28.0	male	white	3.9076800636689217	neutral	033	sub-17	1.0	6.0	033_neutral	0.0		92.21913643413427	
11.0	71.4044723803454	pulse	1.0	t		28.0	male	white	3.9076800636689217	neutral	033	sub-17	1.0	6.0	033_neutral	0.0		92.91911608894225	
11.0	72.10446320387837	pulse	1.0	t		28.0	male	white	3.9076800636689217	neutral	033	sub-17	1.0	6.0	033_neutral	0.0		93.61910691247522	
11.0	72.80447032771463	pulse	1.0	t		28.0	male	white	3.9076800636689217	neutral	033	sub-17	1.0	6.0	033_neutral	0.0		94.31911403631148	
11.0	73.50444666209023	pulse	1.0	t		28.0	male	white	3.9076800636689217	neutral	033	sub-17	1.0	6.0	033_neutral	0.0		95.01909037068708	
12.0	74.02098180946632	face	0.0		145	34.0	male	white	2.651014723438122	smiling	121	sub-17	1.0	6.0	121_smiling	0.0		95.53562551806317	1.2333339974193223
12.0	74.20444352277264	pulse	0.0	t		34.0	male	white	2.651014723438122	smiling	121	sub-17	1.0	6.0	121_smiling	0.0		95.71908723136949	
12.0	74.90442740358503	pulse	0.0	t		34.0	male	white	2.651014723438122	smiling	121	sub-17	1.0	6.0	121_smiling	0.0		96.41907111218188	
12.0	75.25431580688564	fix	1.0		444	34.0	male	white	2.651014723438122	smiling	121	sub-17	1.0	6.0	121_smiling	0.0		96.76895951548249	3.766605631090897
12.0	75.60443664042305	pulse	1.0	t		34.0	male	white	2.651014723438122	smiling	121	sub-17	1.0	6.0	121_smiling	0.0		97.1190803490199	
12.0	76.30441599337337	pulse	1.0	t		34.0	male	white	2.651014723438122	smiling	121	sub-17	1.0	6.0	121_smiling	0.0		97.81905970197022	
12.0	77.00443066364551	pulse	1.0	t		34.0	male	white	2.651014723438122	smiling	121	sub-17	1.0	6.0	121_smiling	0.0		98.51907437224236	
12.0	77.70440699802111	pulse	1.0	t		34.0	male	white	2.651014723438122	smiling	121	sub-17	1.0	6.0	121_smiling	0.0		99.21905070661796	
12.0	78.40439268997852	pulse	1.0	t		34.0	male	white	2.651014723438122	smiling	121	sub-17	1.0	6.0	121_smiling	0.0		99.91903639857537	
13.0	79.02092143797654	face	0.0		145	30.0	female	black	2.7345801830481498	neutral	062	sub-17	1.0	6.0	062_neutral	1.0	trustworthiness	100.53556514657339	1.2333333937040152
13.0	79.10438743765826	pulse	0.0	t		30.0	female	black	2.7345801830481498	neutral	062	sub-17	1.0	6.0	062_neutral	1.0	trustworthiness	100.61903114625511	
13.0	79.80437614819039	pulse	0.0	t		30.0	female	black	2.7345801830481498	neutral	062	sub-17	1.0	6.0	062_neutral	1.0	trustworthiness	101.31901985678724	
13.0	80.25425483168056	fix	1.0		177	30.0	female	black	2.7345801830481498	neutral	062	sub-17	1.0	6.0	062_neutral	1.0	trustworthiness	101.7688985402774	1.4999882275596974
13.0	80.5043548974254	pulse	1.0	t		30.0	female	black	2.7345801830481498	neutral	062	sub-17	1.0	6.0	062_neutral	1.0	trustworthiness	102.01899860602225	
13.0	81.20436896398314	pulse	1.0	t		30.0	female	black	2.7345801830481498	neutral	062	sub-17	1.0	6.0	062_neutral	1.0	trustworthiness	102.71901267257999	
13.0	81.75424305924025	rating	2.0		294	30.0	female	black	2.7345801830481498	neutral	062	sub-17	1.0	6.0	062_neutral	1.0	trustworthiness	103.2688867678371	2.499968908682604
13.0	81.90435525965495	pulse	2.0	t		30.0	female	black	2.7345801830481498	neutral	062	sub-17	1.0	6.0	062_neutral	1.0	trustworthiness	103.4189989682518	
13.0	82.60434276275646	pulse	2.0	t		30.0	female	black	2.7345801830481498	neutral	062	sub-17	1.0	6.0	062_neutral	1.0	trustworthiness	104.11898647135331	
13.0	83.06266983254773	response	2.0	w		30.0	female	black	2.7345801830481498	neutral	062	sub-17	1.0	6.0	062_neutral	1.0	trustworthiness	104.57731354114458	
13.0	83.30431245626824	pulse	2.0	t		30.0	female	black	2.7345801830481498	neutral	062	sub-17	1.0	6.0	062_neutral	1.0	trustworthiness	104.81895616486509	
13.0	84.00432712654037	pulse	2.0	t		30.0	female	black	2.7345801830481498	neutral	062	sub-17	1.0	6.0	062_neutral	1.0	trustworthiness	105.51897083513722	
13.0	84.25421196792286	fix	3.0		444	30.0	female	black	2.7345801830481498	neutral	062	sub-17	1.0	6.0	062_neutral	1.0	trustworthiness	105.7688556765197	3.766609253380011
13.0	84.70430466834569	pulse	3.0	t		30.0	female	black	2.7345801830481498	neutral	062	sub-17	1.0	6.0	062_neutral	1.0	trustworthiness	106.21894837694254	
13.0	85.40431058475224	pulse	3.0	t		30.0	female	black	2.7345801830481498	neutral	062	sub-17	1.0	6.0	062_neutral	1.0	trustworthiness	106.91895429334909	
13.0	86.10429869156815	pulse	3.0	t		30.0	female	black	2.7345801830481498	neutral	062	sub-17	1.0	6.0	062_neutral	1.0	trustworthiness	107.618942400165	
13.0	86.80429494853615	pulse	3.0	t		30.0	female	black	2.7345801830481498	neutral	062	sub-17	1.0	6.0	062_neutral	1.0	trustworthiness	108.318938657133	
13.0	87.50428486649707	pulse	3.0	t		30.0	female	black	2.7345801830481498	neutral	062	sub-17	1.0	6.0	062_neutral	1.0	trustworthiness	109.01892857509392	
14.0	88.02082122130287	face	0.0		145	28.0	female	white	5.676880222841227	smiling	124	sub-17	1.0	6.0	124_smiling	0.0		109.53546492989972	1.2333382234237433
14.0	88.20427629374535	pulse	0.0	t		28.0	female	white	5.676880222841227	smiling	124	sub-17	1.0	6.0	124_smiling	0.0		109.7189200023422	
14.0	88.90427255071336	pulse	0.0	t		28.0	female	white	5.676880222841227	smiling	124	sub-17	1.0	6.0	124_smiling	0.0		110.41891625931021	
14.0	89.25415944472661	fix	1.0		444	28.0	female	white	5.676880222841227	smiling	124	sub-17	1.0	6.0	124_smiling	0.0		110.76880315332346	3.766601405086476
14.0	89.60428480612609	pulse	1.0	t		28.0	female	white	5.676880222841227	smiling	124	sub-17	1.0	6.0	124_smiling	0.0		111.11892851472294	
14.0	90.30425993307199	pulse	1.0	t		28.0	female	white	5.676880222841227	smiling	124	sub-17	1.0	6.0	124_smiling	0.0		111.81890364166884	
14.0	91.00424230459703	pulse	1.0	t		28.0	female	white	5.676880222841227	smiling	124	sub-17	1.0	6.0	124_smiling	0.0		112.51888601319388	
14.0	91.70423735413442	pulse	1.0	t		28.0	female	white	5.676880222841227	smiling	124	sub-17	1.0	6.0	124_smiling	0.0		113.21888106273127	
14.0	92.40423119624302	pulse	1.0	t		28.0	female	white	5.676880222841227	smiling	124	sub-17	1.0	6.0	124_smiling	0.0		113.91887490483987	
15.0	93.02076084981309	face	0.0		145	40.0	male	black	2.408674890569041	neutral	061	sub-17	1.0	6.0	061_neutral	0.0		114.53540455840994	1.233335808564334
15.0	93.10422534020836	pulse	0.0	t		40.0	male	black	2.408674890569041	neutral	061	sub-17	1.0	6.0	061_neutral	0.0		114.61886904880521	
15.0	93.80421374888192	pulse	0.0	t		40.0	male	black	2.408674890569041	neutral	061	sub-17	1.0	6.0	061_neutral	0.0		115.31885745747877	
15.0	94.25409665837742	fix	1.0		444	40.0	male	black	2.408674890569041	neutral	061	sub-17	1.0	6.0	061_neutral	0.0		115.76874036697427	3.766604423660283
15.0	94.5042051761302	pulse	1.0	t		40.0	male	black	2.408674890569041	neutral	061	sub-17	1.0	6.0	061_neutral	0.0		116.01884888472705	
15.0	95.20419509409203	pulse	1.0	t		40.0	male	black	2.408674890569041	neutral	061	sub-17	1.0	6.0	061_neutral	0.0		116.71883880268888	
15.0	95.90418078604853	pulse	1.0	t		40.0	male	black	2.408674890569041	neutral	061	sub-17	1.0	6.0	061_neutral	0.0		117.41882449464538	
15.0	96.60418066530565	pulse	1.0	t		40.0	male	black	2.408674890569041	neutral	061	sub-17	1.0	6.0	061_neutral	0.0		118.1188243739025	
15.0	97.3041784315601	pulse	1.0	t		40.0	male	black	2.408674890569041	neutral	061	sub-17	1.0	6.0	061_neutral	0.0		118.81882214015695	
16.0	98.0207010820377	face	0.0		146	36.0	female	white	2.7548746518105847	smiling	011	sub-17	1.0	6.0	011_smiling	0.0		119.53534479063455	1.2333385252813969
16.0	98.0071673032835	pulse	0.0	t		36.0	female	white	2.7548746518105847	smiling	011	sub-17	1.0	6.0	011_smiling	0.0		119.52181101188035	
16.0	98.70416883249345	pulse	0.0	t		36.0	female	white	2.7548746518105847	smiling	011	sub-17	1.0	6.0	011_smiling	0.0		120.2188125410903	
16.0	99.2540396073191	fix	1.0		443	36.0	female	white	2.7548746518105847	smiling	011	sub-17	1.0	6.0	011_smiling	0.0		120.76868331591595	3.766602310658527
16.0	99.40415029844644	pulse	1.0	t		36.0	female	white	2.7548746518105847	smiling	011	sub-17	1.0	6.0	011_smiling	0.0		120.91879400704329	
16.0	100.1041374996903	pulse	1.0	t		36.0	female	white	2.7548746518105847	smiling	011	sub-17	1.0	6.0	011_smiling	0.0		121.61878120828715	
16.0	100.8041343603727	pulse	1.0	t		36.0	female	white	2.7548746518105847	smiling	011	sub-17	1.0	6.0	011_smiling	0.0		122.31877806896955	
16.0	101.50412035418685	pulse	1.0	t		36.0	female	white	2.7548746518105847	smiling	011	sub-17	1.0	6.0	011_smiling	0.0		123.0187640627837	
16.0	102.204123855734	pulse	1.0	t		36.0	female	white	2.7548746518105847	smiling	011	sub-17	1.0	6.0	011_smiling	0.0		123.71876756433085	
16.0	102.90411226440756	pulse	1.0	t		36.0	female	white	2.7548746518105847	smiling	011	sub-17	1.0	6.0	011_smiling	0.0		124.41875597300441	
17.0	103.02064191797763	face	0.0		146	30.0	female	black	2.7345801830481498	smiling	062	sub-17	1.0	6.0	062_smiling	0.0		124.53528562657448	1.2333388271390504
17.0	103.60411153994937	pulse	0.0	t		30.0	female	black	2.7345801830481498	smiling	062	sub-17	1.0	6.0	062_smiling	0.0		125.11875524854622	
17.0	104.25398074511668	fix	1.0		443	30.0	female	black	2.7345801830481498	smiling	062	sub-17	1.0	6.0	062_smiling	0.0		125.76862445371353	3.7665835954967406
17.0	104.3040908928997	pulse	1.0	t		30.0	female	black	2.7345801830481498	smiling	062	sub-17	1.0	6.0	062_smiling	0.0		125.81873460149654	
17.0	105.00412216533186	pulse	1.0	t		30.0	female	black	2.7345801830481498	smiling	062	sub-17	1.0	6.0	062_smiling	0.0		126.51876587392871	
17.0	105.7040921607013	pulse	1.0	t		30.0	female	black	2.7345801830481498	smiling	062	sub-17	1.0	6.0	062_smiling	0.0		127.21873586929814	
17.0	106.40406426907339	pulse	1.0	t		30.0	female	black	2.7345801830481498	smiling	062	sub-17	1.0	6.0	062_smiling	0.0		127.91870797767024	
17.0	107.1040635446152	pulse	1.0	t		30.0	female	black	2.7345801830481498	smiling	062	sub-17	1.0	6.0	062_smiling	0.0		128.61870725321205	
17.0	107.80404953842935	pulse	1.0	t		30.0	female	black	2.7345801830481498	smiling	062	sub-17	1.0	6.0	062_smiling	0.0		129.3186932470262	
18.0	108.02056434061342	face	0.0		145	20.0	male	black	2.609629924393156	smiling	043	sub-17	1.0	6.0	043_smiling	0.0		129.53520804921027	1.233350599579353
18.0	108.50403341924175	pulse	0.0	t		20.0	male	black	2.609629924393156	smiling	043	sub-17	1.0	6.0	043_smiling	0.0		130.0186771278386	
18.0	109.20403390221327	pulse	0.0	t		20.0	male	black	2.609629924393156	smiling	043	sub-17	1.0	6.0	043_smiling	0.0		130.71867761081012	
18.0	109.25391494019277	fix	1.0		445	20.0	male	black	2.609629924393156	smiling	043	sub-17	1.0	6.0	043_smiling	0.0		130.76855864878962	3.7665977827964525
18.0	109.90402472574715	pulse	1.0	t		20.0	male	black	2.609629924393156	smiling	043	sub-17	1.0	6.0	043_smiling	0.0		131.418668434344	
18.0	110.60402279385926	pulse	1.0	t		20.0	male	black	2.609629924393156	smiling	043	sub-17	1.0	6.0	043_smiling	0.0		132.1186665024561	
18.0	111.30399218551429	pulse	1.0	t		20.0	male	black	2.609629924393156	smiling	043	sub-17	1.0	6.0	043_smiling	0.0		132.81863589411114	
18.0	112.0040125910773	pulse	1.0	t		20.0	male	black	2.609629924393156	smiling	043	sub-17	1.0	6.0	043_smiling	0.0		133.51865629967415	
18.0	112.70400613132824	pulse	1.0	t		20.0	male	black	2.609629924393156	smiling	043	sub-17	1.0	6.0	043_smiling	0.0		134.2186498399251	
19.0	113.02051272298922	face	0.0		145	25.0	female	black	3.858336649423	neutral	126	sub-17	1.0	6.0	126_neutral	0.0		134.53515643158607	1.2333569385864394
19.0	113.40400570872771	pulse	0.0	t		25.0	female	black	3.858336649423	neutral	126	sub-17	1.0	6.0	126_neutral	0.0		134.91864941732456	
19.0	114.1039784208142	pulse	0.0	t		25.0	female	black	3.858336649423	neutral	126	sub-17	1.0	6.0	126_neutral	0.0		135.61862212941105	
19.0	114.25386966157566	fix	1.0		444	25.0	female	black	3.858336649423	neutral	126	sub-17	1.0	6.0	126_neutral	0.0		135.7685133701725	3.766601103227913
19.0	114.8039752814966	pulse	1.0	t		25.0	female	black	3.858336649423	neutral	126	sub-17	1.0	6.0	126_neutral	0.0		136.31861899009346	
19.0	115.50396308645577	pulse	1.0	t		25.0	female	black	3.858336649423	neutral	126	sub-17	1.0	6.0	126_neutral	0.0		137.01860679505262	
19.0	116.20396749357496	pulse	1.0	t		25.0	female	black	3.858336649423	neutral	126	sub-17	1.0	6.0	126_neutral	0.0		137.71861120217181	
19.0	116.90394714838294	pulse	1.0	t		25.0	female	black	3.858336649423	neutral	126	sub-17	1.0	6.0	126_neutral	0.0		138.4185908569798	
19.0	117.60394008491858	pulse	1.0	t		25.0	female	black	3.858336649423	neutral	126	sub-17	1.0	6.0	126_neutral	0.0		139.11858379351543	
20.0	118.02047076480358	face	0.0		145	31.0	female	west_asian	2.364902506963788	smiling	006	sub-17	1.0	6.0	006_smiling	0.0		139.53511447340043	1.2333367141372946
20.0	118.30393422888392	pulse	0.0	t		31.0	female	west_asian	2.364902506963788	smiling	006	sub-17	1.0	6.0	006_smiling	0.0		139.81857793748077	
20.0	119.0039033186813	pulse	0.0	t		31.0	female	west_asian	2.364902506963788	smiling	006	sub-17	1.0	6.0	006_smiling	0.0		140.51854702727815	
20.0	119.25380747894087	fix	1.0		1185	31.0	female	west_asian	2.364902506963788	smiling	006	sub-17	1.0	6.0	006_smiling	0.0		140.76845118753772	10.016531223228412
20.0	119.7039330818252	pulse	1.0	t		31.0	female	west_asian	2.364902506963788	smiling	006	sub-17	1.0	6.0	006_smiling	0.0		141.21857679042205	
20.0	120.40390126605053	pulse	1.0	t		31.0	female	west_asian	2.364902506963788	smiling	006	sub-17	1.0	6.0	006_smiling	0.0		141.91854497464738	
20.0	121.10390416388145	pulse	1.0	t		31.0	female	west_asian	2.364902506963788	smiling	006	sub-17	1.0	6.0	006_smiling	0.0		142.6185478724783	
20.0	121.80389498741533	pulse	1.0	t		31.0	female	west_asian	2.364902506963788	smiling	006	sub-17	1.0	6.0	006_smiling	0.0		143.31853869601218	
20.0	122.50388309423215	pulse	1.0	t		31.0	female	west_asian	2.364902506963788	smiling	006	sub-17	1.0	6.0	006_smiling	0.0		144.018526802829	
20.0	123.20387361590747	pulse	1.0	t		31.0	female	west_asian	2.364902506963788	smiling	006	sub-17	1.0	6.0	006_smiling	0.0		144.71851732450432	
20.0	123.9038653450134	pulse	1.0	t		31.0	female	west_asian	2.364902506963788	smiling	006	sub-17	1.0	6.0	006_smiling	0.0		145.41850905361025	
20.0	124.60385405554553	pulse	1.0	t		31.0	female	west_asian	2.364902506963788	smiling	006	sub-17	1.0	6.0	006_smiling	0.0		146.11849776414238	
20.0	125.30386419795559	pulse	1.0	t		31.0	female	west_asian	2.364902506963788	smiling	006	sub-17	1.0	6.0	006_smiling	0.0		146.81850790655244	
20.0	126.00383841932944	pulse	1.0	t		31.0	female	west_asian	2.364902506963788	smiling	006	sub-17	1.0	6.0	006_smiling	0.0		147.5184821279263	
20.0	126.703826828003	pulse	1.0	t		31.0	female	west_asian	2.364902506963788	smiling	006	sub-17	1.0	6.0	006_smiling	0.0		148.21847053659985	
20.0	127.40382399054306	pulse	1.0	t		31.0	female	west_asian	2.364902506963788	smiling	006	sub-17	1.0	6.0	006_smiling	0.0		148.9184676991399	
20.0	128.10381330478958	pulse	1.0	t		31.0	female	west_asian	2.364902506963788	smiling	006	sub-17	1.0	6.0	006_smiling	0.0		149.61845701338643	
20.0	128.80380050603344	pulse	1.0	t		31.0	female	west_asian	2.364902506963788	smiling	006	sub-17	1.0	6.0	006_smiling	0.0		150.3184442146303	
21.0	129.27033870216928	face	0.0		145	27.0	female	white	3.504576203740549	smiling	144	sub-17	1.0	6.0	144_smiling	1.0	dominance	150.78498241076613	1.2333367141372946
21.0	129.50380280014997	pulse	0.0	t		27.0	female	white	3.504576203740549	smiling	144	sub-17	1.0	6.0	144_smiling	1.0	dominance	151.01844650874682	
21.0	130.20379724597296	pulse	0.0	t		27.0	female	white	3.504576203740549	smiling	144	sub-17	1.0	6.0	144_smiling	1.0	dominance	151.71844095456981	
21.0	130.50367541630658	fix	1.0		177	27.0	female	white	3.504576203740549	smiling	144	sub-17	1.0	6.0	144_smiling	1.0	dominance	152.01831912490343	1.4999827941255717
21.0	130.90378535278978	pulse	1.0	t		27.0	female	white	3.504576203740549	smiling	144	sub-17	1.0	6.0	144_smiling	1.0	dominance	152.41842906138663	
21.0	131.6037728558913	pulse	1.0	t		27.0	female	white	3.504576203740549	smiling	144	sub-17	1.0	6.0	144_smiling	1.0	dominance	153.11841656448814	
21.0	132.00365821043215	rating	2.0		294	27.0	female	white	3.504576203740549	smiling	144	sub-17	1.0	6.0	144_smiling	1.0	dominance	153.518301919029	2.499969814254655
21.0	132.29861489690666	pulse	2.0	t		27.0	female	white	3.504576203740549	smiling	144	sub-17	1.0	6.0	144_smiling	1.0	dominance	153.8132586055035	
21.0	132.99863047275085	pulse	2.0	t		27.0	female	white	3.504576203740549	smiling	144	sub-17	1.0	6.0	144_smiling	1.0	dominance	154.5132741813477	
21.0	133.41208462151008	response	2.0	b		27.0	female	white	3.504576203740549	smiling	144	sub-17	1.0	6.0	144_smiling	1.0	dominance	154.92672833010693	
21.0	133.69859382725645	pulse	2.0	t		27.0	female	white	3.504576203740549	smiling	144	sub-17	1.0	6.0	144_smiling	1.0	dominance	155.2132375358533	
21.0	134.40373765931236	pulse	2.0	t		27.0	female	white	3.504576203740549	smiling	144	sub-17	1.0	6.0	144_smiling	1.0	dominance	155.9183813679092	
21.0	134.5036280246868	fix	3.0		444	27.0	female	white	3.504576203740549	smiling	144	sub-17	1.0	6.0	144_smiling	1.0	dominance	156.01827173328365	3.766607140377346
21.0	135.1037218419824	pulse	3.0	t		27.0	female	white	3.504576203740549	smiling	144	sub-17	1.0	6.0	144_smiling	1.0	dominance	156.61836555057926	
21.0	135.8037292676754	pulse	3.0	t		27.0	female	white	3.504576203740549	smiling	144	sub-17	1.0	6.0	144_smiling	1.0	dominance	157.31837297627226	
21.0	136.5037225060687	pulse	3.0	t		27.0	female	white	3.504576203740549	smiling	144	sub-17	1.0	6.0	144_smiling	1.0	dominance	158.01836621466555	
21.0	137.20371031102786	pulse	3.0	t		27.0	female	white	3.504576203740549	smiling	144	sub-17	1.0	6.0	144_smiling	1.0	dominance	158.7183540196247	
21.0	137.90369751227172	pulse	3.0	t		27.0	female	white	3.504576203740549	smiling	144	sub-17	1.0	6.0	144_smiling	1.0	dominance	159.41834122086857	
22.0	138.27023516506415	face	0.0		145	22.0	female	white	4.614007162753682	smiling	009	sub-17	1.0	6.0	009_smiling	0.0		159.784878873661	1.2333336955625782
22.0	138.60370041010356	pulse	0.0	t		22.0	female	white	4.614007162753682	smiling	009	sub-17	1.0	6.0	009_smiling	0.0		160.1183441187004	
22.0	139.30372081566657	pulse	0.0	t		22.0	female	white	4.614007162753682	smiling	009	sub-17	1.0	6.0	009_smiling	0.0		160.81836452426342	
22.0	139.50356886062673	fix	1.0		444	22.0	female	white	4.614007162753682	smiling	009	sub-17	1.0	6.0	009_smiling	0.0		161.01821256922358	3.7666032162305783
22.0	140.00368930174955	pulse	1.0	t		22.0	female	white	4.614007162753682	smiling	009	sub-17	1.0	6.0	009_smiling	0.0		161.5183330103464	
22.0	140.70366865469987	pulse	1.0	t		22.0	female	white	4.614007162753682	smiling	009	sub-17	1.0	6.0	009_smiling	0.0		162.21831236329672	
22.0	141.40366732652637	pulse	1.0	t		22.0	female	white	4.614007162753682	smiling	009	sub-17	1.0	6.0	009_smiling	0.0		162.91831103512322	
22.0	142.10365150919642	pulse	1.0	t		22.0	female	white	4.614007162753682	smiling	009	sub-17	1.0	6.0	009_smiling	0.0		163.61829521779327	
22.0	142.8036393141556	pulse	1.0	t		22.0	female	white	4.614007162753682	smiling	009	sub-17	1.0	6.0	009_smiling	0.0		164.31828302275244	
23.0	143.2701720768573	face	0.0		145	19.0	male	white	2.243931555909272	smiling	130	sub-17	1.0	6.0	130_smiling	0.0		164.78481578545416	1.23333218627522
23.0	143.503636174838	pulse	0.0	t		19.0	male	white	2.243931555909272	smiling	130	sub-17	1.0	6.0	130_smiling	0.0		165.01827988343484	
23.0	144.2036230742251	pulse	0.0	t		19.0	male	white	2.243931555909272	smiling	130	sub-17	1.0	6.0	130_smiling	0.0		165.71826678282196	
23.0	144.50350426313253	fix	1.0		444	19.0	male	white	2.243931555909272	smiling	130	sub-17	1.0	6.0	130_smiling	0.0		166.01814797172938	3.7665926512199803
23.0	144.9036304999181	pulse	1.0	t		19.0	male	white	2.243931555909272	smiling	130	sub-17	1.0	6.0	130_smiling	0.0		166.41827420851496	
23.0	145.6036125695855	pulse	1.0	t		19.0	male	white	2.243931555909272	smiling	130	sub-17	1.0	6.0	130_smiling	0.0		167.11825627818234	
23.0	146.30360309126172	pulse	1.0	t		19.0	male	white	2.243931555909272	smiling	130	sub-17	1.0	6.0	130_smiling	0.0		167.81824679985857	
23.0	147.00359844265677	pulse	1.0	t		19.0	male	white	2.243931555909272	smiling	130	sub-17	1.0	6.0	130_smiling	0.0		168.51824215125362	
23.0	147.70358715318798	pulse	1.0	t		19.0	male	white	2.243931555909272	smiling	130	sub-17	1.0	6.0	130_smiling	0.0		169.21823086178483	
24.0	148.2700969143525	face	0.0		145	47.0	male	east_asian	2.171110226820533	smiling	024	sub-17	1.0	6.0	024_smiling	0.0		169.78474062294936	1.233354825583774
24.0	148.40359337145128	pulse	0.0	t		47.0	male	east_asian	2.171110226820533	smiling	024	sub-17	1.0	6.0	024_smiling	0.0		169.91823708004813	
24.0	149.10358178012575	pulse	0.0	t		47.0	male	east_asian	2.171110226820533	smiling	024	sub-17	1.0	6.0	024_smiling	0.0		170.6182254887226	
24.0	149.50345173993628	fix	1.0		444	47.0	male	east_asian	2.171110226820533	smiling	024	sub-17	1.0	6.0	024_smiling	0.0		171.01809544853313	3.766604423660283
24.0	149.8035883002467	pulse	1.0	t		47.0	male	east_asian	2.171110226820533	smiling	024	sub-17	1.0	6.0	024_smiling	0.0		171.31823200884355	
24.0	150.50356554019436	pulse	1.0	t		47.0	male	east_asian	2.171110226820533	smiling	024	sub-17	1.0	6.0	024_smiling	0.0		172.0182092487912	
24.0	151.20354398757263	pulse	1.0	t		47.0	male	east_asian	2.171110226820533	smiling	024	sub-17	1.0	6.0	024_smiling	0.0		172.71818769616948	
24.0	151.90353450924886	pulse	1.0	t		47.0	male	east_asian	2.171110226820533	smiling	024	sub-17	1.0	6.0	024_smiling	0.0		173.4181782178457	
24.0	152.60354012379776	pulse	1.0	t		47.0	male	east_asian	2.171110226820533	smiling	024	sub-17	1.0	6.0	024_smiling	0.0		174.1181838323946	
25.0	153.27005616359656	face	0.0		145	20.0	male	black	3.1070433744528456	neutral	082	sub-17	1.0	6.0	082_neutral	0.0		174.7846998721934	1.2333412419984597
25.0	153.30351042102484	pulse	0.0	t		20.0	male	black	3.1070433744528456	neutral	082	sub-17	1.0	6.0	082_neutral	0.0		174.8181541296217	
25.0	154.00352418572402	pulse	0.0	t		20.0	male	black	3.1070433744528456	neutral	082	sub-17	1.0	6.0	082_neutral	0.0		175.51816789432087	
25.0	154.50339740559502	fix	1.0		443	20.0	male	black	3.1070433744528456	neutral	082	sub-17	1.0	6.0	082_neutral	0.0		176.01804111419187	3.766614686814137
25.0	154.70353161141702	pulse	1.0	t		20.0	male	black	3.1070433744528456	neutral	082	sub-17	1.0	6.0	082_neutral	0.0		176.21817532001387	
25.0	155.40351488851502	pulse	1.0	t		20.0	male	black	3.1070433744528456	neutral	082	sub-17	1.0	6.0	082_neutral	0.0		176.91815859711187	
25.0	156.1034851857421	pulse	1.0	t		20.0	male	black	3.1070433744528456	neutral	082	sub-17	1.0	6.0	082_neutral	0.0		177.61812889433895	
25.0	156.8035218916075	pulse	1.0	t		20.0	male	black	3.1070433744528456	neutral	082	sub-17	1.0	6.0	082_neutral	0.0		178.31816560020434	
25.0	157.5034752848169	pulse	1.0	t		20.0	male	black	3.1070433744528456	neutral	082	sub-17	1.0	6.0	082_neutral	0.0		179.01811899341374	
25.0	158.20344437461426	pulse	1.0	t		20.0	male	black	3.1070433744528456	neutral	082	sub-17	1.0	6.0	082_neutral	0.0		179.71808808321111	
26.0	158.27001209240916	face	0.0		146	40.0	male	white	1.868682849184242	neutral	172	sub-17	1.0	6.0	172_neutral	0.0		179.784655801006	1.2333249416960825
26.0	158.90344757430375	pulse	0.0	t		40.0	male	white	1.868682849184242	neutral	172	sub-17	1.0	6.0	172_neutral	0.0		180.4180912829006	
26.0	159.50333703410524	fix	1.0		443	40.0	male	white	1.868682849184242	neutral	172	sub-17	1.0	6.0	172_neutral	0.0		181.0179807427021	3.766605932947641
26.0	159.60344835913293	pulse	1.0	t		40.0	male	white	1.868682849184242	neutral	172	sub-17	1.0	6.0	172_neutral	0.0		181.11809206772978	
26.0	160.3034373715218	pulse	1.0	t		40.0	male	white	1.868682849184242	neutral	172	sub-17	1.0	6.0	172_neutral	0.0		181.81808108011865	
26.0	161.00342215790624	pulse	1.0	t		40.0	male	white	1.868682849184242	neutral	172	sub-17	1.0	6.0	172_neutral	0.0		182.5180658665031	
26.0	161.7034199241607	pulse	1.0	t		40.0	male	white	1.868682849184242	neutral	172	sub-17	1.0	6.0	172_neutral	0.0		183.21806363275755	
26.0	162.4034143699837	pulse	1.0	t		40.0	male	white	1.868682849184242	neutral	172	sub-17	1.0	6.0	172_neutral	0.0		183.91805807858054	
26.0	163.10341485295612	pulse	1.0	t		40.0	male	white	1.868682849184242	neutral	172	sub-17	1.0	6.0	172_neutral	0.0		184.61805856155297	
27.0	163.26994296705288	face	0.0		146	31.0	female	white	2.1822522881018704	neutral	102	sub-17	1.0	6.0	102_neutral	0.0		184.78458667564973	1.2333315825608224
27.0	163.80339963934057	pulse	0.0	t		31.0	female	white	2.1822522881018704	neutral	102	sub-17	1.0	6.0	102_neutral	0.0		185.31804334793742	
27.0	164.5032745496137	fix	1.0		444	31.0	female	white	2.1822522881018704	neutral	102	sub-17	1.0	6.0	102_neutral	0.0		186.01791825821056	3.7666252518238252
27.0	164.51068696114635	pulse	1.0	t		31.0	female	white	2.1822522881018704	neutral	102	sub-17	1.0	6.0	102_neutral	0.0		186.0253306697432	
27.0	165.20338732355685	pulse	1.0	t		31.0	female	white	2.1822522881018704	neutral	102	sub-17	1.0	6.0	102_neutral	0.0		186.7180310321537	
27.0	165.90337241179805	pulse	1.0	t		31.0	female	white	2.1822522881018704	neutral	102	sub-17	1.0	6.0	102_neutral	0.0		187.4180161203949	
27.0	166.6033565944681	pulse	1.0	t		31.0	female	white	2.1822522881018704	neutral	102	sub-17	1.0	6.0	102_neutral	0.0		188.11800030306495	
27.0	167.30337307588525	pulse	1.0	t		31.0	female	white	2.1822522881018704	neutral	102	sub-17	1.0	6.0	102_neutral	0.0		188.8180167844821	
27.0	168.0033503158329	pulse	1.0	t		31.0	female	white	2.1822522881018704	neutral	102	sub-17	1.0	6.0	102_neutral	0.0		189.51799402442975	
28.0	168.26989980143753	face	0.0		145	22.0	male	black	2.767608436132113	smiling	044	sub-17	1.0	6.0	044_smiling	0.0		189.78454351003438	1.2333204138349174
28.0	168.70334445979825	pulse	0.0	t		22.0	male	black	2.767608436132113	smiling	044	sub-17	1.0	6.0	044_smiling	0.0		190.2179881683951	
28.0	169.4033304536133	pulse	0.0	t		22.0	male	black	2.767608436132113	smiling	044	sub-17	1.0	6.0	044_smiling	0.0		190.91797416221016	
28.0	169.50322021527245	fix	1.0		444	22.0	male	black	2.767608436132113	smiling	044	sub-17	1.0	6.0	044_smiling	0.0		191.0178639238693	3.7666231388220694
28.0	170.10331946600218	pulse	1.0	t		22.0	male	black	2.767608436132113	smiling	044	sub-17	1.0	6.0	044_smiling	0.0		191.61796317459903	
28.0	170.80332749540958	pulse	1.0	t		22.0	male	black	2.767608436132113	smiling	044	sub-17	1.0	6.0	044_smiling	0.0		192.31797120400643	
28.0	171.5032980944943	pulse	1.0	t		22.0	male	black	2.767608436132113	smiling	044	sub-17	1.0	6.0	044_smiling	0.0		193.01794180309116	
28.0	172.2033031053279	pulse	1.0	t		22.0	male	black	2.767608436132113	smiling	044	sub-17	1.0	6.0	044_smiling	0.0		193.71794681392475	
28.0	172.90331354959562	pulse	1.0	t		22.0	male	black	2.767608436132113	smiling	044	sub-17	1.0	6.0	044_smiling	0.0		194.41795725819247	
29.0	173.26984335409452	face	0.0		145	37.0	male	white	3.898925586947871	neutral	101	sub-17	1.0	6.0	101_neutral	0.0		194.78448706269137	1.2333170934025475
29.0	173.6033137307104	pulse	0.0	t		37.0	male	white	3.898925586947871	neutral	101	sub-17	1.0	6.0	101_neutral	0.0		195.11795743930725	
29.0	174.3032746703566	pulse	0.0	t		37.0	male	white	3.898925586947871	neutral	101	sub-17	1.0	6.0	101_neutral	0.0		195.81791837895344	
29.0	174.50316044749707	fix	1.0		444	37.0	male	white	3.898925586947871	neutral	101	sub-17	1.0	6.0	101_neutral	0.0		196.01780415609392	3.7666074422349993
29.0	175.00327092732368	pulse	1.0	t		37.0	male	white	3.898925586947871	neutral	101	sub-17	1.0	6.0	101_neutral	0.0		196.51791463592053	
29.0	175.7032608452855	pulse	1.0	t		37.0	male	white	3.898925586947871	neutral	101	sub-17	1.0	6.0	101_neutral	0.0		197.21790455388236	
29.0	176.40324683909967	pulse	1.0	t		37.0	male	white	3.898925586947871	neutral	101	sub-17	1.0	6.0	101_neutral	0.0		197.91789054769652	
29.0	177.10324309606676	pulse	1.0	t		37.0	male	white	3.898925586947871	neutral	101	sub-17	1.0	6.0	101_neutral	0.0		198.6178868046636	
29.0	177.80323814560506	pulse	1.0	t		37.0	male	white	3.898925586947871	neutral	101	sub-17	1.0	6.0	101_neutral	0.0		199.31788185420191	
30.0	178.26976788973207	face	0.0		145	26.0	male	white	2.7966573816155993	smiling	117	sub-17	1.0	6.0	117_smiling	0.0		199.78441159832892	1.2333349029922829
30.0	178.50323379885776	pulse	0.0	t		26.0	male	white	2.7966573816155993	smiling	117	sub-17	1.0	6.0	117_smiling	0.0		200.0178775074546	
30.0	179.2032173778125	pulse	0.0	t		26.0	male	white	2.7966573816155993	smiling	117	sub-17	1.0	6.0	117_smiling	0.0		200.71786108640936	
30.0	179.50310279272435	fix	1.0		444	26.0	male	white	2.7966573816155993	smiling	117	sub-17	1.0	6.0	117_smiling	0.0		201.0177465013212	3.7666068385206017
30.0	179.90322148307405	pulse	1.0	t		26.0	male	white	2.7966573816155993	smiling	117	sub-17	1.0	6.0	117_smiling	0.0		201.4178651916709	
30.0	180.60321502332408	pulse	1.0	t		26.0	male	white	2.7966573816155993	smiling	117	sub-17	1.0	6.0	117_smiling	0.0		202.11785873192093	
30.0	181.30322335459005	pulse	1.0	t		26.0	male	white	2.7966573816155993	smiling	117	sub-17	1.0	6.0	117_smiling	0.0		202.8178670631869	
30.0	182.0031894258127	pulse	1.0	t		26.0	male	white	2.7966573816155993	smiling	117	sub-17	1.0	6.0	117_smiling	0.0		203.51783313440956	
30.0	182.70319051249953	pulse	1.0	t		26.0	male	white	2.7966573816155993	smiling	117	sub-17	1.0	6.0	117_smiling	0.0		204.21783422109638	
31.0	183.26970963124495	face	0.0		145	37.0	male	white	3.898925586947871	smiling	101	sub-17	1.0	6.0	101_smiling	0.0		204.7843533398418	1.2333258472681337
31.0	183.40317258216692	pulse	0.0	t		37.0	male	white	3.898925586947871	smiling	101	sub-17	1.0	6.0	101_smiling	0.0		204.91781629076377	
31.0	184.10316099084048	pulse	0.0	t		37.0	male	white	3.898925586947871	smiling	101	sub-17	1.0	6.0	101_smiling	0.0		205.61780469943733	
31.0	184.50303547851308	fix	1.0		444	37.0	male	white	3.898925586947871	smiling	101	sub-17	1.0	6.0	101_smiling	0.0		206.01767918710993	3.766635514977679
31.0	184.80315604037878	pulse	1.0	t		37.0	male	white	3.898925586947871	smiling	101	sub-17	1.0	6.0	101_smiling	0.0		206.31779974897563	
31.0	185.503146562055	pulse	1.0	t		37.0	male	white	3.898925586947871	smiling	101	sub-17	1.0	6.0	101_smiling	0.0		207.01779027065186	
31.0	186.20314674316887	pulse	1.0	t		37.0	male	white	3.898925586947871	smiling	101	sub-17	1.0	6.0	101_smiling	0.0		207.71779045176572	
31.0	186.90313817041715	pulse	1.0	t		37.0	male	white	3.898925586947871	smiling	101	sub-17	1.0	6.0	101_smiling	0.0		208.417781879014	
31.0	187.60310846764423	pulse	1.0	t		37.0	male	white	3.898925586947871	smiling	101	sub-17	1.0	6.0	101_smiling	0.0		209.11775217624108	
32.0	188.26967099349076	face	0.0		145	24.0	female	east_asian	2.9076800636689217	smiling	034	sub-17	1.0	6.0	034_smiling	0.0		209.7843147020876	1.2333013968154773
32.0	188.30310955433106	pulse	0.0	t		24.0	female	east_asian	2.9076800636689217	smiling	034	sub-17	1.0	6.0	034_smiling	0.0		209.8177532629279	
32.0	189.003103094582	pulse	0.0	t		24.0	female	east_asian	2.9076800636689217	smiling	034	sub-17	1.0	6.0	034_smiling	0.0		210.51774680317885	
32.0	189.50297239030624	fix	1.0		443	24.0	female	east_asian	2.9076800636689217	smiling	034	sub-17	1.0	6.0	034_smiling	0.0		211.0176160989031	3.766612875669125
32.0	189.7031011626941	pulse	1.0	t		24.0	female	east_asian	2.9076800636689217	smiling	034	sub-17	1.0	6.0	034_smiling	0.0		211.21774487129096	
32.0	190.40310164566654	pulse	1.0	t		24.0	female	east_asian	2.9076800636689217	smiling	034	sub-17	1.0	6.0	034_smiling	0.0		211.9177453542634	
32.0	191.10308341347627	pulse	1.0	t		24.0	female	east_asian	2.9076800636689217	smiling	034	sub-17	1.0	6.0	034_smiling	0.0		212.61772712207312	
32.0	191.80308480202075	pulse	1.0	t		24.0	female	east_asian	2.9076800636689217	smiling	034	sub-17	1.0	6.0	034_smiling	0.0		213.3177285106176	
32.0	192.50306868283224	pulse	1.0	t		24.0	female	east_asian	2.9076800636689217	smiling	034	sub-17	1.0	6.0	034_smiling	0.0		214.0177123914291	
32.0	193.20305890265172	pulse	1.0	t		24.0	female	east_asian	2.9076800636689217	smiling	034	sub-17	1.0	6.0	034_smiling	0.0		214.71770261124857	
33.0	193.26958526597537	face	0.0		146	31.0	female	west_asian	2.364902506963788	neutral	006	sub-17	1.0	6.0	006_neutral	0.0		214.78422897457222	1.2333454680028808
33.0	193.9030521410441	pulse	0.0	t		31.0	female	west_asian	2.364902506963788	neutral	006	sub-17	1.0	6.0	006_neutral	0.0		215.41769584964095	
33.0	194.50293073397825	fix	1.0		443	31.0	female	west_asian	2.364902506963788	neutral	006	sub-17	1.0	6.0	006_neutral	0.0		216.0175744425751	3.7665881233579057
33.0	194.6030435682933	pulse	1.0	t		31.0	female	west_asian	2.364902506963788	neutral	006	sub-17	1.0	6.0	006_neutral	0.0		216.11768727689014	
33.0	195.30303831597303	pulse	1.0	t		31.0	female	west_asian	2.364902506963788	neutral	006	sub-17	1.0	6.0	006_neutral	0.0		216.81768202456988	
33.0	196.00303306365367	pulse	1.0	t		31.0	female	west_asian	2.364902506963788	neutral	006	sub-17	1.0	6.0	006_neutral	0.0		217.51767677225052	
33.0	196.7030211704705	pulse	1.0	t		31.0	female	west_asian	2.364902506963788	neutral	006	sub-17	1.0	6.0	006_neutral	0.0		218.21766487906734	
33.0	197.40301259771877	pulse	1.0	t		31.0	female	west_asian	2.364902506963788	neutral	006	sub-17	1.0	6.0	006_neutral	0.0		218.91765630631562	
33.0	198.10300764725616	pulse	1.0	t		31.0	female	west_asian	2.364902506963788	neutral	006	sub-17	1.0	6.0	006_neutral	0.0		219.617651355853	
34.0	198.26951885733615	face	0.0		146	28.0	male	east_asian	1.5563072025467568	smiling	005	sub-17	1.0	6.0	005_smiling	0.0		219.784162565933	1.2333563348711323
34.0	198.80299394292797	pulse	0.0	t		28.0	male	east_asian	1.5563072025467568	smiling	005	sub-17	1.0	6.0	005_smiling	0.0		220.31763765152482	
34.0	199.50287519220728	fix	1.0		444	28.0	male	east_asian	1.5563072025467568	smiling	005	sub-17	1.0	6.0	005_smiling	0.0		221.01751890080413	3.7666001976567713
34.0	199.51038329255243	pulse	1.0	t		28.0	male	east_asian	1.5563072025467568	smiling	005	sub-17	1.0	6.0	005_smiling	0.0		221.02502700114928	
34.0	200.20296562869953	pulse	1.0	t		28.0	male	east_asian	1.5563072025467568	smiling	005	sub-17	1.0	6.0	005_smiling	0.0		221.71760933729638	
34.0	200.9029658098134	pulse	1.0	t		28.0	male	east_asian	1.5563072025467568	smiling	005	sub-17	1.0	6.0	005_smiling	0.0		222.41760951841025	
34.0	201.60295421848787	pulse	1.0	t		28.0	male	east_asian	1.5563072025467568	smiling	005	sub-17	1.0	6.0	005_smiling	0.0		223.11759792708472	
34.0	202.30295470145938	pulse	1.0	t		28.0	male	east_asian	1.5563072025467568	smiling	005	sub-17	1.0	6.0	005_smiling	0.0		223.81759841005623	
34.0	203.00293858227178	pulse	1.0	t		28.0	male	east_asian	1.5563072025467568	smiling	005	sub-17	1.0	6.0	005_smiling	0.0		224.51758229086863	
35.0	203.26947538986406	face	0.0		145	21.0	male	east_asian/white	3.501790688420215	neutral	036	sub-17	1.0	6.0	036_neutral	1.0	attractiveness	224.7841190984609	1.2333189045466497
35.0	203.7029478191098	pulse	0.0	t		21.0	male	east_asian/white	3.501790688420215	neutral	036	sub-17	1.0	6.0	036_neutral	1.0	attractiveness	225.21759152770665	
35.0	204.40293381292395	pulse	0.0	t		21.0	male	east_asian/white	3.501790688420215	neutral	036	sub-17	1.0	6.0	036_neutral	1.0	attractiveness	225.9175775215208	
35.0	204.5027942944107	fix	1.0		177	21.0	male	east_asian/white	3.501790688420215	neutral	036	sub-17	1.0	6.0	036_neutral	1.0	attractiveness	226.01743800300756	1.5000003018576535
35.0	205.1029192030237	pulse	1.0	t		21.0	male	east_asian/white	3.501790688420215	neutral	036	sub-17	1.0	6.0	036_neutral	1.0	attractiveness	226.61756291162055	
35.0	205.80290821541257	pulse	1.0	t		21.0	male	east_asian/white	3.501790688420215	neutral	036	sub-17	1.0	6.0	036_neutral	1.0	attractiveness	227.31755192400942	
35.0	206.00279459626836	rating	2.0		295	21.0	male	east_asian/white	3.501790688420215	neutral	036	sub-17	1.0	6.0	036_neutral	1.0	attractiveness	227.5174383048652	2.4999749458320366
35.0	206.4977888941812	pulse	2.0	t		21.0	male	east_asian/white	3.501790688420215	neutral	036	sub-17	1.0	6.0	036_neutral	1.0	attractiveness	228.01243260277806	
35.0	207.1977721712783	pulse	2.0	t		21.0	male	east_asian/white	3.501790688420215	neutral	036	sub-17	1.0	6.0	036_neutral	1.0	attractiveness	228.71241587987515	
35.0	207.2029085776412	response	2.0	w		21.0	male	east_asian/white	3.501790688420215	neutral	036	sub-17	1.0	6.0	036_neutral	1.0	attractiveness	228.71755228623806	
35.0	207.9028837045871	pulse	2.0	t		21.0	male	east_asian/white	3.501790688420215	neutral	036	sub-17	1.0	6.0	036_neutral	1.0	attractiveness	229.41752741318396	
35.0	208.5027695421004	fix	3.0		443	21.0	male	east_asian/white	3.501790688420215	neutral	036	sub-17	1.0	6.0	036_neutral	1.0	attractiveness	230.01741325069725	3.766602310658527
35.0	208.6029838005179	pulse	3.0	t		21.0	male	east_asian/white	3.501790688420215	neutral	036	sub-17	1.0	6.0	036_neutral	1.0	attractiveness	230.11762750911475	
35.0	209.30287802966723	pulse	3.0	t		21.0	male	east_asian/white	3.501790688420215	neutral	036	sub-17	1.0	6.0	036_neutral	1.0	attractiveness	230.81752173826408	
35.0	210.00286191047962	pulse	3.0	t		21.0	male	east_asian/white	3.501790688420215	neutral	036	sub-17	1.0	6.0	036_neutral	1.0	attractiveness	231.51750561907647	
35.0	210.70286028044939	pulse	3.0	t		21.0	male	east_asian/white	3.501790688420215	neutral	036	sub-17	1.0	6.0	036_neutral	1.0	attractiveness	232.21750398904624	
35.0	211.40283993525736	pulse	3.0	t		21.0	male	east_asian/white	3.501790688420215	neutral	036	sub-17	1.0	6.0	036_neutral	1.0	attractiveness	232.9174836438542	
35.0	212.10285792596096	pulse	3.0	t		21.0	male	east_asian/white	3.501790688420215	neutral	036	sub-17	1.0	6.0	036_neutral	1.0	attractiveness	233.6175016345578	
36.0	212.26937185275892	face	0.0		146	27.0	male	black	3.5523278949462798	neutral	042	sub-17	1.0	6.0	042_neutral	0.0		233.78401556135577	1.2333373178516922
36.0	212.80284754206514	pulse	0.0	t		27.0	male	black	3.5523278949462798	neutral	042	sub-17	1.0	6.0	042_neutral	0.0		234.317491250662	
36.0	213.50270917061061	fix	1.0		444	27.0	male	black	3.5523278949462798	neutral	042	sub-17	1.0	6.0	042_neutral	0.0		235.01735287920746	3.766605932947641
36.0	213.51042042101835	pulse	1.0	t		27.0	male	black	3.5523278949462798	neutral	042	sub-17	1.0	6.0	042_neutral	0.0		235.0250641296152	
36.0	214.2028092665405	pulse	1.0	t		27.0	male	black	3.5523278949462798	neutral	042	sub-17	1.0	6.0	042_neutral	0.0		235.71745297513735	
36.0	214.9028073346526	pulse	1.0	t		27.0	male	black	3.5523278949462798	neutral	042	sub-17	1.0	6.0	042_neutral	0.0		236.41745104324946	
36.0	215.60279725261353	pulse	1.0	t		27.0	male	black	3.5523278949462798	neutral	042	sub-17	1.0	6.0	042_neutral	0.0		237.11744096121038	
36.0	216.30281584703243	pulse	1.0	t		27.0	male	black	3.5523278949462798	neutral	042	sub-17	1.0	6.0	042_neutral	0.0		237.81745955562928	
36.0	217.0027795033957	pulse	1.0	t		27.0	male	black	3.5523278949462798	neutral	042	sub-17	1.0	6.0	042_neutral	0.0		238.51742321199254	
37.0	217.26931510355826	face	0.0		145	27.0	female	white	4.181058495821727	smiling	039	sub-17	1.0	6.0	039_smiling	0.0		238.7839588121551	1.233332488131964
37.0	217.70278843837605	pulse	0.0	t		27.0	female	white	4.181058495821727	smiling	039	sub-17	1.0	6.0	039_smiling	0.0		239.2174321469729	
37.0	218.40276930061373	pulse	0.0	t		27.0	female	white	4.181058495821727	smiling	039	sub-17	1.0	6.0	039_smiling	0.0		239.91741300921058	
37.0	218.50264759169022	fix	1.0		444	27.0	female	white	4.181058495821727	smiling	039	sub-17	1.0	6.0	039_smiling	0.0		240.01729130028707	3.758354357704775
37.0	219.10275469071348	pulse	1.0	t		27.0	female	white	4.181058495821727	smiling	039	sub-17	1.0	6.0	039_smiling	0.0		240.61739839931033	
37.0	219.80274491053206	pulse	1.0	t		27.0	female	white	4.181058495821727	smiling	039	sub-17	1.0	6.0	039_smiling	0.0		241.3173886191289	
37.0	220.5027589770898	pulse	1.0	t		27.0	female	white	4.181058495821727	smiling	039	sub-17	1.0	6.0	039_smiling	0.0		242.01740268568665	
37.0	221.20272867060157	pulse	1.0	t		27.0	female	white	4.181058495821727	smiling	039	sub-17	1.0	6.0	039_smiling	0.0		242.71737237919842	
37.0	221.90272643685603	pulse	1.0	t		27.0	female	white	4.181058495821727	smiling	039	sub-17	1.0	6.0	039_smiling	0.0		243.41737014545288	
38.0	222.261001949395	face	0.0		146	26.0	male	white	2.7966573816155993	neutral	117	sub-17	1.0	6.0	117_neutral	0.0		243.77564565799184	1.241589798667519
38.0	222.6027184678196	pulse	0.0	t		26.0	male	white	2.7966573816155993	neutral	117	sub-17	1.0	6.0	117_neutral	0.0		244.11736217641646	
38.0	223.3027198563641	pulse	0.0	t		26.0	male	white	2.7966573816155993	neutral	117	sub-17	1.0	6.0	117_neutral	0.0		244.81736356496094	
38.0	223.5025917480625	fix	1.0		444	26.0	male	white	2.7966573816155993	neutral	117	sub-17	1.0	6.0	117_neutral	0.0		245.01723545665936	3.7666065366620387
38.0	224.00270071860177	pulse	1.0	t		26.0	male	white	2.7966573816155993	neutral	117	sub-17	1.0	6.0	117_neutral	0.0		245.51734442719862	
38.0	224.70269274956536	pulse	1.0	t		26.0	male	white	2.7966573816155993	neutral	117	sub-17	1.0	6.0	117_neutral	0.0		246.2173364581622	
38.0	225.4026850823857	pulse	1.0	t		26.0	male	white	2.7966573816155993	neutral	117	sub-17	1.0	6.0	117_neutral	0.0		246.91732879098254	
38.0	226.1026750003466	pulse	1.0	t		26.0	male	white	2.7966573816155993	neutral	117	sub-17	1.0	6.0	117_neutral	0.0		247.61731870894346	
38.0	226.80267548331904	pulse	1.0	t		26.0	male	white	2.7966573816155993	neutral	117	sub-17	1.0	6.0	117_neutral	0.0		248.31731919191589	
39.0	227.26919828472455	face	0.0		145	22.0	female	white	4.614007162753682	neutral	009	sub-17	1.0	6.0	009_neutral	0.0		248.7838419933214	1.2333451661461368
39.0	227.50265815670082	pulse	0.0	t		22.0	female	white	4.614007162753682	neutral	009	sub-17	1.0	6.0	009_neutral	0.0		249.01730186529767	
39.0	228.20266045081735	pulse	0.0	t		22.0	female	white	4.614007162753682	neutral	009	sub-17	1.0	6.0	009_neutral	0.0		249.7173041594142	
39.0	228.5025434508707	fix	1.0		444	22.0	female	white	4.614007162753682	neutral	009	sub-17	1.0	6.0	009_neutral	0.0		250.01718715946754	3.7499373645787273
39.0	228.90265882078802	pulse	1.0	t		22.0	female	white	4.614007162753682	neutral	009	sub-17	1.0	6.0	009_neutral	0.0		250.41730252938487	
39.0	229.6026315328745	pulse	1.0	t		22.0	female	white	4.614007162753682	neutral	009	sub-17	1.0	6.0	009_neutral	0.0		251.11727524147136	
39.0	230.3026253749822	pulse	1.0	t		22.0	female	white	4.614007162753682	neutral	009	sub-17	1.0	6.0	009_neutral	0.0		251.81726908357905	
39.0	231.0026122743684	pulse	1.0	t		22.0	female	white	4.614007162753682	neutral	009	sub-17	1.0	6.0	009_neutral	0.0		252.51725598296525	
39.0	231.70260460718964	pulse	1.0	t		22.0	female	white	4.614007162753682	neutral	009	sub-17	1.0	6.0	009_neutral	0.0		253.2172483157865	
40.0	232.25248081544942	fix	0.0		720													253.76712452404627	5.999916989201665
40.0	232.40259482700822	pulse	0.0	t														253.91723853560507	
40.0	233.10258112268002	pulse	0.0	t														254.61722483127687	
40.0	233.80258552979922	pulse	0.0	t														255.31722923839607	
40.0	234.50257031618366	pulse	0.0	t														256.0172140247805	
40.0	235.20256174343194	pulse	0.0	t														256.7172054520288	
40.0	235.90255588739728	pulse	0.0	t														257.41719959599413	
40.0	236.60256421866325	pulse	0.0	t														258.1172079272601	
40.0	237.30254447718562	pulse	0.0	t														258.81718818578247	
40.0	238.00253228214478	pulse	0.0	t														259.51717599074163	
