trial_nr	onset	event_type	phase	response	nr_frames	rating_type	face_id	repetition	session	rating	onset_abs	duration
0.0	0.008568450558186669	cue	0.0		479						22.63247486832347	3.9921288340465253
0.0	4.000697284604712	fix	1.0		120						26.624603702369996	1.0167948996197538
0.0	5.017492184224466	face	0.0		147	trustworthiness	130	1.0	2		27.64139860198975	1.2836840534030216
0.0	6.301176237627487	rating	1.0		142	trustworthiness	130	1.0	2		28.92508265539277	1.191585435022489
0.0	7.492761672649976	fix	2.0		61	trustworthiness	130	1.0	2	1.2800000000000002	30.11666809041526	0.5250809650058272
1.0	8.017842637655804	face	0.0		146	trustworthiness	036	1.0	2		30.641749055421087	1.2251230133801982
1.0	9.242965651036002	rating	1.0		86	trustworthiness	036	1.0	2		31.866872068801285	0.7250857343117332
1.0	9.968051385347735	fix	2.0		60	trustworthiness	036	1.0	2	1.3399999999999999	32.59195780311302	0.5167437352297384
2.0	10.484795120577473	face	0.0		147	trustworthiness	101	1.0	2		33.10870153834276	1.2334605450109848
2.0	11.718255665588458	rating	1.0		117	trustworthiness	101	1.0	2		34.34216208335374	0.9751102600146169
2.0	12.693365925603075	fix	2.0		60	trustworthiness	101	1.0	2	2.1900000000000004	35.31727234336836	0.5167509797452112
3.0	13.210116905348286	face	0.0		147	trustworthiness	117	1.0	2		35.83402332311357	1.233456017188928
3.0	14.443572922537214	rating	1.0		170	trustworthiness	117	1.0	2		37.0674793403025	1.416827982906625
3.0	15.86040090544384	fix	2.0		60	trustworthiness	117	1.0	2	0.6900000000000004	38.48430732320912	0.5167494704710407
4.0	16.37715037591488	face	0.0		147	trustworthiness	006	1.0	2		39.00105679368016	1.2334545079149848
4.0	17.610604883829865	rating	1.0		86	trustworthiness	006	1.0	2		40.23451130159515	0.7250824139086944
4.0	18.33568729773856	fix	2.0		60	trustworthiness	006	1.0	2	-3.12	40.95959371550384	0.5167956542566117
5.0	18.85248295199517	face	0.0		147	trustworthiness	137	1.0	2		41.476389369760454	1.233398966630375
5.0	20.085881918625546	rating	1.0		106	trustworthiness	137	1.0	2		42.70978833639083	0.8834411810248639
5.0	20.96932309965041	fix	2.0		60	trustworthiness	137	1.0	2	1.1600000000000001	43.59322951741569	0.5167413203914748
6.0	21.486064420041885	face	0.0		147	trustworthiness	043	1.0	2		44.10997083780717	1.2334551116243802
6.0	22.719519531666265	rating	1.0		106	trustworthiness	043	1.0	2		45.34342594943155	0.8834432940086572
6.0	23.602962825674922	fix	2.0		60	trustworthiness	043	1.0	2	-2.31	46.226869243440206	0.5167452445039089
7.0	24.11970807017883	face	0.0		147	trustworthiness	009	1.0	2		46.743614487944114	1.2334548097696825
7.0	25.353162879948513	rating	1.0		127	trustworthiness	009	1.0	2		47.9770692977138	1.0584529760017176
7.0	26.41161585595023	fix	2.0		60	trustworthiness	009	1.0	2	1.7000000000000002	49.035522273715515	0.5167506778902862
8.0	26.928366533840517	face	0.0		147	trustworthiness	099	1.0	2		49.5522729516058	1.2334484708187574
8.0	28.161815004659275	rating	1.0		187	trustworthiness	099	1.0	2		50.78572142242456	1.5585131960356193
8.0	29.720328200694894	fix	2.0		60	trustworthiness	099	1.0	2	0.6900000000000004	52.34423461846018	0.5167467537778521
9.0	30.237074954472746	face	0.0		147	trustworthiness	024	1.0	2		52.86098137223803	1.233453602350437
9.0	31.470528556823183	rating	1.0		108	trustworthiness	024	1.0	2		54.09443497458847	0.9084441165630324
9.0	32.378972673386215	fix	2.0		60	trustworthiness	024	1.0	2	-3.44	55.0028790911515	0.5167425278107203
10.0	32.895715201196936	face	0.0		147	trustworthiness	066	1.0	2		55.51962161896222	1.2334997861357806
10.0	34.129214987332716	rating	1.0		330	trustworthiness	066	1.0	2		56.753121405098	2.750276725394542
10.0	36.87949171272726	fix	2.0		60	trustworthiness	066	1.0	2	-2.99	59.50339813049254	0.5167506778905135
11.0	37.39624239061777	face	0.0		147	trustworthiness	012	1.0	2		60.020148808383055	1.233453300495512
11.0	38.629695691113284	rating	1.0		356	trustworthiness	012	1.0	2		61.25360210887857	2.9670069677144966
11.0	41.59670265882778	fix	2.0		60	trustworthiness	012	1.0	2	-0.94	64.22060907659306	0.5167521871644567
12.0	42.11345484599224	face	0.0		147	trustworthiness	039	1.0	2		64.73736126375752	1.2334520930762665
12.0	43.346906939068504	rating	1.0		234	trustworthiness	039	1.0	2		65.97081335683379	1.9502235385775748
12.0	45.29713047764608	fix	2.0		60	trustworthiness	039	1.0	2	2.08	67.92103689541136	0.5167464519231544
13.0	45.81387692956923	face	0.0		147	trustworthiness	100	1.0	2		68.43778334733452	1.2334590357368143
13.0	47.04733596530605	rating	1.0		131	trustworthiness	100	1.0	2		69.67124238307133	1.100116485770286
13.0	48.14745245107633	fix	2.0		60	trustworthiness	100	1.0	2	1.33	70.77135886884162	0.5167482630517952
14.0	48.66420071412813	face	0.0		147	trustworthiness	102	1.0	2		71.28810713189341	1.233456017188928
14.0	49.897656731317056	rating	1.0		275	trustworthiness	102	1.0	2		72.52156314908234	2.300262824980564
14.0	52.19791955629762	fix	2.0		60	trustworthiness	102	1.0	2	-1.0099999999999998	74.8218259740629	0.516757922405759
15.0	52.71467747870338	face	0.0		147	trustworthiness	044	1.0	2		75.33858389646866	1.2334508856572484
15.0	53.94812836436063	rating	1.0		78	trustworthiness	044	1.0	2		76.57203478212591	0.6500672683437188
15.0	54.598195632704346	fix	2.0		60	trustworthiness	044	1.0	2	0.96	77.22210205046963	0.5167597335346272
16.0	55.11495536623897	face	0.0		147	trustworthiness	042	1.0	2		77.73886178400426	1.2334442448513983
16.0	56.34839961109037	rating	1.0		220	trustworthiness	042	1.0	2		78.97230602885566	1.8335503166306353
16.0	58.18194992772101	fix	2.0		60	trustworthiness	042	1.0	2	-2.85	80.80585634548629	0.516751583454834
17.0	58.69870151117584	face	0.0		147	trustworthiness	087	1.0	2		81.32260792894112	1.233444546706096
17.0	59.93214605788194	rating	1.0		166	trustworthiness	087	1.0	2		82.55605247564722	1.391831084464684
17.0	61.32397714234662	fix	2.0		60	trustworthiness	087	1.0	2	-3.25	83.9478835601119	0.5167512816001363
18.0	61.84072842394676	face	0.0		147	trustworthiness	061	1.0	2		84.46463484171204	1.2334472633992846
18.0	63.07417568734604	rating	1.0		122	trustworthiness	061	1.0	2		85.69808210511133	1.0167867495399605
18.0	64.090962436886	fix	2.0		60	trustworthiness	061	1.0	2	-3.74	86.71486885465129	0.5167476593423999
19.0	64.6077100962284	face	0.0		147	trustworthiness	121	1.0	2		87.23161651399369	1.233453300495512
19.0	65.84116339672391	rating	1.0		136	trustworthiness	121	1.0	2		88.4650698144892	1.141804445778007
19.0	66.98296784250192	fix	2.0		60	trustworthiness	121	1.0	2	0.6900000000000004	89.6068742602672	0.5167473574874748
20.0	67.4997151999894	face	0.0		147	trustworthiness	124	1.0	2		90.12362161775468	1.233448772673455
20.0	68.73316397266285	rating	1.0		433	trustworthiness	124	1.0	2		91.35707039042813	3.608754513861413
20.0	72.34191848652426	fix	2.0		60	trustworthiness	124	1.0	2	1.6799999999999997	94.96582490428955	0.5167434333750407
21.0	72.8586619198993	face	0.0		147	trustworthiness	070	1.0	2		95.48256833766459	1.2334529986408143
21.0	74.09211491854012	rating	1.0		188	trustworthiness	070	1.0	2		96.7160213363054	1.5668458979891966
21.0	75.65896081652932	fix	2.0		60	trustworthiness	070	1.0	2	-2.92	98.2828672342946	0.5167476593423999
22.0	76.17570847587172	face	0.0		147	trustworthiness	062	1.0	2		98.799614893637	1.2334650728330416
22.0	77.40917354870476	rating	1.0		110	trustworthiness	062	1.0	2		100.03307996647004	0.9250959370042438
22.0	78.334269485709	fix	2.0		60	trustworthiness	062	1.0	2	-1.42	100.95817590347428	0.5167552057125704
23.0	78.85102469142157	face	0.0		147	trustworthiness	092	1.0	2		101.47493110918685	1.233448772673455
23.0	80.08447346409503	rating	1.0		263	trustworthiness	092	1.0	2		102.70837988186031	2.1919253235353153
23.0	82.27639878763034	fix	2.0		60	trustworthiness	092	1.0	2	-3.31	104.90030520539563	0.5167485649069476
24.0	82.79314735253729	face	0.0		147	trustworthiness	172	1.0	2		105.41705377030257	1.2334563190436256
24.0	84.02660367158092	rating	1.0		135	trustworthiness	172	1.0	2		106.6505100893462	1.1251203268725476
24.0	85.15172399845346	fix	2.0		60	trustworthiness	172	1.0	2	-3.5300000000000002	107.77563041621875	0.5167591298250045
25.0	85.66848312827847	face	0.0		147	trustworthiness	141	1.0	2		108.29238954604375	1.233444848561021
25.0	86.90192797683949	rating	1.0		173	trustworthiness	141	1.0	2		109.52583439460477	1.4501645259624638
25.0	88.35209250280195	fix	2.0		60	trustworthiness	141	1.0	2	0.8499999999999996	110.97599892056724	0.5167561112771182
26.0	88.86884861407907	face	0.0		147	trustworthiness	005	1.0	2		111.49275503184435	1.2334502819473983
26.0	90.10229889602647	rating	1.0		109	trustworthiness	005	1.0	2		112.72620531379175	0.916768064727421
26.0	91.01906696075389	fix	2.0		60	trustworthiness	005	1.0	2	-3.4	113.64297337851917	0.516751583454834
27.0	91.53581854420872	face	0.0		147	trustworthiness	144	1.0	2		114.159724961974	1.233453300495512
27.0	92.76927184470424	rating	1.0		126	trustworthiness	144	1.0	2		115.39317826246952	1.0501175573547243
27.0	93.81938940205896	fix	2.0		60	trustworthiness	144	1.0	2	1.9500000000000002	116.44329581982424	0.516749168616343
28.0	94.3361385706753	face	0.0		147	trustworthiness	018	1.0	2		116.96004498844059	1.2334641672687212
28.0	95.56960273794402	rating	1.0		103	trustworthiness	018	1.0	2		118.19350915570931	0.8584285861331864
28.0	96.42803132407721	fix	2.0		60	trustworthiness	018	1.0	2	2.76	119.0519377418425	0.5167543001480226
29.0	96.94478562422523	face	0.0		147	trustworthiness	038	1.0	2		119.56869204199052	1.2334514893666437
29.0	98.17823711359188	rating	1.0		123	trustworthiness	038	1.0	2		120.80214353135716	1.033442192238681
29.0	99.21167930583056	fix	2.0		60	trustworthiness	038	1.0	2	-2.9299999999999997	121.83558572359584	0.5167506778905135
30.0	99.72842998372107	face	0.0		147	trustworthiness	064	1.0	2		122.35233640148635	1.233464469123419
30.0	100.96189445284449	rating	1.0		112	trustworthiness	064	1.0	2		123.58580087060977	0.9417782447806076
30.0	101.9036726976251	fix	2.0		60	trustworthiness	064	1.0	2	2.4000000000000004	124.52757911539038	0.5167413203914748
31.0	102.42041401801657	face	0.0		147	trustworthiness	034	1.0	2		125.04432043578186	1.2334566208985507
31.0	103.65387063891512	rating	1.0		93	trustworthiness	034	1.0	2		126.2777770566804	0.7834110257297198
31.0	104.43728166464484	fix	2.0		60	trustworthiness	034	1.0	2	-0.6800000000000002	127.06118808241013	0.5167527908740794
32.0	104.95403445551892	face	0.0		147	trustworthiness	011	1.0	2		127.5779408732842	1.233457526462871
32.0	106.1874919819818	rating	1.0		221	trustworthiness	011	1.0	2		128.81139839974708	1.8502145131187717
32.0	108.03770649510057	fix	2.0		60	trustworthiness	011	1.0	2	-0.6200000000000001	130.66161291286585	0.5167494704712681
33.0	108.55445596557183	face	0.0		147	trustworthiness	082	1.0	2		131.17836238333712	1.233450885657021
33.0	109.78790685122885	rating	1.0		195	trustworthiness	082	1.0	2		132.41181326899414	1.6251802450517516
33.0	111.4130870962806	fix	2.0		60	trustworthiness	082	1.0	2	2.4800000000000004	134.0369935140459	0.5167570168414386
34.0	111.92984411312204	face	0.0		147	trustworthiness	033	1.0	2		134.55375053088733	1.2334466596896618
34.0	113.1632907728117	rating	1.0		106	trustworthiness	033	1.0	2		135.787197190577	0.8834357476384866
34.0	114.04672652045019	fix	2.0		60	trustworthiness	033	1.0	2	-1.3199999999999998	136.67063293821548	0.5167564131318159
35.0	114.56348293358201	face	0.0		147	trustworthiness	136	1.0	2		137.1873893513473	1.233453602350437
35.0	115.79693653593245	rating	1.0		128	trustworthiness	136	1.0	2		138.42084295369773	1.0751210966022882
35.0	116.87205763253473	fix	2.0		60	trustworthiness	136	1.0	2	-2.84	139.49596405030002	0.5167446407942862
36.0	117.38880227332902	face	0.0		147	trustworthiness	126	1.0	2		140.0127086910943	1.233459639446437
36.0	118.62226191277546	rating	1.0		200	trustworthiness	126	1.0	2		141.24616833054074	1.6751858142729361
36.0	120.2974477270484	fix	2.0		60	trustworthiness	126	1.0	2	-0.56	142.92135414481368	0.5167576205510613
37.0	120.81420534759945	face	0.0		147	trustworthiness	027	1.0	2		143.43811176536474	1.2334466596898892
37.0	122.04765200728934	rating	1.0		420	trustworthiness	027	1.0	2		144.67155842505463	3.5003995048373326
37.0	125.54805151212668	fix	2.0		60	trustworthiness	027	1.0	2	0.71	148.17195792989196	0.5167506778905135
38.0	126.06480219001719	face	0.0		147	trustworthiness	091	1.0	2		148.68870860778247	1.233463563558871
38.0	127.29826575357606	rating	1.0		114	trustworthiness	091	1.0	2		149.92217217134134	0.9584409319948008
38.0	128.25670668557086	fix	2.0		60	trustworthiness	091	1.0	2	-0.8500000000000001	150.88061310333615	0.5167497723259658
39.0	128.77345645789683	face	0.0		147	trustworthiness	030	1.0	2		151.3973628756621	1.233453602350437
39.0	130.00691006024726	rating	1.0		147	trustworthiness	030	1.0	2		152.63081647801255	1.2334756377513258
39.0	131.2403856979986	fix	2.0		60	trustworthiness	030	1.0	2	0.6100000000000003	153.86429211576387	0.5000572014860154
40.0	131.7404428994846	cue	0.0		480						154.3643493172499	4.000453385920309
40.0	135.74089628540492	fix	1.0		120						158.3648027031702	1.0168115016342654
40.0	136.75770778703918	face	0.0		147	attractiveness	087	1.0	2		159.38161420480446	1.2334502819473983
40.0	137.99115806898658	rating	1.0		160	attractiveness	087	1.0	2		160.61506448675186	1.3334925114349971
40.0	139.32465058042158	fix	2.0		60	attractiveness	087	1.0	2	-1.44	161.94855699818686	0.5167410185365497
41.0	139.84139159895813	face	0.0		147	attractiveness	030	1.0	2		162.4652980167234	1.233457526462871
41.0	141.074849125421	rating	1.0		83	attractiveness	030	1.0	2		163.69875554318628	0.7000770635322624
41.0	141.77492618895326	fix	2.0		60	attractiveness	030	1.0	2	0.8200000000000003	164.39883260671854	0.516795352401914
42.0	142.29172154135517	face	0.0		147	attractiveness	042	1.0	2		164.91562795912046	1.233416474209207
42.0	143.52513801556438	rating	1.0		114	attractiveness	042	1.0	2		166.14904443332966	0.9584342911889507
42.0	144.48357230675333	fix	2.0		60	attractiveness	042	1.0	2	1.7300000000000004	167.10747872451861	0.5167479611973249
43.0	145.00032026795066	face	0.0		147	attractiveness	062	1.0	2		167.62422668571594	1.233455715334003
43.0	146.23377598328466	rating	1.0		81	attractiveness	062	1.0	2		168.85768240104994	0.67507684468751
43.0	146.90885282797217	fix	2.0		60	attractiveness	062	1.0	2	-1.19	169.53275924573745	0.5167567149865135
44.0	147.42560954295868	face	0.0		147	attractiveness	066	1.0	2		170.04951596072397	1.2334551116243802
44.0	148.65906465458306	rating	1.0		82	attractiveness	066	1.0	2		171.28297107234835	0.6917443615786851
44.0	149.35080901616175	fix	2.0		60	attractiveness	066	1.0	2	-1.9300000000000002	171.97471543392703	0.5167398111173043
45.0	149.86754882727905	face	0.0		147	attractiveness	024	1.0	2		172.49145524504434	1.2334554134793052
45.0	151.10100424075836	rating	1.0		83	attractiveness	024	1.0	2		173.72491065852364	0.7000858173216784
45.0	151.80109005808004	fix	2.0		60	attractiveness	024	1.0	2	-2.52	174.42499647584532	0.5167497723259658
46.0	152.317839830406	face	0.0		147	attractiveness	043	1.0	2		174.94174624817128	1.2334545079147574
46.0	153.55129433832076	rating	1.0		93	attractiveness	043	1.0	2		176.17520075608604	0.7834212887933063
46.0	154.33471562711406	fix	2.0		60	attractiveness	043	1.0	2	-2.19	176.95862204487935	0.5167521871644567
47.0	154.85146781427852	face	0.0		147	attractiveness	064	1.0	2		177.4753742320438	1.2334514893666437
47.0	156.08491930364517	rating	1.0		154	attractiveness	064	1.0	2		178.70882572141045	1.2918078718300876
47.0	157.37672717547525	fix	2.0		60	attractiveness	064	1.0	2	1.5499999999999998	180.00063359324054	0.5167494704712681
48.0	157.89347664594652	face	0.0		147	attractiveness	144	1.0	2		180.5173830637118	1.2334786562992122
48.0	159.12695530224573	rating	1.0		142	attractiveness	144	1.0	2		181.75086172001102	1.1917777165349435
48.0	160.31873301878068	fix	2.0		60	attractiveness	144	1.0	2	1.3099999999999996	182.94263943654596	0.5167552057125704
49.0	160.83548822449325	face	0.0		147	attractiveness	036	1.0	2		183.45939464225853	1.23344847081853
49.0	162.06893669531178	rating	1.0		101	attractiveness	036	1.0	2		184.69284311307706	0.8501022231305342
49.0	162.9190389184423	fix	2.0		60	attractiveness	036	1.0	2	0.6200000000000001	185.5429453362076	0.5167437352297384
50.0	163.43578265367205	face	0.0		147	attractiveness	117	1.0	2		186.05968907143733	1.2334614505753052
50.0	164.66924410424735	rating	1.0		152	attractiveness	117	1.0	2		187.29315052201264	1.2751370345363284
50.0	165.94438113878368	fix	2.0		60	attractiveness	117	1.0	2	1.6600000000000001	188.56828755654897	0.516751583454834
51.0	166.46113272223852	face	0.0		147	attractiveness	102	1.0	2		189.0850391400038	1.2334563190436256
51.0	167.69458904128214	rating	1.0		121	attractiveness	102	1.0	2		190.31849545904743	1.016784938410865
51.0	168.711373979693	fix	2.0		60	attractiveness	102	1.0	2	-2.9	191.3352803974583	0.5167524890193818
52.0	169.2281264687124	face	0.0		147	attractiveness	136	1.0	2		191.85203288647767	1.2334514893666437
52.0	170.46157795807903	rating	1.0		146	attractiveness	136	1.0	2		193.08548437584432	1.225139917249635
52.0	171.68671787532867	fix	2.0		60	attractiveness	136	1.0	2	-3.64	194.31062429309395	0.5167494704712681
53.0	172.20346734579994	face	0.0		147	attractiveness	101	1.0	2		194.82737376356522	1.2334478671089073
53.0	173.43691521290884	rating	1.0		113	attractiveness	101	1.0	2		196.06082163067413	0.9501076263316008
53.0	174.38702283924044	fix	2.0		60	attractiveness	101	1.0	2	3.1799999999999997	197.01092925700573	0.516751583454834
54.0	174.90377442269528	face	0.0		147	attractiveness	121	1.0	2		197.52768084046056	1.2334539042051347
54.0	176.1372283269004	rating	1.0		211	attractiveness	121	1.0	2		198.7611347446657	1.7668669674549164
54.0	177.90409529435533	fix	2.0		60	attractiveness	121	1.0	2	-1.35	200.5280017121206	0.5167567149865135
55.0	178.42085200934184	face	0.0		147	attractiveness	099	1.0	2		201.04475842710713	1.233455715334003
55.0	179.65430772467585	rating	1.0		157	attractiveness	099	1.0	2		202.27821414244113	1.3168114110776514
55.0	180.9711191357535	fix	2.0		60	attractiveness	099	1.0	2	0.45999999999999996	203.59502555351878	0.5167488667616453
56.0	181.48786800251514	face	0.0		147	attractiveness	009	1.0	2		204.11177442028043	1.2334523949311915
56.0	182.72132039744633	rating	1.0		146	attractiveness	009	1.0	2		205.34522681521162	1.225141426523578
56.0	183.9464618239699	fix	2.0		60	attractiveness	009	1.0	2	3.7300000000000004	206.5703682417352	0.5167549038576453
57.0	184.46321672782756	face	0.0		147	attractiveness	100	1.0	2		207.08712314559284	1.2334457541253414
57.0	185.6966624819529	rating	1.0		165	attractiveness	100	1.0	2		208.32056889971818	1.3834911379956338
57.0	187.08015361994853	fix	2.0		60	attractiveness	100	1.0	2	3.6900000000000004	209.70406003771382	0.5167506778905135
58.0	187.59690429783905	face	0.0		147	attractiveness	033	1.0	2		210.22081071560433	1.233453300495512
58.0	188.83035759833456	rating	1.0		147	attractiveness	033	1.0	2		211.45426401609984	1.2251495766033713
58.0	190.05550717493793	fix	2.0		60	attractiveness	033	1.0	2	3.6500000000000004	212.6794135927032	0.5167485649067203
59.0	190.57225573984465	face	0.0		147	attractiveness	038	1.0	2		213.19616215760993	1.233453602350437
59.0	191.8057093421951	rating	1.0		175	attractiveness	038	1.0	2		214.42961575996037	1.4668341558374323
59.0	193.27254349803252	fix	2.0		60	attractiveness	038	1.0	2	-3.68	215.8964499157978	0.516740414826927
60.0	193.78928391285945	face	0.0		147	attractiveness	039	1.0	2		216.41319033062473	1.233464469123419
60.0	195.02274838198286	rating	1.0		112	attractiveness	039	1.0	2		217.64665479974815	0.941782168893269
60.0	195.96453055087613	fix	2.0		60	attractiveness	039	1.0	2	2.67	218.58843696864142	0.5167322647471337
61.0	196.48126281562327	face	0.0		147	attractiveness	005	1.0	2		219.10516923338855	1.2334629598494757
61.0	197.71472577547274	rating	1.0		200	attractiveness	005	1.0	2		220.33863219323803	1.6751821920151997
61.0	199.38990796748794	fix	2.0		60	attractiveness	005	1.0	2	-3.69	222.01381438525323	0.516749168616343
62.0	199.9066571361043	face	0.0		147	attractiveness	061	1.0	2		222.53056355386957	1.2334569227532484
62.0	201.14011405885753	rating	1.0		179	attractiveness	061	1.0	2		223.76402047662282	1.5001710007484235
62.0	202.64028505960596	fix	2.0		60	attractiveness	061	1.0	2	-3.44	225.26419147737124	0.5167482630517952
63.0	203.15703332265775	face	0.0		147	attractiveness	141	1.0	2		225.78093974042304	1.2334629598494757
63.0	204.39049628250723	rating	1.0		133	attractiveness	141	1.0	2		227.0144027002725	1.116790341612159
63.0	205.5072866241194	fix	2.0		60	attractiveness	141	1.0	2	0.5099999999999998	228.13119304188467	0.5167434333750407
64.0	206.02403005749443	face	0.0		147	attractiveness	034	1.0	2		228.6479364752597	1.233463563558871
64.0	207.2574936210533	rating	1.0		76	attractiveness	034	1.0	2		229.88140003881858	0.6417366793739347
64.0	207.89923030042723	fix	2.0		60	attractiveness	034	1.0	2	0.5999999999999996	230.52313671819252	0.5167518853095316
65.0	208.41598218573677	face	0.0		147	attractiveness	070	1.0	2		231.03988860350205	1.2334478671091347
65.0	209.6494300528459	rating	1.0		107	attractiveness	070	1.0	2		232.27333647061118	0.9000999441266231
65.0	210.54952999697252	fix	2.0		60	attractiveness	070	1.0	2	-3.4	233.1734364147378	0.5167536964383999
66.0	211.06628369341092	face	0.0		147	attractiveness	137	1.0	2		233.6901901111762	1.233458432027419
66.0	212.29974212543834	rating	1.0		133	attractiveness	137	1.0	2		234.92364854320363	1.1167921527407998
66.0	213.41653427817914	fix	2.0		60	attractiveness	137	1.0	2	-0.6499999999999999	236.04044069594443	0.5167497723261931
67.0	213.93328405050534	face	0.0		147	attractiveness	027	1.0	2		236.55719046827062	1.23344847081853
67.0	215.16673252132387	rating	1.0		73	attractiveness	027	1.0	2		237.79063893908915	0.6167412902059368
67.0	215.7834738115298	fix	2.0		60	attractiveness	027	1.0	2	1.2999999999999998	238.4073802292951	0.5167503760355885
68.0	216.3002241875654	face	0.0		147	attractiveness	006	1.0	2		238.92413060533067	1.2334545079147574
68.0	217.53367869548015	rating	1.0		100	attractiveness	006	1.0	2		240.15758511324543	0.8417526173075203
68.0	218.37543131278767	fix	2.0		60	attractiveness	006	1.0	2	-3.2	240.99933773055295	0.5167509797454386
69.0	218.8921822925331	face	0.0		147	attractiveness	018	1.0	2		241.5160887102984	1.2334569227532484
69.0	220.12563921528636	rating	1.0		194	attractiveness	018	1.0	2		242.74954563305164	1.6251914136794312
69.0	221.7508306289658	fix	2.0		60	attractiveness	018	1.0	2	0.79	244.37473704673107	0.5167467537780794
70.0	222.26757738274387	face	0.0		147	attractiveness	130	1.0	2		244.89148380050915	1.2334551116243802
70.0	223.50103249436825	rating	1.0		63	attractiveness	130	1.0	2		246.12493891213353	0.533386198171911
70.0	224.03441869254016	fix	2.0		60	attractiveness	130	1.0	2	-1.1800000000000002	246.65832511030544	0.516751885309759
71.0	224.55117057784992	face	0.0		147	attractiveness	082	1.0	2		247.1750769956152	1.2334520930762665
71.0	225.78462267092618	rating	1.0		80	attractiveness	082	1.0	2		248.40852908869147	0.6750780521067554
71.0	226.45970072303294	fix	2.0		60	attractiveness	082	1.0	2	2.4800000000000004	249.08360714079822	0.5167546020029476
72.0	226.9764553250359	face	0.0		147	attractiveness	092	1.0	2		249.60036174280117	1.23344847081853
72.0	228.20990379585442	rating	1.0		133	attractiveness	092	1.0	2		250.8338102136197	1.1167933601602726
72.0	229.3266971560147	fix	2.0		60	attractiveness	092	1.0	2	-3.3	251.95060357377997	0.5167479611970975
73.0	229.8434451172118	face	0.0		147	attractiveness	091	1.0	2		252.46735153497707	1.2334566208985507
73.0	231.07690173811034	rating	1.0		138	attractiveness	091	1.0	2		253.70080815587562	1.1584701515400866
73.0	232.23537188965042	fix	2.0		60	attractiveness	091	1.0	2	0.6399999999999997	254.8592783074157	0.5167488667616453
74.0	232.75212075641207	face	0.0		147	attractiveness	126	1.0	2		255.37602717417735	1.2334563190436256
74.0	233.9855770754557	rating	1.0		224	attractiveness	126	1.0	2		256.609483493221	1.8752077893029764
74.0	235.86078486475867	fix	2.0		60	attractiveness	126	1.0	2	0.9500000000000002	258.48469128252395	0.5167452445039089
75.0	236.37753010926258	face	0.0		147	attractiveness	124	1.0	2		259.00143652702786	1.2334581301722665
75.0	237.61098823943485	rating	1.0		109	attractiveness	124	1.0	2		260.23489465720013	0.9167695740013642
75.0	238.5277578134362	fix	2.0		60	attractiveness	124	1.0	2	3.51	261.1516642312015	0.5167588279703068
76.0	239.04451664140652	face	0.0		147	attractiveness	172	1.0	2		261.6684230591718	1.2334463578349641
76.0	240.27796299924148	rating	1.0		115	attractiveness	172	1.0	2		262.90186941700676	0.9667826895927192
76.0	241.2447456888342	fix	2.0		60	attractiveness	172	1.0	2	-2.56	263.8686521065995	0.5167500741808908
77.0	241.7614957630151	face	0.0		147	attractiveness	012	1.0	2		264.3854021807804	1.2334741284771553
77.0	242.99496989149225	rating	1.0		100	attractiveness	012	1.0	2		265.61887630925753	0.8417345060192929
77.0	243.83670439751154	fix	2.0		60	attractiveness	012	1.0	2	3.24	266.4606108152768	0.5167500741806634
78.0	244.3534544716922	face	0.0		147	attractiveness	011	1.0	2		266.9773608894575	1.2334593375917393
78.0	245.58691380928394	rating	1.0		97	attractiveness	011	1.0	2		268.2108202270492	0.8167590392686179
78.0	246.40367284855256	fix	2.0		60	attractiveness	011	1.0	2	-0.7799999999999998	269.02757926631784	0.5167452445039089
79.0	246.92041809305647	face	0.0		147	attractiveness	044	1.0	2		269.54432451082175	1.2334587338821166
79.0	248.15387682693859	rating	1.0		82	attractiveness	044	1.0	2		270.77778324470387	0.6917467764169487
79.0	248.84562360335553	fix	2.0		60	attractiveness	044	1.0	2	1.25	271.4695300211208	0.5000587107601859
80.0	249.34568231411572	cue	0.0		480						271.969588731881	4.000452782210687
80.0	253.3461350963264	fix	1.0		120						275.9700415140917	1.0168377630025134
80.0	254.36297285932892	face	0.0		147	dominance	036	1.0	2		276.9868792770942	1.2334297558204526
80.0	255.59640261514937	rating	1.0		104	dominance	036	1.0	2		278.22030903291466	0.8751003289914934
80.0	256.47150294414087	fix	2.0		60	dominance	036	1.0	2	-2.51	279.09540936190615	0.5167503760358159
81.0	256.9882533201767	face	0.0		147	dominance	064	1.0	2		279.61215973794197	1.2334529986405869
81.0	258.22170631881727	rating	1.0		117	dominance	064	1.0	2		280.84561273658255	0.9834453768069125
81.0	259.2051516956242	fix	2.0		60	dominance	064	1.0	2	-1.7200000000000002	281.82905811338946	0.516751583454834
82.0	259.721903279079	face	0.0		147	dominance	144	1.0	2		282.3458096968443	1.2334505838023233
82.0	260.95535386288134	rating	1.0		101	dominance	144	1.0	2		283.5792602806466	0.850089243373759
82.0	261.8054431062551	fix	2.0		60	dominance	144	1.0	2	-1.0299999999999998	284.4293495240204	0.5167500741808908
83.0	262.322193180436	face	0.0		147	dominance	172	1.0	2		284.9460995982013	1.233454809769455
83.0	263.55564799020544	rating	1.0		98	dominance	172	1.0	2		286.1795544079707	0.8250923449320453
83.0	264.3807403351375	fix	2.0		60	dominance	172	1.0	2	2.83	287.0046467529028	0.5167564131315885
84.0	264.8974967482691	face	0.0		147	dominance	091	1.0	2		287.52140316603436	1.2334545079149848
84.0	266.13095125618406	rating	1.0		72	dominance	091	1.0	2		288.75485767394935	0.6083937973664888
84.0	266.73934505355055	fix	2.0		60	dominance	091	1.0	2	0.3099999999999996	289.36325147131583	0.5167503760358159
85.0	267.25609542958637	face	0.0		147	dominance	027	1.0	2		289.88000184735165	1.2334931453299305
85.0	268.4895885749163	rating	1.0		52	dominance	027	1.0	2		291.1134949926816	0.4416781799122873
85.0	268.9312667548286	fix	2.0		60	dominance	027	1.0	2	-0.7599999999999998	291.55517317259387	0.5167467537778521
86.0	269.44801350860644	face	0.0		147	dominance	042	1.0	2		292.0719199263717	1.233462356139853
86.0	270.6814758647463	rating	1.0		117	dominance	042	1.0	2		293.3053822825116	0.9834393397106851
86.0	271.664915204457	fix	2.0		60	dominance	042	1.0	2	3.3600000000000003	294.28882162222226	0.5167546020029476
87.0	272.1816698064599	face	0.0		147	dominance	101	1.0	2		294.8055762242252	1.2334478671089073
87.0	273.41511767356883	rating	1.0		98	dominance	101	1.0	2		296.0390240913341	0.8251207192838592
87.0	274.2402383928527	fix	2.0		60	dominance	101	1.0	2	3.55	296.864144810618	0.5167325666020588
88.0	274.75697095945475	face	0.0		147	dominance	066	1.0	2		297.38087737722003	1.2334457541253414
88.0	275.9904167135801	rating	1.0		109	dominance	066	1.0	2		298.6143231313454	0.9167750073877414
88.0	276.90719172096783	fix	2.0		60	dominance	066	1.0	2	0.5999999999999996	299.5310981387331	0.5167446407942862
89.0	277.4239363617621	face	0.0		147	dominance	092	1.0	2		300.0478427795274	1.2334801655733827
89.0	278.6574165273355	rating	1.0		95	dominance	092	1.0	2		301.2813229451008	0.8000715999603472
89.0	279.45748812729585	fix	2.0		60	dominance	092	1.0	2	-0.9900000000000002	302.08139454506113	0.5167407166818521
90.0	279.9742288439777	face	0.0		147	dominance	009	1.0	2		302.598135261743	1.2334638654137962
90.0	281.2076927093915	rating	1.0		164	dominance	009	1.0	2		303.8315991271568	1.3751557193486406
90.0	282.58284842874014	fix	2.0		60	dominance	009	1.0	2	-1.73	305.2067548465054	0.5167482630520226
91.0	283.09959669179216	face	0.0		147	dominance	038	1.0	2		305.72350310955744	1.2334466596898892
91.0	284.33304335148205	rating	1.0		241	dominance	038	1.0	2		306.95694976924733	2.016905378479123
91.0	286.34994872996117	fix	2.0		60	dominance	038	1.0	2	0.6299999999999999	308.97385514772645	0.5167482630517952
92.0	286.86669699301297	face	0.0		147	dominance	005	1.0	2		309.49060341077825	1.2334566208985507
92.0	288.1001536139115	rating	1.0		113	dominance	005	1.0	2		310.7240600316768	0.950106720767053
92.0	289.05026033467857	fix	2.0		60	dominance	005	1.0	2	-2.6	311.67416675244385	0.5167503760355885
93.0	289.56701071071416	face	0.0		147	dominance	117	1.0	2		312.19091712847944	1.2334457541253414
93.0	290.8004564648395	rating	1.0		118	dominance	117	1.0	2		313.4243628826048	0.991780191744283
93.0	291.7922366565838	fix	2.0		60	dominance	117	1.0	2	3.37	314.41614307434907	0.5167503760355885
94.0	292.30898703261937	face	0.0		147	dominance	082	1.0	2		314.93289345038465	1.233462356139853
94.0	293.5424493887592	rating	1.0		116	dominance	082	1.0	2		316.1663558065245	0.9751090525953714
94.0	294.5175584413546	fix	2.0		60	dominance	082	1.0	2	0.8399999999999999	317.1414648591199	0.5167434333750407
95.0	295.03430187472964	face	0.0		147	dominance	030	1.0	2		317.6582082924949	1.233459941301362
95.0	296.267761816031	rating	1.0		137	dominance	030	1.0	2		318.8916682337963	1.150131412490282
95.0	297.4178932285213	fix	2.0		60	dominance	030	1.0	2	0.40000000000000036	320.04179964628656	0.5167476593423999
96.0	297.9346408878637	face	0.0		147	dominance	012	1.0	2		320.55854730562896	1.2334481689638324
96.0	299.1680890568275	rating	1.0		85	dominance	012	1.0	2		321.7919954745928	0.7167488063907967
96.0	299.8848378632183	fix	2.0		60	dominance	012	1.0	2	1.58	322.5087442809836	0.5167530927287771
97.0	300.4015909559471	face	0.0		147	dominance	136	1.0	2		323.02549737371237	1.2334539042051347
97.0	301.6350448601522	rating	1.0		110	dominance	136	1.0	2		324.2589512779175	0.9251068037772257
97.0	302.56015166392945	fix	2.0		60	dominance	136	1.0	2	-1.96	325.18405808169473	0.5167500741808908
98.0	303.07690173811034	face	0.0		147	dominance	126	1.0	2		325.7008081558756	1.2334478671089073
98.0	304.31034960521924	rating	1.0		78	dominance	126	1.0	2		326.9342560229845	0.6584129500542986
98.0	304.96876255527354	fix	2.0		60	dominance	126	1.0	2	0.46999999999999975	327.5926689730388	0.5167500741806634
99.0	305.4855126294542	face	0.0		147	dominance	070	1.0	2		328.1094190472195	1.233453602350437
99.0	306.71896623180464	rating	1.0		230	dominance	070	1.0	2		329.3428726495699	1.9252130566692358
99.0	308.6441792884739	fix	2.0		60	dominance	070	1.0	2	1.0300000000000002	331.26808570623916	0.51675430014825
100.0	309.16093358862213	face	0.0		147	dominance	044	1.0	2		331.7848400063874	1.233450885657021
100.0	310.39438447427915	rating	1.0		84	dominance	044	1.0	2		333.01829089204443	0.7084130858888784
100.0	311.102797560168	fix	2.0		60	dominance	044	1.0	2	-0.79	333.7267039779333	0.5167588279703068
101.0	311.61955638813834	face	0.0		147	dominance	102	1.0	2		334.2434628059036	1.2334463578349641
101.0	312.8530027459733	rating	1.0		134	dominance	102	1.0	2		335.4769091637386	1.1251680199320617
101.0	313.97817076590536	fix	2.0		60	dominance	102	1.0	2	2.3899999999999997	336.60207718367064	0.5167283406346996
102.0	314.49489910654006	face	0.0		147	dominance	100	1.0	2		337.11880552430534	1.2334418300129073
102.0	315.72834093655297	rating	1.0		108	dominance	100	1.0	2		338.35224735431825	0.908435664628314
102.0	316.6367766011813	fix	2.0		60	dominance	100	1.0	2	0.2400000000000002	339.26068301894657	0.5167491686165704
103.0	317.15352576979785	face	0.0		147	dominance	006	1.0	2		339.77743218756314	1.2334551116243802
103.0	318.38698088142223	rating	1.0		339	dominance	006	1.0	2		341.0108872991875	2.8336526454102113
103.0	321.22063352683244	fix	2.0		60	dominance	006	1.0	2	-2.25	343.8445399445977	0.5167467537778521
104.0	321.7373802806103	face	0.0		147	dominance	130	1.0	2		344.3612866983756	1.2334554134793052
104.0	322.9708356940896	rating	1.0		297	dominance	130	1.0	2		345.5947421118549	2.4836166794100336
104.0	325.45445237349963	fix	2.0		60	dominance	130	1.0	2	-0.3999999999999999	348.0783587912649	0.5167558094219658
105.0	325.9712081829216	face	0.0		147	dominance	018	1.0	2		348.5951146006869	1.2334478671091347
105.0	327.20465605003074	rating	1.0		117	dominance	018	1.0	2		349.828562467796	0.9834480935001011
105.0	328.18810414353084	fix	2.0		60	dominance	018	1.0	2	-2.0700000000000003	350.8120105612961	0.5167564131318159
106.0	328.70486055666265	face	0.0		147	dominance	062	1.0	2		351.32876697442794	1.233455715334003
106.0	329.93831627199665	rating	1.0		236	dominance	062	1.0	2		352.56222268976194	1.9752162110519293
106.0	331.9135324830486	fix	2.0		60	dominance	062	1.0	2	0.40000000000000036	354.53743890081387	0.5167561112771182
107.0	332.4302885943257	face	0.0		147	dominance	033	1.0	2		355.054195012091	1.2334481689638324
107.0	333.66373676328953	rating	1.0		167	dominance	033	1.0	2		356.2876431810548	1.4001683142405454
107.0	335.0639050775301	fix	2.0		60	dominance	033	1.0	2	3.5300000000000002	357.68781149529536	0.5167467537778521
108.0	335.58065183130793	face	0.0		147	dominance	039	1.0	2		358.2045582490732	1.2334569227532484
108.0	336.8141087540612	rating	1.0		96	dominance	039	1.0	2		359.43801517182646	0.8084139612678882
108.0	337.62252271532907	fix	2.0		60	dominance	039	1.0	2	-1.62	360.24642913309435	0.5167473574874748
109.0	338.13927007281654	face	0.0		147	dominance	043	1.0	2		360.7631764905818	1.2334566208983233
109.0	339.37272669371487	rating	1.0		77	dominance	043	1.0	2		361.99663311148015	0.6500748147141167
109.0	340.022801508429	fix	2.0		60	dominance	043	1.0	2	0.9900000000000002	362.64670792619427	0.5167552057125704
110.0	340.53955671414155	face	0.0		147	dominance	099	1.0	2		363.16346313190684	1.2334529986405869
110.0	341.77300971278214	rating	1.0		81	dominance	099	1.0	2		364.3969161305474	0.7250848287471854
110.0	342.4980945415293	fix	2.0		60	dominance	099	1.0	2	0.6799999999999997	365.1220009592946	0.5167491686165704
111.0	343.0148437101459	face	0.0		147	dominance	011	1.0	2		365.6387501279112	1.2334502819473983
111.0	344.2482939920933	rating	1.0		139	dominance	011	1.0	2		366.8722004098586	1.166801042365023
111.0	345.4150950344583	fix	2.0		60	dominance	011	1.0	2	0.4299999999999997	368.0390014522236	0.5167512816001363
112.0	345.93184631605845	face	0.0		147	dominance	124	1.0	2		368.55575273382374	1.2334466596896618
112.0	347.1652929757481	rating	1.0		92	dominance	124	1.0	2		369.7891993935134	0.7750876812751812
112.0	347.9403806570233	fix	2.0		60	dominance	124	1.0	2	-1.46	370.5642870747886	0.5167555075672681
113.0	348.45713616459057	face	0.0		147	dominance	137	1.0	2		371.08104258235585	1.2334554134793052
113.0	349.69059157806987	rating	1.0		98	dominance	137	1.0	2		372.31449799583515	0.8250923449318179
113.0	350.5156839230017	fix	2.0		60	dominance	137	1.0	2	1.4299999999999997	373.139590340767	0.5167485649069476
114.0	351.03243248790864	face	0.0		147	dominance	141	1.0	2		373.6563389056739	1.233457526462871
114.0	352.2658900143715	rating	1.0		104	dominance	141	1.0	2		374.8897964321368	0.8750970085884546
114.0	353.14098702295996	fix	2.0		60	dominance	141	1.0	2	-2.1	375.76489344072525	0.5167491686165704
115.0	353.65773619157653	face	0.0		147	dominance	061	1.0	2		376.2816426093418	1.2334554134790778
115.0	354.8911916050556	rating	1.0		103	dominance	061	1.0	2		377.5150980228209	0.8667588732485001
115.0	355.7579504783041	fix	2.0		60	dominance	061	1.0	2	3.4299999999999997	378.3818568960694	0.5167473574874748
116.0	356.2746978357916	face	0.0		147	dominance	034	1.0	2		378.89860425355687	1.2334629598494757
116.0	357.50816079564106	rating	1.0		244	dominance	034	1.0	2		380.13206721340634	2.041899560227648
116.0	359.5500603558687	fix	2.0		60	dominance	034	1.0	2	-1.69	382.173966773634	0.5167440370846634
117.0	360.0668043929534	face	0.0		147	dominance	121	1.0	2		382.69071081071866	1.233453602350437
117.0	361.3002579953038	rating	1.0		95	dominance	121	1.0	2		383.9241644130691	0.8000972576189724
117.0	362.1003552529228	fix	2.0		60	dominance	121	1.0	2	-1.7200000000000002	384.72426167068807	0.5167521871644567
118.0	362.61710744008724	face	0.0		147	dominance	087	1.0	2		385.2410138578525	1.2334427355772277
118.0	363.85055017566447	rating	1.0		134	dominance	087	1.0	2		386.47445659342975	1.125137532596682
118.0	364.97568770826115	fix	2.0		60	dominance	087	1.0	2	1.04	387.59959412602643	0.5167500741806634
119.0	365.4924377824418	face	0.0		147	dominance	024	1.0	2		388.1163442002071	1.2334517912215688
119.0	366.7258895736634	rating	1.0		286	dominance	024	1.0	2		389.34979599142866	2.3919415633240533
119.0	369.11783113698743	fix	2.0		60	dominance	024	1.0	2	2.0599999999999996	391.7417375547527	0.500053579228279
120.0	369.6178847162157	cue	0.0		3600						392.241791133981	30.003462878348728
120.0	399.62134759456444	fix	1.0		120						422.2452540123297	1.0001168178102944
120.0	400.62146441237473	cue	0.0		480						423.24537083014	4.000454291484857
120.0	404.6219187038596	fix	1.0		120						427.2458251216249	1.0168069738119812
120.0	405.6387256776716	face	0.0		147	trustworthiness	005	2.0	2		428.26263209543686	1.2334533004957393
120.0	406.8721789781673	rating	1.0		115	trustworthiness	005	2.0	2		429.4960853959326	0.9667838970119647
120.0	407.8389628751793	fix	2.0		60	trustworthiness	005	2.0	2	-3.42	430.46286929294456	0.516740112972002
121.0	408.3557029881513	face	0.0		147	trustworthiness	124	2.0	2		430.97960940591656	1.2334557153342303
121.0	409.5891587034855	rating	1.0		92	trustworthiness	124	2.0	2		432.2130651212508	0.7750879831298789
121.0	410.3642466866154	fix	2.0		60	trustworthiness	124	2.0	2	1.8099999999999996	432.9881531043807	0.5167494704710407
122.0	410.88099615708643	face	0.0		147	trustworthiness	030	2.0	2		433.5049025748517	1.2334620542851553
122.0	412.1144582113716	rating	1.0		110	trustworthiness	030	2.0	2		434.73836462913687	0.9250971444232619
122.0	413.03955535579485	fix	2.0		60	trustworthiness	030	2.0	2	-0.4900000000000002	435.66346177356013	0.5167558094221931
123.0	413.55631116521704	face	0.0		147	trustworthiness	033	2.0	2		436.1802175829823	1.2334542060598324
123.0	414.78976537127687	rating	1.0		112	trustworthiness	033	2.0	2		437.41367178904216	0.9417719058299099
123.0	415.7315372771068	fix	2.0		60	trustworthiness	033	2.0	2	-1.3199999999999998	438.35544369487206	0.516807728448839
124.0	416.2483450055556	face	0.0		147	trustworthiness	082	2.0	2		438.8722514233209	1.2333968536468092
124.0	417.48174185920243	rating	1.0		68	trustworthiness	082	2.0	2		440.1056482769677	0.5750644988258955
124.0	418.0568063580283	fix	2.0		60	trustworthiness	082	2.0	2	2.0300000000000002	440.6807127757936	0.5167748262749683
125.0	418.5735811843033	face	0.0		147	trustworthiness	027	2.0	2		441.1974876020686	1.2334291521110572
125.0	419.80701033641435	rating	1.0		63	trustworthiness	027	2.0	2		442.43091675417963	0.5333943482517043
125.0	420.34040468466605	fix	2.0		60	trustworthiness	027	2.0	2	0.7199999999999998	442.96431110243134	0.516740414826927
126.0	420.857145099493	face	0.0		147	trustworthiness	091	2.0	2		443.48105151725827	1.233464469123419
126.0	422.0906095686164	rating	1.0		69	trustworthiness	091	2.0	2		444.7145159863817	0.5833968989247751
126.0	422.6740064675412	fix	2.0		60	trustworthiness	091	2.0	2	-0.8700000000000001	445.29791288530646	0.5167422259557952
127.0	423.19074869349697	face	0.0		147	trustworthiness	121	2.0	2		445.81465511126225	1.2334539042051347
127.0	424.4242025977021	rating	1.0		390	trustworthiness	121	2.0	2		447.0481090154674	3.2587079829429513
127.0	427.68291058064506	fix	2.0		60	trustworthiness	121	2.0	2	1.4400000000000004	450.30681699841034	0.5167549038576453
128.0	428.1996654845027	face	0.0		147	trustworthiness	012	2.0	2		450.823571902268	1.2334545079147574
128.0	429.43311999241746	rating	1.0		85	trustworthiness	012	2.0	2		452.05702641018274	0.7167421655849466
128.0	430.1498621580024	fix	2.0		60	trustworthiness	012	2.0	2	-1.42	452.7737685757677	0.5167479611970975
129.0	430.6666101191995	face	0.0		147	trustworthiness	018	2.0	2		453.2905165369648	1.2334638654137962
129.0	431.9000739846133	rating	1.0		100	trustworthiness	018	2.0	2		454.5239804023786	0.8417610692422386
129.0	432.74183505385554	fix	2.0		60	trustworthiness	018	2.0	2	2.8	455.3657414716208	0.516751583454834
130.0	433.2585866373104	face	0.0		147	trustworthiness	062	2.0	2		455.88249305507566	1.2334442448513983
130.0	434.49203088216177	rating	1.0		314	trustworthiness	062	2.0	2		457.11593729992705	2.6253094389091984
130.0	437.11734032107097	fix	2.0		60	trustworthiness	062	2.0	2	-1.31	459.74124673883625	0.5167467537778521
131.0	437.6340870748488	face	0.0		147	trustworthiness	172	2.0	2		460.2579934926141	1.233453904205362
131.0	438.8675409790542	rating	1.0		134	trustworthiness	172	2.0	2		461.49144739681947	1.1251296843715863
131.0	439.99267066342577	fix	2.0		60	trustworthiness	172	2.0	2	-3.33	462.61657708119105	0.5167446407940588
132.0	440.50941530421983	face	0.0		147	trustworthiness	102	2.0	2		463.1333217219851	1.2334529986410416
132.0	441.74286830286087	rating	1.0		185	trustworthiness	102	2.0	2		464.36677472062615	1.5501759662597578
132.0	443.2930442691206	fix	2.0		60	trustworthiness	102	2.0	2	-2.01	465.9169506868859	0.5167561112771182
133.0	443.80980038039775	face	0.0		147	trustworthiness	099	2.0	2		466.43370679816303	1.2334469615443595
133.0	445.0432473419421	rating	1.0		198	trustworthiness	099	2.0	2		467.6671537597074	1.6585294660098953
133.0	446.701776807952	fix	2.0		60	trustworthiness	099	2.0	2	0.5800000000000001	469.3256832257173	0.5167500741808908
134.0	447.2185268821329	face	0.0		147	trustworthiness	009	2.0	2		469.8424332998982	1.233446055980039
134.0	448.45197293811293	rating	1.0		76	trustworthiness	009	2.0	2		471.0758793558782	0.6417375849382552
134.0	449.0937105230512	fix	2.0		60	trustworthiness	009	2.0	2	1.38	471.71761694081647	0.516757620550834
135.0	449.610468143602	face	0.0		147	trustworthiness	039	2.0	2		472.2343745613673	1.2334481689640597
135.0	450.8439163125661	rating	1.0		170	trustworthiness	039	2.0	2		473.46782273033136	1.4251800035676752
135.0	452.26909631613375	fix	2.0		60	trustworthiness	039	2.0	2	3.0999999999999996	474.89300273389904	0.5167349814405497
136.0	452.7858312975743	face	0.0		147	trustworthiness	141	2.0	2		475.4097377153396	1.2334587338818892
136.0	454.0192900314562	rating	1.0		352	trustworthiness	141	2.0	2		476.6431964492215	2.9420067488699715
136.0	456.96129678032617	fix	2.0		60	trustworthiness	141	2.0	2	2.62	479.58520319809145	0.5167467537780794
137.0	457.47804353410424	face	0.0		147	trustworthiness	042	2.0	2		480.1019499518695	1.2334520930762665
137.0	458.7114956271805	rating	1.0		165	trustworthiness	042	2.0	2		481.3354020449458	1.3834854027541041
137.0	460.0949810299346	fix	2.0		60	trustworthiness	042	2.0	2	-2.8	482.7188874476999	0.5167521871644567
138.0	460.6117332170991	face	0.0		147	trustworthiness	136	2.0	2		483.23563963486436	1.2334517912217962
138.0	461.84518500832087	rating	1.0		199	trustworthiness	136	2.0	2		484.46909142608615	1.6668627716730953
138.0	463.51204777999396	fix	2.0		60	trustworthiness	136	2.0	2	-3.67	486.13595419775925	0.5167503760353611
139.0	464.0287981560293	face	0.0		147	trustworthiness	117	2.0	2		486.6527045737946	1.2334469615448143
139.0	465.26224511757414	rating	1.0		436	trustworthiness	117	2.0	2		487.8861515353394	3.6420874346595156
139.0	468.90433255223365	fix	2.0		60	trustworthiness	117	2.0	2	1.3200000000000003	491.52823896999894	0.5167533945837022
140.0	469.42108594681736	face	0.0		147	trustworthiness	126	2.0	2		492.04499236458264	1.2334575264630985
140.0	470.65454347328046	rating	1.0		157	trustworthiness	126	2.0	2		493.27844989104574	1.3168065814006695
140.0	471.9713500546811	fix	2.0		60	trustworthiness	126	2.0	2	0.75	494.5952564724464	0.5167482630517952
141.0	472.4880983177329	face	0.0		147	trustworthiness	044	2.0	2		495.1120047354982	1.233461148720835
141.0	473.72155946645375	rating	1.0		81	trustworthiness	044	2.0	2		496.34546588421904	0.6834107540603327
141.0	474.4049702205141	fix	2.0		60	trustworthiness	044	2.0	2	1.62	497.02887663827937	0.5167497723259658
142.0	474.92171999284005	face	0.0		147	trustworthiness	066	2.0	2		497.54562641060534	1.2334475652542096
142.0	476.15516755809426	rating	1.0		93	trustworthiness	066	2.0	2		498.77907397585955	0.7834300425824949
142.0	476.93859760067676	fix	2.0		60	trustworthiness	066	2.0	2	-3.23	499.56250401844204	0.5167464519231544
143.0	477.4553440525999	face	0.0		147	trustworthiness	011	2.0	2		500.0792504703652	1.2334508856574757
143.0	478.6887949382574	rating	1.0		342	trustworthiness	011	2.0	2		501.31270135602267	2.8586670514305297
143.0	481.5474619896879	fix	2.0		60	trustworthiness	011	2.0	2	-1.9	504.1713684074532	0.516750979745666
144.0	482.0642129694336	face	0.0		147	trustworthiness	043	2.0	2		504.68811938719887	1.2334442448509435
144.0	483.2976572142845	rating	1.0		119	trustworthiness	043	2.0	2		505.9215636320498	1.0001156103912763
144.0	484.2977728246758	fix	2.0		60	trustworthiness	043	2.0	2	-2.65	506.9216792424411	0.5167820707906685
145.0	484.8145548954665	face	0.0		147	trustworthiness	064	2.0	2		507.43846131323176	1.2334273409819616
145.0	486.04798223644843	rating	1.0		91	trustworthiness	064	2.0	2		508.6718886542137	0.7667519607734903
145.0	486.8147341972219	fix	2.0		60	trustworthiness	064	2.0	2	2.88	509.4386406149872	0.5167521871644567
146.0	487.3314863843864	face	0.0		147	trustworthiness	137	2.0	2		509.95539280215166	1.233453602350437
146.0	488.5649399867368	rating	1.0		108	trustworthiness	137	2.0	2		511.1888464045021	0.9084350609186913
146.0	489.4733750476555	fix	2.0		60	trustworthiness	137	2.0	2	1.37	512.0972814654208	0.5167491686161156
147.0	489.9901242162716	face	0.0		147	trustworthiness	036	2.0	2		512.6140306340369	1.2334469615448143
147.0	491.22357117781644	rating	1.0		88	trustworthiness	036	2.0	2		513.8474775955817	0.7417583827345879
147.0	491.965329560551	fix	2.0		60	trustworthiness	036	2.0	2	1.1500000000000004	514.5892359783163	0.5167491686161156
148.0	492.48207872916714	face	0.0		147	trustworthiness	144	2.0	2		515.1059851469324	1.233453602350437
148.0	493.7155323315176	rating	1.0		91	trustworthiness	144	2.0	2		516.3394387492829	0.7667543756119812
148.0	494.48228670712956	fix	2.0		60	trustworthiness	144	2.0	2	2.2300000000000004	517.1061931248948	0.5167521871644567
149.0	494.999038894294	face	0.0		147	trustworthiness	087	2.0	2		517.6229453120593	1.2334496782377755
149.0	496.2324885725318	rating	1.0		123	trustworthiness	087	2.0	2		518.8563949902971	1.0334440033675492
149.0	497.26593257589934	fix	2.0		60	trustworthiness	087	2.0	2	-3.15	519.8898389936646	0.5167506778902862
150.0	497.7826832537896	face	0.0		147	trustworthiness	038	2.0	2		520.4065896715549	1.2334587338818892
150.0	499.0161419876715	rating	1.0		143	trustworthiness	038	2.0	2		521.6400484054368	1.2001315483253165
150.0	500.21627353599683	fix	2.0		60	trustworthiness	038	2.0	2	-3.49	522.8401799537621	0.5167515834546066
151.0	500.73302511945144	face	0.0		147	trustworthiness	070	2.0	2		523.3569315372167	1.2334590357368143
151.0	501.96648415518825	rating	1.0		140	trustworthiness	070	2.0	2		524.5903905729535	1.17512740536813
151.0	503.1416115605564	fix	2.0		60	trustworthiness	070	2.0	2	-3.76	525.7655179783217	0.5167488667616453
152.0	503.65836042731803	face	0.0		147	trustworthiness	061	2.0	2		526.2822668450833	1.2334602431560597
152.0	504.8918206704741	rating	1.0		88	trustworthiness	061	2.0	2		527.5157270882394	0.7417435918487172
152.0	505.6335642623228	fix	2.0		60	trustworthiness	061	2.0	2	-3.81	528.2574706800881	0.5167518853095316
153.0	506.15031614763234	face	0.0		147	trustworthiness	034	2.0	2		528.7742225653976	1.2334904286367419
153.0	507.3838065762691	rating	1.0		86	trustworthiness	034	2.0	2		530.0077129940344	0.7250525302829374
153.0	508.108859106552	fix	2.0		60	trustworthiness	034	2.0	2	-0.81	530.7327655243173	0.516745546358834
154.0	508.62560465291085	face	0.0		147	trustworthiness	092	2.0	2		531.2495110706761	1.2334493763828505
154.0	509.8590540292937	rating	1.0		97	trustworthiness	092	2.0	2		532.482960447059	0.8167587374141476
154.0	510.67581276670785	fix	2.0		60	trustworthiness	092	2.0	2	-2.94	533.2997191844731	0.5167482630517952
155.0	511.19256102975964	face	0.0		147	trustworthiness	130	2.0	2		533.8164674475249	1.2334554134790778
155.0	512.4260164432387	rating	1.0		75	trustworthiness	130	2.0	2		535.049922861004	0.6334033737107347
155.0	513.0594198169495	fix	2.0		60	trustworthiness	130	2.0	2	0.6399999999999997	535.6833262347147	0.5167564131315885
156.0	513.576176230081	face	0.0		147	trustworthiness	101	2.0	2		536.2000826478463	1.2334545079147574
156.0	514.8096307379958	rating	1.0		259	trustworthiness	101	2.0	2		537.4335371557611	2.1669592142839065
156.0	516.9765899522797	fix	2.0		60	trustworthiness	101	2.0	2	1.33	539.600496370045	0.5167038903955472
157.0	517.4932938426753	face	0.0		147	trustworthiness	100	2.0	2		540.1172002604405	1.2334551116241528
157.0	518.7267489542994	rating	1.0		151	trustworthiness	100	2.0	2		541.3506553720647	1.2668043325825238
157.0	519.9935532868819	fix	2.0		60	trustworthiness	100	2.0	2	0.8099999999999996	542.6174597046472	0.516745546358834
158.0	520.5102988332408	face	0.0		147	trustworthiness	006	2.0	2		543.134205251006	1.2334617524302303
158.0	521.743760585671	rating	1.0		101	trustworthiness	006	2.0	2		544.3676670034363	0.8500940730505135
158.0	522.5938546587215	fix	2.0		60	trustworthiness	006	2.0	2	-3.18	545.2177610764868	0.5167479611973249
159.0	523.1106026199188	face	0.0		147	trustworthiness	024	2.0	2		545.7345090376841	1.233460846865455
159.0	524.3440634667843	rating	1.0		101	trustworthiness	024	2.0	2		546.9679698845496	0.8500916582124773
159.0	525.1941551249968	fix	2.0		60	trustworthiness	024	2.0	2	-3.88	547.818061542762	0.500065955275204
160.0	525.694221080272	cue	0.0		480						548.3181274980373	4.000458517452444
160.0	529.6946795977244	fix	1.0		120						552.3185860154897	1.0168051626828856
160.0	530.7114847604073	face	0.0		147	dominance	009	2.0	2		553.3353911781726	1.2334554134790778
160.0	531.9449401738864	rating	1.0		74	dominance	009	2.0	2		554.5688465916517	0.6250604086935709
160.0	532.57000058258	fix	2.0		60	dominance	009	2.0	2	-1.71	555.1939070003452	0.516760639099175
161.0	533.0867612216791	face	0.0		147	dominance	121	2.0	2		555.7106676394444	1.23344786710868
161.0	534.3202090887878	rating	1.0		74	dominance	121	2.0	2		556.9441155065531	0.6250679550635141
161.0	534.9452770438513	fix	2.0		60	dominance	121	2.0	2	-1.08	557.5691834616166	0.5167567149865135
162.0	535.4620337588378	face	0.0		147	dominance	038	2.0	2		558.0859401766031	1.233453602350437
162.0	536.6954873611883	rating	1.0		78	dominance	038	2.0	2		559.3193937789536	0.658399366588128
162.0	537.3538867277764	fix	2.0		60	dominance	038	2.0	2	-0.4900000000000002	559.9777931455417	0.5167555075672681
163.0	537.8706422353437	face	0.0		147	dominance	126	2.0	2		560.494548653109	1.233448772673455
163.0	539.1040910080171	rating	1.0		87	dominance	126	2.0	2		561.7279974257824	0.7334166251362149
163.0	539.8375076331533	fix	2.0		60	dominance	126	2.0	2	0.2599999999999998	562.4614140509186	0.5167570168414386
164.0	540.3542646499948	face	0.0		147	dominance	117	2.0	2		562.9781710677601	1.233453904205362
164.0	541.5877185542001	rating	1.0		130	dominance	117	2.0	2		564.2116249719654	1.0917895190577838
164.0	542.6795080732579	fix	2.0		60	dominance	117	2.0	2	3.3899999999999997	565.3034144910232	0.5167509797452112
165.0	543.1962590530031	face	0.0		147	dominance	137	2.0	2		565.8201654707684	1.2334529986405869
165.0	544.4297120516437	rating	1.0		90	dominance	137	2.0	2		567.053618469409	0.7584144291427037
165.0	545.1881264807864	fix	2.0		61	dominance	137	2.0	2	1.4800000000000004	567.8120328985517	0.5250833798440908
166.0	545.7132098606305	face	0.0		146	dominance	070	2.0	2		568.3371162783958	1.2251251263642189
166.0	546.9383349869947	rating	1.0		107	dominance	070	2.0	2		569.56224140476	0.9001023589648867
166.0	547.8384373459596	fix	2.0		60	dominance	070	2.0	2	0.9199999999999999	570.4623437637249	0.516745546358834
167.0	548.3551828923185	face	0.0		147	dominance	024	2.0	2		570.9790893100837	1.2334593375917393
167.0	549.5886422299102	rating	1.0		88	dominance	024	2.0	2		572.2125486476755	0.7417411770102262
167.0	550.3303834069204	fix	2.0		60	dominance	024	2.0	2	2.3099999999999996	572.9542898246857	0.5167576205512887
168.0	550.8471410274717	face	0.0		147	dominance	044	2.0	2		573.471047445237	1.2334526967856618
168.0	552.0805937242574	rating	1.0		158	dominance	044	2.0	2		574.7045001420227	1.3251927116552906
168.0	553.4057864359127	fix	2.0		60	dominance	044	2.0	2	-0.8700000000000001	576.029692853678	0.5167102293462449
169.0	553.9224966652589	face	0.0		147	dominance	091	2.0	2		576.5464030830242	1.233454206060287
169.0	555.1559508713192	rating	1.0		66	dominance	091	2.0	2		577.7798572890845	0.5583885300002294
169.0	555.7143394013194	fix	2.0		60	dominance	091	2.0	2	0.41999999999999993	578.3382458190847	0.5167449426489839
170.0	556.2310843439684	face	0.0		147	dominance	101	2.0	2		578.8549907617337	1.2334644691236463
170.0	557.464548813092	rating	1.0		74	dominance	101	2.0	2		580.0884552308573	0.625070369902005
170.0	558.089619182994	fix	2.0		60	dominance	101	2.0	2	2.76	580.7135256007593	0.5167419241006428
171.0	558.6063611070947	face	0.0		147	dominance	064	2.0	2		581.23026752486	1.2334614505753052
171.0	559.83982255767	rating	1.0		88	dominance	064	2.0	2		582.4637289754353	0.7417444974134924
171.0	560.5815670550835	fix	2.0		60	dominance	064	2.0	2	-0.6200000000000001	583.2054734728488	0.5167518853095316
172.0	561.098318940393	face	0.0		147	dominance	043	2.0	2		583.7222253581583	1.2334578283175688
172.0	562.3317767687106	rating	1.0		57	dominance	043	2.0	2		584.9556831864759	0.483387269756804
172.0	562.8151640384674	fix	2.0		60	dominance	043	2.0	2	1.4100000000000001	585.4390704562327	0.5167491686161156
173.0	563.3319132070835	face	0.0		147	dominance	006	2.0	2		585.9558196248488	1.2334466596898892
173.0	564.5653598667734	rating	1.0		100	dominance	006	2.0	2		587.1892662845387	0.8417701248863523
173.0	565.4071299916598	fix	2.0		60	dominance	006	2.0	2	0.6100000000000003	588.031036409425	0.5167696947432887
174.0	565.923899686403	face	0.0		147	dominance	018	2.0	2		588.5478061041683	1.2334279446918117
174.0	567.1573276310949	rating	1.0		119	dominance	018	2.0	2		589.7812340488601	1.0001110825692194
174.0	568.1574387136641	fix	2.0		60	dominance	018	2.0	2	-2.94	590.7813451314294	0.516757620550834
175.0	568.6741963342149	face	0.0		147	dominance	141	2.0	2		591.2981027519802	1.23344847081853
175.0	569.9076448050334	rating	1.0		88	dominance	141	2.0	2		592.5315512227987	0.7417943034565724
175.0	570.64943910849	fix	2.0		60	dominance	141	2.0	2	-3.35	593.2733455262553	0.5167105312011699
176.0	571.1661496396912	face	0.0		147	dominance	061	2.0	2		593.7900560574565	1.2334542060598324
176.0	572.399603845751	rating	1.0		97	dominance	061	2.0	2		595.0235102635163	0.8167502854794293
176.0	573.2163541312304	fix	2.0		60	dominance	061	2.0	2	3.51	595.8402605489957	0.5167503760353611
177.0	573.7331045072658	face	0.0		147	dominance	172	2.0	2		596.3570109250311	1.2335006917005558
177.0	574.9666051989664	rating	1.0		102	dominance	172	2.0	2		597.5905116167316	0.8583860246053518
177.0	575.8249912235717	fix	2.0		60	dominance	172	2.0	2	3.55	598.448897641337	0.5167482630517952
178.0	576.3417394866235	face	0.0		147	dominance	033	2.0	2		598.9656459043888	1.233456017188928
178.0	577.5751955038124	rating	1.0		106	dominance	033	2.0	2		600.1991019215777	0.8917892775739347
178.0	578.4669847813864	fix	2.0		60	dominance	033	2.0	2	3.5999999999999996	601.0908911991517	0.5167210961194542
179.0	578.9837058775058	face	0.0		147	dominance	042	2.0	2		601.6076122952711	1.2334665821067574
179.0	580.2171724596126	rating	1.0		120	dominance	042	2.0	2		602.8410788773779	1.008483327502745
179.0	581.2256557871153	fix	2.0		60	dominance	042	2.0	2	3.8899999999999997	603.8495622048806	0.5167132478941312
180.0	581.7423690350095	face	0.0		147	dominance	066	2.0	2		604.3662754527747	1.2334542060598324
180.0	582.9758232410693	rating	1.0		256	dominance	066	2.0	2		605.5997296588346	2.1419040578643944
180.0	585.1177272989337	fix	2.0		60	dominance	066	2.0	2	0.8899999999999997	607.741633716699	0.5167500741808908
181.0	585.6344773731146	face	0.0		147	dominance	005	2.0	2		608.2583837908799	1.233453904205362
181.0	586.8679312773199	rating	1.0		97	dominance	005	2.0	2		609.4918376950852	0.8167575299944474
181.0	587.6846888073144	fix	2.0		60	dominance	005	2.0	2	-2.8200000000000003	610.3085952250797	0.5167479611973249
182.0	588.2014367685117	face	0.0		147	dominance	136	2.0	2		610.825343186277	1.2334644691231915
182.0	589.4349012376349	rating	1.0		143	dominance	136	2.0	2		612.0588076554002	1.2001291334868256
182.0	590.6350303711217	fix	2.0		60	dominance	136	2.0	2	-3.51	613.258936788887	0.5167494704710407
183.0	591.1517798415928	face	0.0		147	dominance	034	2.0	2		613.775686259358	1.2334638654137962
183.0	592.3852437070066	rating	1.0		91	dominance	034	2.0	2		615.0091501247718	0.7667447162580174
183.0	593.1519884232646	fix	2.0		60	dominance	034	2.0	2	-1.0099999999999998	615.7758948410299	0.5167509797452112
184.0	593.6687394030098	face	0.0		147	dominance	099	2.0	2		616.2926458207751	1.233451489366871
184.0	594.9021908923767	rating	1.0		140	dominance	099	2.0	2		617.526097310142	1.1751325368991274
184.0	596.0773234292758	fix	2.0		60	dominance	099	2.0	2	-1.2000000000000002	618.7012298470411	0.5167494704714954
185.0	596.5940728997473	face	0.0		147	dominance	130	2.0	2		619.2179793175126	1.2334614505753052
185.0	597.8275343503226	rating	1.0		219	dominance	130	2.0	2		620.4514407680879	1.8335352238900668
185.0	599.6610695742127	fix	2.0		60	dominance	130	2.0	2	-3.19	622.284975991978	0.5167524890193818
186.0	600.177822063232	face	0.0		147	dominance	062	2.0	2		622.8017284809973	1.2334523949311915
186.0	601.4112744581632	rating	1.0		95	dominance	062	2.0	2		624.0351808759285	0.8000966539093497
186.0	602.2113711120726	fix	2.0		60	dominance	062	2.0	2	0.4800000000000004	624.8352775298379	0.5167494704710407
187.0	602.7281205825436	face	0.0		147	dominance	030	2.0	2		625.3520270003089	1.2334949564587987
187.0	603.9616155390024	rating	1.0		80	dominance	030	2.0	2		626.5855219567677	0.6750342831601301
187.0	604.6366498221626	fix	2.0		60	dominance	030	2.0	2	0.5300000000000002	627.2605562399278	0.5167485649067203
188.0	605.1533983870693	face	0.0		147	dominance	082	2.0	2		627.7773048048346	1.233455715334003
188.0	606.3868541024033	rating	1.0		211	dominance	082	2.0	2		629.0107605201686	1.7668684767286322
188.0	608.1537225791319	fix	2.0		60	dominance	082	2.0	2	1.0099999999999998	630.7776289968972	0.5167500741808908
189.0	608.6704726533128	face	0.0		147	dominance	092	2.0	2		631.2943790710781	1.2334526967861166
189.0	609.9039253500989	rating	1.0		151	dominance	092	2.0	2		632.5278317678642	1.2668133882266375
189.0	611.1707387383256	fix	2.0		60	dominance	092	2.0	2	-1.79	633.7946451560908	0.5167491686161156
190.0	611.6874879069417	face	0.0		147	dominance	100	2.0	2		634.311394324707	1.233446357835419
190.0	612.9209342647771	rating	1.0		76	dominance	100	2.0	2		635.5448406825424	0.6417381886476505
190.0	613.5626724534247	fix	2.0		60	dominance	100	2.0	2	-1.62	636.18657887119	0.5167515834546066
191.0	614.0794240368793	face	0.0		147	dominance	036	2.0	2		636.7033304546446	1.233453602350437
191.0	615.3128776392298	rating	1.0		146	dominance	036	2.0	2		637.9367840569951	1.225137502411144
191.0	616.5380151416409	fix	2.0		60	dominance	036	2.0	2	-2.83	639.1619215594062	0.5167500741808908
192.0	617.0547652158218	face	0.0		147	dominance	087	2.0	2		639.6786716335871	1.2334545079147574
192.0	618.2882197237366	rating	1.0		116	dominance	087	2.0	2		640.9121261415019	0.9751621790414902
192.0	619.2633819027781	fix	2.0		60	dominance	087	2.0	2	0.4400000000000004	641.8872883205433	0.5166975514443948
193.0	619.7800794542225	face	0.0		147	dominance	144	2.0	2		642.4039858719877	1.2334629598494757
193.0	621.0135424140719	rating	1.0		121	dominance	144	2.0	2		643.6374488318372	1.0167779957505445
193.0	622.0303204098225	fix	2.0		60	dominance	144	2.0	2	0.33000000000000007	644.6542268275878	0.5167437352297384
194.0	622.5470641450522	face	0.0		147	dominance	011	2.0	2		645.1709705628175	1.2334620542851553
194.0	623.7805261993374	rating	1.0		136	dominance	011	2.0	2		646.4044326171027	1.1417962956979864
194.0	624.9223224950354	fix	2.0		60	dominance	011	2.0	2	1.0099999999999998	647.5462289128006	0.5167446407940588
195.0	625.4390671358294	face	0.0		147	dominance	027	2.0	2		648.0629735535947	1.2334777507353465
195.0	626.6725448865648	rating	1.0		216	dominance	027	2.0	2		649.29645130433	1.8085181011761051
195.0	628.4810629877409	fix	2.0		60	dominance	027	2.0	2	-0.8700000000000001	651.1049694055062	0.5167461500682293
196.0	628.9978091378091	face	0.0		147	dominance	012	2.0	2		651.6217155555744	1.2334545079147574
196.0	630.2312636457239	rating	1.0		146	dominance	012	2.0	2		652.8551700634891	1.2251450487815418
196.0	631.4564086945054	fix	2.0		60	dominance	012	2.0	2	1.4900000000000002	654.0803151122707	0.5167512815996815
197.0	631.9731599761051	face	0.0		147	dominance	039	2.0	2		654.5970663938704	1.2334448485612484
197.0	633.2066048246663	rating	1.0		265	dominance	039	2.0	2		655.8305112424316	2.2169294664927293
197.0	635.4235342911591	fix	2.0		60	dominance	039	2.0	2	-1.54	658.0474407089243	0.5167479611968702
198.0	635.9402822523559	face	0.0		147	dominance	124	2.0	2		658.5641886701212	1.2334481689640597
198.0	637.17373042132	rating	1.0		113	dominance	124	2.0	2		659.7976368390853	0.9501070226219781
198.0	638.123837443942	fix	2.0		60	dominance	124	2.0	2	-2.66	660.7477438617072	0.5167512816001363
199.0	638.6405887255421	face	0.0		147	dominance	102	2.0	2		661.2644951433074	1.2334596394462096
199.0	639.8740483649883	rating	1.0		81	dominance	102	2.0	2		662.4979547827536	0.6834107540607874
199.0	640.5574591190491	fix	2.0		60	dominance	102	2.0	2	2.74	663.1813655368144	0.5000499569705426
200.0	641.0575090760196	cue	0.0		480						663.6814154937849	4.000469082370273
200.0	645.0579781583899	fix	1.0		120						667.6818845761552	1.0168036534091698
200.0	646.0747818117991	face	0.0		147	attractiveness	130	2.0	2		668.6986882295644	1.233450885657021
200.0	647.3082326974561	rating	1.0		154	attractiveness	130	2.0	2		669.9321391152214	1.2918187386030695
200.0	648.6000514360592	fix	2.0		60	attractiveness	130	2.0	2	-2.51	671.2239578538245	0.51674826305225
201.0	649.1167996991114	face	0.0		147	attractiveness	117	2.0	2		671.7407061168767	1.2334502819471709
201.0	650.3502499810586	rating	1.0		186	attractiveness	117	2.0	2		672.9741563988239	1.5585174220032059
201.0	651.9087674030618	fix	2.0		60	attractiveness	117	2.0	2	3.6900000000000004	674.5326738208271	0.5167485649067203
202.0	652.4255159679685	face	0.0		147	attractiveness	172	2.0	2		675.0494223857338	1.2334545079147574
202.0	653.6589704758833	rating	1.0		128	attractiveness	172	2.0	2		676.2828768936486	1.0751241151501745
202.0	654.7340945910335	fix	2.0		60	attractiveness	172	2.0	2	-3.64	677.3580010087987	0.516745546358834
203.0	655.2508401373923	face	0.0		147	attractiveness	027	2.0	2		677.8747465551576	1.2334979750071398
203.0	656.4843381123994	rating	1.0		151	attractiveness	027	2.0	2		679.1082445301647	1.2667617710544619
203.0	657.7510998834539	fix	2.0		60	attractiveness	027	2.0	2	0.5700000000000003	680.3750063012192	0.5167506778902862
204.0	658.2678505613442	face	0.0		147	attractiveness	082	2.0	2		680.8917569791095	1.2334593375917393
204.0	659.5013098989359	rating	1.0		157	attractiveness	082	2.0	2		682.1252163167012	1.3168089962391605
204.0	660.8181188951751	fix	2.0		60	attractiveness	082	2.0	2	2.8099999999999996	683.4420253129404	0.5167597335348546
205.0	661.3348786287099	face	0.0		147	attractiveness	038	2.0	2		683.9587850464752	1.233451187511946
205.0	662.5683298162219	rating	1.0		124	attractiveness	038	2.0	2		685.1922362339872	1.0417761016115037
205.0	663.6101059178334	fix	2.0		60	attractiveness	038	2.0	2	-3.65	686.2340123355987	0.516760639099175
206.0	664.1268665569326	face	0.0		147	attractiveness	091	2.0	2		686.7507729746978	1.2334514893664164
206.0	665.360318046299	rating	1.0		304	attractiveness	091	2.0	2		687.9842244640643	2.5419498190535705
206.0	667.9022678653525	fix	2.0		60	attractiveness	091	2.0	2	-0.7599999999999998	690.5261742831178	0.5167582242602293
207.0	668.4190260896128	face	0.0		147	attractiveness	018	2.0	2		691.042932507378	1.2334545079147574
207.0	669.6524805975275	rating	1.0		79	attractiveness	018	2.0	2		692.2763870152928	0.6667344833804236
207.0	670.319215080908	fix	2.0		60	attractiveness	018	2.0	2	0.79	692.9431214986732	0.5167500741804361
208.0	670.8359651550884	face	0.0		147	attractiveness	064	2.0	2		693.4598715728537	1.2334520930767212
208.0	672.0694172481651	rating	1.0		73	attractiveness	064	2.0	2		694.6933236659304	0.6167446106087482
208.0	672.6861618587739	fix	2.0		60	attractiveness	064	2.0	2	1.5	695.3100682765391	0.5167482630517952
209.0	673.2029101218257	face	0.0		147	attractiveness	024	2.0	2		695.8268165395909	1.233453602350437
209.0	674.4363637241761	rating	1.0		295	attractiveness	024	2.0	2		697.0602701419414	2.4669422198580833
209.0	676.9033059440342	fix	2.0		60	attractiveness	024	2.0	2	-3.83	699.5272123617995	0.5167515834550613
210.0	677.4200575274892	face	0.0		147	attractiveness	044	2.0	2		700.0439639452545	1.2334578283175688
210.0	678.6535153558068	rating	1.0		135	attractiveness	044	2.0	2		701.2774217735721	1.133465103018807
210.0	679.7869804588256	fix	2.0		60	attractiveness	044	2.0	2	1.4000000000000004	702.4108868765909	0.5167437352297384
211.0	680.3037241940553	face	0.0		147	attractiveness	033	2.0	2		702.9276306118206	1.2334581301724938
211.0	681.5371823242278	rating	1.0		89	attractiveness	033	2.0	2		704.1610887419931	0.7500781049311627
211.0	682.287260429159	fix	2.0		60	attractiveness	033	2.0	2	2.17	704.9111668469243	0.5167479611973249
212.0	682.8040083903563	face	0.0		147	attractiveness	101	2.0	2		705.4279148081216	1.2334605450109848
212.0	684.0374689353673	rating	1.0		108	attractiveness	101	2.0	2		706.6613753531326	0.9084377776121073
212.0	684.9459067129794	fix	2.0		60	attractiveness	101	2.0	2	3.1500000000000004	707.5698131307447	0.5167479611968702
213.0	685.4626546741763	face	0.0		147	attractiveness	006	2.0	2		708.0865610919416	1.233455715334003
213.0	686.6961103895103	rating	1.0		110	attractiveness	006	2.0	2		709.3200168072756	0.9251058982131326
213.0	687.6212162877234	fix	2.0		60	attractiveness	006	2.0	2	-3.97	710.2451227054887	0.5167413203912474
214.0	688.1379576081147	face	0.0		147	attractiveness	121	2.0	2		710.76186402588	1.2334626579945507
214.0	689.3714202661092	rating	1.0		618	attractiveness	121	2.0	2		711.9953266838745	5.158924744880096
214.0	694.5303450109893	fix	2.0		60	attractiveness	121	2.0	2	-1.27	717.1542514287546	0.5167479611968702
215.0	695.0470929721862	face	0.0		147	attractiveness	042	2.0	2		717.6709993899515	1.2334460559804938
215.0	696.2805390281667	rating	1.0		133	attractiveness	042	2.0	2		718.904445445932	1.1167969824177817
215.0	697.3973360105845	fix	2.0		60	attractiveness	042	2.0	2	2.8499999999999996	720.0212424283498	0.5167485649067203
216.0	697.9140845754912	face	0.0		147	attractiveness	137	2.0	2		720.5379909932565	1.2334517912213414
216.0	699.1475363667125	rating	1.0		98	attractiveness	137	2.0	2		721.7714427844778	0.8251023061407068
216.0	699.9726386728532	fix	2.0		60	attractiveness	137	2.0	2	0.7800000000000002	722.5965450906185	0.5167422259555678
217.0	700.4893808988088	face	0.0		147	attractiveness	070	2.0	2		723.1132873165741	1.233456620898778
217.0	701.7228375197076	rating	1.0		113	attractiveness	070	2.0	2		724.3467439374729	0.9501139652825259
217.0	702.6729514849901	fix	2.0		60	attractiveness	070	2.0	2	-3.61	725.2968579027554	0.5167479611968702
218.0	703.189699446187	face	0.0		147	attractiveness	102	2.0	2		725.8136058639523	1.2334478671091347
218.0	704.4231473132961	rating	1.0		99	attractiveness	102	2.0	2		727.0470537310614	0.833425952449943
218.0	705.256573265746	fix	2.0		60	attractiveness	102	2.0	2	-3.46	727.8804796835113	0.5167479611973249
219.0	705.7733212269434	face	0.0		147	attractiveness	124	2.0	2		728.3972276447087	1.2334644691231915
219.0	707.0067856960666	rating	1.0		112	attractiveness	124	2.0	2		729.6306921138319	0.9417725095395326
219.0	707.9485582056061	fix	2.0		60	attractiveness	124	2.0	2	3.8499999999999996	730.5724646233714	0.516743131520343
220.0	708.4653013371264	face	0.0		147	attractiveness	062	2.0	2		731.0892077548917	1.2334611487203802
220.0	709.6987624858468	rating	1.0		69	attractiveness	062	2.0	2		732.3226689036121	0.5833953896508319
220.0	710.2821578754977	fix	2.0		60	attractiveness	062	2.0	2	-0.54	732.906064293263	0.5167461500682293
221.0	710.7989040255659	face	0.0		147	attractiveness	099	2.0	2		733.4228104433312	1.233453602350437
221.0	712.0323576279163	rating	1.0		93	attractiveness	099	2.0	2		734.6562640456816	0.7834234017768722
221.0	712.8157810296932	fix	2.0		60	attractiveness	099	2.0	2	0.3799999999999999	735.4396874474585	0.5167555075672681
222.0	713.3325365372605	face	0.0		147	attractiveness	036	2.0	2		735.9564429550258	1.2334523949311915
222.0	714.5659889321917	rating	1.0		142	attractiveness	036	2.0	2		737.1898953499569	1.1917994500809073
222.0	715.7577883822726	fix	2.0		60	attractiveness	036	2.0	2	0.5800000000000001	738.3816948000378	0.5167485649067203
223.0	716.2745369471793	face	0.0		147	attractiveness	043	2.0	2		738.8984433649446	1.233451489366871
223.0	717.5079884365462	rating	1.0		71	attractiveness	043	2.0	2		740.1318948543114	0.6000662269448185
223.0	718.108054663491	fix	2.0		60	attractiveness	043	2.0	2	-1.5699999999999998	740.7319610812563	0.5167506778902862
224.0	718.6248053413813	face	0.0		147	attractiveness	136	2.0	2		741.2487117591465	1.2334599413011347
224.0	719.8582652826824	rating	1.0		98	attractiveness	136	2.0	2		742.4821717004477	0.8250932504965931
224.0	720.683358533179	fix	2.0		60	attractiveness	136	2.0	2	-3.18	743.3072649509443	0.5167497723259658
225.0	721.200108305505	face	0.0		147	attractiveness	030	2.0	2		743.8240147232702	1.2334566208983233
225.0	722.4335649264033	rating	1.0		124	attractiveness	030	2.0	2		745.0574713441686	1.041781836852806
225.0	723.4753467632561	fix	2.0		60	attractiveness	030	2.0	2	1.2999999999999998	746.0992531810214	0.5167512816001363
226.0	723.9920980448562	face	0.0		147	attractiveness	009	2.0	2		746.6160044626215	1.2334457541255688
226.0	725.2255437989818	rating	1.0		108	attractiveness	009	2.0	2		747.8494502167471	0.9084371739022572
226.0	726.133980972884	fix	2.0		60	attractiveness	009	2.0	2	3.38	748.7578873906493	0.5167470556330045
227.0	726.650728028517	face	0.0		147	attractiveness	087	2.0	2		749.2746344462823	1.2334548097696825
227.0	727.8841828382867	rating	1.0		126	attractiveness	087	2.0	2		750.508089256052	1.0584602205167357
227.0	728.9426430588035	fix	2.0		60	attractiveness	087	2.0	2	-1.46	751.5665494765688	0.5167488667616453
228.0	729.4593919255651	face	0.0		147	attractiveness	012	2.0	2		752.0832983433304	1.233448168963605
228.0	730.6928400945287	rating	1.0		121	attractiveness	012	2.0	2		753.316746512294	1.0167912773622447
228.0	731.709631371891	fix	2.0		60	attractiveness	012	2.0	2	3.58	754.3335377896562	0.5167464519231544
229.0	732.2263778238141	face	0.0		147	attractiveness	005	2.0	2		754.8502842415794	1.2334469615443595
229.0	733.4598247853585	rating	1.0		169	attractiveness	005	2.0	2		756.0837312031238	1.416836736696041
229.0	734.8766615220545	fix	2.0		60	attractiveness	005	2.0	2	-3.84	757.5005679398198	0.5167437352301931
230.0	735.3934052572847	face	0.0		147	attractiveness	061	2.0	2		758.01731167505	1.2334581301724938
230.0	736.6268633874572	rating	1.0		92	attractiveness	061	2.0	2		759.2507698052225	0.7750873794202562
230.0	737.4019507668775	fix	2.0		60	attractiveness	061	2.0	2	-3.84	760.0258571846427	0.5167515834546066
231.0	737.9187023503321	face	0.0		147	attractiveness	144	2.0	2		760.5426087680974	1.233478656299667
231.0	739.1521810066317	rating	1.0		263	attractiveness	144	2.0	2		761.776087424397	2.2002260288795696
231.0	741.3524070355113	fix	2.0		60	attractiveness	144	2.0	2	1.3099999999999996	763.9763134532766	0.5167497723259658
232.0	741.8691568078373	face	0.0		147	attractiveness	011	2.0	2		764.4930632256026	1.2334472633992846
232.0	743.1026040712366	rating	1.0		63	attractiveness	011	2.0	2		765.7265104890018	0.5333979705096681
232.0	743.6360020417462	fix	2.0		60	attractiveness	011	2.0	2	-0.9100000000000001	766.2599084595115	0.5167536964381725
233.0	744.1527557381844	face	0.0		147	attractiveness	034	2.0	2		766.7766621559497	1.233453300495512
233.0	745.3862090386799	rating	1.0		78	attractiveness	034	2.0	2		768.0101154564452	0.6584038944101849
233.0	746.0446129330901	fix	2.0		60	attractiveness	034	2.0	2	-1.1	768.6685193508554	0.5167521871644567
234.0	746.5613651202545	face	0.0		147	attractiveness	066	2.0	2		769.1852715380198	1.2334523949311915
234.0	747.7948175151857	rating	1.0		92	attractiveness	066	2.0	2		770.418723932951	0.7750882849845766
234.0	748.5699058001703	fix	2.0		60	attractiveness	066	2.0	2	-2.06	771.1938122179356	0.5167443389395885
235.0	749.0866501391099	face	0.0		147	attractiveness	092	2.0	2		771.7105565568752	1.2334517912213414
235.0	750.3201019303312	rating	1.0		84	attractiveness	092	2.0	2		772.9440083480965	0.7084133877438035
235.0	751.028515318075	fix	2.0		60	attractiveness	092	2.0	2	-2.6799999999999997	773.6524217358403	0.5167558094221931
236.0	751.5452711274972	face	0.0		147	attractiveness	141	2.0	2		774.1691775452625	1.233453602350437
236.0	752.7787247298477	rating	1.0		63	attractiveness	141	2.0	2		775.402631147613	0.5333925371228361
236.0	753.3121172669705	fix	2.0		60	attractiveness	141	2.0	2	0.6900000000000004	775.9360236847358	0.5167449426489839
237.0	753.8288622096195	face	0.0		147	attractiveness	100	2.0	2		776.4527686273848	1.233453602350437
237.0	755.0623158119699	rating	1.0		110	attractiveness	100	2.0	2		777.6862222297352	0.9251167649858871
237.0	755.9874325769558	fix	2.0		60	attractiveness	100	2.0	2	3.33	778.6113389947211	0.5167355851499451
238.0	756.5041681621058	face	0.0		147	attractiveness	039	2.0	2		779.128074579871	1.2334542060598324
238.0	757.7376223681656	rating	1.0		111	attractiveness	039	2.0	2		780.3615287859309	0.9334413168598985
238.0	758.6710636850255	fix	2.0		60	attractiveness	039	2.0	2	2.5	781.2949701027908	0.5167491686165704
239.0	759.1878128536421	face	0.0		147	attractiveness	126	2.0	2		781.8117192714074	1.233465374687512
239.0	760.4212782283296	rating	1.0		74	attractiveness	126	2.0	2		783.0451846460949	0.6250631253865322
239.0	761.0463413537161	fix	2.0		60	attractiveness	126	2.0	2	1.2000000000000002	783.6702477714814	0.5000578051958655
