trial_nr	onset	event_type	phase	response	nr_frames	face_age	face_sex	face_eth	attractiveness	expression	face_id	sub_id	ses	run	trial_type	catch	rating_type	onset_abs	duration
-1.0	0.0606912293978894	fix	0.0		713													91.15125008640644	5.957918119468559
-1.0	0.7021803878296851	pulse	0.0	t														91.79273924483823	
-1.0	1.4021590466945781	pulse	0.0	t														92.49271790370312	
-1.0	2.1021410259627373	pulse	0.0	t														93.19269988297128	
-1.0	2.802130551600385	pulse	0.0	t														93.89268940860893	
-1.0	3.502114945707035	pulse	0.0	t														94.59267380271558	
-1.0	4.20209964166861	pulse	0.0	t														95.29265849867716	
-1.0	4.902068037469689	pulse	0.0	t														95.99262689447824	
-1.0	5.602086541170138	pulse	0.0	t														96.69264539817868	
0.0	6.018609348866448	face	0.0		144	27.0	female	white	3.504576203740549	neutral	144	sub-04	2.0	1.0	144_neutral	0.0		97.109168205875	1.2333189751061582
0.0	6.302060068503124	pulse	0.0	t		27.0	female	white	3.504576203740549	neutral	144	sub-04	2.0	1.0	144_neutral	0.0		97.39261892551167	
0.0	7.00203480325581	pulse	0.0	t		27.0	female	white	3.504576203740549	neutral	144	sub-04	2.0	1.0	144_neutral	0.0		98.09259366026436	
0.0	7.2519283239726064	fix	1.0		445	27.0	female	white	3.504576203740549	neutral	144	sub-04	2.0	1.0	144_neutral	0.0		98.34248718098115	3.7582333162581563
0.0	7.702044855021086	pulse	1.0	t		27.0	female	white	3.504576203740549	neutral	144	sub-04	2.0	1.0	144_neutral	0.0		98.79260371202963	
0.0	8.402079055170361	pulse	1.0	t		27.0	female	white	3.504576203740549	neutral	144	sub-04	2.0	1.0	144_neutral	0.0		99.4926379121789	
0.0	9.101990400413342	pulse	1.0	t		27.0	female	white	3.504576203740549	neutral	144	sub-04	2.0	1.0	144_neutral	0.0		100.19254925742189	
0.0	9.80198234089039	pulse	1.0	t		27.0	female	white	3.504576203740549	neutral	144	sub-04	2.0	1.0	144_neutral	0.0		100.89254119789894	
0.0	10.501997826041588	pulse	1.0	t		27.0	female	white	3.504576203740549	neutral	144	sub-04	2.0	1.0	144_neutral	0.0		101.59255668305013	
1.0	11.010161640230763	face	0.0		146	36.0	female	white	2.7548746518105847	neutral	011	sub-04	2.0	1.0	011_neutral	0.0		102.10072049723931	1.2416489603665468
1.0	11.201956864344538	pulse	0.0	t		36.0	female	white	2.7548746518105847	neutral	011	sub-04	2.0	1.0	011_neutral	0.0		102.29251572135308	
1.0	11.901949106675602	pulse	0.0	t		36.0	female	white	2.7548746518105847	neutral	011	sub-04	2.0	1.0	011_neutral	0.0		102.99250796368415	
1.0	12.25181060059731	fix	1.0		445	36.0	female	white	2.7548746518105847	neutral	011	sub-04	2.0	1.0	011_neutral	0.0		103.34236945760586	3.7665629996645293
1.0	12.60195281949018	pulse	1.0	t		36.0	female	white	2.7548746518105847	neutral	011	sub-04	2.0	1.0	011_neutral	0.0		103.69251167649873	
1.0	13.301915480050411	pulse	1.0	t		36.0	female	white	2.7548746518105847	neutral	011	sub-04	2.0	1.0	011_neutral	0.0		104.39247433705896	
1.0	14.00188629069089	pulse	1.0	t		36.0	female	white	2.7548746518105847	neutral	011	sub-04	2.0	1.0	011_neutral	0.0		105.09244514769944	
1.0	14.701886079392352	pulse	1.0	t		36.0	female	white	2.7548746518105847	neutral	011	sub-04	2.0	1.0	011_neutral	0.0		105.7924449364009	
1.0	15.401867454950661	pulse	1.0	t		36.0	female	white	2.7548746518105847	neutral	011	sub-04	2.0	1.0	011_neutral	0.0		106.4924263119592	
2.0	16.01837360026184	face	0.0		145	54.0	female	white	2.286908077994429	smiling	136	sub-04	2.0	1.0	136_smiling	0.0		107.10893245727038	1.2333461420384992
2.0	16.101941499934583	pulse	0.0	t		54.0	female	white	2.286908077994429	smiling	136	sub-04	2.0	1.0	136_smiling	0.0		107.19250035694313	
2.0	16.80182960235743	pulse	0.0	t		54.0	female	white	2.286908077994429	smiling	136	sub-04	2.0	1.0	136_smiling	0.0		107.89238845936597	
2.0	17.251719742300338	fix	1.0		444	54.0	female	white	2.286908077994429	smiling	136	sub-04	2.0	1.0	136_smiling	0.0		108.34227859930888	3.7582124882774224
2.0	17.501822750253268	pulse	1.0	t		54.0	female	white	2.286908077994429	smiling	136	sub-04	2.0	1.0	136_smiling	0.0		108.59238160726181	
2.0	18.201802918392787	pulse	1.0	t		54.0	female	white	2.286908077994429	smiling	136	sub-04	2.0	1.0	136_smiling	0.0		109.29236177540133	
2.0	18.901790632901793	pulse	1.0	t		54.0	female	white	2.286908077994429	smiling	136	sub-04	2.0	1.0	136_smiling	0.0		109.99234948991034	
2.0	19.60178196966899	pulse	1.0	t		54.0	female	white	2.286908077994429	smiling	136	sub-04	2.0	1.0	136_smiling	0.0		110.69234082667754	
2.0	20.301763043372375	pulse	1.0	t		54.0	female	white	2.286908077994429	smiling	136	sub-04	2.0	1.0	136_smiling	0.0		111.39232190038092	
3.0	21.00993223057776	face	0.0		146	21.0	male	black	2.969757262236371	neutral	137	sub-04	2.0	1.0	137_neutral	1.0	attractiveness	112.1004910875863	1.241674014315322
3.0	21.003798239039497	pulse	0.0	t		21.0	male	black	2.969757262236371	neutral	137	sub-04	2.0	1.0	137_neutral	1.0	attractiveness	112.09435709604804	
3.0	21.70170858876554	pulse	0.0	t		21.0	male	black	2.969757262236371	neutral	137	sub-04	2.0	1.0	137_neutral	1.0	attractiveness	112.79226744577409	
3.0	22.251606244893082	fix	1.0		177	21.0	male	black	2.969757262236371	neutral	137	sub-04	2.0	1.0	137_neutral	1.0	attractiveness	113.34216510190163	1.5083298343333809
3.0	22.40173011101342	pulse	1.0	t		21.0	male	black	2.969757262236371	neutral	137	sub-04	2.0	1.0	137_neutral	1.0	attractiveness	113.49228896802197	
3.0	23.101706958749674	pulse	1.0	t		21.0	male	black	2.969757262236371	neutral	137	sub-04	2.0	1.0	137_neutral	1.0	attractiveness	114.19226581575822	
3.0	23.759936079226463	rating	2.0		293	21.0	male	black	2.969757262236371	neutral	137	sub-04	2.0	1.0	137_neutral	1.0	attractiveness	114.85049493623501	2.4915947019653686
3.0	23.801699502935662	pulse	2.0	t		21.0	male	black	2.969757262236371	neutral	137	sub-04	2.0	1.0	137_neutral	1.0	attractiveness	114.89225835994421	
3.0	24.501683595187387	pulse	2.0	t		21.0	male	black	2.969757262236371	neutral	137	sub-04	2.0	1.0	137_neutral	1.0	attractiveness	115.59224245219593	
3.0	24.89332783152622	response	2.0	b		21.0	male	black	2.969757262236371	neutral	137	sub-04	2.0	1.0	137_neutral	1.0	attractiveness	115.98388668853477	
3.0	25.201657122521283	pulse	2.0	t		21.0	male	black	2.969757262236371	neutral	137	sub-04	2.0	1.0	137_neutral	1.0	attractiveness	116.29221597952983	
3.0	25.901641214773008	pulse	2.0	t		21.0	male	black	2.969757262236371	neutral	137	sub-04	2.0	1.0	137_neutral	1.0	attractiveness	116.99220007178155	
3.0	26.251530781191832	fix	3.0		444	21.0	male	black	2.969757262236371	neutral	137	sub-04	2.0	1.0	137_neutral	1.0	attractiveness	117.34208963820038	3.7665720553077335
3.0	26.601625005169808	pulse	3.0	t		21.0	male	black	2.969757262236371	neutral	137	sub-04	2.0	1.0	137_neutral	1.0	attractiveness	117.69218386217835	
3.0	27.30161181411404	pulse	3.0	t		21.0	male	black	2.969757262236371	neutral	137	sub-04	2.0	1.0	137_neutral	1.0	attractiveness	118.39217067112259	
3.0	28.001626393701372	pulse	3.0	t		21.0	male	black	2.969757262236371	neutral	137	sub-04	2.0	1.0	137_neutral	1.0	attractiveness	119.09218525070992	
3.0	28.701590865391154	pulse	3.0	t		21.0	male	black	2.969757262236371	neutral	137	sub-04	2.0	1.0	137_neutral	1.0	attractiveness	119.7921497223997	
3.0	29.401572844658403	pulse	3.0	t		21.0	male	black	2.969757262236371	neutral	137	sub-04	2.0	1.0	137_neutral	1.0	attractiveness	120.49213170166695	
4.0	30.018102836499565	face	0.0		145	37.0	male	white	3.898925586947871	neutral	101	sub-04	2.0	1.0	101_neutral	0.0		121.10866169350811	1.2333213899446491
4.0	30.101565992554242	pulse	0.0	t		37.0	male	white	3.898925586947871	neutral	101	sub-04	2.0	1.0	101_neutral	0.0		121.19212484956279	
4.0	30.80154072730693	pulse	0.0	t		37.0	male	white	3.898925586947871	neutral	101	sub-04	2.0	1.0	101_neutral	0.0		121.89209958431547	
4.0	31.251424226444215	fix	1.0		444	37.0	male	white	3.898925586947871	neutral	101	sub-04	2.0	1.0	101_neutral	0.0		122.34198308345276	3.766568131195527
4.0	31.501521197301372	pulse	1.0	t		37.0	male	white	3.898925586947871	neutral	101	sub-04	2.0	1.0	101_neutral	0.0		122.59208005430992	
4.0	32.201511628503795	pulse	1.0	t		37.0	male	white	3.898925586947871	neutral	101	sub-04	2.0	1.0	101_neutral	0.0		123.29207048551234	
4.0	32.90150507825456	pulse	1.0	t		37.0	male	white	3.898925586947871	neutral	101	sub-04	2.0	1.0	101_neutral	0.0		123.9920639352631	
4.0	33.6014843408293	pulse	1.0	t		37.0	male	white	3.898925586947871	neutral	101	sub-04	2.0	1.0	101_neutral	0.0		124.69204319783785	
4.0	34.30145967929184	pulse	1.0	t		37.0	male	white	3.898925586947871	neutral	101	sub-04	2.0	1.0	101_neutral	0.0		125.39201853630038	
5.0	35.01799235763974	face	0.0		146	28.0	female	white	5.676880222841227	smiling	124	sub-04	2.0	1.0	124_smiling	0.0		126.10855121464829	1.233328936315047
5.0	35.004189442869574	pulse	0.0	t		28.0	female	white	5.676880222841227	smiling	124	sub-04	2.0	1.0	124_smiling	0.0		126.09474829987812	
5.0	35.701446578792456	pulse	0.0	t		28.0	female	white	5.676880222841227	smiling	124	sub-04	2.0	1.0	124_smiling	0.0		126.792005435801	
5.0	36.25132129395479	fix	1.0		443	28.0	female	white	5.676880222841227	smiling	124	sub-04	2.0	1.0	124_smiling	0.0		127.34188015096333	3.766573866437284
5.0	36.40143399144745	pulse	1.0	t		28.0	female	white	5.676880222841227	smiling	124	sub-04	2.0	1.0	124_smiling	0.0		127.491992848456	
5.0	37.10139967055602	pulse	1.0	t		28.0	female	white	5.676880222841227	smiling	124	sub-04	2.0	1.0	124_smiling	0.0		128.19195852756457	
5.0	37.80140187409597	pulse	1.0	t		28.0	female	white	5.676880222841227	smiling	124	sub-04	2.0	1.0	124_smiling	0.0		128.89196073110452	
5.0	38.501388683041114	pulse	1.0	t		28.0	female	white	5.676880222841227	smiling	124	sub-04	2.0	1.0	124_smiling	0.0		129.59194754004966	
5.0	39.20135707884219	pulse	1.0	t		28.0	female	white	5.676880222841227	smiling	124	sub-04	2.0	1.0	124_smiling	0.0		130.29191593585074	
5.0	39.90135415085115	pulse	1.0	t		28.0	female	white	5.676880222841227	smiling	124	sub-04	2.0	1.0	124_smiling	0.0		130.9919130078597	
6.0	40.01789516039207	face	0.0		146	32.0	male	white	2.389176283326701	smiling	092	sub-04	2.0	1.0	092_smiling	0.0		131.10845401740062	1.2333198806709333
6.0	40.60134609132729	pulse	0.0	t		32.0	male	white	2.389176283326701	smiling	092	sub-04	2.0	1.0	092_smiling	0.0		131.69190494833583	
6.0	41.251215041063006	fix	1.0		443	32.0	male	white	2.389176283326701	smiling	092	sub-04	2.0	1.0	092_smiling	0.0		132.34177389807155	3.758250521982518
6.0	41.301326259466805	pulse	1.0	t		32.0	male	white	2.389176283326701	smiling	092	sub-04	2.0	1.0	092_smiling	0.0		132.39188511647535	
6.0	42.001309446153755	pulse	1.0	t		32.0	male	white	2.389176283326701	smiling	092	sub-04	2.0	1.0	092_smiling	0.0		133.0918683031623	
6.0	42.701306820016725	pulse	1.0	t		32.0	male	white	2.389176283326701	smiling	092	sub-04	2.0	1.0	092_smiling	0.0		133.79186567702527	
6.0	43.40128095106047	pulse	1.0	t		32.0	male	white	2.389176283326701	smiling	092	sub-04	2.0	1.0	092_smiling	0.0		134.49183980806902	
6.0	44.10126474145727	pulse	1.0	t		32.0	male	white	2.389176283326701	smiling	092	sub-04	2.0	1.0	092_smiling	0.0		135.19182359846582	
6.0	44.80124792814422	pulse	1.0	t		32.0	male	white	2.389176283326701	smiling	092	sub-04	2.0	1.0	092_smiling	0.0		135.89180678515277	
7.0	45.009465563045524	face	0.0		146	19.0	male	white	3.2522881018702745	smiling	018	sub-04	2.0	1.0	018_smiling	0.0		136.10002442005407	1.241647149237906
7.0	45.501241981604835	pulse	0.0	t		19.0	male	white	3.2522881018702745	smiling	018	sub-04	2.0	1.0	018_smiling	0.0		136.59180083861338	
7.0	46.2012203386148	pulse	0.0	t		19.0	male	white	3.2522881018702745	smiling	018	sub-04	2.0	1.0	018_smiling	0.0		137.29177919562335	
7.0	46.25111271228343	fix	1.0		445	19.0	male	white	3.2522881018702745	smiling	018	sub-04	2.0	1.0	018_smiling	0.0		137.34167156929198	3.766560584825129
7.0	46.901217712477774	pulse	1.0	t		19.0	male	white	3.2522881018702745	smiling	018	sub-04	2.0	1.0	018_smiling	0.0		137.99177656948632	
7.0	47.6011954657788	pulse	1.0	t		19.0	male	white	3.2522881018702745	smiling	018	sub-04	2.0	1.0	018_smiling	0.0		138.69175432278735	
7.0	48.30118348214273	pulse	1.0	t		19.0	male	white	3.2522881018702745	smiling	018	sub-04	2.0	1.0	018_smiling	0.0		139.39174233915128	
7.0	49.001170894797724	pulse	1.0	t		19.0	male	white	3.2522881018702745	smiling	018	sub-04	2.0	1.0	018_smiling	0.0		140.09172975180627	
7.0	49.70115045922739	pulse	1.0	t		19.0	male	white	3.2522881018702745	smiling	018	sub-04	2.0	1.0	018_smiling	0.0		140.79170931623594	
8.0	50.01767329710856	face	0.0		145	26.0	female	white	4.854755272582572	smiling	027	sub-04	2.0	1.0	027_smiling	0.0		141.1082321541171	1.2333331622830883
8.0	50.40113757002655	pulse	0.0	t		26.0	female	white	4.854755272582572	smiling	027	sub-04	2.0	1.0	027_smiling	0.0		141.4916964270351	
8.0	51.10111381405386	pulse	0.0	t		26.0	female	white	4.854755272582572	smiling	027	sub-04	2.0	1.0	027_smiling	0.0		142.1916726710624	
8.0	51.25100645939165	fix	1.0		445	26.0	female	white	4.854755272582572	smiling	027	sub-04	2.0	1.0	027_smiling	0.0		142.3415653164002	3.7665729608725087
8.0	51.801109074933265	pulse	1.0	t		26.0	female	white	4.854755272582572	smiling	027	sub-04	2.0	1.0	027_smiling	0.0		142.8916679319418	
8.0	52.501093469039006	pulse	1.0	t		26.0	female	white	4.854755272582572	smiling	027	sub-04	2.0	1.0	027_smiling	0.0		143.59165232604755	
8.0	53.20107061863018	pulse	1.0	t		26.0	female	white	4.854755272582572	smiling	027	sub-04	2.0	1.0	027_smiling	0.0		144.29162947563873	
8.0	53.90105199418849	pulse	1.0	t		26.0	female	white	4.854755272582572	smiling	027	sub-04	2.0	1.0	027_smiling	0.0		144.99161085119704	
8.0	54.60104755692282	pulse	1.0	t		26.0	female	white	4.854755272582572	smiling	027	sub-04	2.0	1.0	027_smiling	0.0		145.69160641393137	
9.0	55.017579420264155	face	0.0		145	27.0	female	white	4.181058495821727	smiling	039	sub-04	2.0	1.0	039_smiling	0.0		146.1081382772727	1.23332380478314
9.0	55.301042214093286	pulse	0.0	t		27.0	female	white	4.181058495821727	smiling	039	sub-04	2.0	1.0	039_smiling	0.0		146.39160107110183	
9.0	56.00100487465352	pulse	0.0	t		27.0	female	white	4.181058495821727	smiling	039	sub-04	2.0	1.0	039_smiling	0.0		147.09156373166206	
9.0	56.250903225047296	fix	1.0		445	27.0	female	white	4.181058495821727	smiling	039	sub-04	2.0	1.0	039_smiling	0.0		147.34146208205584	3.758312704072523
9.0	56.70100526706483	pulse	1.0	t		27.0	female	white	4.181058495821727	smiling	039	sub-04	2.0	1.0	039_smiling	0.0		147.79156412407337	
9.0	57.400991170445195	pulse	1.0	t		27.0	female	white	4.181058495821727	smiling	039	sub-04	2.0	1.0	039_smiling	0.0		148.49155002745374	
9.0	58.100972546003504	pulse	1.0	t		27.0	female	white	4.181058495821727	smiling	039	sub-04	2.0	1.0	039_smiling	0.0		149.19153140301205	
9.0	58.80095844938387	pulse	1.0	t		27.0	female	white	4.181058495821727	smiling	039	sub-04	2.0	1.0	039_smiling	0.0		149.89151730639242	
9.0	59.50099053655049	pulse	1.0	t		27.0	female	white	4.181058495821727	smiling	039	sub-04	2.0	1.0	039_smiling	0.0		150.59154939355903	
10.0	60.00921592911982	face	0.0		146	19.0	female	white	4.298846000795861	smiling	100	sub-04	2.0	1.0	100_smiling	0.0		151.09977478612836	1.241580741180769
10.0	60.20093961364455	pulse	0.0	t		19.0	female	white	4.298846000795861	smiling	100	sub-04	2.0	1.0	100_smiling	0.0		151.2914984706531	
10.0	60.90090348162357	pulse	0.0	t		19.0	female	white	4.298846000795861	smiling	100	sub-04	2.0	1.0	100_smiling	0.0		151.99146233863212	
10.0	61.25079667030059	fix	1.0		444	19.0	female	white	4.298846000795861	smiling	100	sub-04	2.0	1.0	100_smiling	0.0		152.34135552730913	3.7582167142436447
10.0	61.60090296847011	pulse	1.0	t		19.0	female	white	4.298846000795861	smiling	100	sub-04	2.0	1.0	100_smiling	0.0		152.69146182547865	
10.0	62.30088917370631	pulse	1.0	t		19.0	female	white	4.298846000795861	smiling	100	sub-04	2.0	1.0	100_smiling	0.0		153.39144803071486	
10.0	63.00086602144256	pulse	1.0	t		19.0	female	white	4.298846000795861	smiling	100	sub-04	2.0	1.0	100_smiling	0.0		154.0914248784511	
10.0	63.700858263773625	pulse	1.0	t		19.0	female	white	4.298846000795861	smiling	100	sub-04	2.0	1.0	100_smiling	0.0		154.79141712078217	
10.0	64.4008417523155	pulse	1.0	t		19.0	female	white	4.298846000795861	smiling	100	sub-04	2.0	1.0	100_smiling	0.0		155.49140060932405	
11.0	65.00901338454423	face	0.0		146	22.0	female	west_asian	3.8205332272184642	smiling	066	sub-04	2.0	1.0	066_smiling	0.0		156.09957224155278	1.241680051412004
11.0	65.10083490021134	pulse	0.0	t		22.0	female	west_asian	3.8205332272184642	smiling	066	sub-04	2.0	1.0	066_smiling	0.0		156.19139375721988	
11.0	65.80081174794759	pulse	0.0	t		22.0	female	west_asian	3.8205332272184642	smiling	066	sub-04	2.0	1.0	066_smiling	0.0		156.89137060495614	
11.0	66.25069343595624	fix	1.0		444	22.0	female	west_asian	3.8205332272184642	smiling	066	sub-04	2.0	1.0	066_smiling	0.0		157.34125229296478	3.766566621921811
11.0	66.50080519769836	pulse	1.0	t		22.0	female	west_asian	3.8205332272184642	smiling	066	sub-04	2.0	1.0	066_smiling	0.0		157.5913640547069	
11.0	67.20078204543461	pulse	1.0	t		22.0	female	west_asian	3.8205332272184642	smiling	066	sub-04	2.0	1.0	066_smiling	0.0		158.29134090244315	
11.0	67.90077066550839	pulse	1.0	t		22.0	female	west_asian	3.8205332272184642	smiling	066	sub-04	2.0	1.0	066_smiling	0.0		158.99132952251693	
11.0	68.60075475776011	pulse	1.0	t		22.0	female	west_asian	3.8205332272184642	smiling	066	sub-04	2.0	1.0	066_smiling	0.0		159.69131361476866	
11.0	69.30074005743154	pulse	1.0	t		22.0	female	west_asian	3.8205332272184642	smiling	066	sub-04	2.0	1.0	066_smiling	0.0		160.39129891444009	
12.0	70.01726005787805	face	0.0		146	19.0	male	white	2.243931555909272	smiling	130	sub-04	2.0	1.0	130_smiling	0.0		161.1078189148866	1.2333298418789127
12.0	70.00362618179952	pulse	0.0	t		19.0	male	white	2.243931555909272	smiling	130	sub-04	2.0	1.0	130_smiling	0.0		161.09418503880806	
12.0	70.7007185049979	pulse	0.0	t		19.0	male	white	2.243931555909272	smiling	130	sub-04	2.0	1.0	130_smiling	0.0		161.79127736200644	
12.0	71.25058989975696	fix	1.0		443	19.0	male	white	2.243931555909272	smiling	130	sub-04	2.0	1.0	130_smiling	0.0		162.3411487567655	3.766569942325077
12.0	71.40071316216745	pulse	1.0	t		19.0	male	white	2.243931555909272	smiling	130	sub-04	2.0	1.0	130_smiling	0.0		162.491272019176	
12.0	72.10066737079342	pulse	1.0	t		19.0	male	white	2.243931555909272	smiling	130	sub-04	2.0	1.0	130_smiling	0.0		163.19122622780196	
12.0	72.80064542594937	pulse	1.0	t		19.0	male	white	2.243931555909272	smiling	130	sub-04	2.0	1.0	130_smiling	0.0		163.89120428295791	
12.0	73.50066604263247	pulse	1.0	t		19.0	male	white	2.243931555909272	smiling	130	sub-04	2.0	1.0	130_smiling	0.0		164.59122489964102	
12.0	74.20063836254667	pulse	1.0	t		19.0	male	white	2.243931555909272	smiling	130	sub-04	2.0	1.0	130_smiling	0.0		165.29119721955522	
12.0	74.90061792697634	pulse	1.0	t		19.0	male	white	2.243931555909272	smiling	130	sub-04	2.0	1.0	130_smiling	0.0		165.99117678398488	
13.0	75.01715984208204	face	0.0		146	24.0	female	east_asian	2.9076800636689217	smiling	034	sub-04	2.0	1.0	034_smiling	0.0		166.10771869909058	1.233326219621631
13.0	75.6006391473693	pulse	0.0	t		24.0	female	east_asian	2.9076800636689217	smiling	034	sub-04	2.0	1.0	034_smiling	0.0		166.69119800437784	
13.0	76.25048606170367	fix	1.0		443	24.0	female	east_asian	2.9076800636689217	smiling	034	sub-04	2.0	1.0	034_smiling	0.0		167.3410449187122	3.766569036760302
13.0	76.30061025986379	pulse	1.0	t		24.0	female	east_asian	2.9076800636689217	smiling	034	sub-04	2.0	1.0	034_smiling	0.0		167.39116911687233	
13.0	77.00057110929538	pulse	1.0	t		24.0	female	east_asian	2.9076800636689217	smiling	034	sub-04	2.0	1.0	034_smiling	0.0		168.09112996630392	
13.0	77.70059383896205	pulse	1.0	t		24.0	female	east_asian	2.9076800636689217	smiling	034	sub-04	2.0	1.0	034_smiling	0.0		168.7911526959706	
13.0	78.40054774573309	pulse	1.0	t		24.0	female	east_asian	2.9076800636689217	smiling	034	sub-04	2.0	1.0	034_smiling	0.0		169.49110660274164	
13.0	79.10052368790548	pulse	1.0	t		24.0	female	east_asian	2.9076800636689217	smiling	034	sub-04	2.0	1.0	034_smiling	0.0		170.19108254491402	
13.0	79.80052287289709	pulse	1.0	t		24.0	female	east_asian	2.9076800636689217	smiling	034	sub-04	2.0	1.0	034_smiling	0.0		170.89108172990564	
14.0	80.01705509846397	face	0.0		145	24.0	male	white	3.1153999204138483	smiling	012	sub-04	2.0	1.0	012_smiling	0.0		171.10761395547252	1.2333241066380651
14.0	80.50051239853565	pulse	0.0	t		24.0	male	white	3.1153999204138483	smiling	012	sub-04	2.0	1.0	012_smiling	0.0		171.5910712555442	
14.0	81.20048773699727	pulse	0.0	t		24.0	male	white	3.1153999204138483	smiling	012	sub-04	2.0	1.0	012_smiling	0.0		172.29104659400582	
14.0	81.25037920510204	fix	1.0		445	24.0	male	white	3.1153999204138483	smiling	012	sub-04	2.0	1.0	012_smiling	0.0		172.34093806211058	3.766573564582359
14.0	81.90047665892598	pulse	1.0	t		24.0	male	white	3.1153999204138483	smiling	012	sub-04	2.0	1.0	012_smiling	0.0		172.99103551593453	
14.0	82.6004516955336	pulse	1.0	t		24.0	male	white	3.1153999204138483	smiling	012	sub-04	2.0	1.0	012_smiling	0.0		173.69101055254214	
14.0	83.30044967310641	pulse	1.0	t		24.0	male	white	3.1153999204138483	smiling	012	sub-04	2.0	1.0	012_smiling	0.0		174.39100853011496	
14.0	84.0004307468098	pulse	1.0	t		24.0	male	white	3.1153999204138483	smiling	012	sub-04	2.0	1.0	012_smiling	0.0		175.09098960381834	
14.0	84.70069435661298	pulse	1.0	t		24.0	male	white	3.1153999204138483	smiling	012	sub-04	2.0	1.0	012_smiling	0.0		175.79125321362153	
15.0	85.0169527696844	face	0.0		145	31.0	male	west_asian	1.9538400318344609	neutral	070	sub-04	2.0	1.0	070_neutral	0.0		176.10751162669294	1.233321088089724
15.0	85.40040738324842	pulse	0.0	t		31.0	male	west_asian	1.9538400318344609	neutral	070	sub-04	2.0	1.0	070_neutral	0.0		176.49096624025697	
15.0	86.10038694767718	pulse	0.0	t		31.0	male	west_asian	1.9538400318344609	neutral	070	sub-04	2.0	1.0	070_neutral	0.0		177.19094580468573	
15.0	86.25027385777412	fix	1.0		445	31.0	male	west_asian	1.9538400318344609	neutral	070	sub-04	2.0	1.0	070_neutral	0.0		177.34083271478266	3.766572055308643
15.0	86.80037526589695	pulse	1.0	t		31.0	male	west_asian	1.9538400318344609	neutral	070	sub-04	2.0	1.0	070_neutral	0.0		177.8909341229055	
15.0	87.50036298040595	pulse	1.0	t		31.0	male	west_asian	1.9538400318344609	neutral	070	sub-04	2.0	1.0	070_neutral	0.0		178.5909218374145	
15.0	88.20033892257743	pulse	1.0	t		31.0	male	west_asian	1.9538400318344609	neutral	070	sub-04	2.0	1.0	070_neutral	0.0		179.29089777958598	
15.0	88.90032392039393	pulse	1.0	t		31.0	male	west_asian	1.9538400318344609	neutral	070	sub-04	2.0	1.0	070_neutral	0.0		179.99088277740248	
15.0	89.60029231619592	pulse	1.0	t		31.0	male	west_asian	1.9538400318344609	neutral	070	sub-04	2.0	1.0	070_neutral	0.0		180.69085117320446	
16.0	90.01684591308276	face	0.0		145	20.0	female	white	3.9502586549940313	smiling	091	sub-04	2.0	1.0	091_smiling	0.0		181.1074047700913	1.2333250122019308
16.0	90.30030870691189	pulse	0.0	t		20.0	female	white	3.9502586549940313	smiling	091	sub-04	2.0	1.0	091_smiling	0.0		181.39086756392044	
16.0	91.0002774045679	pulse	0.0	t		20.0	female	white	3.9502586549940313	smiling	091	sub-04	2.0	1.0	091_smiling	0.0		182.09083626157644	
16.0	91.25017092528469	fix	1.0		444	20.0	female	white	3.9502586549940313	smiling	091	sub-04	2.0	1.0	091_smiling	0.0		182.34072978229324	3.766571753453718
16.0	91.70026360980319	pulse	1.0	t		20.0	female	white	3.9502586549940313	smiling	091	sub-04	2.0	1.0	091_smiling	0.0		182.79082246681173	
16.0	92.40025826697365	pulse	1.0	t		20.0	female	white	3.9502586549940313	smiling	091	sub-04	2.0	1.0	091_smiling	0.0		183.4908171239822	
16.0	93.10023934067704	pulse	1.0	t		20.0	female	white	3.9502586549940313	smiling	091	sub-04	2.0	1.0	091_smiling	0.0		184.19079819768558	
16.0	93.80022675333112	pulse	1.0	t		20.0	female	white	3.9502586549940313	smiling	091	sub-04	2.0	1.0	091_smiling	0.0		184.89078561033966	
16.0	94.50020843074435	pulse	1.0	t		20.0	female	white	3.9502586549940313	smiling	091	sub-04	2.0	1.0	091_smiling	0.0		185.5907672877529	
17.0	95.01674267873841	face	0.0		145	30.0	female	black	2.7345801830481498	neutral	062	sub-04	2.0	1.0	062_neutral	0.0		186.10730153574696	1.2333225973634399
17.0	95.20020308791482	pulse	0.0	t		30.0	female	black	2.7345801830481498	neutral	062	sub-04	2.0	1.0	062_neutral	0.0		186.29076194492336	
17.0	95.90018597274684	pulse	0.0	t		30.0	female	black	2.7345801830481498	neutral	062	sub-04	2.0	1.0	062_neutral	0.0		186.99074482975539	
17.0	96.25006527610185	fix	1.0		444	30.0	female	black	2.7345801830481498	neutral	062	sub-04	2.0	1.0	062_neutral	0.0		187.3406241331104	3.766572659018493
17.0	96.60017127241827	pulse	1.0	t		30.0	female	black	2.7345801830481498	neutral	062	sub-04	2.0	1.0	062_neutral	0.0		187.6907301294268	
17.0	97.30016260918455	pulse	1.0	t		30.0	female	black	2.7345801830481498	neutral	062	sub-04	2.0	1.0	062_neutral	0.0		188.3907214661931	
17.0	98.00014217361422	pulse	1.0	t		30.0	female	black	2.7345801830481498	neutral	062	sub-04	2.0	1.0	062_neutral	0.0		189.09070103062277	
17.0	98.70012113433404	pulse	1.0	t		30.0	female	black	2.7345801830481498	neutral	062	sub-04	2.0	1.0	062_neutral	0.0		189.79067999134259	
17.0	99.40011337666601	pulse	1.0	t		30.0	female	black	2.7345801830481498	neutral	062	sub-04	2.0	1.0	062_neutral	0.0		190.49067223367456	
18.0	100.01663793512034	face	0.0		145	26.0	male	white	2.7966573816155993	neutral	117	sub-04	2.0	1.0	117_neutral	0.0		191.1071967921289	1.2333241066380651
18.0	100.10009928004638	pulse	0.0	t		26.0	male	white	2.7966573816155993	neutral	117	sub-04	2.0	1.0	117_neutral	0.0		191.19065813705492	
18.0	100.80007009068686	pulse	0.0	t		26.0	male	white	2.7966573816155993	neutral	117	sub-04	2.0	1.0	117_neutral	0.0		191.8906289476954	
18.0	101.24996204175841	fix	1.0		444	26.0	male	white	2.7966573816155993	neutral	117	sub-04	2.0	1.0	117_neutral	0.0		192.34052089876695	3.766568131195527
18.0	101.50006746454983	pulse	1.0	t		26.0	male	white	2.7966573816155993	neutral	117	sub-04	2.0	1.0	117_neutral	0.0		192.59062632155837	
18.0	102.20004551970487	pulse	1.0	t		26.0	male	white	2.7966573816155993	neutral	117	sub-04	2.0	1.0	117_neutral	0.0		193.29060437671342	
18.0	102.90003776203685	pulse	1.0	t		26.0	male	white	2.7966573816155993	neutral	117	sub-04	2.0	1.0	117_neutral	0.0		193.9905966190454	
18.0	103.60002155243365	pulse	1.0	t		26.0	male	white	2.7966573816155993	neutral	117	sub-04	2.0	1.0	117_neutral	0.0		194.6905804094422	
18.0	104.30000624839431	pulse	1.0	t		26.0	male	white	2.7966573816155993	neutral	117	sub-04	2.0	1.0	117_neutral	0.0		195.39056510540286	
19.0	105.01653017295394	face	0.0		145	34.0	male	white	2.651014723438122	smiling	121	sub-04	2.0	1.0	121_smiling	1.0	dominance	196.10708902996248	1.233321088089724
19.0	105.0029811180766	pulse	0.0	t		34.0	male	white	2.651014723438122	smiling	121	sub-04	2.0	1.0	121_smiling	1.0	dominance	196.09353997508515	
19.0	105.69997835701088	pulse	0.0	t		34.0	male	white	2.651014723438122	smiling	121	sub-04	2.0	1.0	121_smiling	1.0	dominance	196.79053721401942	
19.0	106.24985126104366	fix	1.0		177	34.0	male	white	2.651014723438122	smiling	121	sub-04	2.0	1.0	121_smiling	1.0	dominance	197.3404101180522	1.499971474720951
19.0	106.39995399732743	pulse	1.0	t		34.0	male	white	2.651014723438122	smiling	121	sub-04	2.0	1.0	121_smiling	1.0	dominance	197.49051285433598	
19.0	107.09993205248338	pulse	1.0	t		34.0	male	white	2.651014723438122	smiling	121	sub-04	2.0	1.0	121_smiling	1.0	dominance	198.19049090949193	
19.0	107.74982273576461	rating	2.0		294	34.0	male	white	2.651014723438122	smiling	121	sub-04	2.0	1.0	121_smiling	1.0	dominance	198.84038159277316	2.4999518541580983
19.0	107.79993757642569	pulse	2.0	t		34.0	male	white	2.651014723438122	smiling	121	sub-04	2.0	1.0	121_smiling	1.0	dominance	198.89049643343424	
19.0	108.49992408351591	pulse	2.0	t		34.0	male	white	2.651014723438122	smiling	121	sub-04	2.0	1.0	121_smiling	1.0	dominance	199.59048294052445	
19.0	109.19990938318733	pulse	2.0	t		34.0	male	white	2.651014723438122	smiling	121	sub-04	2.0	1.0	121_smiling	1.0	dominance	200.29046824019588	
19.0	109.21967030814267	response	2.0	g		34.0	male	white	2.651014723438122	smiling	121	sub-04	2.0	1.0	121_smiling	1.0	dominance	200.3102291651512	
19.0	109.89989589027755	pulse	2.0	t		34.0	male	white	2.651014723438122	smiling	121	sub-04	2.0	1.0	121_smiling	1.0	dominance	200.9904547472861	
19.0	110.24977458992271	fix	3.0		444	34.0	male	white	2.651014723438122	smiling	121	sub-04	2.0	1.0	121_smiling	1.0	dominance	201.34033344693125	3.766571753453718
19.0	110.59986911575561	pulse	3.0	t		34.0	male	white	2.651014723438122	smiling	121	sub-04	2.0	1.0	121_smiling	1.0	dominance	201.69042797276416	
19.0	111.29986196179652	pulse	3.0	t		34.0	male	white	2.651014723438122	smiling	121	sub-04	2.0	1.0	121_smiling	1.0	dominance	202.39042081880507	
19.0	111.99983699840413	pulse	3.0	t		34.0	male	white	2.651014723438122	smiling	121	sub-04	2.0	1.0	121_smiling	1.0	dominance	203.09039585541268	
19.0	112.69983527783188	pulse	3.0	t		34.0	male	white	2.651014723438122	smiling	121	sub-04	2.0	1.0	121_smiling	1.0	dominance	203.79039413484043	
19.0	113.3998154459714	pulse	3.0	t		34.0	male	white	2.651014723438122	smiling	121	sub-04	2.0	1.0	121_smiling	1.0	dominance	204.49037430297994	
20.0	114.01634634337643	face	0.0		145	20.0	male	black	2.609629924393156	neutral	043	sub-04	2.0	1.0	043_neutral	0.0		205.10690520038497	1.2332851673681944
20.0	114.09979742523865	pulse	0.0	t		20.0	male	black	2.609629924393156	neutral	043	sub-04	2.0	1.0	043_neutral	0.0		205.1903562822472	
20.0	114.7997881582969	pulse	0.0	t		20.0	male	black	2.609629924393156	neutral	043	sub-04	2.0	1.0	043_neutral	0.0		205.89034701530545	
20.0	115.24963151074462	fix	1.0		1185	20.0	male	black	2.609629924393156	neutral	043	sub-04	2.0	1.0	043_neutral	0.0		206.34019036775317	10.008254219703304
20.0	115.49977647651576	pulse	1.0	t		20.0	male	black	2.609629924393156	neutral	043	sub-04	2.0	1.0	043_neutral	0.0		206.5903353335243	
20.0	116.19975604094543	pulse	1.0	t		20.0	male	black	2.609629924393156	neutral	043	sub-04	2.0	1.0	043_neutral	0.0		207.29031489795398	
20.0	116.89975522593704	pulse	1.0	t		20.0	male	black	2.609629924393156	neutral	043	sub-04	2.0	1.0	043_neutral	0.0		207.9903140829456	
20.0	117.59972482915782	pulse	1.0	t		20.0	male	black	2.609629924393156	neutral	043	sub-04	2.0	1.0	043_neutral	0.0		208.69028368616637	
20.0	118.2997170714898	pulse	1.0	t		20.0	male	black	2.609629924393156	neutral	043	sub-04	2.0	1.0	043_neutral	0.0		209.39027592849834	
20.0	118.99968124132374	pulse	1.0	t		20.0	male	black	2.609629924393156	neutral	043	sub-04	2.0	1.0	043_neutral	0.0		210.0902400983323	
20.0	119.69968253929983	pulse	1.0	t		20.0	male	black	2.609629924393156	neutral	043	sub-04	2.0	1.0	043_neutral	0.0		210.79024139630837	
20.0	120.39967115937361	pulse	1.0	t		20.0	male	black	2.609629924393156	neutral	043	sub-04	2.0	1.0	043_neutral	0.0		211.49023001638216	
20.0	121.09965072380237	pulse	1.0	t		20.0	male	black	2.609629924393156	neutral	043	sub-04	2.0	1.0	043_neutral	0.0		212.19020958081092	
20.0	121.7996296845231	pulse	1.0	t		20.0	male	black	2.609629924393156	neutral	043	sub-04	2.0	1.0	043_neutral	0.0		212.89018854153164	
20.0	122.49962343612788	pulse	1.0	t		20.0	male	black	2.609629924393156	neutral	043	sub-04	2.0	1.0	043_neutral	0.0		213.59018229313642	
20.0	123.19960511354111	pulse	1.0	t		20.0	male	black	2.609629924393156	neutral	043	sub-04	2.0	1.0	043_neutral	0.0		214.29016397054966	
20.0	123.89958407426093	pulse	1.0	t		20.0	male	black	2.609629924393156	neutral	043	sub-04	2.0	1.0	043_neutral	0.0		214.99014293126947	
20.0	124.59958024070511	pulse	1.0	t		20.0	male	black	2.609629924393156	neutral	043	sub-04	2.0	1.0	043_neutral	0.0		215.69013909771365	
21.0	125.25788573044792	face	0.0		146	31.0	female	white	2.1822522881018704	neutral	102	sub-04	2.0	1.0	102_neutral	0.0		216.34844458745647	1.2415354629592912
21.0	125.2996702839946	pulse	0.0	t		31.0	female	white	2.1822522881018704	neutral	102	sub-04	2.0	1.0	102_neutral	0.0		216.39022914100315	
21.0	125.99954782149871	pulse	0.0	t		31.0	female	white	2.1822522881018704	neutral	102	sub-04	2.0	1.0	102_neutral	0.0		217.09010667850725	
21.0	126.49942119340722	fix	1.0		443	31.0	female	white	2.1822522881018704	neutral	102	sub-04	2.0	1.0	102_neutral	0.0		217.58998005041576	3.7582360329515723
21.0	126.69954368608796	pulse	1.0	t		31.0	female	white	2.1822522881018704	neutral	102	sub-04	2.0	1.0	102_neutral	0.0		217.7901025430965	
21.0	127.39956671760956	pulse	1.0	t		31.0	female	white	2.1822522881018704	neutral	102	sub-04	2.0	1.0	102_neutral	0.0		218.4901255746181	
21.0	128.09950945575292	pulse	1.0	t		31.0	female	white	2.1822522881018704	neutral	102	sub-04	2.0	1.0	102_neutral	0.0		219.19006831276147	
21.0	128.79950230179384	pulse	1.0	t		31.0	female	white	2.1822522881018704	neutral	102	sub-04	2.0	1.0	102_neutral	0.0		219.89006115880238	
21.0	129.49947975323994	pulse	1.0	t		31.0	female	white	2.1822522881018704	neutral	102	sub-04	2.0	1.0	102_neutral	0.0		220.59003861024848	
21.0	130.19945901581468	pulse	1.0	t		31.0	female	white	2.1822522881018704	neutral	102	sub-04	2.0	1.0	102_neutral	0.0		221.29001787282323	
22.0	130.2576572263588	face	0.0		147	26.0	female	white	4.854755272582572	neutral	027	sub-04	2.0	1.0	027_neutral	0.0		221.34821608336733	1.2416685809293995
22.0	130.8994569933875	pulse	0.0	t		26.0	female	white	4.854755272582572	neutral	027	sub-04	2.0	1.0	027_neutral	0.0		221.99001585039605	
22.0	131.4993258072882	fix	1.0		443	26.0	female	white	4.854755272582572	neutral	027	sub-04	2.0	1.0	027_neutral	0.0		222.58988466429673	3.7665783942593407
22.0	131.59944108563923	pulse	1.0	t		26.0	female	white	4.854755272582572	neutral	027	sub-04	2.0	1.0	027_neutral	0.0		222.68999994264777	
22.0	132.29942759272944	pulse	1.0	t		26.0	female	white	4.854755272582572	neutral	027	sub-04	2.0	1.0	027_neutral	0.0		223.389986449738	
22.0	132.99941440167458	pulse	1.0	t		26.0	female	white	4.854755272582572	neutral	027	sub-04	2.0	1.0	027_neutral	0.0		224.08997325868313	
22.0	133.69939517352304	pulse	1.0	t		26.0	female	white	4.854755272582572	neutral	027	sub-04	2.0	1.0	027_neutral	0.0		224.7899540305316	
22.0	134.3993744360978	pulse	1.0	t		26.0	female	white	4.854755272582572	neutral	027	sub-04	2.0	1.0	027_neutral	0.0		225.48993329310633	
22.0	135.09936154689785	pulse	1.0	t		26.0	female	white	4.854755272582572	neutral	027	sub-04	2.0	1.0	027_neutral	0.0		226.1899204039064	
23.0	135.26590420154753	face	0.0		146	28.0	male	white	3.9076800636689217	neutral	033	sub-04	2.0	1.0	033_neutral	1.0	attractiveness	226.35646305855607	1.2333174658324424
23.0	135.79935046882565	pulse	0.0	t		28.0	male	white	3.9076800636689217	neutral	033	sub-04	2.0	1.0	033_neutral	1.0	attractiveness	226.8899093258342	
23.0	136.49922166737997	fix	1.0		177	28.0	male	white	3.9076800636689217	neutral	033	sub-04	2.0	1.0	033_neutral	1.0	attractiveness	227.58978052438852	1.4999705691561758
23.0	136.50707351462552	pulse	1.0	t		28.0	male	white	3.9076800636689217	neutral	033	sub-04	2.0	1.0	033_neutral	1.0	attractiveness	227.59763237163406	
23.0	137.19930386244414	pulse	1.0	t		28.0	male	white	3.9076800636689217	neutral	033	sub-04	2.0	1.0	033_neutral	1.0	attractiveness	228.28986271945269	
23.0	137.89930516041932	pulse	1.0	t		28.0	male	white	3.9076800636689217	neutral	033	sub-04	2.0	1.0	033_neutral	1.0	attractiveness	228.98986401742786	
23.0	137.99919223653615	rating	2.0		295	28.0	male	white	3.9076800636689217	neutral	033	sub-04	2.0	1.0	033_neutral	1.0	attractiveness	229.0897510935447	2.499928913192889
23.0	138.5992838192842	pulse	2.0	t		28.0	male	white	3.9076800636689217	neutral	033	sub-04	2.0	1.0	033_neutral	1.0	attractiveness	229.68984267629276	
23.0	139.29927938201854	pulse	2.0	t		28.0	male	white	3.9076800636689217	neutral	033	sub-04	2.0	1.0	033_neutral	1.0	attractiveness	230.38983823902709	
23.0	139.47731636587378	response	2.0	e		28.0	male	white	3.9076800636689217	neutral	033	sub-04	2.0	1.0	033_neutral	1.0	attractiveness	230.56787522288232	
23.0	139.99923660919285	pulse	2.0	t		28.0	male	white	3.9076800636689217	neutral	033	sub-04	2.0	1.0	033_neutral	1.0	attractiveness	231.0897954662014	
23.0	140.49912114972904	fix	3.0		444	28.0	male	white	3.9076800636689217	neutral	033	sub-04	2.0	1.0	033_neutral	1.0	attractiveness	231.58968000673758	3.7749213592760498
23.0	140.6992542073276	pulse	3.0	t		28.0	male	white	3.9076800636689217	neutral	033	sub-04	2.0	1.0	033_neutral	1.0	attractiveness	231.78981306433616	
23.0	141.39922713095166	pulse	3.0	t		28.0	male	white	3.9076800636689217	neutral	033	sub-04	2.0	1.0	033_neutral	1.0	attractiveness	232.4897859879602	
23.0	142.09922239183106	pulse	3.0	t		28.0	male	white	3.9076800636689217	neutral	033	sub-04	2.0	1.0	033_neutral	1.0	attractiveness	233.1897812488396	
23.0	142.79920225811566	pulse	3.0	t		28.0	male	white	3.9076800636689217	neutral	033	sub-04	2.0	1.0	033_neutral	1.0	attractiveness	233.8897611151242	
23.0	143.49919268931808	pulse	3.0	t		28.0	male	white	3.9076800636689217	neutral	033	sub-04	2.0	1.0	033_neutral	1.0	attractiveness	234.58975154632662	
23.0	144.1991740648764	pulse	3.0	t		28.0	male	white	3.9076800636689217	neutral	033	sub-04	2.0	1.0	033_neutral	1.0	attractiveness	235.28973292188493	
24.0	144.27404250900508	face	0.0		146	20.0	male	black	3.1070433744528456	smiling	082	sub-04	2.0	1.0	082_smiling	1.0	dominance	235.36460136601363	1.2333225973643493
24.0	144.89915996825675	pulse	0.0	t		20.0	male	black	3.1070433744528456	smiling	082	sub-04	2.0	1.0	082_smiling	1.0	dominance	235.9897188252653	
24.0	145.50736510636943	fix	1.0		177	20.0	male	black	3.1070433744528456	smiling	082	sub-04	2.0	1.0	082_smiling	1.0	dominance	236.59792396337798	1.5083062896583215
24.0	145.59914617349204	pulse	1.0	t		20.0	male	black	3.1070433744528456	smiling	082	sub-04	2.0	1.0	082_smiling	1.0	dominance	236.6897050305006	
24.0	146.29912151195458	pulse	1.0	t		20.0	male	black	3.1070433744528456	smiling	082	sub-04	2.0	1.0	082_smiling	1.0	dominance	237.38968036896313	
24.0	146.99910711348002	pulse	1.0	t		20.0	male	black	3.1070433744528456	smiling	082	sub-04	2.0	1.0	082_smiling	1.0	dominance	238.08966597048857	
24.0	147.01567139602776	rating	2.0		294	20.0	male	black	3.1070433744528456	smiling	082	sub-04	2.0	1.0	082_smiling	1.0	dominance	238.1062302530363	2.491611907688821
24.0	147.69910388363405	pulse	2.0	t		20.0	male	black	3.1070433744528456	smiling	082	sub-04	2.0	1.0	082_smiling	1.0	dominance	238.7896627406426	
24.0	148.3324245491276	response	2.0	b		20.0	male	black	3.1070433744528456	smiling	082	sub-04	2.0	1.0	082_smiling	1.0	dominance	239.42298340613615	
24.0	148.39907529798347	pulse	2.0	t		20.0	male	black	3.1070433744528456	smiling	082	sub-04	2.0	1.0	082_smiling	1.0	dominance	239.48963415499202	
24.0	149.09906663475067	pulse	2.0	t		20.0	male	black	3.1070433744528456	smiling	082	sub-04	2.0	1.0	082_smiling	1.0	dominance	240.18962549175922	
24.0	149.50728330371658	fix	3.0		444	20.0	male	black	3.1070433744528456	smiling	082	sub-04	2.0	1.0	082_smiling	1.0	dominance	240.59784216072512	3.7665747720011495
24.0	149.7990558585343	pulse	3.0	t		20.0	male	black	3.1070433744528456	smiling	082	sub-04	2.0	1.0	082_smiling	1.0	dominance	240.88961471554285	
24.0	150.49902576361	pulse	3.0	t		20.0	male	black	3.1070433744528456	smiling	082	sub-04	2.0	1.0	082_smiling	1.0	dominance	241.58958462061855	
24.0	151.1990222319082	pulse	3.0	t		20.0	male	black	3.1070433744528456	smiling	082	sub-04	2.0	1.0	082_smiling	1.0	dominance	242.28958108891675	
24.0	151.89901658722374	pulse	3.0	t		20.0	male	black	3.1070433744528456	smiling	082	sub-04	2.0	1.0	082_smiling	1.0	dominance	242.9895754442323	
24.0	152.59899705721728	pulse	3.0	t		20.0	male	black	3.1070433744528456	smiling	082	sub-04	2.0	1.0	082_smiling	1.0	dominance	243.68955591422582	
25.0	153.27385807571773	face	0.0		145	32.0	male	white	2.389176283326701	neutral	092	sub-04	2.0	1.0	092_neutral	0.0		244.36441693272627	1.2333201825258584
25.0	153.29900197745064	pulse	0.0	t		32.0	male	white	2.389176283326701	neutral	092	sub-04	2.0	1.0	092_neutral	0.0		244.3895608344592	
25.0	153.99896675099535	pulse	0.0	t		32.0	male	white	2.389176283326701	neutral	092	sub-04	2.0	1.0	092_neutral	0.0		245.0895256080039	
25.0	154.50717825824358	fix	1.0		443	32.0	male	white	2.389176283326701	neutral	092	sub-04	2.0	1.0	092_neutral	0.0		245.59773711525213	3.766578997969191
25.0	154.6989538617945	pulse	1.0	t		32.0	male	white	2.389176283326701	neutral	092	sub-04	2.0	1.0	092_neutral	0.0		245.78951271880305	
25.0	155.3989376521913	pulse	1.0	t		32.0	male	white	2.389176283326701	neutral	092	sub-04	2.0	1.0	092_neutral	0.0		246.48949650919985	
25.0	156.0989151036374	pulse	1.0	t		32.0	male	white	2.389176283326701	neutral	092	sub-04	2.0	1.0	092_neutral	0.0		247.18947396064596	
25.0	156.79890342185627	pulse	1.0	t		32.0	male	white	2.389176283326701	neutral	092	sub-04	2.0	1.0	092_neutral	0.0		247.8894622788648	
25.0	157.498863365724	pulse	1.0	t		32.0	male	white	2.389176283326701	neutral	092	sub-04	2.0	1.0	092_neutral	0.0		248.58942222273254	
25.0	158.1988788508752	pulse	1.0	t		32.0	male	white	2.389176283326701	neutral	092	sub-04	2.0	1.0	092_neutral	0.0		249.28943770788374	
26.0	158.27375725621278	face	0.0		146	31.0	female	west_asian	2.364902506963788	neutral	006	sub-04	2.0	1.0	006_neutral	0.0		249.36431611322132	1.233315352847967
26.0	158.89886565982033	pulse	0.0	t		31.0	female	west_asian	2.364902506963788	neutral	006	sub-04	2.0	1.0	006_neutral	0.0		249.98942451682888	
26.0	159.50707260906074	fix	1.0		443	31.0	female	west_asian	2.364902506963788	neutral	006	sub-04	2.0	1.0	006_neutral	0.0		250.5976314660693	3.7582345236778565
26.0	159.5988554873129	pulse	1.0	t		31.0	female	west_asian	2.364902506963788	neutral	006	sub-04	2.0	1.0	006_neutral	0.0		250.68941434432145	
26.0	160.29883474988765	pulse	1.0	t		31.0	female	west_asian	2.364902506963788	neutral	006	sub-04	2.0	1.0	006_neutral	0.0		251.3893936068962	
26.0	160.99881703101073	pulse	1.0	t		31.0	female	west_asian	2.364902506963788	neutral	006	sub-04	2.0	1.0	006_neutral	0.0		252.08937588801928	
26.0	161.69880595293944	pulse	1.0	t		31.0	female	west_asian	2.364902506963788	neutral	006	sub-04	2.0	1.0	006_neutral	0.0		252.78936480994798	
26.0	162.39879366744844	pulse	1.0	t		31.0	female	west_asian	2.364902506963788	neutral	006	sub-04	2.0	1.0	006_neutral	0.0		253.489352524457	
26.0	163.09877262816826	pulse	1.0	t		31.0	female	west_asian	2.364902506963788	neutral	006	sub-04	2.0	1.0	006_neutral	0.0		254.1893314851768	
27.0	163.2653071327386	face	0.0		147	21.0	male	east_asian/white	3.501790688420215	smiling	036	sub-04	2.0	1.0	036_smiling	1.0	trustworthiness	254.35586598974714	1.2499988680447132
27.0	163.79876487050024	pulse	0.0	t		21.0	male	east_asian/white	3.501790688420215	smiling	036	sub-04	2.0	1.0	036_smiling	1.0	trustworthiness	254.88932372750878	
27.0	164.49873628484966	pulse	0.0	t		21.0	male	east_asian/white	3.501790688420215	smiling	036	sub-04	2.0	1.0	036_smiling	1.0	trustworthiness	255.5892951418582	
27.0	164.5153060007833	fix	1.0		176	21.0	male	east_asian/white	3.501790688420215	smiling	036	sub-04	2.0	1.0	036_smiling	1.0	trustworthiness	255.60586485779186	1.4916230763165004
27.0	165.19873909209946	pulse	1.0	t		21.0	male	east_asian/white	3.501790688420215	smiling	036	sub-04	2.0	1.0	036_smiling	1.0	trustworthiness	256.289297949108	
27.0	165.89871111015873	pulse	1.0	t		21.0	male	east_asian/white	3.501790688420215	smiling	036	sub-04	2.0	1.0	036_smiling	1.0	trustworthiness	256.9892699671673	
27.0	166.0069290770998	rating	2.0		295	21.0	male	east_asian/white	3.501790688420215	smiling	036	sub-04	2.0	1.0	036_smiling	1.0	trustworthiness	257.09748793410836	2.4999551745613644
27.0	166.59870878587662	pulse	2.0	t		21.0	male	east_asian/white	3.501790688420215	smiling	036	sub-04	2.0	1.0	036_smiling	1.0	trustworthiness	257.68926764288517	
27.0	167.2570251423931	response	2.0	r		21.0	male	east_asian/white	3.501790688420215	smiling	036	sub-04	2.0	1.0	036_smiling	1.0	trustworthiness	258.34758399940165	
27.0	167.29870827272316	pulse	2.0	t		21.0	male	east_asian/white	3.501790688420215	smiling	036	sub-04	2.0	1.0	036_smiling	1.0	trustworthiness	258.3892671297317	
27.0	167.9986733481228	pulse	2.0	t		21.0	male	east_asian/white	3.501790688420215	smiling	036	sub-04	2.0	1.0	036_smiling	1.0	trustworthiness	259.08923220513134	
27.0	168.50688425166118	fix	3.0		443	21.0	male	east_asian/white	3.501790688420215	smiling	036	sub-04	2.0	1.0	036_smiling	1.0	trustworthiness	259.5974431086697	3.7583003280260527
27.0	168.6986622700506	pulse	3.0	t		21.0	male	east_asian/white	3.501790688420215	smiling	036	sub-04	2.0	1.0	036_smiling	1.0	trustworthiness	259.78922112705914	
27.0	169.3986472678671	pulse	3.0	t		21.0	male	east_asian/white	3.501790688420215	smiling	036	sub-04	2.0	1.0	036_smiling	1.0	trustworthiness	260.48920612487564	
27.0	170.09862381374842	pulse	3.0	t		21.0	male	east_asian/white	3.501790688420215	smiling	036	sub-04	2.0	1.0	036_smiling	1.0	trustworthiness	261.18918267075696	
27.0	170.798622696886	pulse	3.0	t		21.0	male	east_asian/white	3.501790688420215	smiling	036	sub-04	2.0	1.0	036_smiling	1.0	trustworthiness	261.88918155389456	
27.0	171.49860195946076	pulse	3.0	t		21.0	male	east_asian/white	3.501790688420215	smiling	036	sub-04	2.0	1.0	036_smiling	1.0	trustworthiness	262.5891608164693	
27.0	172.19857971276087	pulse	3.0	t		21.0	male	east_asian/white	3.501790688420215	smiling	036	sub-04	2.0	1.0	036_smiling	1.0	trustworthiness	263.2891385697694	
28.0	172.26518457968723	face	0.0		147	40.0	male	white	1.868682849184242	smiling	172	sub-04	2.0	1.0	172_smiling	0.0		263.3557434366958	1.2415973431943712
28.0	172.89857587920505	pulse	0.0	t		40.0	male	white	1.868682849184242	smiling	172	sub-04	2.0	1.0	172_smiling	0.0		263.9891347362136	
28.0	173.5067819228816	fix	1.0		443	40.0	male	white	1.868682849184242	smiling	172	sub-04	2.0	1.0	172_smiling	0.0		264.59734077989015	3.766572357163568
28.0	173.59855997145678	pulse	1.0	t		40.0	male	white	1.868682849184242	smiling	172	sub-04	2.0	1.0	172_smiling	0.0		264.6891188284653	
28.0	174.2985425544348	pulse	1.0	t		40.0	male	white	1.868682849184242	smiling	172	sub-04	2.0	1.0	172_smiling	0.0		265.38910141144333	
28.0	174.99851215765557	pulse	1.0	t		40.0	male	white	1.868682849184242	smiling	172	sub-04	2.0	1.0	172_smiling	0.0		266.0890710146641	
28.0	175.69850349442277	pulse	1.0	t		40.0	male	white	1.868682849184242	smiling	172	sub-04	2.0	1.0	172_smiling	0.0		266.7890623514313	
28.0	176.39849513304398	pulse	1.0	t		40.0	male	white	1.868682849184242	smiling	172	sub-04	2.0	1.0	172_smiling	0.0		267.4890539900525	
28.0	177.09847318819993	pulse	1.0	t		40.0	male	white	1.868682849184242	smiling	172	sub-04	2.0	1.0	172_smiling	0.0		268.1890320452085	
29.0	177.27335428004517	face	0.0		146	31.0	female	west_asian	2.364902506963788	smiling	006	sub-04	2.0	1.0	006_smiling	0.0		268.3639131370537	1.2416543937524693
29.0	177.7984705620629	pulse	0.0	t		31.0	female	west_asian	2.364902506963788	smiling	006	sub-04	2.0	1.0	006_smiling	0.0		268.88902941907145	
29.0	178.4984516357663	pulse	0.0	t		31.0	female	west_asian	2.364902506963788	smiling	006	sub-04	2.0	1.0	006_smiling	0.0		269.58901049277483	
29.0	178.51500867379764	fix	1.0		444	31.0	female	west_asian	2.364902506963788	smiling	006	sub-04	2.0	1.0	006_smiling	0.0		269.6055675308062	3.7500328267105942
29.0	179.19845383930624	pulse	1.0	t		31.0	female	west_asian	2.364902506963788	smiling	006	sub-04	2.0	1.0	006_smiling	0.0		270.2890126963148	
29.0	179.89841378317396	pulse	1.0	t		31.0	female	west_asian	2.364902506963788	smiling	006	sub-04	2.0	1.0	006_smiling	0.0		270.9889726401825	
29.0	180.59841025147216	pulse	1.0	t		31.0	female	west_asian	2.364902506963788	smiling	006	sub-04	2.0	1.0	006_smiling	0.0		271.6889691084807	
29.0	181.29839374001403	pulse	1.0	t		31.0	female	west_asian	2.364902506963788	smiling	006	sub-04	2.0	1.0	006_smiling	0.0		272.3889525970226	
29.0	181.99837390815355	pulse	1.0	t		31.0	female	west_asian	2.364902506963788	smiling	006	sub-04	2.0	1.0	006_smiling	0.0		273.0889327651621	
30.0	182.26504150050823	face	0.0		146	22.0	female	white	4.614007162753682	smiling	009	sub-04	2.0	1.0	009_smiling	0.0		273.3556003575168	1.2415324444109501
30.0	182.69837067830758	pulse	0.0	t		22.0	female	white	4.614007162753682	smiling	009	sub-04	2.0	1.0	009_smiling	0.0		273.78892953531613	
30.0	183.39834933717248	pulse	0.0	t		22.0	female	white	4.614007162753682	smiling	009	sub-04	2.0	1.0	009_smiling	0.0		274.488908194181	
30.0	183.50657394491918	fix	1.0		444	22.0	female	white	4.614007162753682	smiling	009	sub-04	2.0	1.0	009_smiling	0.0		274.5971328019277	3.758361302697267
30.0	184.09833644797163	pulse	1.0	t		22.0	female	white	4.614007162753682	smiling	009	sub-04	2.0	1.0	009_smiling	0.0		275.1888953049802	
30.0	184.79831903094964	pulse	1.0	t		22.0	female	white	4.614007162753682	smiling	009	sub-04	2.0	1.0	009_smiling	0.0		275.8888778879582	
30.0	185.49830553803986	pulse	1.0	t		22.0	female	white	4.614007162753682	smiling	009	sub-04	2.0	1.0	009_smiling	0.0		276.5888643950484	
30.0	186.1982848006146	pulse	1.0	t		22.0	female	white	4.614007162753682	smiling	009	sub-04	2.0	1.0	009_smiling	0.0		277.28884365762315	
30.0	186.89829062641275	pulse	1.0	t		22.0	female	white	4.614007162753682	smiling	009	sub-04	2.0	1.0	009_smiling	0.0		277.9888494834213	
31.0	187.26493524761645	face	0.0		146	27.0	female	white	4.181058495821727	neutral	039	sub-04	2.0	1.0	039_neutral	0.0		278.355494104625	1.2415300295724592
31.0	187.5982662667293	pulse	0.0	t		27.0	female	white	4.181058495821727	neutral	039	sub-04	2.0	1.0	039_neutral	0.0		278.68882512373784	
31.0	188.29825066083595	pulse	0.0	t		27.0	female	white	4.181058495821727	neutral	039	sub-04	2.0	1.0	039_neutral	0.0		279.3888095178445	
31.0	188.5064652771889	fix	1.0		444	27.0	female	white	4.181058495821727	neutral	039	sub-04	2.0	1.0	039_neutral	0.0		279.59702413419745	3.75831843931428
31.0	188.99824561986043	pulse	1.0	t		27.0	female	white	4.181058495821727	neutral	039	sub-04	2.0	1.0	039_neutral	0.0		280.088804476869	
31.0	189.69821703421076	pulse	1.0	t		27.0	female	white	4.181058495821727	neutral	039	sub-04	2.0	1.0	039_neutral	0.0		280.7887758912193	
31.0	190.39818060033485	pulse	1.0	t		27.0	female	white	4.181058495821727	neutral	039	sub-04	2.0	1.0	039_neutral	0.0		281.4887394573434	
31.0	191.0981852187133	pulse	1.0	t		27.0	female	white	4.181058495821727	neutral	039	sub-04	2.0	1.0	039_neutral	0.0		282.18874407572184	
31.0	191.79814425701625	pulse	1.0	t		27.0	female	white	4.181058495821727	neutral	039	sub-04	2.0	1.0	039_neutral	0.0		282.8887031140248	
32.0	192.2647837165032	face	0.0		146	28.0	female	white	5.676880222841227	neutral	124	sub-04	2.0	1.0	124_neutral	0.0		283.35534257351173	1.241577118922578
32.0	192.49816457184443	pulse	0.0	t		28.0	female	white	5.676880222841227	neutral	124	sub-04	2.0	1.0	124_neutral	0.0		283.588723428853	
32.0	193.1981377973234	pulse	0.0	t		28.0	female	white	5.676880222841227	neutral	124	sub-04	2.0	1.0	124_neutral	0.0		284.28869665433194	
32.0	193.50636083542577	fix	1.0		444	28.0	female	white	5.676880222841227	neutral	124	sub-04	2.0	1.0	124_neutral	0.0		284.5969196924343	3.7583594915677168
32.0	193.89813003965446	pulse	1.0	t		28.0	female	white	5.676880222841227	neutral	124	sub-04	2.0	1.0	124_neutral	0.0		284.988688896663	
32.0	194.5981180560193	pulse	1.0	t		28.0	female	white	5.676880222841227	neutral	124	sub-04	2.0	1.0	124_neutral	0.0		285.68867691302785	
32.0	195.29810878907665	pulse	1.0	t		28.0	female	white	5.676880222841227	neutral	124	sub-04	2.0	1.0	124_neutral	0.0		286.3886676460852	
32.0	195.99808141084577	pulse	1.0	t		28.0	female	white	5.676880222841227	neutral	124	sub-04	2.0	1.0	124_neutral	0.0		287.0886402678543	
32.0	196.69806761608106	pulse	1.0	t		28.0	female	white	5.676880222841227	neutral	124	sub-04	2.0	1.0	124_neutral	0.0		287.7886264730896	
33.0	197.26472032699348	face	0.0		146	24.0	female	black	3.0955033824114606	neutral	099	sub-04	2.0	1.0	099_neutral	0.0		288.35527918400203	1.241537274087932
33.0	197.39806106583183	pulse	0.0	t		24.0	female	black	3.0955033824114606	neutral	099	sub-04	2.0	1.0	099_neutral	0.0		288.48861992284037	
33.0	198.09804032840657	pulse	0.0	t		24.0	female	black	3.0955033824114606	neutral	099	sub-04	2.0	1.0	099_neutral	0.0		289.1885991854151	
33.0	198.50625760108142	fix	1.0		444	24.0	female	black	3.0955033824114606	neutral	099	sub-04	2.0	1.0	099_neutral	0.0		289.59681645808996	3.7582411644834792
33.0	198.79803015589914	pulse	1.0	t		24.0	female	black	3.0955033824114606	neutral	099	sub-04	2.0	1.0	099_neutral	0.0		289.8885890129077	
33.0	199.4980160592795	pulse	1.0	t		24.0	female	black	3.0955033824114606	neutral	099	sub-04	2.0	1.0	099_neutral	0.0		290.58857491628805	
33.0	200.1979920014519	pulse	1.0	t		24.0	female	black	3.0955033824114606	neutral	099	sub-04	2.0	1.0	099_neutral	0.0		291.28855085846044	
33.0	200.89799390313692	pulse	1.0	t		24.0	female	black	3.0955033824114606	neutral	099	sub-04	2.0	1.0	099_neutral	0.0		291.98855276014547	
33.0	201.5979583748258	pulse	1.0	t		24.0	female	black	3.0955033824114606	neutral	099	sub-04	2.0	1.0	099_neutral	0.0		292.68851723183434	
34.0	202.2644987655649	face	0.0		146	21.0	male	black	2.969757262236371	smiling	137	sub-04	2.0	1.0	137_smiling	0.0		293.35505762257344	1.2416562048820197
34.0	202.2979611820756	pulse	0.0	t		21.0	male	black	2.969757262236371	smiling	137	sub-04	2.0	1.0	137_smiling	0.0		293.38852003908414	
34.0	202.99793320013487	pulse	0.0	t		21.0	male	black	2.969757262236371	smiling	137	sub-04	2.0	1.0	137_smiling	0.0		294.0884920571434	
34.0	203.50615497044691	fix	1.0		443	21.0	male	black	2.969757262236371	smiling	137	sub-04	2.0	1.0	137_smiling	0.0		294.59671382745546	3.766569942325077
34.0	203.6979287628692	pulse	1.0	t		21.0	male	black	2.969757262236371	smiling	137	sub-04	2.0	1.0	137_smiling	0.0		294.78848761987774	
34.0	204.39790923286364	pulse	1.0	t		21.0	male	black	2.969757262236371	smiling	137	sub-04	2.0	1.0	137_smiling	0.0		295.4884680898722	
34.0	205.0978900047121	pulse	1.0	t		21.0	male	black	2.969757262236371	smiling	137	sub-04	2.0	1.0	137_smiling	0.0		296.18844886172064	
34.0	205.79788436002764	pulse	1.0	t		21.0	male	black	2.969757262236371	smiling	137	sub-04	2.0	1.0	137_smiling	0.0		296.8884432170362	
34.0	206.4978651318761	pulse	1.0	t		21.0	male	black	2.969757262236371	smiling	137	sub-04	2.0	1.0	137_smiling	0.0		297.58842398888464	
34.0	207.19785345009495	pulse	1.0	t		21.0	male	black	2.969757262236371	smiling	137	sub-04	2.0	1.0	137_smiling	0.0		298.2884123071035	
35.0	207.272724912772	face	0.0		146	40.0	male	black	2.408674890569041	neutral	061	sub-04	2.0	1.0	061_neutral	0.0		298.36328376978054	1.233331351153538
35.0	207.8978402590401	pulse	0.0	t		40.0	male	black	2.408674890569041	neutral	061	sub-04	2.0	1.0	061_neutral	0.0		298.98839911604864	
35.0	208.50605626392553	fix	1.0		443	40.0	male	black	2.408674890569041	neutral	061	sub-04	2.0	1.0	061_neutral	0.0		299.5966151209341	3.76656299966362
35.0	208.59780080661676	pulse	1.0	t		40.0	male	black	2.408674890569041	neutral	061	sub-04	2.0	1.0	061_neutral	0.0		299.6883596636253	
35.0	209.29781870660645	pulse	1.0	t		40.0	male	black	2.408674890569041	neutral	061	sub-04	2.0	1.0	061_neutral	0.0		300.388377563615	
35.0	209.99778106531267	pulse	1.0	t		40.0	male	black	2.408674890569041	neutral	061	sub-04	2.0	1.0	061_neutral	0.0		301.0883399223212	
35.0	210.6977742132085	pulse	1.0	t		40.0	male	black	2.408674890569041	neutral	061	sub-04	2.0	1.0	061_neutral	0.0		301.78833307021705	
35.0	211.3977694740879	pulse	1.0	t		40.0	male	black	2.408674890569041	neutral	061	sub-04	2.0	1.0	061_neutral	0.0		302.48832833109645	
35.0	212.0977466236791	pulse	1.0	t		40.0	male	black	2.408674890569041	neutral	061	sub-04	2.0	1.0	061_neutral	0.0		303.18830548068763	
36.0	212.27261926358915	face	0.0		146	22.0	female	west_asian	3.8205332272184642	neutral	066	sub-04	2.0	1.0	066_neutral	0.0		303.3631781205977	1.2416586197205106
36.0	212.79773735673643	pulse	0.0	t		22.0	female	west_asian	3.8205332272184642	neutral	066	sub-04	2.0	1.0	066_neutral	0.0		303.888296213745	
36.0	213.49772175084217	pulse	0.0	t		22.0	female	west_asian	3.8205332272184642	neutral	066	sub-04	2.0	1.0	066_neutral	0.0		304.5882806078507	
36.0	213.51427788330966	fix	1.0		443	22.0	female	west_asian	3.8205332272184642	neutral	066	sub-04	2.0	1.0	066_neutral	0.0		304.6048367403182	3.758237844080213
36.0	214.19770403196526	pulse	1.0	t		22.0	female	west_asian	3.8205332272184642	neutral	066	sub-04	2.0	1.0	066_neutral	0.0		305.2882628889738	
36.0	214.89768540752357	pulse	1.0	t		22.0	female	west_asian	3.8205332272184642	neutral	066	sub-04	2.0	1.0	066_neutral	0.0		305.9882442645321	
36.0	215.59767402759735	pulse	1.0	t		22.0	female	west_asian	3.8205332272184642	neutral	066	sub-04	2.0	1.0	066_neutral	0.0		306.6882328846059	
36.0	216.29765932726878	pulse	1.0	t		22.0	female	west_asian	3.8205332272184642	neutral	066	sub-04	2.0	1.0	066_neutral	0.0		307.3882181842773	
36.0	216.99764160839095	pulse	1.0	t		22.0	female	west_asian	3.8205332272184642	neutral	066	sub-04	2.0	1.0	066_neutral	0.0		308.0882004653995	
37.0	217.27251572738987	face	0.0		145	47.0	male	east_asian	2.171110226820533	neutral	024	sub-04	2.0	1.0	024_neutral	0.0		308.3630745843984	1.2333207862357085
37.0	217.69763324701307	pulse	0.0	t		47.0	male	east_asian	2.171110226820533	neutral	024	sub-04	2.0	1.0	024_neutral	0.0		308.7881921040216	
37.0	218.39761824482957	pulse	0.0	t		47.0	male	east_asian	2.171110226820533	neutral	024	sub-04	2.0	1.0	024_neutral	0.0		309.4881771018381	
37.0	218.50583651362558	fix	1.0		444	47.0	male	east_asian	2.171110226820533	neutral	024	sub-04	2.0	1.0	024_neutral	0.0		309.5963953706341	3.7665720553077335
37.0	219.09760716675737	pulse	1.0	t		47.0	male	east_asian	2.171110226820533	neutral	024	sub-04	2.0	1.0	024_neutral	0.0		310.1881660237659	
37.0	219.7975837126396	pulse	1.0	t		47.0	male	east_asian	2.171110226820533	neutral	024	sub-04	2.0	1.0	024_neutral	0.0		310.88814256964815	
37.0	220.49756901231012	pulse	1.0	t		47.0	male	east_asian	2.171110226820533	neutral	024	sub-04	2.0	1.0	024_neutral	0.0		311.58812786931867	
37.0	221.1975561231102	pulse	1.0	t		47.0	male	east_asian	2.171110226820533	neutral	024	sub-04	2.0	1.0	024_neutral	0.0		312.28811498011873	
37.0	221.89754293205442	pulse	1.0	t		47.0	male	east_asian	2.171110226820533	neutral	024	sub-04	2.0	1.0	024_neutral	0.0		312.98810178906297	
38.0	222.27240856893332	face	0.0		145	37.0	male	white	3.898925586947871	smiling	101	sub-04	2.0	1.0	101_smiling	0.0		313.36296742594186	1.2333129380103856
38.0	222.59753426882162	pulse	0.0	t		37.0	male	white	3.898925586947871	smiling	101	sub-04	2.0	1.0	101_smiling	0.0		313.68809312583016	
38.0	223.29751564437993	pulse	0.0	t		37.0	male	white	3.898925586947871	smiling	101	sub-04	2.0	1.0	101_smiling	0.0		314.3880745013885	
38.0	223.5057215069437	fix	1.0		444	37.0	male	white	3.898925586947871	smiling	101	sub-04	2.0	1.0	101_smiling	0.0		314.59628036395225	3.7583271931034687
38.0	223.99748917171382	pulse	1.0	t		37.0	male	white	3.898925586947871	smiling	101	sub-04	2.0	1.0	101_smiling	0.0		315.08804802872237	
38.0	224.6974789992064	pulse	1.0	t		37.0	male	white	3.898925586947871	smiling	101	sub-04	2.0	1.0	101_smiling	0.0		315.78803785621494	
38.0	225.3974386412192	pulse	1.0	t		37.0	male	white	3.898925586947871	smiling	101	sub-04	2.0	1.0	101_smiling	0.0		316.48799749822774	
38.0	226.09746227645064	pulse	1.0	t		37.0	male	white	3.898925586947871	smiling	101	sub-04	2.0	1.0	101_smiling	0.0		317.1880211334592	
38.0	226.79743610563855	pulse	1.0	t		37.0	male	white	3.898925586947871	smiling	101	sub-04	2.0	1.0	101_smiling	0.0		317.8879949626471	
39.0	227.26404870004717	face	0.0		146	20.0	male	black	3.1070433744528456	neutral	082	sub-04	2.0	1.0	082_neutral	0.0		318.3546075570557	1.2415765152136373
39.0	227.49743227208273	pulse	0.0	t		20.0	male	black	3.1070433744528456	neutral	082	sub-04	2.0	1.0	082_neutral	0.0		318.5879911290913	
39.0	228.19744021086353	pulse	0.0	t		20.0	male	black	3.1070433744528456	neutral	082	sub-04	2.0	1.0	082_neutral	0.0		319.2879990678721	
39.0	228.5056252152608	fix	1.0		444	20.0	male	black	3.1070433744528456	neutral	082	sub-04	2.0	1.0	082_neutral	0.0		319.59618407226935	3.749923253414636
39.0	228.89741766230964	pulse	1.0	t		20.0	male	black	3.1070433744528456	neutral	082	sub-04	2.0	1.0	082_neutral	0.0		319.9879765193182	
39.0	229.59737519133887	pulse	1.0	t		20.0	male	black	3.1070433744528456	neutral	082	sub-04	2.0	1.0	082_neutral	0.0		320.6879340483474	
39.0	230.297367131815	pulse	1.0	t		20.0	male	black	3.1070433744528456	neutral	082	sub-04	2.0	1.0	082_neutral	0.0		321.38792598882355	
39.0	230.99734790366347	pulse	1.0	t		20.0	male	black	3.1070433744528456	neutral	082	sub-04	2.0	1.0	082_neutral	0.0		322.087906760672	
39.0	231.69733863672081	pulse	1.0	t		20.0	male	black	3.1070433744528456	neutral	082	sub-04	2.0	1.0	082_neutral	0.0		322.78789749372936	
40.0	232.25554846867544	fix	0.0		720													323.346107325684	5.9998738246904395
40.0	232.39732423824717	pulse	0.0	t														323.4878830952557	
40.0	233.09730319896698	pulse	0.0	t														324.18786205597553	
40.0	233.79729302645956	pulse	0.0	t														324.8878518834681	
40.0	234.49727923169485	pulse	0.0	t														325.5878380887034	
40.0	235.1972624183827	pulse	0.0	t														326.28782127539125	
40.0	235.89724651063443	pulse	0.0	t														326.987805367643	
40.0	236.59721913240264	pulse	0.0	t														327.6877779894112	
40.0	237.29722978787777	pulse	0.0	t														328.3877886448863	
40.0	237.99720059851825	pulse	0.0	t														329.0877594555268	
