trial_nr	onset	event_type	phase	response	nr_frames	trial_type	stim_name	task_probe	onset_abs	duration
0.0	0.059826193522894755	baseline	0.0		40.0		baseline	0.0	92.13253483373865	0.3413368428682588
0.0	0.4011630363911536	ISI	1.0		11.0		baseline	0.0	92.4738716766069	0.09999758518279123
1.0	0.5011606215739448	baseline	0.0		48.0		baseline	0.0	92.5738692617897	0.3999873222082897
1.0	0.7012704957614915	pulse	0.0	t			baseline	0.0	92.77397913597724	
1.0	0.9011479437822345	ISI	1.0		11.0		baseline	0.0	92.97385658399799	0.09999939629597066
2.0	1.0011473400782052	baseline	0.0		48.0		baseline	0.0	93.07385598029396	0.39997072034020675
2.0	1.401118060418412	ISI	1.0		11.0		baseline	0.0	93.47382670063416	0.0999978870349878
2.0	1.4057161744458426	pulse	1.0	t			baseline	0.0	93.4784248146616	
3.0	1.5011159474533997	baseline	0.0		48.0		baseline	0.0	93.57382458766915	0.39998460553943005
3.0	1.9011005529928298	ISI	1.0		11.0		baseline	0.0	93.97380919320858	0.09999607592180837
4.0	2.001096628914638	baseline	0.0		48.0		baseline	0.0	94.07380526913039	0.3999891333223786
4.0	2.101209521624696	pulse	0.0	t			baseline	0.0	94.17391816184045	
4.0	2.4010857622370168	ISI	1.0		11.0		baseline	0.0	94.47379440245277	0.09999486851302208
5.0	2.501080630750039	baseline	0.0		48.0		baseline	0.0	94.57378927096579	0.3999924536956314
5.0	2.80118869382477	pulse	0.0	t			baseline	0.0	94.87389733404052	
5.0	2.9010730844456702	ISI	1.0		11.0		baseline	0.0	94.97378172466142	0.0999978870349878
6.0	3.001070971480658	baseline	0.0		48.0		baseline	0.0	95.07377961169641	0.3999849073916266
6.0	3.4010558788722847	ISI	1.0		11.0		baseline	0.0	95.47376451908804	0.10001931853821588
7.0	3.5010751974105006	baseline	0.0		47.0		baseline	0.0	95.57378383762625	0.39996770181915053
7.0	3.505330407379006	pulse	0.0	t			baseline	0.0	95.57803904759476	
7.0	3.901042899229651	ISI	1.0		11.0		baseline	0.0	95.9737515394454	0.09999124628666323
8.0	4.001034145516314	baseline	0.0		48.0		baseline	0.0	96.07374278573207	0.399982190722767
8.0	4.201147340078023	pulse	0.0	t			baseline	0.0	96.27385598029377	
8.0	4.401016336239081	ISI	1.0		11.0		baseline	0.0	96.47372497645483	0.10000845186004881
9.0	4.50102478809913	baseline	0.0		48.0		baseline	0.0	96.57373342831488	0.39998792591359233
9.0	4.901012714012722	ISI	1.0		11.0		baseline	0.0	96.97372135422847	0.09999728333059466
9.0	4.90551725386922	pulse	1.0	t			baseline	0.0	96.97822589408497	
10.0	5.001009997343317	baseline	0.0		48.0		baseline	0.0	97.07371863755907	0.39998762406139576
10.0	5.400997621404713	ISI	1.0		11.0		baseline	0.0	97.47370626162046	0.09999607592180837
11.0	5.500993697326521	baseline	0.0		48.0		baseline	0.0	97.57370233754227	0.3999827944262506
11.0	5.601104175219007	pulse	0.0	t			baseline	0.0	97.67381281543476	
11.0	5.900976491752772	ISI	1.0		5.0		baseline	0.0	97.97368513196852	0.13336221052395558
12.0	6.034338702276727	adult	0.0		44.0	face	adult-46.jpg	0.0	98.10704734249248	0.3666112264854746
12.0	6.301070367776447	pulse	0.0	t		face	adult-46.jpg	0.0	98.3737790079922	
12.0	6.400949928762202	ISI	1.0		7.0	face	adult-46.jpg	0.0	98.47365856897795	0.11668427470976894
13.0	6.517634203471971	adult	0.0		46.0	face	adult-68.jpg	0.0	98.59034284368772	0.38326803264862974
13.0	6.900902236120601	ISI	1.0		8.0	face	adult-68.jpg	0.0	98.97361087633635	0.1166954432392231
14.0	7.017597679359824	adult	0.0		45.0	face	adult-62.jpg	0.0	99.09030631957557	0.38329218082162697
14.0	7.010192340198955	pulse	0.0	t		face	adult-62.jpg	0.0	99.0829009804147	
14.0	7.400889860181451	ISI	1.0		8.0	face	adult-62.jpg	0.0	99.4735985003972	0.11669936731777852
15.0	7.517589227499229	adult	0.0		46.0	face	adult-56.jpg	0.0	99.59029786771498	0.3832876530395879
15.0	7.700993093621946	pulse	0.0	t		face	adult-56.jpg	0.0	99.7737017338377	
15.0	7.900876880538817	ISI	1.0		6.0	face	adult-56.jpg	0.0	99.97358552075457	0.1166613339446485
16.0	8.017538214483466	adult	0.0		46.0	face	adult-75.jpg	0.0	100.09024685469922	0.38332629011620156
16.0	8.400864504599667	ISI	1.0		7.0	face	adult-75.jpg	0.0	100.47357314481542	0.11668427470976894
16.0	8.434629687763845	pulse	1.0	t		face	adult-75.jpg	0.0	100.5073383279796	
17.0	8.517548779309436	adult	0.0		46.0	face	adult-125.jpg	0.0	100.59025741952519	0.3832951993435927
17.0	8.900843978653029	ISI	1.0		7.0	face	adult-125.jpg	0.0	100.97355261886878	0.11670238583883474
18.0	9.017546364491864	adult	0.0		46.0	face	adult-52.jpg	0.0	101.09025500470761	0.38329429378700297
18.0	9.100955060249362	pulse	0.0	t		face	adult-52.jpg	0.0	101.17366370046511	
18.0	9.400840658278867	ISI	1.0		7.0	face	adult-52.jpg	0.0	101.47354929849462	0.11669182101377373
19.0	9.51753247929264	adult	0.0		46.0	face	adult-106.jpg	0.0	101.59024111950839	0.3832825215522462
19.0	9.800930610223986	pulse	0.0	t		face	adult-106.jpg	0.0	101.87363925043974	
19.0	9.900815000844887	ISI	1.0		7.0	face	adult-106.jpg	0.0	101.97352364106064	0.11669846176118881
20.0	10.017513462606075	adult	0.0		46.0	face	adult-71.jpg	0.0	102.09022210282183	0.38328825674307154
20.0	10.400801719349147	ISI	1.0		8.0	face	adult-71.jpg	0.0	102.4735103595649	0.11669393397914973
21.0	10.517495653328297	adult	0.0		45.0	face	adult-14.jpg	0.0	102.59020429354405	0.3832906715606441
21.0	10.509626065537304	pulse	0.0	t		face	adult-14.jpg	0.0	102.58233470575306	
21.0	10.90078632488894	ISI	1.0		8.0	face	adult-14.jpg	0.0	102.97349496510469	0.11669604694452573
22.0	11.017482371833466	adult	0.0		46.0	face	adult-99.jpg	0.0	103.09019101204922	0.38328584192549897
22.0	11.200891671294812	pulse	0.0	t		face	adult-99.jpg	0.0	103.27360031151056	
22.0	11.400768213758965	ISI	1.0		7.0	face	adult-99.jpg	0.0	103.47347685397472	0.11668608582294837
23.0	11.517454299581914	adult	0.0		46.0	face	adult-135.jpg	0.0	103.59016293979766	0.3833045567598674
23.0	11.900758856341781	ISI	1.0		7.0	face	adult-135.jpg	0.0	103.97346749655753	0.11669544324013259
23.0	11.933094165800867	pulse	1.0	t		face	adult-135.jpg	0.0	104.00580280601662	
24.0	12.017454299581914	car	0.0		46.0	object	car-103.jpg	0.0	104.09016293979766	0.38328795489087497
24.0	12.400742254472789	ISI	1.0		6.0	object	car-103.jpg	0.0	104.47345089468854	0.11669483953573945
25.0	12.517437094008528	car	0.0		46.0	object	car-59.jpg	0.0	104.59014573422428	0.3833208567766633
25.0	12.600882917581657	pulse	0.0	t		object	car-59.jpg	0.0	104.67359155779741	
25.0	12.900757950785191	ISI	1.0		8.0	object	car-59.jpg	0.0	104.97346659100094	0.12503531670336088
26.0	13.025793267488552	car	0.0		45.0	object	car-12.jpg	0.0	105.0985019077043	0.37494959068862954
26.0	13.300855147183029	pulse	0.0	t		object	car-12.jpg	0.0	105.37356378739878	
26.0	13.400742858177182	ISI	1.0		7.0	object	car-12.jpg	0.0	105.47345149839293	0.11670208398754767
27.0	13.51744494216473	car	0.0		46.0	object	car-86.jpg	0.0	105.59015358238048	0.3832408659536668
27.0	13.900685808118396	ISI	1.0		7.0	object	car-86.jpg	0.0	105.97339444833415	0.11670268769194081
28.0	14.017388495810337	car	0.0		45.0	object	car-28.jpg	0.0	106.09009713602609	0.38330938639410306
28.0	14.009485100576967	pulse	0.0	t		object	car-28.jpg	0.0	106.08219374079272	
28.0	14.40069788220444	ISI	1.0		8.0	object	car-28.jpg	0.0	106.47340652242019	0.11668185989310587
29.0	14.517379742097546	car	0.0		46.0	object	car-78.jpg	0.0	106.5900883823133	0.38328735118648183
29.0	14.700791456375555	pulse	0.0	t		object	car-78.jpg	0.0	106.7735000965913	
29.0	14.900667093284028	ISI	1.0		8.0	object	car-78.jpg	0.0	106.97337573349978	0.11669846176118881
30.0	15.017365555045217	car	0.0		46.0	object	car-126.jpg	0.0	107.09007419526097	0.3832782956224037
30.0	15.40064385066762	ISI	1.0		7.0	object	car-126.jpg	0.0	107.47335249088337	0.11671113955162582
30.0	15.433597957064194	pulse	1.0	t		object	car-126.jpg	0.0	107.50630659727994	
31.0	15.517354990219246	car	0.0		46.0	object	car-57.jpg	0.0	107.590063630435	0.3832813141443694
31.0	15.900636304363616	ISI	1.0		7.0	object	car-57.jpg	0.0	107.97334494457937	0.11669815990899224
32.0	16.017334464272608	car	0.0		46.0	object	car-23.jpg	0.0	108.09004310448836	0.3832876530386784
32.0	16.10074798966434	pulse	0.0	t		object	car-23.jpg	0.0	108.17345662988009	
32.0	16.400622117311286	ISI	1.0		7.0	object	car-23.jpg	0.0	108.47333075752704	0.1166996691699751
33.0	16.51732178648126	car	0.0		46.0	object	car-141.jpg	0.0	108.59003042669701	0.3832873511873913
33.0	16.800726256308735	pulse	0.0	t		object	car-141.jpg	0.0	108.87343489652449	
33.0	16.900609137668653	ISI	1.0		7.0	object	car-141.jpg	0.0	108.9733177778844	0.10834379754123802
34.0	17.00895293520989	car	0.0		47.0	object	car-132.jpg	0.0	109.08166157542564	0.39163929873757297
34.0	17.400592233947464	ISI	1.0		6.0	object	car-132.jpg	0.0	109.47330087416321	0.10835979570583731
35.0	17.5089520296533	car	0.0		46.0	object	car-20.jpg	0.0	109.58166066986905	0.39162480983304704
35.0	17.50442303977161	pulse	0.0	t		object	car-20.jpg	0.0	109.57713167998736	
35.0	17.900576839486348	ISI	1.0		4.0	object	car-20.jpg	0.0	109.9732854797021	0.10836371978530224
36.0	18.00894055927165	house	0.0		47.0	place	house-80.jpg	0.0	110.0816491994874	0.39162239501547447
36.0	18.20068580811858	pulse	0.0	t		place	house-80.jpg	0.0	110.27339444833433	
36.0	18.400562954287125	ISI	1.0		5.0	place	house-80.jpg	0.0	110.47327159450288	0.10832719567224558
37.0	18.50889014995937	house	0.0		47.0	place	house-29.jpg	0.0	110.58159879017512	0.39167038951018185
37.0	18.900560539469552	ISI	1.0		5.0	place	house-29.jpg	0.0	110.9732691796853	0.10835647533258452
37.0	18.952568460070324	pulse	1.0	t		place	house-29.jpg	0.0	111.02527710028608	
38.0	19.008917014802137	house	0.0		47.0	place	house-72.jpg	0.0	111.08162565501789	0.39161605612025596
38.0	19.400533070922393	ISI	1.0		6.0	place	house-72.jpg	0.0	111.47324171113814	0.10834228828116466
39.0	19.508875359203557	house	0.0		47.0	place	house-76.jpg	0.0	111.58158399941931	0.3916634469105702
39.0	19.600676148848834	pulse	0.0	t		place	house-76.jpg	0.0	111.67338478906458	
39.0	19.900538806114128	ISI	1.0		5.0	place	house-76.jpg	0.0	111.97324744632988	0.11671204510821553
40.0	20.017250851222343	house	0.0		46.0	place	house-88.jpg	0.0	112.0899594914381	0.3832864456308016
40.0	20.300651698823458	pulse	0.0	t		place	house-88.jpg	0.0	112.37336033903921	
40.0	20.400537296853145	ISI	1.0		5.0	place	house-88.jpg	0.0	112.4732459370689	0.11669997102217167
41.0	20.517237267875316	house	0.0		46.0	place	house-143.jpg	0.0	112.58994590809107	0.3832822197000496
41.0	20.900519487575366	ISI	1.0		6.0	place	house-143.jpg	0.0	112.97322812779112	0.11669725435240252
42.0	21.01721674192777	house	0.0		45.0	place	house-93.jpg	0.0	113.08992538214352	0.3832885585961776
42.0	21.007970406413733	pulse	0.0	t		place	house-93.jpg	0.0	113.08067904662948	
42.0	21.400505300523946	ISI	1.0		6.0	place	house-93.jpg	0.0	113.4732139407397	0.1166996691699751
43.0	21.51720496969392	house	0.0		46.0	place	house-39.jpg	0.0	113.58991360990967	0.3832535437441038
43.0	21.700578348747513	pulse	0.0	t		place	house-39.jpg	0.0	113.77328698896326	
43.0	21.900458513438025	ISI	1.0		7.0	place	house-39.jpg	0.0	113.97316715365378	0.11669906546558195
44.0	22.017157578903607	house	0.0		46.0	place	house-15.jpg	0.0	114.08986621911936	0.3832792011789934
44.0	22.4004367800826	ISI	1.0		7.0	place	house-15.jpg	0.0	114.47314542029835	0.11669514138702652
44.0	22.437017942092098	pulse	1.0	t		place	house-15.jpg	0.0	114.50972658230785	
45.0	22.517131921469627	house	0.0		46.0	place	house-19.jpg	0.0	114.58984056168538	0.3832970104558626
45.0	22.90042893192549	ISI	1.0		7.0	place	house-19.jpg	0.0	114.97313757214124	0.11670027287436824
46.0	23.017129204799858	house	0.0		46.0	place	house-7.jpg	0.0	115.08983784501561	0.3832852382220153
46.0	23.10053759870516	pulse	0.0	t		place	house-7.jpg	0.0	115.17324623892091	
46.0	23.400414443021873	ISI	1.0		7.0	place	house-7.jpg	0.0	115.47312308323762	0.11669725435240252
47.0	23.517111697374276	house	0.0		46.0	place	house-141.jpg	0.0	115.58982033759003	0.38328825674398104
47.0	23.800515563497356	pulse	0.0	t		place	house-141.jpg	0.0	115.87322420371311	
47.0	23.900399954118257	ISI	1.0		5.0	place	house-141.jpg	0.0	115.97310859433401	0.11669695250020595
48.0	24.017096906618463	body	0.0		46.0	body	body-5.jpg	0.0	116.08980554683421	0.38328403081322904
48.0	24.40038093743169	ISI	1.0		6.0	body	body-5.jpg	0.0	116.47308957764744	0.11669574509232916
49.0	24.51707668252402	body	0.0		45.0	body	body-73.jpg	0.0	116.58978532273977	0.3832834271079264
49.0	24.50873167757345	pulse	0.0	t		body	body-73.jpg	0.0	116.5814403177892	
49.0	24.900360109631947	ISI	1.0		7.0	body	body-73.jpg	0.0	116.9730687498477	0.11667461544038815
50.0	25.017034725072335	body	0.0		46.0	body	body-96.jpg	0.0	117.08974336528809	0.3833217623341625
50.0	25.200478133829165	pulse	0.0	t		body	body-96.jpg	0.0	117.27318677404492	
50.0	25.400356487406498	ISI	1.0		7.0	body	body-96.jpg	0.0	117.47306512762225	0.1166996691699751
51.0	25.517056156576473	body	0.0		46.0	body	body-96.jpg	1.0	117.58976479679222	0.3832846345176222
51.0	25.900340791094095	ISI	1.0		7.0	body	body-96.jpg	1.0	117.97304943130985	0.11668095433560666
51.0	25.93640970997967	pulse	1.0	t		body	body-96.jpg	1.0	118.00911835019542	
52.0	26.0170217454297	body	0.0		46.0	body	body-10.jpg	0.0	118.08973038564545	0.3833054623164571
52.0	26.275438289342674	response	0.0	b		body	body-10.jpg	0.0	118.34814692955842	
52.0	26.40032720774616	ISI	1.0		7.0	body	body-10.jpg	0.0	118.47303584796191	0.11667672840576415
53.0	26.517003936151923	body	0.0		46.0	body	body-115.jpg	0.0	118.58971257636767	0.3833066697252434
53.0	26.600432554151666	pulse	0.0	t		body	body-115.jpg	0.0	118.67314119436742	
53.0	26.900310605877166	ISI	1.0		7.0	body	body-115.jpg	0.0	118.97301924609292	0.1166900099005943
54.0	27.01700061577776	body	0.0		46.0	body	body-34.jpg	0.0	119.08970925599351	0.3832948974913961
54.0	27.300411122648256	pulse	0.0	t		body	body-34.jpg	0.0	119.37311976286401	
54.0	27.400295513269157	ISI	1.0		7.0	body	body-34.jpg	0.0	119.47300415348491	0.11669846176118881
55.0	27.516993975030346	body	0.0		46.0	body	body-74.jpg	0.0	119.5897026152461	0.38332025307317963
55.0	27.900314228103525	ISI	1.0		6.0	body	body-74.jpg	0.0	119.97302286831928	0.11667159691842244
56.0	28.016985825021948	body	0.0		45.0	body	body-124.jpg	0.0	120.0896944652377	0.3833133104726585
56.0	28.007625087536326	pulse	0.0	t		body	body-124.jpg	0.0	120.08033372775208	
56.0	28.400299135494606	ISI	1.0		7.0	body	body-124.jpg	0.0	120.47300777571036	0.11667672840576415
57.0	28.51697586390037	body	0.0		46.0	body	body-58.jpg	0.0	120.58968450411612	0.3833096882472091
57.0	28.700408405979033	pulse	0.0	t		body	body-58.jpg	0.0	120.77311704619478	
57.0	28.90028555214758	ISI	1.0		7.0	body	body-58.jpg	0.0	120.97299419236333	0.1166975562045991
58.0	29.01698310835218	body	0.0		46.0	body	body-51.jpg	0.0	121.08969174856793	0.38328825674398104
58.0	29.40027136509616	ISI	1.0		7.0	body	body-51.jpg	0.0	121.47298000531191	0.11669815990899224
58.0	29.435879959431077	pulse	1.0	t		body	body-51.jpg	0.0	121.50858859964683	
59.0	29.516969525005152	body	0.0		46.0	body	body-83.jpg	0.0	121.5896781652209	0.3832523363353175
59.0	29.90022186134047	ISI	1.0		11.0	body	body-83.jpg	0.0	121.97293050155622	0.09999728333059466
60.0	30.000219144671064	baseline	0.0		48.0		baseline	0.0	122.07292778488682	0.3999849073916266
60.0	30.100330829972336	pulse	0.0	t			baseline	0.0	122.17303947018809	
60.0	30.40020405206269	ISI	1.0		11.0		baseline	0.0	122.47291269227844	0.10000543333899259
61.0	30.500209485401683	baseline	0.0		48.0		baseline	0.0	122.57291812561743	0.3999849073925361
61.0	30.800303965129388	pulse	0.0	t			baseline	0.0	122.87301260534514	
61.0	30.90019439279422	ISI	1.0		11.0		baseline	0.0	122.97290303300997	0.09999245369544951
62.0	31.00018684648967	baseline	0.0		48.0		baseline	0.0	123.07289548670542	0.4000051314869779
62.0	31.400191977976647	ISI	1.0		11.0		baseline	0.0	123.4729006181924	0.0999999999994543
63.0	31.5001919779761	baseline	0.0		47.0		baseline	0.0	123.57290061819185	0.39996981478361704
63.0	31.504402211971865	pulse	0.0	t			baseline	0.0	123.57711085218762	
63.0	31.900161792759718	ISI	1.0		11.0		baseline	0.0	123.97287043297547	0.10001086667853087
64.0	32.00017265943825	baseline	0.0		48.0		baseline	0.0	124.072881299654	0.3999755499744424
64.0	32.20026985583536	pulse	0.0	t			baseline	0.0	124.27297849605111	
64.0	32.40014820941269	ISI	1.0		11.0		baseline	0.0	124.47285684962844	0.09999667962620151
65.0	32.50014488903889	baseline	0.0		48.0		baseline	0.0	124.57285352925464	0.3999903407302554
65.0	32.90013522976915	ISI	1.0		11.0		baseline	0.0	124.9728438699849	0.09999637777400494
65.0	32.904700140058594	pulse	1.0	t			baseline	0.0	124.97740878027435	
66.0	33.00013160754315	baseline	0.0		48.0		baseline	0.0	125.0728402477589	0.3999957740697937
66.0	33.40012738161295	ISI	1.0		11.0		baseline	0.0	125.4728360218287	0.09998792591341044
67.0	33.50011530752636	baseline	0.0		48.0		baseline	0.0	125.57282394774211	0.39998883147018205
67.0	33.60022759653202	pulse	0.0	t			baseline	0.0	125.67293623674777	
67.0	33.90010413899654	ISI	1.0		11.0		baseline	0.0	125.97281277921229	0.09999547221741523
68.0	34.000099611213955	baseline	0.0		48.0		baseline	0.0	126.0728082514297	0.3999619666274157
68.0	34.300207674288686	pulse	0.0	t			baseline	0.0	126.37291631450444	
68.0	34.40006157784137	ISI	1.0		11.0		baseline	0.0	126.47277021805712	0.10002414817336103
69.0	34.50008572601473	baseline	0.0		48.0		baseline	0.0	126.57279436623048	0.39998792591268284
69.0	34.900073651927414	ISI	1.0		11.0		baseline	0.0	126.97278229214317	0.09999637777400494
70.0	35.00007002970142	baseline	0.0		47.0		baseline	0.0	127.07277866991717	0.3999912462877546
70.0	35.00428298036695	pulse	0.0	t			baseline	0.0	127.0769916205827	
70.0	35.400061275989174	ISI	1.0		11.0		baseline	0.0	127.47276991620492	0.10001267779080081
71.0	35.500073953779975	baseline	0.0		48.0		baseline	0.0	127.57278259399573	0.4000380333727662
71.0	35.700233935427605	pulse	0.0	t			baseline	0.0	127.77294257564336	
71.0	35.90011198715274	ISI	1.0		7.0		baseline	0.0	127.97282062736849	0.1166634469100245
72.0	36.016775434062765	body	0.0		46.0	body	body-28.jpg	0.0	128.08948407427852	0.38328493636981875
72.0	36.400060370432584	ISI	1.0		7.0	body	body-28.jpg	0.0	128.47276901064834	0.11670087657876138
72.0	36.436640325034205	pulse	1.0	t		body	body-28.jpg	0.0	128.50934896524996	
73.0	36.516761247011345	body	0.0		46.0	body	body-140.jpg	0.0	128.5894698872271	0.38328403081322904
73.0	36.900045277824574	ISI	1.0		7.0	body	body-140.jpg	0.0	128.97275391804033	0.11670268769103131
74.0	37.016747965515606	body	0.0		46.0	body	body-110.jpg	0.0	129.08945660573136	0.38325324189281673
74.0	37.10012164642194	pulse	0.0	t		body	body-110.jpg	0.0	129.1728302866377	
74.0	37.40000120740842	ISI	1.0		7.0	body	body-110.jpg	0.0	129.47270984762417	0.11669634879581281
75.0	37.516697556204235	body	0.0		46.0	body	body-137.jpg	0.0	129.58940619642	0.38328916230057075
75.0	37.80010081862292	pulse	0.0	t		body	body-137.jpg	0.0	129.87280945883867	
75.0	37.899986718504806	ISI	1.0		7.0	body	body-137.jpg	0.0	129.97269535872056	0.11669695250020595
76.0	38.01668367100501	body	0.0		46.0	body	body-47.jpg	0.0	130.08939231122076	0.3832864456298921
76.0	38.399970116634904	ISI	1.0		7.0	body	body-47.jpg	0.0	130.47267875685066	0.11669031175370037
77.0	38.516660428388604	body	0.0		45.0	body	body-46.jpg	0.0	130.58936906860436	0.38330697157744
77.0	38.507307539059184	pulse	0.0	t		body	body-46.jpg	0.0	130.58001617927493	
77.0	38.899967399966044	ISI	1.0		7.0	body	body-46.jpg	0.0	130.9726760401818	0.11668638767423545
78.0	39.01665378764028	body	0.0		46.0	body	body-31.jpg	0.0	131.08936242785603	0.38328493636981875
78.0	39.200065803771395	pulse	0.0	t		body	body-31.jpg	0.0	131.27277444398715	
78.0	39.3999387240101	ISI	1.0		7.0	body	body-31.jpg	0.0	131.47264736422585	0.11669936731777852
79.0	39.51663809132788	body	0.0		46.0	body	body-85.jpg	0.0	131.58934673154363	0.38328946415185783
79.0	39.899927555479735	ISI	1.0		7.0	body	body-85.jpg	0.0	131.9726361956955	0.1166718987715285
79.0	39.935379488541	pulse	1.0	t		body	body-85.jpg	0.0	132.00808812875675	
80.0	40.01659945425126	body	0.0		46.0	body	body-76.jpg	0.0	132.08930809446701	0.3833111975072825
80.0	40.399910651758546	ISI	1.0		7.0	body	body-76.jpg	0.0	132.4726192919743	0.11666163579775457
81.0	40.5165722875563	body	0.0		46.0	body	body-76.jpg	1.0	132.58928092777205	0.3833226678898427
81.0	40.600020224094806	pulse	0.0	t		body	body-76.jpg	1.0	132.67272886431056	
81.0	40.89989495544614	ISI	1.0		7.0	body	body-76.jpg	1.0	132.9726035956619	0.11670027287436824
82.0	41.01659522832051	body	0.0		46.0	body	body-64.jpg	0.0	133.08930386853626	0.3832918789694304
82.0	41.14166948395359	response	0.0	b		body	body-64.jpg	0.0	133.21437812416934	
82.0	41.29998400183467	pulse	0.0	t		body	body-64.jpg	0.0	133.37269264205042	
82.0	41.39988710728994	ISI	1.0		7.0	body	body-64.jpg	0.0	133.4725957475057	0.11669363212695316
83.0	41.516580739416895	body	0.0		46.0	body	body-36.jpg	0.0	133.58928937963265	0.3832810122912633
83.0	41.89986175170816	ISI	1.0		7.0	body	body-36.jpg	0.0	133.9725703919239	0.11669151916157716
84.0	42.016553270869736	body	0.0		45.0	body	body-45.jpg	0.0	134.0892619110855	0.3833075752818331
84.0	42.00724867788722	pulse	0.0	t		body	body-45.jpg	0.0	134.07995731810297	
84.0	42.39986084615157	ISI	1.0		7.0	body	body-45.jpg	0.0	134.47256948636732	0.1166921228659703
85.0	42.51655296901754	body	0.0		46.0	body	body-117.jpg	0.0	134.5892616092333	0.3832831252566393
85.0	42.69996649440964	pulse	0.0	t		body	body-117.jpg	0.0	134.7726751346254	
85.0	42.89983609427418	ISI	1.0		7.0	body	body-117.jpg	0.0	134.97254473448993	0.11670148028315452
86.0	43.01653757455733	body	0.0		46.0	body	body-128.jpg	0.0	135.08924621477308	0.38331693269901734
86.0	43.39985450725635	ISI	1.0		7.0	body	body-128.jpg	0.0	135.4725631474721	0.11669876361338538
86.0	43.43589293907371	pulse	1.0	t		body	body-128.jpg	0.0	135.50860157928946	
87.0	43.516553270869736	body	0.0		46.0	body	body-39.jpg	0.0	135.5892619110855	0.3832248677890675
87.0	43.8997781386588	ISI	1.0		7.0	body	body-39.jpg	0.0	135.97248677887455	0.1167304580903874
88.0	44.01650859674919	body	0.0		46.0	body	body-116.jpg	0.0	136.08921723696494	0.38328282340444275
88.0	44.09991789621108	pulse	0.0	t		body	body-116.jpg	0.0	136.17262653642683	
88.0	44.39979142015363	ISI	1.0		5.0	body	body-116.jpg	0.0	136.47250006036938	0.1166996691699751
89.0	44.51649108932361	body	0.0		46.0	body	body-113.jpg	0.0	136.58919972953936	0.38328946415185783
89.0	44.79989495544578	pulse	0.0	t		body	body-113.jpg	0.0	136.87260359566153	
89.0	44.899780553475466	ISI	1.0		7.0	body	body-113.jpg	0.0	136.97248919369122	0.11669665064891888
90.0	45.016477204124385	body	0.0		46.0	body	body-50.jpg	0.0	137.08918584434014	0.38328523822110583
90.0	45.39976244234549	ISI	1.0		7.0	body	body-50.jpg	0.0	137.47247108256124	0.11669091545718402
91.0	45.516453357802675	body	0.0		45.0	body	body-129.jpg	0.0	137.58916199801843	0.38329550119578926
91.0	45.50711042959574	pulse	0.0	t		body	body-129.jpg	0.0	137.5798190698115	
91.0	45.899748858998464	ISI	1.0		7.0	body	body-129.jpg	0.0	137.97245749921422	0.1166975562045991
92.0	46.01644641520306	body	0.0		46.0	body	body-29.jpg	0.0	138.08915505541881	0.3832855400742119
92.0	46.199861449856144	pulse	0.0	t		body	body-29.jpg	0.0	138.2725700900719	
92.0	46.399731955277275	ISI	1.0		7.0	body	body-29.jpg	0.0	138.47244059549303	0.11669906546558195
93.0	46.51643102074286	body	0.0		46.0	body	body-92.jpg	0.0	138.5891396609586	0.3832876530386784
93.0	46.899718673781535	ISI	1.0		7.0	body	body-92.jpg	0.0	138.9724273139973	0.11669725435331202
93.0	46.93700526430166	pulse	1.0	t		body	body-92.jpg	0.0	139.0097139045174	
94.0	47.01641592813485	body	0.0		46.0	body	body-35.jpg	0.0	139.0891245683506	0.3832970104558626
94.0	47.39971293859071	ISI	1.0		7.0	body	body-35.jpg	0.0	139.47242157880646	0.1166900099005943
95.0	47.516402948491304	body	0.0		46.0	body	body-100.jpg	0.0	139.58911158870706	0.38327739006581396
95.0	47.599823718335756	pulse	0.0	t		body	body-100.jpg	0.0	139.6725323585515	
95.0	47.89968033855712	ISI	1.0		7.0	body	body-100.jpg	0.0	139.97238897877287	0.11670630991739017
96.0	48.01638664847451	adult	0.0		46.0	face	adult-41.jpg	0.0	140.08909528869026	0.38330214194320433
96.0	48.2997893071888	pulse	0.0	t		face	adult-41.jpg	0.0	140.37249794740455	
96.0	48.39968879041771	ISI	1.0		7.0	face	adult-41.jpg	0.0	140.47239743063346	0.1166613339446485
97.0	48.51635012436236	adult	0.0		46.0	face	adult-24.jpg	0.0	140.5890587645781	0.38330817898622627
97.0	48.89965830334859	ISI	1.0		7.0	face	adult-24.jpg	0.0	140.97236694356434	0.11667853951894358
98.0	49.01633684286753	adult	0.0		45.0	face	adult-64.jpg	0.0	141.08904548308328	0.3833066697252434
98.0	49.00698636835568	pulse	0.0	t		face	adult-64.jpg	0.0	141.07969500857143	
98.0	49.399643512592775	ISI	1.0		7.0	face	adult-64.jpg	0.0	141.47235215280853	0.11668035063121351
99.0	49.51632386322399	adult	0.0		46.0	face	adult-70.jpg	0.0	141.58903250343974	0.3833362512377789
99.0	49.69978327014542	pulse	0.0	t		face	adult-70.jpg	0.0	141.77249191036117	
99.0	49.89966011446177	ISI	1.0		7.0	face	adult-70.jpg	0.0	141.97236875467752	0.11670087657876138
100.0	50.01636099104053	adult	0.0		46.0	face	adult-111.jpg	0.0	142.08906963125628	0.38328704933519475
100.0	50.39964804037572	ISI	1.0		7.0	face	adult-111.jpg	0.0	142.47235668059147	0.11669725435240252
100.0	50.436163398613644	pulse	1.0	t		face	adult-111.jpg	0.0	142.5088720388294	
101.0	50.516345294728126	adult	0.0		46.0	face	adult-114.jpg	0.0	142.58905393494388	0.38328584192640847
101.0	50.899631136654534	ISI	1.0		7.0	face	adult-114.jpg	0.0	142.97233977687029	0.11668397285666288
102.0	51.0163151095112	adult	0.0		46.0	face	adult-67.jpg	0.0	143.08902374972695	0.3832707493183989
102.0	51.099713240442725	pulse	0.0	t		face	adult-67.jpg	0.0	143.17242188065848	
102.0	51.399585858829596	ISI	1.0		7.0	face	adult-67.jpg	0.0	143.47229449904535	0.11669695250020595
103.0	51.5162828113298	adult	0.0		46.0	face	adult-44.jpg	0.0	143.58899145154555	0.3832855400742119
103.0	51.79968607374849	pulse	0.0	t		face	adult-44.jpg	0.0	143.87239471396424	
103.0	51.899568351404014	ISI	1.0		7.0	face	adult-44.jpg	0.0	143.97227699161976	0.1166975562045991
104.0	52.01626590760861	adult	0.0		46.0	face	adult-109.jpg	0.0	144.08897454782436	0.38328825674307154
104.0	52.399554164351684	ISI	1.0		7.0	face	adult-109.jpg	0.0	144.47226280456744	0.11669182101377373
105.0	52.51624598536546	adult	0.0		45.0	face	adult-21.jpg	0.0	144.5889546255812	0.38329429378700297
105.0	52.506888568254	pulse	0.0	t		face	adult-21.jpg	0.0	144.57959720846975	
105.0	52.89954027915246	ISI	1.0		7.0	face	adult-21.jpg	0.0	144.9722489193682	0.11669725435240252
106.0	53.016237533504864	adult	0.0		46.0	face	adult-29.jpg	0.0	145.08894617372061	0.3832876530395879
106.0	53.19964683296712	pulse	0.0	t		face	adult-29.jpg	0.0	145.27235547318287	
106.0	53.39952518654445	ISI	1.0		7.0	face	adult-29.jpg	0.0	145.4722338267602	0.11669634879581281
107.0	53.516221535340264	adult	0.0		46.0	face	adult-48.jpg	0.0	145.58893017555602	0.38329036970844754
107.0	53.89951190504871	ISI	1.0		11.0	face	adult-48.jpg	0.0	145.97222054526446	0.09999637777400494
107.0	53.90395154669022	pulse	1.0	t		face	adult-48.jpg	0.0	145.97666018690597	
108.0	53.99950828282272	baseline	0.0		48.0		baseline	0.0	146.07221692303847	0.3999864166526095
108.0	54.399494699475326	ISI	1.0		11.0		baseline	0.0	146.47220333969108	0.10002112965139531
109.0	54.49951582912672	baseline	0.0		48.0		baseline	0.0	146.57222446934247	0.39996649441036425
109.0	54.59962751442799	pulse	0.0	t			baseline	0.0	146.67233615464374	
109.0	54.899482323537086	ISI	1.0		11.0		baseline	0.0	146.97219096375284	0.09999517036521866
110.0	54.999477493902305	baseline	0.0		48.0		baseline	0.0	147.07218613411806	0.39998762406139576
110.0	55.299583745863856	pulse	0.0	t			baseline	0.0	147.3722923860796	
110.0	55.3994651179637	ISI	1.0		11.0		baseline	0.0	147.47217375817945	0.09999728333059466
111.0	55.499462401294295	baseline	0.0		48.0		baseline	0.0	147.57217104151005	0.39998883146927255
111.0	55.89945123276357	ISI	1.0		11.0		baseline	0.0	147.97215987297932	0.09999879259157751
112.0	55.999450025355145	baseline	0.0		47.0		baseline	0.0	148.0721586655709	0.3999873222091992
112.0	56.00373723165285	pulse	0.0	t			baseline	0.0	148.0764458718686	
112.0	56.399437347564344	ISI	1.0		11.0		baseline	0.0	148.4721459877801	0.09999758518279123
113.0	56.499434932747135	baseline	0.0		48.0		baseline	0.0	148.5721435729629	0.3999870203570026
113.0	56.699544505082486	pulse	0.0	t			baseline	0.0	148.77225314529824	
113.0	56.89942195310414	ISI	1.0		11.0		baseline	0.0	148.9721305933199	0.09999517036521866
114.0	56.99941712346936	baseline	0.0		48.0		baseline	0.0	149.0721257636851	0.40006097413697717
114.0	57.399478097606334	ISI	1.0		11.0		baseline	0.0	149.47218673782208	0.0999957740696118
114.0	57.404111528337125	pulse	1.0	t			baseline	0.0	149.47682016855288	
115.0	57.499473871675946	baseline	0.0		48.0		baseline	0.0	149.5721825118917	0.39998671850480605
115.0	57.89946059018075	ISI	1.0		11.0		baseline	0.0	149.9721692303965	0.09999818888718437
116.0	57.999458779067936	baseline	0.0		48.0		baseline	0.0	150.0721674192837	0.39998762406139576
116.0	58.09956503102967	pulse	0.0	t			baseline	0.0	150.17227367124542	
116.0	58.39944640312933	ISI	1.0		11.0		baseline	0.0	150.47215504334508	0.09999456666082551
117.0	58.49944096979016	baseline	0.0		48.0		baseline	0.0	150.5721496100059	0.3999906425833615
117.0	58.799549334717085	pulse	0.0	t			baseline	0.0	150.87225797493284	
117.0	58.89943161237352	ISI	1.0		11.0		baseline	0.0	150.97214025258927	0.09999818888627487
118.0	58.999429801259794	baseline	0.0		48.0		baseline	0.0	151.07213844147554	0.3999885296179855
118.0	59.39941833087778	ISI	1.0		11.0		baseline	0.0	151.47212697109353	0.09999637777400494
119.0	59.499414708651784	baseline	0.0		47.0		baseline	0.0	151.57212334886754	0.3999861148004129
119.0	59.50378582985195	pulse	0.0	t			baseline	0.0	151.5764944700677	
119.0	59.8994008234522	ISI	1.0		5.0		baseline	0.0	151.97210946366795	0.1166655598754005
120.0	60.0160663833276	house	0.0		46.0	place	house-90.jpg	0.0	152.08877502354335	0.38324992151865445
120.0	60.19944127164217	pulse	0.0	t		place	house-90.jpg	0.0	152.27214991185792	
120.0	60.39931630484625	ISI	1.0		6.0	place	house-90.jpg	0.0	152.472024945062	0.11669936731777852
121.0	60.51601567216403	house	0.0		46.0	place	house-32.jpg	0.0	152.58872431237978	0.38328795489087497
121.0	60.899303627054906	ISI	1.0		5.0	place	house-32.jpg	0.0	152.97201226727066	0.11669544324013259
121.0	60.94833679457133	pulse	1.0	t		place	house-32.jpg	0.0	153.02104543478708	
122.0	61.01599907029504	house	0.0		46.0	place	house-8.jpg	0.0	153.0887077105108	0.3832918789694304
122.0	61.39929094926447	ISI	1.0		6.0	place	house-8.jpg	0.0	153.47199958948022	0.11669604694361624
123.0	61.515986996208085	house	0.0		46.0	place	house-69.jpg	0.0	153.58869563642384	0.3832885585961776
123.0	61.59947024944995	pulse	0.0	t		place	house-69.jpg	0.0	153.6721788896657	
123.0	61.89927555480426	ISI	1.0		6.0	place	house-69.jpg	0.0	153.97198419502	0.11669665064800938
124.0	62.01597220545227	house	0.0		46.0	place	house-12.jpg	0.0	154.08868084566802	0.38328493636981875
124.0	62.29937516601785	pulse	0.0	t		place	house-12.jpg	0.0	154.3720838062336	
124.0	62.39925714182209	ISI	1.0		7.0	place	house-12.jpg	0.0	154.47196578203784	0.11669906546558195
125.0	62.51595620728767	house	0.0		46.0	place	house-116.jpg	0.0	154.58866484750342	0.38325927893583867
125.0	62.89921548622351	ISI	1.0		5.0	place	house-116.jpg	0.0	154.97192412643926	0.11671808215123747
126.0	63.01593356837475	house	0.0		45.0	place	house-58.jpg	0.0	155.0886422085905	0.38329429378700297
126.0	63.00646989930192	pulse	0.0	t		place	house-58.jpg	0.0	155.07917853951767	
126.0	63.39922786216175	ISI	1.0		6.0	place	house-58.jpg	0.0	155.4719365023775	0.11669876361338538
127.0	63.51592662577514	house	0.0		46.0	place	house-51.jpg	0.0	155.5886352659909	0.3832843326654256
127.0	63.69935494192305	pulse	0.0	t		place	house-51.jpg	0.0	155.7720635821388	
127.0	63.89921095844056	ISI	1.0		6.0	place	house-51.jpg	0.0	155.9719195986563	0.11670268769194081
128.0	64.0159136461325	house	0.0		46.0	place	house-129.jpg	0.0	156.08862228634825	0.38328704933428526
128.0	64.39920069546679	ISI	1.0		6.0	place	house-129.jpg	0.0	156.47190933568254	0.11669604694452573
128.0	64.4465969186931	pulse	1.0	t		place	house-129.jpg	0.0	156.51930555890885	
129.0	64.51589674241131	house	0.0		46.0	place	house-16.jpg	0.0	156.58860538262707	0.3832813141434599
129.0	64.89917805655477	ISI	1.0		6.0	place	house-16.jpg	0.0	156.97188669677053	0.11670449880421074
130.0	65.01588255535898	house	0.0		46.0	place	house-110.jpg	0.0	157.08859119557474	0.3833015382388112
130.0	65.0992972881595	pulse	0.0	t		place	house-110.jpg	0.0	157.17200592837526	
130.0	65.3991840935978	ISI	1.0		6.0	place	house-110.jpg	0.0	157.47189273381355	0.1166815580399998
131.0	65.5158656516378	house	0.0		46.0	place	house-130.jpg	0.0	157.58857429185355	0.3832885585961776
131.0	65.79928702518646	pulse	0.0	t		place	house-130.jpg	0.0	157.8719956654022	
131.0	65.89915421023397	ISI	1.0		11.0	place	house-130.jpg	0.0	157.97186285044972	0.0999978870340783
132.0	65.99915209726805	baseline	0.0		48.0		baseline	0.0	158.0718607374838	0.40006852044189145
132.0	66.39922061770994	ISI	1.0		11.0		baseline	0.0	158.4719292579257	0.09998702035682072
133.0	66.49920763806676	baseline	0.0		47.0		baseline	0.0	158.57191627828252	0.39998671850480605
133.0	66.50344866098385	pulse	0.0	t			baseline	0.0	158.5761573011996	
133.0	66.89919435657157	ISI	1.0		11.0		baseline	0.0	158.97190299678732	0.09999879259157751
134.0	66.99919314916315	baseline	0.0		48.0		baseline	0.0	159.0719017893789	0.39998973702586227
134.0	67.19930785298584	pulse	0.0	t			baseline	0.0	159.2720164932016	
134.0	67.39918288618901	ISI	1.0		11.0		baseline	0.0	159.47189152640476	0.09999517036521866
135.0	67.49917805655423	baseline	0.0		48.0		baseline	0.0	159.57188669676998	0.3999891333223786
135.0	67.89916718987661	ISI	1.0		11.0		baseline	0.0	159.97187583009236	0.0999936611042358
135.0	67.90385555770172	pulse	1.0	t			baseline	0.0	159.97656419791747	
136.0	67.99916085098084	baseline	0.0		48.0		baseline	0.0	160.0718694911966	0.3999891333223786
136.0	68.39914998430322	ISI	1.0		11.0		baseline	0.0	160.47185862451897	0.09999849073938094
137.0	68.4991484750426	baseline	0.0		48.0		baseline	0.0	160.57185711525835	0.39998671850480605
137.0	68.59926348071713	pulse	0.0	t			baseline	0.0	160.67197212093288	
137.0	68.89913519354741	ISI	1.0		11.0		baseline	0.0	160.97184383376316	0.0999936611042358
138.0	68.99912885465164	baseline	0.0		49.0		baseline	0.0	161.0718374948674	0.40832870493341034
138.0	69.29923721957857	pulse	0.0	t			baseline	0.0	161.37194585979432	
138.0	69.40745755958505	ISI	1.0		11.0		baseline	0.0	161.4801661998008	0.09998762406121386
139.0	69.50744518364627	baseline	0.0		48.0		baseline	0.0	161.58015382386202	0.3999915481399512
139.0	69.90743673178622	ISI	1.0		11.0		baseline	0.0	161.98014537200197	0.10000935741663852
139.0	69.99928159184674	pulse	1.0	t			baseline	0.0	162.0719902320625	
140.0	70.00744608920286	baseline	0.0		48.0		baseline	0.0	162.0801547294186	0.39998762406139576
140.0	70.40743371326425	ISI	1.0		11.0		baseline	0.0	162.48014235348	0.09997494626986736
141.0	70.50740865953412	baseline	0.0		48.0		baseline	0.0	162.58011729974987	0.4000096592699265
141.0	70.69919345101516	pulse	0.0	t			baseline	0.0	162.7719020912309	
141.0	70.90741831880405	ISI	1.0		11.0		baseline	0.0	162.9801269590198	0.09998400183485501
142.0	71.0074023206389	baseline	0.0		48.0		baseline	0.0	163.08011096085465	0.39999426480881084
142.0	71.39917896211136	pulse	0.0	t			baseline	0.0	163.47188760232712	
142.0	71.40739658544771	ISI	1.0		11.0		baseline	0.0	163.48010522566346	0.09999698147839808
143.0	71.50739356692611	baseline	0.0		48.0		baseline	0.0	163.58010220714186	0.39998551109601976
143.0	71.90737907802213	ISI	1.0		6.0		baseline	0.0	163.98008771823788	0.11666193764995114
144.0	72.02404101567208	word	0.0		46.0	character	word-97.jpg	0.0	164.09674965588783	0.3832864456298921
144.0	72.09911979908702	pulse	0.0	t		character	word-97.jpg	0.0	164.17182843930277	
144.0	72.40732746130197	ISI	1.0		6.0	character	word-97.jpg	0.0	164.48003610151773	0.1167017821353511
145.0	72.52402924343733	word	0.0		46.0	character	word-72.jpg	0.0	164.59673788365308	0.38324992151865445
145.0	72.79906395643593	pulse	0.0	t		character	word-72.jpg	0.0	164.87177259665168	
145.0	72.90727916495598	ISI	1.0		5.0	character	word-72.jpg	0.0	164.97998780517173	0.1166996691699751
146.0	73.02397883412596	word	0.0		46.0	character	word-43.jpg	0.0	165.0966874743417	0.38328825674307154
146.0	73.40726709086903	ISI	1.0		6.0	character	word-43.jpg	0.0	165.47997573108478	0.11669725435331202
146.0	73.49907874719247	pulse	1.0	t		character	word-43.jpg	0.0	165.57178738740822	
147.0	73.52396434522234	word	0.0		46.0	character	word-109.jpg	0.0	165.5966729854381	0.3832867474820887
147.0	73.90725109270443	ISI	1.0		6.0	character	word-109.jpg	0.0	165.97995973292018	0.11669695250020595
148.0	74.02394804520463	word	0.0		46.0	character	word-12.jpg	0.0	166.09665668542038	0.3832867474829982
148.0	74.19902471565456	pulse	0.0	t		character	word-12.jpg	0.0	166.2717333558703	
148.0	74.40723479268763	ISI	1.0		6.0	character	word-12.jpg	0.0	166.47994343290338	0.11669815990899224
149.0	74.52393295259662	word	0.0		46.0	character	word-21.jpg	0.0	166.59664159281238	0.3832885585952681
149.0	74.89899996377699	pulse	0.0	t		character	word-21.jpg	0.0	166.97170860399274	
149.0	74.90722151119189	ISI	1.0		6.0	character	word-21.jpg	0.0	166.97993015140764	0.11665891912798543
150.0	75.02388043031988	word	0.0		46.0	character	word-85.jpg	0.0	167.09658907053563	0.3833250827074153
150.0	75.4072055130273	ISI	1.0		7.0	character	word-85.jpg	0.0	167.47991415324304	0.11669725435331202
151.0	75.5239027673806	word	0.0		46.0	character	word-27.jpg	0.0	167.59661140759636	0.3832897660040544
151.0	75.5989848711688	pulse	0.0	t		character	word-27.jpg	0.0	167.67169351138455	
151.0	75.90719253338466	ISI	1.0		6.0	character	word-27.jpg	0.0	167.9799011736004	0.11669695250020595
152.0	76.02388948588487	word	0.0		46.0	character	word-137.jpg	0.0	168.09659812610062	0.38328825674307154
152.0	76.29896042114342	pulse	0.0	t		character	word-137.jpg	0.0	168.37166906135917	
152.0	76.40717774262794	ISI	1.0		7.0	character	word-137.jpg	0.0	168.4798863828437	0.11669755620550859
153.0	76.52387529883345	word	0.0		46.0	character	word-119.jpg	0.0	168.5965839390492	0.38328523822110583
153.0	76.90716053705455	ISI	1.0		7.0	character	word-119.jpg	0.0	168.9798691772703	0.11670057472656481
153.0	76.99893778223122	pulse	1.0	t		character	word-119.jpg	0.0	169.07164642244697	
154.0	77.02386111178112	word	0.0		46.0	character	word-52.jpg	0.0	169.09656975199687	0.3832855400742119
154.0	77.40714665185533	ISI	1.0		7.0	character	word-52.jpg	0.0	169.47985529207108	0.11668065248341009
155.0	77.52382730433874	word	0.0		46.0	character	word-87.jpg	0.0	169.5965359445545	0.3833036512041872
155.0	77.698918161841	pulse	0.0	t		character	word-87.jpg	0.0	169.77162680205674	
155.0	77.90713095554293	ISI	1.0		7.0	character	word-87.jpg	0.0	169.97983959575868	0.11669604694361624
156.0	78.02382700248654	body	0.0		46.0	body	body-75.jpg	0.0	170.0965356427023	0.38327557895263453
156.0	78.39890065441523	pulse	0.0	t		body	body-75.jpg	0.0	170.47160929463098	
156.0	78.40710258143918	ISI	1.0		7.0	body	body-75.jpg	0.0	170.47981122165493	0.11672351549077575
157.0	78.52382609692995	body	0.0		46.0	body	body-139.jpg	0.0	170.5965347371457	0.38330727343054605
157.0	78.9071333703605	ISI	1.0		6.0	body	body-139.jpg	0.0	170.97984201057625	0.11670238583883474
158.0	79.02383575619933	body	0.0		46.0	body	body-134.jpg	0.0	171.09654439641508	0.38329459563919954
158.0	79.09890940812784	pulse	0.0	t		body	body-134.jpg	0.0	171.1716180483436	
158.0	79.40713035183853	ISI	1.0		7.0	body	body-134.jpg	0.0	171.47983899205428	0.11668819878741488
159.0	79.52381855062595	body	0.0		46.0	body	body-104.jpg	0.0	171.5965271908417	0.3832568641182661
159.0	79.79885628214652	pulse	0.0	t		body	body-104.jpg	0.0	171.87156492236227	
159.0	79.90707541474421	ISI	1.0		7.0	body	body-104.jpg	0.0	171.97978405495996	0.1166921228659703
160.0	80.02376753761018	body	0.0		46.0	body	body-111.jpg	0.0	172.09647617782593	0.3832897660040544
160.0	80.40705730361424	ISI	1.0		5.0	body	body-111.jpg	0.0	172.47976594383	0.1166996691699751
160.0	80.49883907657386	pulse	1.0	t		body	body-111.jpg	0.0	172.5715477167896	
161.0	80.52375697278421	body	0.0		46.0	body	body-38.jpg	0.0	172.59646561299996	0.3832843326654256
161.0	80.90704130544964	ISI	1.0		7.0	body	body-38.jpg	0.0	172.9797499456654	0.11666012653677171
162.0	81.02370143198641	body	0.0		46.0	body	body-109.jpg	0.0	173.09641007220216	0.3833271956727913
162.0	81.19880647654008	pulse	0.0	t		body	body-109.jpg	0.0	173.27151511675584	
162.0	81.4070286276592	ISI	1.0		7.0	body	body-109.jpg	0.0	173.47973726787495	0.11670751732617646
163.0	81.52373614498538	body	0.0		46.0	body	body-102.jpg	0.0	173.59644478520113	0.3832813141434599
163.0	81.8987666320536	pulse	0.0	t		body	body-102.jpg	0.0	173.97147527226934	
163.0	81.90701745912884	ISI	1.0		7.0	body	body-102.jpg	0.0	173.9797260993446	0.11668487841416209
164.0	82.023702337543	body	0.0		46.0	body	body-102.jpg	1.0	174.09641097775875	0.3832951993426832
164.0	82.40699753688568	ISI	1.0		6.0	body	body-102.jpg	1.0	174.47970617710143	0.11668819878832437
165.0	82.52368573567401	body	0.0		46.0	body	body-98.jpg	0.0	174.59639437588976	0.38330002897782833
165.0	82.59877387650613	pulse	0.0	t		body	body-98.jpg	0.0	174.67148251672188	
165.0	82.65707239622316	response	0.0	b		body	body-98.jpg	0.0	174.7297810364389	
165.0	82.90698576465184	ISI	1.0		7.0	body	body-98.jpg	0.0	174.9796944048676	0.11669242471816688
166.0	83.02367818937	body	0.0		46.0	body	body-122.jpg	0.0	175.09638682958575	0.3832825215522462
166.0	83.2987530487062	pulse	0.0	t		body	body-122.jpg	0.0	175.37146168892195	
166.0	83.40696071092225	ISI	1.0		7.0	body	body-122.jpg	0.0	175.479669351138	0.11668457656105602
167.0	83.5236452874833	body	0.0		46.0	body	body-15.jpg	0.0	175.59635392769906	0.3833078771340297
167.0	83.90695316461733	ISI	1.0		5.0	body	body-15.jpg	0.0	175.97966180483309	0.1166996691699751
167.0	83.99874248388096	pulse	1.0	t		body	body-15.jpg	0.0	176.0714511240967	
168.0	84.02365283378731	word	0.0		46.0	character	word-51.jpg	0.0	176.09636147400306	0.38328584192640847
168.0	84.40693867571372	ISI	1.0		7.0	character	word-51.jpg	0.0	176.47964731592947	0.11667582284917444
169.0	84.52361449856289	word	0.0		46.0	character	word-22.jpg	0.0	176.59632313877864	0.3833087826906194
169.0	84.69871350607264	pulse	0.0	t		character	word-22.jpg	0.0	176.7714221462884	
169.0	84.90692328125351	ISI	1.0		6.0	character	word-22.jpg	0.0	176.97963192146926	0.1166996691699751
170.0	85.02362295042349	word	0.0		46.0	character	word-100.jpg	0.0	177.09633159063924	0.3832876530386784
170.0	85.39869780976005	pulse	0.0	t		character	word-100.jpg	0.0	177.4714064499758	
170.0	85.40691060346217	ISI	1.0		7.0	character	word-100.jpg	0.0	177.47961924367792	0.1166984617620983
171.0	85.52360906522426	word	0.0		46.0	character	word-108.jpg	0.0	177.59631770544001	0.3833163289946242
171.0	85.90692539421889	ISI	1.0		6.0	character	word-108.jpg	0.0	177.97963403443464	0.11670087657876138
172.0	86.02362627079765	word	0.0		46.0	character	word-40.jpg	0.0	178.0963349110134	0.38328795489087497
172.0	86.0987038468038	pulse	0.0	t		character	word-40.jpg	0.0	178.17141248701955	
172.0	86.40691422568852	ISI	1.0		6.0	character	word-40.jpg	0.0	178.47962286590428	0.11669634879581281
173.0	86.52361057448434	word	0.0		46.0	character	word-128.jpg	0.0	178.5963192147001	0.3832864456308016
173.0	86.79868301900387	pulse	0.0	t		character	word-128.jpg	0.0	178.87139165921963	
173.0	86.90689702011514	ISI	1.0		6.0	character	word-128.jpg	0.0	178.9796056603309	0.11669876361338538
174.0	87.02359578372852	word	0.0		46.0	character	word-30.jpg	0.0	179.09630442394428	0.3832683345008263
174.0	87.40686411822935	ISI	1.0		6.0	character	word-30.jpg	0.0	179.4795727584451	0.12503018521601916
174.0	87.49869599864724	pulse	1.0	t		character	word-30.jpg	0.0	179.571404638863	
175.0	87.53189430344537	word	0.0		45.0	character	word-120.jpg	0.0	179.60460294366112	0.3749459684622707
175.0	87.90684027190764	ISI	1.0		6.0	character	word-120.jpg	0.0	179.9795489121234	0.11671295066571474
176.0	88.02355322257336	word	0.0		46.0	character	word-89.jpg	0.0	180.0962618627891	0.3833015382388112
176.0	88.19864075970145	pulse	0.0	t		character	word-89.jpg	0.0	180.2713493999172	
176.0	88.40685476081217	ISI	1.0		6.0	character	word-89.jpg	0.0	180.47956340102792	0.11669695250020595
177.0	88.52355171331237	word	0.0		46.0	character	word-68.jpg	0.0	180.59626035352812	0.38328614377860504
177.0	88.89861751708486	pulse	0.0	t		character	word-68.jpg	0.0	180.9713261573006	
177.0	88.90683785709098	ISI	1.0		6.0	character	word-68.jpg	0.0	180.97954649730673	0.11669906546558195
178.0	89.02353692255656	word	0.0		46.0	character	word-15.jpg	0.0	181.0962455627723	0.3832526381875141
178.0	89.40678956074407	ISI	1.0		7.0	character	word-15.jpg	0.0	181.47949820095982	0.11669725435331202
179.0	89.52348681509739	word	0.0		46.0	character	word-129.jpg	0.0	181.59619545531314	0.38328795489087497
179.0	89.59856439110354	pulse	0.0	t		character	word-129.jpg	0.0	181.6712730313193	
179.0	89.90677476998826	ISI	1.0		5.0	character	word-129.jpg	0.0	181.979483410204	0.11668276544878609
180.0	90.02345753543705	adult	0.0		46.0	face	adult-81.jpg	0.0	182.0961661756528	0.38330395305638376
180.0	90.29854899664315	pulse	0.0	t		face	adult-81.jpg	0.0	182.3712576368589	
180.0	90.40676148849343	ISI	1.0		7.0	face	adult-81.jpg	0.0	182.47947012870918	0.11669634879581281
181.0	90.52345783728924	adult	0.0		46.0	face	adult-108.jpg	0.0	182.596166477505	0.38328735118648183
181.0	90.90674518847572	ISI	1.0		7.0	face	adult-108.jpg	0.0	182.97945382869148	0.11670117843095795
181.0	90.99852454661777	pulse	1.0	t		face	adult-108.jpg	0.0	183.07123318683352	
182.0	91.02344636690668	adult	0.0		46.0	face	adult-23.jpg	0.0	183.09615500712243	0.38328795489178447
182.0	91.40673432179847	ISI	1.0		7.0	face	adult-23.jpg	0.0	183.47944296201422	0.11667431358819158
183.0	91.52340863538666	adult	0.0		46.0	face	adult-122.jpg	0.0	183.5961172756024	0.38330848083842284
183.0	91.69850160585338	pulse	0.0	t		face	adult-122.jpg	0.0	183.77121024606913	
183.0	91.90671711622508	ISI	1.0		7.0	face	adult-122.jpg	0.0	183.97942575644083	0.11669634879581281
184.0	92.0234134650209	adult	0.0		46.0	face	adult-65.jpg	0.0	184.09612210523665	0.3832888604474647
184.0	92.39848379657542	pulse	0.0	t		face	adult-65.jpg	0.0	184.47119243679117	
184.0	92.40670232546836	ISI	1.0		7.0	face	adult-65.jpg	0.0	184.4794109656841	0.11669785805770516
185.0	92.52340018352606	adult	0.0		46.0	face	adult-54.jpg	0.0	184.59610882374182	0.3832867474820887
185.0	92.90668693100815	ISI	1.0		7.0	face	adult-54.jpg	0.0	184.9793955712239	0.11669846176118881
186.0	93.02338539276934	adult	0.0		46.0	face	adult-54.jpg	1.0	185.0960940329851	0.38327527710043796
186.0	93.09846749655844	pulse	0.0	t		face	adult-54.jpg	1.0	185.1711761367742	
186.0	93.40666066986978	ISI	1.0		7.0	face	adult-54.jpg	1.0	185.47936931008553	0.11670872473496274
187.0	93.52336939460474	adult	0.0		46.0	face	adult-116.jpg	0.0	185.5960780348205	0.3832873511873913
187.0	93.69011253048666	response	0.0	b		face	adult-116.jpg	0.0	185.7628211707024	
187.0	93.7984240298465	pulse	0.0	t		face	adult-116.jpg	0.0	185.87113267006225	
187.0	93.90665674579213	ISI	1.0		7.0	face	adult-116.jpg	0.0	185.97936538600788	0.11671868585563061
188.0	94.02337543164776	adult	0.0		46.0	face	adult-88.jpg	0.0	186.09608407186352	0.38325324189281673
188.0	94.40662867354058	ISI	1.0		7.0	face	adult-88.jpg	0.0	186.47933731375633	0.11671174325692846
188.0	94.49841889835989	pulse	1.0	t		face	adult-88.jpg	0.0	186.57112753857564	
189.0	94.52334041679751	adult	0.0		46.0	face	adult-104.jpg	0.0	186.59604905701326	0.38329006785625097
189.0	94.90663048465376	ISI	1.0		7.0	face	adult-104.jpg	0.0	186.9793391248695	0.11669483953482995
190.0	95.02332532418859	adult	0.0		46.0	face	adult-16.jpg	0.0	187.09603396440434	0.38331693269901734
190.0	95.1984355002287	pulse	0.0	t		face	adult-16.jpg	0.0	187.27114414044445	
190.0	95.40664225688761	ISI	1.0		7.0	face	adult-16.jpg	0.0	187.47935089710336	0.11670057472656481
191.0	95.52334283161417	adult	0.0		46.0	face	adult-140.jpg	0.0	187.59605147182992	0.3832568641182661
191.0	95.89838026128291	pulse	0.0	t		face	adult-140.jpg	0.0	187.97108890149866	
191.0	95.90659969573244	ISI	1.0		5.0	face	adult-140.jpg	0.0	187.9793083359482	0.11669574509232916
192.0	96.02329544082477	house	0.0		46.0	place	house-45.jpg	0.0	188.09600408104052	0.3832864456298921
192.0	96.40658188645466	ISI	1.0		6.0	place	house-45.jpg	0.0	188.4792905266704	0.11669936731777852
193.0	96.52328125377244	house	0.0		46.0	place	house-133.jpg	0.0	188.5959898939882	0.3832855400742119
193.0	96.5983591316317	pulse	0.0	t		place	house-133.jpg	0.0	188.67106777184745	
193.0	96.90656679384665	ISI	1.0		4.0	place	house-133.jpg	0.0	188.9792754340624	0.1166975562045991
194.0	97.02326435005125	house	0.0		46.0	place	house-38.jpg	0.0	189.095972990267	0.38326048634462495
194.0	97.2983358890142	pulse	0.0	t		place	house-38.jpg	0.0	189.37104452922995	
194.0	97.40652483639587	ISI	1.0		6.0	place	house-38.jpg	0.0	189.47923347661163	0.11672683586493804
195.0	97.52325167226081	house	0.0		46.0	place	house-123.jpg	0.0	189.59596031247656	0.38328191784785304
195.0	97.90653359010867	ISI	1.0		7.0	place	house-123.jpg	0.0	189.97924223032442	0.11668819878741488
195.0	97.99831566491957	pulse	1.0	t		place	house-123.jpg	0.0	190.07102430513532	
196.0	98.02322178889608	house	0.0		46.0	place	house-123.jpg	1.0	190.09593042911183	0.3833027456475975
196.0	98.40652453454368	ISI	1.0		4.0	place	house-123.jpg	1.0	190.47923317475943	0.11670148028315452
197.0	98.52322601482683	house	0.0		46.0	place	house-56.jpg	0.0	190.59593465504258	0.3832813141434599
197.0	98.63996462292562	response	0.0	b		place	house-56.jpg	0.0	190.71267326314137	
197.0	98.69825680374743	pulse	0.0	t		place	house-56.jpg	0.0	190.77096544396318	
197.0	98.90650732897029	ISI	1.0		6.0	place	house-56.jpg	0.0	190.97921596918604	0.11668729323082516
198.0	99.02319462220112	house	0.0		46.0	place	house-100.jpg	0.0	191.09590326241687	0.38329972712563176
198.0	99.39827521672942	pulse	0.0	t		place	house-100.jpg	0.0	191.47098385694517	
198.0	99.40649434932675	ISI	1.0		6.0	place	house-100.jpg	0.0	191.4792029895425	0.11669695250111545
199.0	99.52319130182786	house	0.0		46.0	place	house-79.jpg	0.0	191.59589994204362	0.38328704933428526
199.0	99.90647835116215	ISI	1.0		5.0	place	house-79.jpg	0.0	191.9791869913779	0.11668397285757237
200.0	100.02316232401972	house	0.0		46.0	place	house-21.jpg	0.0	192.09587096423547	0.3833027456475975
200.0	100.09825589819047	pulse	0.0	t		place	house-21.jpg	0.0	192.17096453840622	
200.0	100.40646506966732	ISI	1.0		7.0	place	house-21.jpg	0.0	192.47917370988307	0.11669695250020595
201.0	100.52316202216753	house	0.0		46.0	place	house-18.jpg	0.0	192.59587066238328	0.3832864456308016
201.0	100.79823657965244	pulse	0.0	t		place	house-18.jpg	0.0	192.8709452198682	
201.0	100.90644846779833	ISI	1.0		7.0	place	house-18.jpg	0.0	192.97915710801408	0.11669242471816688
202.0	101.0231408925165	house	0.0		46.0	place	house-17.jpg	0.0	193.09584953273225	0.38329248267291405
202.0	101.40643337518941	ISI	1.0		7.0	place	house-17.jpg	0.0	193.47914201540516	0.11670027287436824
202.0	101.49821062036608	pulse	1.0	t		place	house-17.jpg	0.0	193.57091926058183	
203.0	101.52313364806378	house	0.0		46.0	place	house-1.jpg	0.0	193.59584228827953	0.3833163289946242
203.0	101.9064499770584	ISI	1.0		7.0	place	house-1.jpg	0.0	193.97915861727415	0.11670148028315452
204.0	102.02315145734156	adult	0.0		46.0	face	adult-34.jpg	0.0	194.0958600975573	0.38328825674398104
204.0	102.19822993890466	pulse	0.0	t		face	adult-34.jpg	0.0	194.2709385791204	
204.0	102.40643971408554	ISI	1.0		7.0	face	adult-34.jpg	0.0	194.4791483543013	0.11669574509141967
205.0	102.52313545917696	adult	0.0		46.0	face	adult-121.jpg	0.0	194.5958440993927	0.38328946415185783
205.0	102.89820337591391	pulse	0.0	t		face	adult-121.jpg	0.0	194.97091201612966	
205.0	102.90642492332881	ISI	1.0		7.0	face	adult-121.jpg	0.0	194.97913356354456	0.11669544324013259
206.0	103.02312036656895	adult	0.0		46.0	face	adult-98.jpg	0.0	195.0958290067847	0.3832961048992729
206.0	103.40641647146822	ISI	1.0		7.0	face	adult-98.jpg	0.0	195.47912511168397	0.1166676728407765
207.0	103.523084144309	adult	0.0		46.0	face	adult-117.jpg	0.0	195.59579278452475	0.3833121030647817
207.0	103.59818043514952	pulse	0.0	t		face	adult-117.jpg	0.0	195.67088907536527	
207.0	103.90639624737378	ISI	1.0		7.0	face	adult-117.jpg	0.0	195.97910488758953	0.11669483953482995
208.0	104.02309108690861	adult	0.0		46.0	face	adult-128.jpg	0.0	196.09579972712436	0.38327316413506196
208.0	104.29816443698473	pulse	0.0	t		face	adult-128.jpg	0.0	196.37087307720049	
208.0	104.40636425104367	ISI	1.0		7.0	face	adult-128.jpg	0.0	196.47907289125942	0.11671415807450103
209.0	104.52307840911817	adult	0.0		46.0	face	adult-40.jpg	0.0	196.59578704933392	0.38328282340444275
209.0	104.90636123252261	ISI	1.0		7.0	face	adult-40.jpg	0.0	196.97906987273836	0.1250265629905698
209.0	104.99817319069734	pulse	1.0	t		face	adult-40.jpg	0.0	197.0708818309131	
210.0	105.03138779551318	adult	0.0		45.0	face	adult-42.jpg	0.0	197.10409643572893	0.3749586462527077
210.0	105.40634644176589	ISI	1.0		7.0	face	adult-42.jpg	0.0	197.47905508198164	0.11670148028315452
211.0	105.52304792204905	adult	0.0		46.0	face	adult-53.jpg	0.0	197.5957565622648	0.3832843326654256
211.0	105.69812006471693	pulse	0.0	t		face	adult-53.jpg	0.0	197.77082870493268	
211.0	105.90633225471447	ISI	1.0		7.0	face	adult-53.jpg	0.0	197.97904089493022	0.1166996691699751
212.0	106.02303192388445	adult	0.0		46.0	face	adult-112.jpg	0.0	198.0957405641002	0.38328946415185783
212.0	106.39809561469156	pulse	0.0	t		face	adult-112.jpg	0.0	198.4708042549073	
212.0	106.4063213880363	ISI	1.0		7.0	face	adult-112.jpg	0.0	198.47903002825205	0.11667884137114015
213.0	106.52300022940744	adult	0.0		46.0	face	adult-66.jpg	0.0	198.5957088696232	0.38330425490767084
213.0	106.90630448431511	ISI	1.0		7.0	face	adult-66.jpg	0.0	198.97901312453087	0.11669151916157716
214.0	107.02299600347669	adult	0.0		46.0	face	adult-61.jpg	0.0	199.09570464369244	0.3832906715606441
214.0	107.09808022023117	pulse	0.0	t		face	adult-61.jpg	0.0	199.17078886044692	
214.0	107.40628667503734	ISI	1.0		4.0	face	adult-61.jpg	0.0	199.4789953152531	0.1166996691699751
215.0	107.52298634420731	adult	0.0		46.0	face	adult-12.jpg	0.0	199.59569498442306	0.38328795489178447
215.0	107.7980548646492	pulse	0.0	t		face	adult-12.jpg	0.0	199.87076350486495	
215.0	107.9062742990991	ISI	1.0		6.0	face	adult-12.jpg	0.0	199.97898293931485	0.11670117843095795
216.0	108.02297547753005	word	0.0		46.0	character	word-81.jpg	0.0	200.0956841177458	0.3832523363353175
216.0	108.40622781386537	ISI	1.0		7.0	character	word-81.jpg	0.0	200.47893645408112	0.11669725435240252
216.0	108.49800143681568	pulse	1.0	t		character	word-81.jpg	0.0	200.57071007703144	
217.0	108.52292506821777	word	0.0		46.0	character	word-88.jpg	0.0	200.59563370843352	0.3832852382220153
217.0	108.90621030643979	ISI	1.0		4.0	character	word-88.jpg	0.0	200.97891894665554	0.11669936731777852
218.0	109.02290967375757	word	0.0		46.0	character	word-65.jpg	0.0	201.09561831397332	0.3832855400742119
218.0	109.19795917751253	pulse	0.0	t		character	word-65.jpg	0.0	201.27066781772828	
218.0	109.40619521383178	ISI	1.0		6.0	character	word-65.jpg	0.0	201.47890385404753	0.11668246359658951
219.0	109.52287767742837	word	0.0		46.0	character	word-53.jpg	0.0	201.59558631764412	0.38330606602085027
219.0	109.89795978121674	pulse	0.0	t		character	word-53.jpg	0.0	201.9706684214325	
219.0	109.90618374344922	ISI	1.0		6.0	character	word-53.jpg	0.0	201.97889238366497	0.11667552099697787
220.0	110.0228592644462	word	0.0		46.0	character	word-10.jpg	0.0	202.09556790466195	0.38330214194320433
220.0	110.4061614063894	ISI	1.0		6.0	character	word-10.jpg	0.0	202.47887004660515	0.1167038950998176
221.0	110.52286530148922	word	0.0		46.0	character	word-44.jpg	0.0	202.59557394170497	0.3832864456308016
221.0	110.5979413682353	pulse	0.0	t		character	word-44.jpg	0.0	202.67065000845105	
221.0	110.90615174712002	ISI	1.0		7.0	character	word-44.jpg	0.0	202.97886038733577	0.11669725435240252
222.0	111.02284900147242	word	0.0		46.0	character	word-63.jpg	0.0	203.09555764168817	0.3832873511873913
222.0	111.29793593489649	pulse	0.0	t		character	word-63.jpg	0.0	203.37064457511224	
222.0	111.40613635265981	ISI	1.0		7.0	character	word-63.jpg	0.0	203.47884499287557	0.1166975562045991
223.0	111.52283390886441	word	0.0		46.0	character	word-63.jpg	1.0	203.59554254908016	0.38328735118648183
223.0	111.9061212600509	ISI	1.0		7.0	character	word-63.jpg	1.0	203.97882990026665	0.11669815990990173
223.0	111.99789850522757	pulse	1.0	t		character	word-63.jpg	1.0	204.07060714544332	
224.0	112.0228194199608	word	0.0		46.0	character	word-80.jpg	0.0	204.09552806017655	0.38328916229966126
224.0	112.16458217623313	response	0.0	b		character	word-80.jpg	0.0	204.23729081644888	
224.0	112.40610858226046	ISI	1.0		5.0	character	word-80.jpg	0.0	204.4788172224762	0.11669665064800938
225.0	112.52280523290847	word	0.0		46.0	character	word-11.jpg	0.0	204.59551387312422	0.3832867474829982
225.0	112.69785141629018	pulse	0.0	t		character	word-11.jpg	0.0	204.77056005650593	
225.0	112.90609198039147	ISI	1.0		6.0	character	word-11.jpg	0.0	204.97880062060722	0.11666103209245193
226.0	113.02275301248392	word	0.0		46.0	character	word-74.jpg	0.0	205.09546165269967	0.38332085677757277
226.0	113.39786137741157	pulse	0.0	t		character	word-74.jpg	0.0	205.47057001762732	
226.0	113.40607386926149	ISI	1.0		7.0	character	word-74.jpg	0.0	205.47878250947724	0.11670057472656481
227.0	113.52277444398806	word	0.0		46.0	character	word-112.jpg	0.0	205.5954830842038	0.3832864456298921
227.0	113.90606088961795	ISI	1.0		11.0	character	word-112.jpg	0.0	205.9787695298337	0.09997011663563171
228.0	114.00603100625358	baseline	0.0		48.0		baseline	0.0	206.07873964646933	0.4000830093455079
228.0	114.09790756079292	pulse	0.0	t			baseline	0.0	206.17061620100867	
228.0	114.40611401559909	ISI	1.0		11.0		baseline	0.0	206.47882265581484	0.09999969814816723
229.0	114.50611371374725	baseline	0.0		48.0		baseline	0.0	206.578822353963	0.399992755547828
229.0	114.79789639226237	pulse	0.0	t			baseline	0.0	206.87060503247812	
229.0	114.90610646929508	ISI	1.0		11.0		baseline	0.0	206.97881510951083	0.09999396295643237
230.0	115.00610043225151	baseline	0.0		48.0		baseline	0.0	207.07880907246727	0.3999873222091992
230.0	115.40608775446071	ISI	1.0		11.0		baseline	0.0	207.47879639467646	0.09999728333059466
230.0	115.497871942237	pulse	1.0	t			baseline	0.0	207.57058058245275	
231.0	115.50608503779131	baseline	0.0		48.0		baseline	0.0	207.57879367800706	0.3999885296179855
231.0	115.9060735674093	ISI	1.0		11.0		baseline	0.0	207.97878220762504	0.09999849073938094
232.0	116.00607205814867	baseline	0.0		48.0		baseline	0.0	208.07878069836443	0.39998037960867805
232.0	116.19783662553345	pulse	0.0	t			baseline	0.0	208.2705452657492	
232.0	116.40605243775735	ISI	1.0		11.0		baseline	0.0	208.4787610779731	0.09999607592180837
233.0	116.50604851367916	baseline	0.0		48.0		baseline	0.0	208.5787571538949	0.3999954722175971
233.0	116.89782334403844	pulse	0.0	t			baseline	0.0	208.9705319842542	
233.0	116.90604398589676	ISI	1.0		11.0		baseline	0.0	208.9787526261125	0.09999607592180837
234.0	117.00604006181857	baseline	0.0		48.0		baseline	0.0	209.07874870203432	0.3999894351745752
234.0	117.40602949699314	ISI	1.0		11.0		baseline	0.0	209.4787381372089	0.10000060370475694
235.0	117.5060301006979	baseline	0.0		48.0		baseline	0.0	209.57873874091365	0.3999818888696609
235.0	117.59780221438723	pulse	0.0	t			baseline	0.0	209.67051085460298	
235.0	117.90601198956756	ISI	1.0		11.0		baseline	0.0	209.9787206297833	0.09999728333059466
236.0	118.00600927289815	baseline	0.0		48.0		baseline	0.0	210.0787179131139	0.39998671850480605
236.0	118.29780221438705	pulse	0.0	t			baseline	0.0	210.3705108546028	
236.0	118.40599599140296	ISI	1.0		11.0		baseline	0.0	210.4787046316187	0.0999957740696118
237.0	118.50599176547257	baseline	0.0		48.0		baseline	0.0	210.57870040568832	0.39999517036540055
237.0	118.90598693583797	ISI	1.0		11.0		baseline	0.0	210.97869557605372	0.09999667962620151
237.0	118.99776659583131	pulse	1.0	t			baseline	0.0	211.07047523604706	
238.0	119.00598361546417	baseline	0.0		48.0		baseline	0.0	211.07869225567993	0.3999827944262506
238.0	119.40596640989042	ISI	1.0		11.0		baseline	0.0	211.47867505010618	0.09999879259157751
239.0	119.505965202482	baseline	0.0		48.0		baseline	0.0	211.57867384269775	0.3999885296179855
239.0	119.69774033469366	pulse	0.0	t			baseline	0.0	211.7704489749094	
239.0	119.90595373209999	ISI	1.0		7.0		baseline	0.0	211.97866237231574	0.1166634469100245
240.0	120.02261717901001	car	0.0		46.0	object	car-4.jpg	0.0	212.09532581922576	0.38328795489087497
240.0	120.3976823790772	pulse	0.0	t		object	car-4.jpg	0.0	212.47039101929295	
240.0	120.40590513390089	ISI	1.0		7.0	object	car-4.jpg	0.0	212.47861377411664	0.11667974692772987
241.0	120.52258488082862	car	0.0		46.0	object	car-53.jpg	0.0	212.59529352104437	0.3832598826393223
241.0	120.90584476346794	ISI	1.0		7.0	object	car-53.jpg	0.0	212.9785534036837	0.11670691362269281
242.0	121.02255167709063	car	0.0		46.0	object	car-105.jpg	0.0	213.09526031730638	0.3832749752473319
242.0	121.09763438458322	pulse	0.0	t		object	car-105.jpg	0.0	213.17034302479897	
242.0	121.40582665233796	ISI	1.0		7.0	object	car-105.jpg	0.0	213.47853529255372	0.1167102339959456
243.0	121.52253688633391	car	0.0		46.0	object	car-36.jpg	0.0	213.59524552654966	0.38329459563919954
243.0	121.79760842529686	pulse	0.0	t		object	car-36.jpg	0.0	213.8703170655126	
243.0	121.90583148197311	ISI	1.0		7.0	object	car-36.jpg	0.0	213.97854012218886	0.11669031175279088
244.0	122.0225217937259	car	0.0		46.0	object	car-111.jpg	0.0	214.09523043394165	0.3832876530386784
244.0	122.40580944676458	ISI	1.0		7.0	object	car-111.jpg	0.0	214.47851808698033	0.1166984617620983
244.0	122.49758880490663	pulse	1.0	t		object	car-111.jpg	0.0	214.57029744512238	
245.0	122.52250790852668	car	0.0		46.0	object	car-80.jpg	0.0	214.59521654874243	0.3832864456298921
245.0	122.90579435415657	ISI	1.0		7.0	object	car-80.jpg	0.0	214.97850299437232	0.11669906546558195
246.0	123.02249341962215	car	0.0		46.0	object	car-42.jpg	0.0	215.0952020598379	0.38328825674398104
246.0	123.19757129748086	pulse	0.0	t		object	car-42.jpg	0.0	215.2702799376966	
246.0	123.40578167636613	ISI	1.0		7.0	object	car-42.jpg	0.0	215.47849031658188	0.11668819878741488
247.0	123.52246987515355	car	0.0		46.0	object	car-33.jpg	0.0	215.5951785153693	0.38329761416025576
247.0	123.89754956412526	pulse	0.0	t		object	car-33.jpg	0.0	215.970258204341	
247.0	123.9057674893138	ISI	1.0		6.0	object	car-33.jpg	0.0	215.97847612952955	0.11669574509232916
248.0	124.02246323440613	car	0.0		46.0	object	car-39.jpg	0.0	216.09517187462188	0.3832761826570277
248.0	124.40573941706316	ISI	1.0		7.0	object	car-39.jpg	0.0	216.4784480572789	0.1167081210305696
249.0	124.52244753809373	car	0.0		46.0	object	car-72.jpg	0.0	216.59515617830948	0.38328825674307154
249.0	124.59771196058955	pulse	0.0	t		object	car-72.jpg	0.0	216.6704206008053	
249.0	124.9057357948368	ISI	1.0		7.0	object	car-72.jpg	0.0	216.97844443505255	0.11669574509141967
250.0	125.02243153992822	car	0.0		46.0	object	car-124.jpg	0.0	217.09514018014397	0.38328704933519475
250.0	125.29750760667412	pulse	0.0	t		object	car-124.jpg	0.0	217.37021624688987	
250.0	125.40571858926342	ISI	1.0		7.0	object	car-124.jpg	0.0	217.47842722947917	0.11669906546558195
251.0	125.522417654729	car	0.0		46.0	object	car-104.jpg	0.0	217.59512629494475	0.3832876530386784
251.0	125.90570530776768	ISI	1.0		6.0	object	car-104.jpg	0.0	217.97841394798343	0.11669815990990173
251.0	125.99749281591812	pulse	1.0	t		object	car-104.jpg	0.0	218.07020145613387	
252.0	126.02240346767758	car	0.0		46.0	object	car-35.jpg	0.0	218.09511210789333	0.3832867474820887
252.0	126.40569021515967	ISI	1.0		7.0	object	car-35.jpg	0.0	218.47839885537542	0.1166975562045991
253.0	126.52238777136427	car	0.0		46.0	object	car-35.jpg	1.0	218.59509641158002	0.38332236603855563
253.0	126.6974958344399	pulse	0.0	t		object	car-35.jpg	1.0	218.77020447465566	
253.0	126.90571013740282	ISI	1.0		7.0	object	car-35.jpg	1.0	218.97841877761857	0.11669846176118881
254.0	127.02240859916401	car	0.0		46.0	object	car-84.jpg	0.0	219.09511723937976	0.38325505300508667
254.0	127.1474490473538	response	0.0	b		object	car-84.jpg	0.0	219.22015768756955	
254.0	127.39744663253714	pulse	0.0	t		object	car-84.jpg	0.0	219.4701552727529	
254.0	127.4056636521691	ISI	1.0		7.0	object	car-84.jpg	0.0	219.47837229238485	0.11669333027475659
255.0	127.52235698244385	car	0.0		46.0	object	car-56.jpg	0.0	219.5950656226596	0.3832888604474647
255.0	127.90564584289132	ISI	1.0		7.0	object	car-56.jpg	0.0	219.97835448310707	0.11669815990990173
256.0	128.02234400280122	car	0.0		46.0	object	car-54.jpg	0.0	220.09505264301697	0.3832885585952681
256.0	128.09751937890815	pulse	0.0	t		object	car-54.jpg	0.0	220.1702280191239	
256.0	128.4056325613965	ISI	1.0		7.0	object	car-54.jpg	0.0	220.47834120161224	0.11669574509141967
257.0	128.5223283064879	car	0.0		46.0	object	car-90.jpg	0.0	220.59503694670366	0.3832885585961776
257.0	128.7973977324864	pulse	0.0	t		object	car-90.jpg	0.0	220.87010637270214	
257.0	128.90561686508408	ISI	1.0		7.0	object	car-90.jpg	0.0	220.97832550529984	0.11669695250020595
258.0	129.0223138175843	car	0.0		46.0	object	car-71.jpg	0.0	221.09502245780004	0.38328825674307154
258.0	129.40560207432736	ISI	1.0		7.0	object	car-71.jpg	0.0	221.4783107145431	0.11669906546558195
258.0	129.49738052691282	pulse	1.0	t		object	car-71.jpg	0.0	221.57008916712857	
259.0	129.52230113979294	car	0.0		46.0	object	car-66.jpg	0.0	221.5950097800087	0.3832852382220153
259.0	129.90558637801496	ISI	1.0		7.0	object	car-66.jpg	0.0	221.9782950182307	0.1167017821353511
260.0	130.0222881601503	car	0.0		46.0	object	car-123.jpg	0.0	222.09499680036606	0.3832852382220153
260.0	130.1973603028173	pulse	0.0	t		object	car-123.jpg	0.0	222.27006894303304	
260.0	130.40557339837233	ISI	1.0		5.0	object	car-123.jpg	0.0	222.47828203858808	0.11669665064800938
261.0	130.52227004902034	car	0.0		46.0	object	car-11.jpg	0.0	222.5949786892361	0.38328825674307154
261.0	130.89734068242706	pulse	0.0	t		object	car-11.jpg	0.0	222.9700493226428	
261.0	130.9055583057634	ISI	1.0		7.0	object	car-11.jpg	0.0	222.97826694597916	0.11669483953573945
262.0	131.02225314529915	car	0.0		46.0	object	car-110.jpg	0.0	223.0949617855149	0.38328825674307154
262.0	131.40554140204222	ISI	1.0		7.0	object	car-110.jpg	0.0	223.47825004225797	0.11667552099697787
263.0	131.5222169230392	car	0.0		46.0	object	car-113.jpg	0.0	223.59492556325495	0.3833108956559954
263.0	131.59732891019212	pulse	0.0	t		object	car-113.jpg	0.0	223.67003755040787	
263.0	131.9055278186952	ISI	1.0		11.0	object	car-113.jpg	0.0	223.97823645891094	0.09999637777400494
264.0	132.0055241964692	baseline	0.0		48.0		baseline	0.0	224.07823283668495	0.3999891333223786
264.0	132.29729661201054	pulse	0.0	t			baseline	0.0	224.3700052522263	
264.0	132.40551332979157	ISI	1.0		11.0		baseline	0.0	224.47822197000733	0.09999547221741523
265.0	132.505508802009	baseline	0.0		48.0		baseline	0.0	224.57821744222474	0.3999882277648794
265.0	132.90549702977387	ISI	1.0		11.0		baseline	0.0	224.97820566998962	0.09998007775720907
265.0	132.9972694453163	pulse	1.0	t			baseline	0.0	225.06997808553206	
266.0	133.00547710753108	baseline	0.0		48.0		baseline	0.0	225.07818574774683	0.4000730482239305
266.0	133.405550155755	ISI	1.0		11.0		baseline	0.0	225.47825879597076	0.09999758518279123
267.0	133.5055477409378	baseline	0.0		48.0		baseline	0.0	225.57825638115355	0.399977964792015
267.0	133.69732558981832	pulse	0.0	t			baseline	0.0	225.77003423003407	
267.0	133.90552570572981	ISI	1.0		11.0		baseline	0.0	225.97823434594557	0.10000573519118916
268.0	134.005531440921	baseline	0.0		48.0		baseline	0.0	226.07824008113676	0.399980077757391
268.0	134.3973050638715	pulse	0.0	t			baseline	0.0	226.47001370408725	
268.0	134.4055115186784	ISI	1.0		11.0		baseline	0.0	226.47822015889415	0.1000063388955823
269.0	134.50551785757398	baseline	0.0		48.0		baseline	0.0	226.57822649778973	0.3999882277648794
269.0	134.90550608533886	ISI	1.0		11.0		baseline	0.0	226.9782147255546	0.0999978870349878
270.0	135.00550397237384	baseline	0.0		48.0		baseline	0.0	227.0782126125896	0.3999885296179855
270.0	135.09728604718475	pulse	0.0	t			baseline	0.0	227.1699946874005	
270.0	135.40549250199183	ISI	1.0		11.0		baseline	0.0	227.47820114220758	0.09999486851302208
271.0	135.50548737050485	baseline	0.0		48.0		baseline	0.0	227.5781960107206	0.3999933592522211
271.0	135.79726340827256	pulse	0.0	t			baseline	0.0	227.8699720484883	
271.0	135.90548072975707	ISI	1.0		11.0		baseline	0.0	227.97818936997282	0.09999335925294872
272.0	136.00547408901002	baseline	0.0		48.0		baseline	0.0	228.07818272922577	0.39999003887805884
272.0	136.40546412788808	ISI	1.0		11.0		baseline	0.0	228.47817276810383	0.1000063388955823
272.0	136.49729812127134	pulse	1.0	t			baseline	0.0	228.5700067614871	
273.0	136.50547046678366	baseline	0.0		48.0		baseline	0.0	228.57817910699941	0.39997524812224583
273.0	136.9054457149059	ISI	1.0		11.0		baseline	0.0	228.97815435512166	0.09999275554855558
274.0	137.00543847045446	baseline	0.0		48.0		baseline	0.0	229.07814711067022	0.3999966796263834
274.0	137.19721209340514	pulse	0.0	t			baseline	0.0	229.2699207336209	
274.0	137.40543515008085	ISI	1.0		11.0		baseline	0.0	229.4781437902966	0.10000150926043716
275.0	137.50543665934129	baseline	0.0		48.0		baseline	0.0	229.57814529955704	0.39996739996604447
275.0	137.8972003211702	pulse	0.0	t			baseline	0.0	229.96990896138595	
275.0	137.90540405930733	ISI	1.0		11.0		baseline	0.0	229.97811269952308	0.10003139262516925
276.0	138.0054354519325	baseline	0.0		48.0		baseline	0.0	230.07814409214825	0.39994627031501295
276.0	138.4053817222475	ISI	1.0		11.0		baseline	0.0	230.47809036246326	0.10000241481702687
277.0	138.50538413706454	baseline	0.0		48.0		baseline	0.0	230.5780927772803	0.4000021129650122
277.0	138.597179191519	pulse	0.0	t			baseline	0.0	230.66988783173474	
277.0	138.90538625002955	ISI	1.0		11.0		baseline	0.0	230.9780948902453	0.10000543333899259
278.0	139.00539168336854	baseline	0.0		48.0		baseline	0.0	231.0781003235843	0.39998339813155326
278.0	139.29715776001467	pulse	0.0	t			baseline	0.0	231.36986640023042	
278.0	139.4053750815001	ISI	1.0		11.0		baseline	0.0	231.47808372171585	0.09999517036521866
279.0	139.50537025186532	baseline	0.0		48.0		baseline	0.0	231.57807889208107	0.39998883146927255
279.0	139.9053590833346	ISI	1.0		11.0		baseline	0.0	231.97806772355034	0.10000150926134665
279.0	139.9971502137114	pulse	1.0	t			baseline	0.0	232.06985885392714	
280.0	140.00536059259593	baseline	0.0		48.0		baseline	0.0	232.07806923281169	0.39998249257405405
280.0	140.40534308517	ISI	1.0		11.0		baseline	0.0	232.47805172538574	0.0999957740696118
281.0	140.5053388592396	baseline	0.0		48.0		baseline	0.0	232.57804749945535	0.39999215184434433
281.0	140.69711429330346	pulse	0.0	t			baseline	0.0	232.7698229335192	
281.0	140.90533101108394	ISI	1.0		11.0		baseline	0.0	232.9780396512997	0.0999957740696118
282.0	141.00532678515356	baseline	0.0		48.0		baseline	0.0	233.0780354253693	0.39998762406139576
282.0	141.39709255994785	pulse	0.0	t			baseline	0.0	233.4698012001636	
282.0	141.40531440921495	ISI	1.0		11.0		baseline	0.0	233.4780230494307	0.09999698147839808
283.0	141.50531139069335	baseline	0.0		48.0		baseline	0.0	233.5780200309091	0.3999882277648794
283.0	141.90529961845823	ISI	1.0		11.0		baseline	0.0	233.97800825867398	0.09999849073938094
284.0	142.0052981091976	baseline	0.0		48.0		baseline	0.0	234.07800674941336	0.39999818888736627
284.0	142.09708682475593	pulse	0.0	t			baseline	0.0	234.16979546497168	
284.0	142.40529629808498	ISI	1.0		11.0		baseline	0.0	234.47800493830073	0.09999969814725773
285.0	142.50529599623223	baseline	0.0		48.0		baseline	0.0	234.578004636448	0.39997373886217247
285.0	142.79705362101777	pulse	0.0	t			baseline	0.0	234.86976226123352	
285.0	142.9052697350944	ISI	1.0		11.0		baseline	0.0	234.97797837531016	0.09999667962620151
286.0	143.0052664147206	baseline	0.0		48.0		baseline	0.0	235.07797505493636	0.39999003887805884
286.0	143.40525645359867	ISI	1.0		11.0		baseline	0.0	235.47796509381442	0.09999426480953844
286.0	143.49704698027017	pulse	1.0	t			baseline	0.0	235.56975562048592	
287.0	143.5052507184082	baseline	0.0		48.0		baseline	0.0	235.57795935862396	0.39998671850389655
287.0	143.9052374369121	ISI	1.0		7.0		baseline	0.0	235.97794607712785	0.11666616357979365
288.0	144.0219036004919	adult	0.0		46.0	face	adult-31.jpg	0.0	236.09461224070765	0.3832846345176222
288.0	144.19697212093342	pulse	0.0	t		face	adult-31.jpg	0.0	236.26968076114917	
288.0	144.40518823500952	ISI	1.0		5.0	face	adult-31.jpg	0.0	236.47789687522527	0.11669936731777852
289.0	144.5218876023273	adult	0.0		46.0	face	adult-25.jpg	0.0	236.59459624254305	0.3832607881968215
289.0	144.89695582091645	pulse	0.0	t		face	adult-25.jpg	0.0	236.9696644611322	
289.0	144.90514839052412	ISI	1.0		7.0	face	adult-25.jpg	0.0	236.97785703073987	0.11674736181157641
290.0	145.0218957523357	adult	0.0		46.0	face	adult-19.jpg	0.0	237.09460439255145	0.3832619956056078
290.0	145.4051577479413	ISI	1.0		7.0	face	adult-19.jpg	0.0	237.47786638815705	0.11670087657876138
291.0	145.52185862452006	adult	0.0		46.0	face	adult-74.jpg	0.0	237.59456726473582	0.38328523822110583
291.0	145.596937407935	pulse	0.0	t		face	adult-74.jpg	0.0	237.66964604815075	
291.0	145.90514386274117	ISI	1.0		7.0	face	adult-74.jpg	0.0	237.97785250295692	0.11670057472656481
292.0	146.02184443746773	adult	0.0		46.0	face	adult-22.jpg	0.0	238.09455307768349	0.38328403081322904
292.0	146.29691688198727	pulse	0.0	t		face	adult-22.jpg	0.0	238.36962552220302	
292.0	146.40512846828096	ISI	1.0		7.0	face	adult-22.jpg	0.0	238.47783710849671	0.11670027287436824
293.0	146.52182874115533	adult	0.0		46.0	face	adult-26.jpg	0.0	238.59453738137108	0.3832864456308016
293.0	146.90511518678613	ISI	1.0		7.0	face	adult-26.jpg	0.0	238.97782382700188	0.12503109077260888
293.0	146.99693016348283	pulse	1.0	t		face	adult-26.jpg	0.0	239.06963880369858	
294.0	147.03014627755874	adult	0.0		45.0	face	adult-123.jpg	0.0	239.1028549177745	0.37495260920968576
294.0	147.40509888676843	ISI	1.0		7.0	face	adult-123.jpg	0.0	239.47780752698418	0.11669785805770516
295.0	147.52179674482613	adult	0.0		46.0	face	adult-38.jpg	0.0	239.59450538504188	0.38328795489087497
295.0	147.6968706986063	pulse	0.0	t		face	adult-38.jpg	0.0	239.76957933882204	
295.0	147.905084699717	ISI	1.0		7.0	face	adult-38.jpg	0.0	239.97779333993276	0.11670057472656481
296.0	148.02178527444357	adult	0.0		46.0	face	adult-38.jpg	1.0	240.09449391465932	0.38325927893583867
296.0	148.39685258747613	pulse	0.0	t		face	adult-38.jpg	1.0	240.46956122769188	
296.0	148.4050445533794	ISI	1.0		7.0	face	adult-38.jpg	1.0	240.47775319359516	0.11672653401274147
297.0	148.52177108739215	adult	0.0		46.0	face	adult-15.jpg	0.0	240.5944797276079	0.38328282340444275
297.0	148.68017434980993	response	0.0	b		face	adult-15.jpg	0.0	240.75288299002568	
297.0	148.9050539107966	ISI	1.0		7.0	face	adult-15.jpg	0.0	240.97776255101235	0.11670087657876138
298.0	149.02175478737536	adult	0.0		46.0	face	adult-55.jpg	0.0	241.0944634275911	0.38328523822110583
298.0	149.0968335707903	pulse	0.0	t		face	adult-55.jpg	0.0	241.16954221100605	
298.0	149.40504002559646	ISI	1.0		7.0	face	adult-55.jpg	0.0	241.47774866581221	0.11666797469297308
299.0	149.52170800028944	adult	0.0		46.0	face	adult-95.jpg	0.0	241.5944166405052	0.38331602714242763
299.0	149.79680489483417	pulse	0.0	t		face	adult-95.jpg	0.0	241.86951353504992	
299.0	149.90502402743186	ISI	1.0		7.0	face	adult-95.jpg	0.0	241.97773266764762	0.11669121730938059
300.0	150.02171524474124	adult	0.0		46.0	face	adult-82.jpg	0.0	242.094423884957	0.3832961049001824
300.0	150.40501134964143	ISI	1.0		7.0	face	adult-82.jpg	0.0	242.47771998985718	0.12503018521601916
300.0	150.4968368911641	pulse	1.0	t		face	adult-82.jpg	0.0	242.56954553137984	
301.0	150.53004153485745	adult	0.0		45.0	face	adult-82.jpg	1.0	242.6027501750732	0.3749535147662755
301.0	150.90499504962372	ISI	1.0		7.0	face	adult-82.jpg	1.0	242.97770368983947	0.11665620245821628
302.0	151.02165125208194	adult	0.0		46.0	face	adult-84.jpg	0.0	243.0943598922977	0.383330214194757
302.0	151.19677169109582	pulse	0.0	t		face	adult-84.jpg	0.0	243.26948033131157	
302.0	151.23006839970003	response	0.0	b		face	adult-84.jpg	0.0	243.30277703991578	
302.0	151.4049814662767	ISI	1.0		7.0	face	adult-84.jpg	0.0	243.47769010649245	0.11670087657876138
303.0	151.52168234285546	adult	0.0		46.0	face	adult-132.jpg	0.0	243.5943909830712	0.3832855400742119
303.0	151.89720303783997	pulse	0.0	t		face	adult-132.jpg	0.0	243.96991167805572	
303.0	151.90496788292967	ISI	1.0		7.0	face	adult-132.jpg	0.0	243.97767652314542	0.11669997102217167
304.0	152.02166785395184	adult	0.0		46.0	face	adult-100.jpg	0.0	244.0943764941676	0.38328191784785304
304.0	152.4049497717997	ISI	1.0		7.0	face	adult-100.jpg	0.0	244.47765841201544	0.11670359324762103
305.0	152.5216533650473	adult	0.0		46.0	face	adult-78.jpg	0.0	244.59436200526306	0.3832822197000496
305.0	152.59673305401884	pulse	0.0	t		face	adult-78.jpg	0.0	244.6694416942346	
305.0	152.90493558474736	ISI	1.0		7.0	face	adult-78.jpg	0.0	244.97764422496311	0.11667853951894358
306.0	153.0216141242663	adult	0.0		46.0	face	adult-9.jpg	0.0	245.09432276448206	0.3833078771340297
306.0	153.29670739658468	pulse	0.0	t		face	adult-9.jpg	0.0	245.36941603680043	
306.0	153.40492200140034	ISI	1.0		7.0	face	adult-9.jpg	0.0	245.4776306416161	0.11669846176118881
307.0	153.52162046316153	adult	0.0		46.0	face	adult-27.jpg	0.0	245.59432910337728	0.38327346598725853
307.0	153.90489392914878	ISI	1.0		7.0	face	adult-27.jpg	0.0	245.97760256936454	0.12504648523372452
307.0	153.99671916881925	pulse	1.0	t		face	adult-27.jpg	0.0	246.069427809035	
308.0	154.0299404143825	adult	0.0		45.0	face	adult-30.jpg	0.0	246.10264905459826	0.3749565332882412
308.0	154.40489694767075	ISI	1.0		7.0	face	adult-30.jpg	0.0	246.4776055878865	0.11669453768263338
309.0	154.52159148535338	adult	0.0		46.0	face	adult-87.jpg	0.0	246.59430012556913	0.3832973123089687
309.0	154.69666725024672	pulse	0.0	t		face	adult-87.jpg	0.0	246.76937589046247	
309.0	154.90488879766235	ISI	1.0		7.0	face	adult-87.jpg	0.0	246.9775974378781	0.11668759508302173
310.0	155.02157639274537	adult	0.0		46.0	face	adult-37.jpg	0.0	247.09428503296112	0.3832746733960448
310.0	155.39665155393413	pulse	0.0	t		face	adult-37.jpg	0.0	247.46936019414989	
310.0	155.40485106614142	ISI	1.0		7.0	face	adult-37.jpg	0.0	247.47755970635717	0.11671113955253531
311.0	155.52156220569395	adult	0.0		46.0	face	adult-2.jpg	0.0	247.5942708459097	0.38328735118648183
311.0	155.90484955688044	ISI	1.0		7.0	face	adult-2.jpg	0.0	247.9775581970962	0.11667250247501215
312.0	156.02152205935545	body	0.0		46.0	body	body-22.jpg	0.0	248.0942306995712	0.383309084542816
312.0	156.09662227427452	pulse	0.0	t		body	body-22.jpg	0.0	248.16933091449027	
312.0	156.40483114389826	ISI	1.0		7.0	body	body-22.jpg	0.0	248.47753978411401	0.1166773321101573
313.0	156.52150847600842	body	0.0		46.0	body	body-66.jpg	0.0	248.59421711622417	0.38331029195160227
313.0	156.7966026538843	pulse	0.0	t		body	body-66.jpg	0.0	248.86931129410004	
313.0	156.90481876796002	ISI	1.0		7.0	body	body-66.jpg	0.0	248.97752740817577	0.11670057472656481
314.0	157.0215193426866	body	0.0		46.0	body	body-8.jpg	0.0	249.09422798290234	0.3832825215522462
314.0	157.40480186423883	ISI	1.0		7.0	body	body-8.jpg	0.0	249.47751050445459	0.1250329018857883
314.0	157.4966114075969	pulse	1.0	t		body	body-8.jpg	0.0	249.56932004781265	
315.0	157.52983476612462	body	0.0		45.0	body	body-4.jpg	0.0	249.60254340634037	0.3749254425156323
315.0	157.90476020864025	ISI	1.0		7.0	body	body-4.jpg	0.0	249.977468848856	0.11674132476855448
316.0	158.0215015334088	body	0.0		46.0	body	body-17.jpg	0.0	250.09421017362456	0.3832746733960448
316.0	158.19658333534517	pulse	0.0	t		body	body-17.jpg	0.0	250.26929197556092	
316.0	158.40477620680485	ISI	1.0		4.0	body	body-17.jpg	0.0	250.4774848470206	0.11669393397824024
317.0	158.5214701407831	body	0.0		46.0	body	body-59.jpg	0.0	250.59417878099885	0.3832906715606441
317.0	158.8965419815986	pulse	0.0	t		body	body-59.jpg	0.0	250.96925062181435	
317.0	158.90476081234374	ISI	1.0		7.0	body	body-59.jpg	0.0	250.9774694525595	0.11667914322333672
318.0	159.02143995556708	body	0.0		46.0	body	body-142.jpg	0.0	251.09414859578283	0.3833036512032777
318.0	159.40474360677035	ISI	1.0		7.0	body	body-142.jpg	0.0	251.4774522469861	0.11667853951894358
319.0	159.5214221462893	body	0.0		46.0	body	body-136.jpg	0.0	251.59413078650505	0.3833045567598674
319.0	159.5965208519474	pulse	0.0	t		body	body-136.jpg	0.0	251.66922949216314	
319.0	159.90472670304916	ISI	1.0		7.0	body	body-136.jpg	0.0	251.97743534326491	0.11668306730098266
320.0	160.02140977035015	body	0.0		46.0	body	body-43.jpg	0.0	252.0941184105659	0.3833033493519906
320.0	160.29649579821762	pulse	0.0	t		body	body-43.jpg	0.0	252.36920443843337	
320.0	160.40471311970214	ISI	1.0		7.0	body	body-43.jpg	0.0	252.4774217599179	0.11668397285757237
321.0	160.5213970925597	body	0.0		46.0	body	body-30.jpg	0.0	252.59410573277546	0.38330002897782833
321.0	160.90469712153754	ISI	1.0		7.0	body	body-30.jpg	0.0	252.9774057617533	0.1250362222599506
321.0	160.99650847600878	pulse	1.0	t		body	body-30.jpg	0.0	253.06921711622454	
322.0	161.0297333437975	body	0.0		45.0	body	body-132.jpg	0.0	253.10244198401324	0.3749363091928899
322.0	161.40466965299038	ISI	1.0		7.0	body	body-132.jpg	0.0	253.47737829320613	0.11670630991739017
323.0	161.52137596290777	body	0.0		46.0	body	body-56.jpg	0.0	253.59408460312352	0.38328825674398104
323.0	161.6964607833661	pulse	0.0	t		body	body-56.jpg	0.0	253.76916942358184	
323.0	161.90466421965175	ISI	1.0		7.0	body	body-56.jpg	0.0	253.9773728598675	0.11670298954322789
324.0	162.02136720919498	car	0.0		46.0	object	car-47.jpg	0.0	254.09407584941073	0.38324569558881194
324.0	162.3964067518291	pulse	0.0	t		object	car-47.jpg	0.0	254.46911539204484	
324.0	162.4046129047838	ISI	1.0		5.0	object	car-47.jpg	0.0	254.47732154499954	0.11670480065640731
325.0	162.5213177054402	car	0.0		46.0	object	car-140.jpg	0.0	254.59402634565595	0.3832876530386784
325.0	162.90460535847888	ISI	1.0		7.0	object	car-140.jpg	0.0	254.97731399869463	0.11669815990990173
326.0	163.02130351838878	car	0.0		46.0	object	car-140.jpg	1.0	255.09401215860453	0.3832888604474647
326.0	163.09639014995992	pulse	0.0	t		object	car-140.jpg	1.0	255.16909879017567	
326.0	163.40459237883624	ISI	1.0		7.0	object	car-140.jpg	1.0	255.477301019052	0.11669665064800938
327.0	163.52128902948425	car	0.0		46.0	object	car-99.jpg	0.0	255.5939976697	0.3832607881968215
327.0	163.54638230180353	response	0.0	b		object	car-99.jpg	0.0	255.61909094201928	
327.0	163.79660386129217	pulse	0.0	t		object	car-99.jpg	0.0	255.86931250150792	
327.0	163.90454981768107	ISI	1.0		7.0	object	car-99.jpg	0.0	255.97725845789682	0.11673800439439219
328.0	164.02128782207546	car	0.0		46.0	object	car-134.jpg	0.0	256.0939964622912	0.38327346598725853
328.0	164.40456128806272	ISI	1.0		7.0	object	car-134.jpg	0.0	256.4772699282785	0.11666737098857993
328.0	164.4964574629921	pulse	1.0	t		object	car-134.jpg	0.0	256.56916610320786	
329.0	164.5212286590513	car	0.0		46.0	object	car-48.jpg	0.0	256.59393729926705	0.38335104199359193
329.0	164.9045797010449	ISI	1.0		7.0	object	car-48.jpg	0.0	256.97728834126065	0.1166697858061525
330.0	165.02124948685105	car	0.0		46.0	object	car-115.jpg	0.0	257.0939581270668	0.3832867474820887
330.0	165.19642486295834	pulse	0.0	t		object	car-115.jpg	0.0	257.2691335031741	
330.0	165.40453623433314	ISI	1.0		5.0	object	car-115.jpg	0.0	257.4772448745489	0.11671506363109074
331.0	165.52125129796423	car	0.0		46.0	object	car-120.jpg	0.0	257.59395993818	0.38327980488247704
331.0	165.89640343145493	pulse	0.0	t		object	car-120.jpg	0.0	257.9691120716707	
331.0	165.9045311028467	ISI	1.0		7.0	object	car-120.jpg	0.0	257.97723974306246	0.11672110067411268
332.0	166.02125220352082	car	0.0		46.0	object	car-41.jpg	0.0	258.09396084373657	0.3832505252221381
332.0	166.40450272874295	ISI	1.0		5.0	object	car-41.jpg	0.0	258.4772113689587	0.11666405061441765
333.0	166.52116677935737	car	0.0		46.0	object	car-9.jpg	0.0	258.5938754195731	0.3833226678907522
333.0	166.59626397575448	pulse	0.0	t		object	car-9.jpg	0.0	258.66897261597023	
333.0	166.90448944724812	ISI	1.0		7.0	object	car-9.jpg	0.0	258.9771980874639	0.11669906546558195
334.0	167.0211885127137	car	0.0		46.0	object	car-27.jpg	0.0	259.09389715292946	0.3832855400742119
334.0	167.2962814831808	pulse	0.0	t		object	car-27.jpg	0.0	259.36899012339654	
334.0	167.40447405278792	ISI	1.0		7.0	object	car-27.jpg	0.0	259.47718269300367	0.11671838400343404
335.0	167.52119243679135	car	0.0		46.0	object	car-91.jpg	0.0	259.5939010770071	0.383265014126664
335.0	167.90445745091802	ISI	1.0		4.0	object	car-91.jpg	0.0	259.97716609113377	0.11669966917088459
335.0	167.99624646832945	pulse	1.0	t		object	car-91.jpg	0.0	260.0689551085452	
336.0	168.0211571200889	body	0.0		46.0	body	body-103.jpg	0.0	260.09386576030465	0.3833205549244667
336.0	168.40447767501337	ISI	1.0		7.0	body	body-103.jpg	0.0	260.4771863152291	0.11669906546558195
337.0	168.52117674047895	body	0.0		46.0	body	body-52.jpg	0.0	260.5938853806947	0.38328795489178447
337.0	168.6962512979635	pulse	0.0	t		body	body-52.jpg	0.0	260.76895993817925	
337.0	168.90446469537073	ISI	1.0		7.0	body	body-52.jpg	0.0	260.9771733355865	0.11669514138702652
338.0	169.02115983675776	body	0.0		46.0	body	body-121.jpg	0.0	261.0938684769735	0.38329157711723383
338.0	169.39623077201668	pulse	0.0	t		body	body-121.jpg	0.0	261.46893941223243	
338.0	169.404451413875	ISI	1.0		7.0	body	body-121.jpg	0.0	261.47716005409075	0.11667763396235387
339.0	169.52112904783735	body	0.0		46.0	body	body-62.jpg	0.0	261.5938376880531	0.3833012363866146
339.0	169.90443028422396	ISI	1.0		7.0	body	body-62.jpg	0.0	261.9771389244397	0.11666525802320393
340.0	170.02109554224717	body	0.0		46.0	body	body-79.jpg	0.0	262.0938041824629	0.38332025307227013
340.0	170.0962072275479	pulse	0.0	t		body	body-79.jpg	0.0	262.16891586776364	
340.0	170.40441579531944	ISI	1.0		7.0	body	body-79.jpg	0.0	262.4771244355352	0.11669997102217167
341.0	170.5211157663416	body	0.0		46.0	body	body-9.jpg	0.0	262.59382440655736	0.38327437154384825
341.0	170.79618700345236	pulse	0.0	t		body	body-9.jpg	0.0	262.8688956436681	
341.0	170.90439013788546	ISI	1.0		7.0	body	body-9.jpg	0.0	262.9770987781012	0.11671325251791131
342.0	171.02110339040337	body	0.0		46.0	body	body-138.jpg	0.0	263.0938120306191	0.38328704933428526
342.0	171.40439043973765	ISI	1.0		5.0	body	body-138.jpg	0.0	263.4770990799534	0.1250298833647321
342.0	171.4962008886523	pulse	1.0	t		body	body-138.jpg	0.0	263.56890952886806	
343.0	171.52942032310239	body	0.0		45.0	body	body-18.jpg	0.0	263.60212896331814	0.3749746444182165
343.0	171.9043949675206	ISI	1.0		7.0	body	body-18.jpg	0.0	263.97710360773635	0.11665952283146908
344.0	172.02105449035207	body	0.0		46.0	body	body-18.jpg	1.0	264.0937631305678	0.3832906715606441
344.0	172.19614866822758	pulse	0.0	t		body	body-18.jpg	1.0	264.26885730844333	
344.0	172.40434516191272	ISI	1.0		7.0	body	body-18.jpg	1.0	264.47705380212847	0.1167123469613216
345.0	172.52105750887404	body	0.0		46.0	body	body-97.jpg	0.0	264.5937661490898	0.38329127526503726
345.0	172.587799739199	response	0.0	b		body	body-97.jpg	0.0	264.66050837941475	
345.0	172.8961006737336	pulse	0.0	t		body	body-97.jpg	0.0	264.96880931394935	
345.0	172.90434878413907	ISI	1.0		7.0	body	body-97.jpg	0.0	264.9770574243548	0.11669393397914973
346.0	173.02104271811822	body	0.0		46.0	body	body-131.jpg	0.0	265.093751358334	0.3832843326654256
346.0	173.40432705078365	ISI	1.0		7.0	body	body-131.jpg	0.0	265.4770356909994	0.11666284320563136
347.0	173.52098989398928	body	0.0		46.0	body	body-1.jpg	0.0	265.59369853420503	0.38332115862885985
347.0	173.5961018811422	pulse	0.0	t		body	body-1.jpg	0.0	265.66881052135795	
347.0	173.90431105261814	ISI	1.0		5.0	body	body-1.jpg	0.0	265.9770196928339	0.1166996691699751
348.0	174.02101072178812	house	0.0		46.0	place	house-26.jpg	0.0	266.09371936200387	0.3832846345176222
348.0	174.29608256260417	pulse	0.0	t		place	house-26.jpg	0.0	266.3687912028199	
348.0	174.40429535630574	ISI	1.0		7.0	place	house-26.jpg	0.0	266.4770039965215	0.1166857839707518
349.0	174.5209811402765	house	0.0		46.0	place	house-28.jpg	0.0	266.59368978049224	0.38326773079643317
349.0	174.90424887107292	ISI	1.0		6.0	place	house-28.jpg	0.0	266.9769575112887	0.11670087657785189
349.0	174.99602973847504	pulse	1.0	t		place	house-28.jpg	0.0	267.0687383786908	
350.0	175.02094974765077	house	0.0		46.0	place	house-83.jpg	0.0	267.0936583878665	0.3832852382220153
350.0	175.4042349858728	ISI	1.0		6.0	place	house-83.jpg	0.0	267.47694362608854	0.1166975562045991
351.0	175.5209325420774	house	0.0		46.0	place	house-115.jpg	0.0	267.59364118229314	0.3832873511873913
351.0	175.69600800511944	pulse	0.0	t		place	house-115.jpg	0.0	267.7687166453352	
351.0	175.90421989326478	ISI	1.0		7.0	place	house-115.jpg	0.0	267.97692853348053	0.11669634879581281
352.0	176.0209162420606	house	0.0		46.0	place	house-25.jpg	0.0	268.09362488227634	0.38329127526503726
352.0	176.39599049769367	pulse	0.0	t		place	house-25.jpg	0.0	268.4686991379094	
352.0	176.40420751732563	ISI	1.0		5.0	place	house-25.jpg	0.0	268.4769161575414	0.11669393397914973
353.0	176.52090145130478	house	0.0		46.0	place	house-66.jpg	0.0	268.59361009152053	0.3832622974568949
353.0	176.90416374876168	ISI	1.0		6.0	place	house-66.jpg	0.0	268.9768723889774	0.11671898770873668
354.0	177.0208827364704	house	0.0		46.0	place	house-122.jpg	0.0	269.09359137668616	0.38329248267382354
354.0	177.0959660476683	pulse	0.0	t		place	house-122.jpg	0.0	269.16867468788405	
354.0	177.40417521914424	ISI	1.0		5.0	place	house-122.jpg	0.0	269.47688385936	0.11669846176118881
355.0	177.52087368090542	house	0.0		46.0	place	house-91.jpg	0.0	269.5935823211212	0.38328825674398104
355.0	177.7959431069039	pulse	0.0	t		place	house-91.jpg	0.0	269.86865174711966	
355.0	177.9041619376494	ISI	1.0		6.0	place	house-91.jpg	0.0	269.97687057786516	0.11669725435240252
356.0	178.0208591920018	house	0.0		46.0	place	house-24.jpg	0.0	270.09356783221756	0.38328191784785304
356.0	178.40414110984966	ISI	1.0		7.0	place	house-24.jpg	0.0	270.4768497500654	0.11669272657036345
356.0	178.49594039023395	pulse	1.0	t		place	house-24.jpg	0.0	270.5686490304497	
357.0	178.52083383642002	house	0.0		46.0	place	house-81.jpg	0.0	270.5935424766358	0.3832991234212386
357.0	178.90413295984126	ISI	1.0		7.0	place	house-81.jpg	0.0	270.976841600057	0.11669634879581281
358.0	179.02082930863708	house	0.0		46.0	place	house-81.jpg	1.0	271.0935379488528	0.3832867474829982
358.0	179.19591111057434	pulse	0.0	t		place	house-81.jpg	1.0	271.2686197507901	
358.0	179.40411605612007	ISI	1.0		5.0	place	house-81.jpg	1.0	271.4768246963358	0.11665891912798543
359.0	179.52077497524806	house	0.0		46.0	place	house-53.jpg	0.0	271.5934836154638	0.3833281012284715
359.0	179.66255614450256	response	0.0	b		place	house-53.jpg	0.0	271.7352647847183	
359.0	179.89588092535723	pulse	0.0	t		place	house-53.jpg	0.0	271.968589565573	
359.0	179.90410307647653	ISI	1.0		7.0	place	house-53.jpg	0.0	271.9768117166923	0.11669483953573945
360.0	180.02079791601227	house	0.0		46.0	place	house-30.jpg	0.0	272.093506556228	0.38328825674307154
360.0	180.40408617275534	ISI	1.0		6.0	place	house-30.jpg	0.0	272.4767948129711	0.11670057472656481
361.0	180.5207867474819	house	0.0		46.0	place	house-106.jpg	0.0	272.59349538769766	0.38332085677757277
361.0	180.59589541426158	pulse	0.0	t		place	house-106.jpg	0.0	272.6686040544773	
361.0	180.90410760425948	ISI	1.0		7.0	place	house-106.jpg	0.0	272.97681624447523	0.11669604694361624
362.0	181.0208036512031	house	0.0		46.0	place	house-126.jpg	0.0	273.09351229141885	0.3832843326654256
362.0	181.29587428461036	pulse	0.0	t		place	house-126.jpg	0.0	273.3685829248261	
362.0	181.40408798386852	ISI	1.0		5.0	place	house-126.jpg	0.0	273.4767966240843	0.11670117843095795
363.0	181.52078916229948	house	0.0		46.0	place	house-42.jpg	0.0	273.59349780251523	0.38328493636981875
363.0	181.9040740986693	ISI	1.0		6.0	place	house-42.jpg	0.0	273.97678273888505	0.12503441114677116
363.0	181.99588213276638	pulse	1.0	t		place	house-42.jpg	0.0	274.06859077298213	
364.0	182.02910850981607	house	0.0		45.0	place	house-59.jpg	0.0	274.1018171500318	0.3749501943921132
364.0	182.40405870420818	ISI	1.0		7.0	place	house-59.jpg	0.0	274.47676734442393	0.11670298954413738
365.0	182.52076169375232	house	0.0		46.0	place	house-87.jpg	0.0	274.59347033396807	0.3832813141434599
365.0	182.69585315495806	pulse	0.0	t		place	house-87.jpg	0.0	274.7685617951738	
365.0	182.90404300789578	ISI	1.0		7.0	place	house-87.jpg	0.0	274.97675164811153	0.1166963487967223
366.0	183.0207393566925	house	0.0		46.0	place	house-49.jpg	0.0	275.09344799690825	0.3832942937860935
366.0	183.3957961048991	pulse	0.0	t		place	house-49.jpg	0.0	275.46850474511484	
366.0	183.4040336504786	ISI	1.0		6.0	place	house-49.jpg	0.0	275.47674229069435	0.116661333945558
367.0	183.52069498442415	house	0.0		46.0	place	house-5.jpg	0.0	275.5934036246399	0.3833196493687865
367.0	183.90401463379294	ISI	1.0		7.0	place	house-5.jpg	0.0	275.9767232740087	0.11668940619620116
368.0	184.02070403998914	house	0.0		46.0	place	house-5.jpg	1.0	276.0934126802049	0.38329550119487976
368.0	184.09579157711687	pulse	0.0	t		place	house-5.jpg	1.0	276.1685002173326	
368.0	184.40399954118402	ISI	1.0		5.0	place	house-5.jpg	1.0	276.4767081813998	0.11670027287436824
369.0	184.5206998140584	house	0.0		46.0	place	house-74.jpg	0.0	276.59340845427414	0.38328825674398104
369.0	184.7707788993257	response	0.0	b		place	house-74.jpg	0.0	276.84348753954146	
369.0	184.79575233633568	pulse	0.0	t		place	house-74.jpg	0.0	276.86846097655143	
369.0	184.90398807080237	ISI	1.0		7.0	place	house-74.jpg	0.0	276.9766967110181	0.11669483953482995
370.0	185.0206829103372	house	0.0		46.0	place	house-57.jpg	0.0	277.09339155055295	0.38328614377860504
370.0	185.4039690541158	ISI	1.0		6.0	place	house-57.jpg	0.0	277.47667769433156	0.1250341092945746
370.0	185.49578040858705	pulse	1.0	t		place	house-57.jpg	0.0	277.5684890488028	
371.0	185.52900316341038	house	0.0		45.0	place	house-94.jpg	0.0	277.60171180362613	0.37495381661847205
371.0	185.90395698002885	ISI	1.0		6.0	place	house-94.jpg	0.0	277.9766656202446	0.11669725435331202
372.0	186.02065423438216	word	0.0		46.0	character	word-23.jpg	0.0	278.0933628745979	0.3832580715261429
372.0	186.1957303011277	pulse	0.0	t		character	word-23.jpg	0.0	278.26843894134345	
372.0	186.4039123059083	ISI	1.0		6.0	character	word-23.jpg	0.0	278.47662094612406	0.11673860809969483
373.0	186.520650914008	word	0.0		46.0	character	word-8.jpg	0.0	278.59335955422375	0.3832746733960448
373.0	186.8957076622146	pulse	0.0	t		character	word-8.jpg	0.0	278.96841630243034	
373.0	186.90392558740405	ISI	1.0		6.0	character	word-8.jpg	0.0	278.9766342276198	0.11669906546558195
374.0	187.02062465286963	word	0.0		46.0	character	word-132.jpg	0.0	279.0933332930854	0.3832846345176222
374.0	187.40390928738725	ISI	1.0		6.0	character	word-132.jpg	0.0	279.476617927603	0.11670117843095795
375.0	187.5206104658182	word	0.0		46.0	character	word-124.jpg	0.0	279.59331910603396	0.3832782956214942
375.0	187.59568955108534	pulse	0.0	t		character	word-124.jpg	0.0	279.6683981913011	
375.0	187.9038887614397	ISI	1.0		7.0	character	word-124.jpg	0.0	279.97659740165545	0.1167060080651936
376.0	188.0205947695049	word	0.0		46.0	character	word-122.jpg	0.0	280.09330340972065	0.38329248267382354
376.0	188.29566449735557	pulse	0.0	t		character	word-122.jpg	0.0	280.3683731375713	
376.0	188.40388725217872	ISI	1.0		6.0	character	word-122.jpg	0.0	280.47659589239447	0.1166921228659703
377.0	188.5205793750447	word	0.0		46.0	character	word-76.jpg	0.0	280.59328801526044	0.3833048586129735
377.0	188.90388423365766	ISI	1.0		4.0	character	word-76.jpg	0.0	280.9765928738734	0.12502203520762123
377.0	188.99568955108498	pulse	1.0	t		character	word-76.jpg	0.0	281.06839819130073	
378.0	189.02890626886528	word	0.0		45.0	character	word-2.jpg	0.0	281.10161490908104	0.37493902586265904
378.0	189.40384529472794	ISI	1.0		7.0	character	word-2.jpg	0.0	281.4765539349437	0.11670540436170995
379.0	189.52055069908965	word	0.0		46.0	character	word-29.jpg	0.0	281.5932593393054	0.3832918789685209
379.0	189.69562374731322	pulse	0.0	t		character	word-29.jpg	0.0	281.768332387529	
379.0	189.90384257805817	ISI	1.0		7.0	character	word-29.jpg	0.0	281.9765512182739	0.11670027287436824
380.0	190.02054285093254	word	0.0		46.0	character	word-29.jpg	1.0	282.0932514911483	0.38327950303118996
380.0	190.39560412692208	pulse	0.0	t		character	word-29.jpg	1.0	282.46831276713783	
380.0	190.40382235396373	ISI	1.0		7.0	character	word-29.jpg	1.0	282.4765309941795	0.11668035063121351
381.0	190.52050270459495	word	0.0		46.0	character	word-135.jpg	0.0	282.5932113448107	0.38330304749979405
381.0	190.58725912197224	response	0.0	b		character	word-135.jpg	0.0	282.659967762188	
381.0	190.90380575209474	ISI	1.0		7.0	character	word-135.jpg	0.0	282.9765143923105	0.11670027287436824
382.0	191.0205060249691	word	0.0		46.0	character	word-92.jpg	0.0	283.09321466518486	0.3832843326645161
382.0	191.09558269541867	pulse	0.0	t		character	word-92.jpg	0.0	283.1682913356344	
382.0	191.40379035763362	ISI	1.0		6.0	character	word-92.jpg	0.0	283.4764989978494	0.11670087657876138
383.0	191.5204912342124	word	0.0		46.0	character	word-48.jpg	0.0	283.59319987442814	0.38328916230057075
383.0	191.79556186761965	pulse	0.0	t		character	word-48.jpg	0.0	283.8682705078354	
383.0	191.90378039651296	ISI	1.0		7.0	character	word-48.jpg	0.0	283.9764890367287	0.11669725435240252
384.0	192.02047765086536	car	0.0		46.0	object	car-125.jpg	0.0	284.0931862910811	0.3832834271088359
384.0	192.4037610779742	ISI	1.0		7.0	object	car-125.jpg	0.0	284.47646971818995	0.12503531670336088
384.0	192.49556488614053	pulse	1.0	t		object	car-125.jpg	0.0	284.5682735263563	
385.0	192.52879639467756	car	0.0		45.0	object	car-125.jpg	1.0	284.6015050348933	0.3749489869842364
385.0	192.9037453816618	ISI	1.0		7.0	object	car-125.jpg	1.0	284.97645402187754	0.11670027287436824
386.0	193.02044565453616	car	0.0		46.0	object	car-85.jpg	0.0	285.0931542947519	0.38328191784785304
386.0	193.1371893941223	response	0.0	b		object	car-85.jpg	0.0	285.20989803433804	
386.0	193.19551538238557	pulse	0.0	t		object	car-85.jpg	0.0	285.2682240226013	
386.0	193.403727572384	ISI	1.0		7.0	object	car-85.jpg	0.0	285.47643621259976	0.1167081210305696
387.0	193.52043569341458	car	0.0		46.0	object	car-69.jpg	0.0	285.59314433363033	0.3832825215522462
387.0	193.89550149718616	pulse	0.0	t		object	car-69.jpg	0.0	285.9682101374019	
387.0	193.90371821496683	ISI	1.0		7.0	object	car-69.jpg	0.0	285.9764268551826	0.11669815990899224
388.0	194.02041637487582	car	0.0		46.0	object	car-112.jpg	0.0	286.0931250150916	0.38328493636981875
388.0	194.40370131124564	ISI	1.0		7.0	object	car-112.jpg	0.0	286.4764099514614	0.11669997102217167
389.0	194.5204012822678	car	0.0		46.0	object	car-118.jpg	0.0	286.59310992248356	0.3832846345176222
389.0	194.5955648861409	pulse	0.0	t		object	car-118.jpg	0.0	286.66827352635664	
389.0	194.90368591678543	ISI	1.0		7.0	object	car-118.jpg	0.0	286.9763945570012	0.11670238583883474
390.0	195.02038830262427	car	0.0		46.0	object	car-114.jpg	0.0	287.09309694284	0.3832846345176222
390.0	195.29545893603154	pulse	0.0	t		object	car-114.jpg	0.0	287.3681675762473	
390.0	195.4036729371419	ISI	1.0		7.0	object	car-114.jpg	0.0	287.47638157735764	0.11669846176118881
391.0	195.52037139890308	car	0.0		46.0	object	car-44.jpg	0.0	287.59308003911883	0.38328161599565647
391.0	195.90365301489874	ISI	1.0		7.0	object	car-44.jpg	0.0	287.9763616551145	0.12503954263411288
391.0	195.99548912124737	pulse	1.0	t		object	car-44.jpg	0.0	288.0681977614631	
