trial_nr	onset	event_type	phase	response	nr_frames	trial_type	stim_name	task_probe	onset_abs	duration
0.0	0.056563364907560754	baseline	0.0		701		baseline	0.0	42.673327596079616	5.849612916488695
0.0	0.7064151089198276	pulse	0.0	t			baseline	0.0	43.32317934009188	
0.0	1.4063798824627156	pulse	0.0	t			baseline	0.0	44.02314411363477	
0.0	2.106360050602234	pulse	0.0	t			baseline	0.0	44.72312428177429	
0.0	2.806341124305618	pulse	0.0	t			baseline	0.0	45.423105355477674	
0.0	3.506337894459648	pulse	0.0	t			baseline	0.0	46.1231021256317	
0.0	4.206324401549864	pulse	0.0	t			baseline	0.0	46.82308863272192	
0.0	4.906298230736866	pulse	0.0	t			baseline	0.0	47.52306246190892	
0.0	5.606284134117232	pulse	0.0	t			baseline	0.0	48.22304836528929	
0.0	5.906176281396256	ISI	1.0		5		baseline	0.0	48.52294051256831	0.13335915197967552
1.0	6.0395354333759315	house	0.0		44	place	house-46.jpg	0.0	48.65629966454799	0.36660930419202487
1.0	6.306265207822435	pulse	0.0	t		place	house-46.jpg	0.0	48.92302943899449	
1.0	6.406144737567956	ISI	1.0		356	place	house-46.jpg	0.0	49.02290896874001	3.01664306665225
1.0	7.006289144908806	pulse	1.0	t		place	house-46.jpg	0.0	49.62305337608086	
1.0	7.70625904998451	pulse	1.0	t		place	house-46.jpg	0.0	50.323023281156566	
1.0	8.406248877476173	pulse	1.0	t		place	house-46.jpg	0.0	51.02301310864823	
1.0	9.106232366018958	pulse	1.0	t		place	house-46.jpg	0.0	51.72299659719101	
2.0	9.422787804220206	adult	0.0		46	face	adult-16.jpg	0.0	52.03955203539226	0.38325629495557223
2.0	9.806044099175779	ISI	1.0		354	face	adult-16.jpg	0.0	52.422808330347834	3.016633709152302
2.0	9.854407880100553	pulse	1.0	t		face	adult-16.jpg	0.0	52.47117211127261	
2.0	10.506136859157778	pulse	1.0	t		face	adult-16.jpg	0.0	53.12290109032983	
2.0	11.206131516328242	pulse	1.0	t		face	adult-16.jpg	0.0	53.8228957475003	
2.0	11.906109571482375	pulse	1.0	t		face	adult-16.jpg	0.0	54.52287380265443	
2.0	12.60615494026024	pulse	1.0	t		face	adult-16.jpg	0.0	55.222919171432295	
3.0	12.82267780832808	limb	0.0		46	body	limb-91.jpg	0.0	55.439442039500136	0.3832928193878615
3.0	13.205970627715942	ISI	1.0		233	body	limb-91.jpg	0.0	55.822734858888	2.016661479794493
3.0	13.306088924613505	pulse	1.0	t		body	limb-91.jpg	0.0	55.92285315578556	
3.0	14.006065470495741	pulse	1.0	t		body	limb-91.jpg	0.0	56.6228297016678	
3.0	14.706047751618826	pulse	1.0	t		body	limb-91.jpg	0.0	57.32281198279088	
4.0	15.222632107510435	limb	0.0		46	body	limb-86.jpg	0.0	57.83939633868249	0.38331968446436804
4.0	15.406042106933455	pulse	0.0	t		body	limb-86.jpg	0.0	58.02280633810551	
4.0	15.605951791974803	ISI	1.0		234	body	limb-86.jpg	0.0	58.22271602314686	2.016664800197759
4.0	16.106097738775134	pulse	1.0	t		body	limb-86.jpg	0.0	58.72286196994719	
4.0	16.80607428465555	pulse	1.0	t		body	limb-86.jpg	0.0	59.42283851582761	
4.0	17.50605686763447	pulse	1.0	t		body	limb-86.jpg	0.0	60.122821098806526	
5.0	17.622616592172562	number	0.0		46	character	number-30.jpg	0.0	60.23938082334462	0.38325599310155667
5.0	18.00587258527412	ISI	1.0		233	character	number-30.jpg	0.0	60.622636816446175	2.0166596686667617
5.0	18.205984513037038	pulse	1.0	t		character	number-30.jpg	0.0	60.82274874420909	
5.0	18.905965888594437	pulse	1.0	t		character	number-30.jpg	0.0	61.52273011976649	
5.0	19.605939415927423	pulse	1.0	t		character	number-30.jpg	0.0	62.22270364709948	
6.0	20.02253225394088	house	0.0		46	place	house-62.jpg	0.0	62.639296485112936	0.3832876878550451
6.0	20.305937091647138	pulse	0.0	t		place	house-62.jpg	0.0	62.922701322819194	
6.0	20.405819941795926	ISI	1.0		233	place	house-62.jpg	0.0	63.02258417296798	2.0166572538273613
6.0	21.005925409865085	pulse	1.0	t		place	house-62.jpg	0.0	63.62268964103714	
6.0	21.705901352037472	pulse	1.0	t		place	house-62.jpg	0.0	64.32266558320953	
7.0	22.422477195623287	number	0.0		45	character	number-69.jpg	0.0	65.03924142679534	0.3832931212418771
7.0	22.414712886271445	pulse	0.0	t		character	number-69.jpg	0.0	65.0314771174435	
7.0	22.805770316865164	ISI	1.0		236	character	number-69.jpg	0.0	65.42253454803722	2.0166946838235162
7.0	23.105881308878452	pulse	1.0	t		character	number-69.jpg	0.0	65.72264554005051	
7.0	23.80592456467093	pulse	1.0	t		character	number-69.jpg	0.0	66.42268879584299	
7.0	24.505912882890698	pulse	1.0	t		character	number-69.jpg	0.0	67.12267711406275	
8.0	24.82246500068868	car	0.0		46	object	car-52.jpg	0.0	67.43922923186074	0.383257804229288
8.0	25.20572280491797	ISI	1.0		356	object	car-52.jpg	0.0	67.82248703609002	3.0166382369752682
8.0	25.237619500543587	pulse	1.0	t		object	car-52.jpg	0.0	67.85438373171564	
8.0	25.905814961191936	pulse	1.0	t		object	car-52.jpg	0.0	68.52257919236399	
8.0	26.605798751588736	pulse	1.0	t		object	car-52.jpg	0.0	69.22256298276079	
8.0	27.305782843839552	pulse	1.0	t		object	car-52.jpg	0.0	69.92254707501161	
8.0	28.005769652783783	pulse	1.0	t		object	car-52.jpg	0.0	70.62253388395584	
9.0	28.222361041893237	adult	0.0		46	face	adult-129.jpg	0.0	70.83912527306529	0.3832873860010295
9.0	28.605648427894266	ISI	1.0		233	face	adult-129.jpg	0.0	71.22241265906632	2.016663592778059
9.0	28.705765819227963	pulse	1.0	t		face	adult-129.jpg	0.0	71.32253005040002	
9.0	29.4057423651102	pulse	1.0	t		face	adult-129.jpg	0.0	72.02250659628226	
9.0	30.1057237406676	pulse	1.0	t		face	adult-129.jpg	0.0	72.72248797183966	
10.0	30.622312020672325	car	0.0		46	object	car-9.jpg	0.0	73.23907625184438	0.3833344753511483
10.0	30.80571990711178	pulse	0.0	t		object	car-9.jpg	0.0	73.42248413828383	
10.0	31.005646496023473	ISI	1.0		234	object	car-9.jpg	0.0	73.62241072719553	2.0166481981832476
10.0	31.505774331533758	pulse	1.0	t		object	car-9.jpg	0.0	74.12253856270581	
10.0	32.205756310802826	pulse	1.0	t		object	car-9.jpg	0.0	74.82252054197488	
10.0	32.90573315853908	pulse	1.0	t		object	car-9.jpg	0.0	75.52249738971113	
11.0	33.02229469420672	number	0.0		46	character	number-105.jpg	0.0	75.63905892537878	0.3832544838260219
11.0	33.40554917803274	ISI	1.0		236	character	number-105.jpg	0.0	76.0223134092048	2.0166611779404775
11.0	33.60567348184304	pulse	1.0	t		character	number-105.jpg	0.0	76.2224377130151	
11.0	34.30564429248261	pulse	1.0	t		character	number-105.jpg	0.0	76.92240852365467	
11.0	35.00562446062213	pulse	1.0	t		character	number-105.jpg	0.0	77.62238869179419	
12.0	35.42221035597322	adult	0.0		46	face	adult-70.jpg	0.0	78.03897458714528	0.38328798971087963
12.0	35.70561428811561	pulse	0.0	t		face	adult-70.jpg	0.0	78.32237851928767	
12.0	35.8054983456841	ISI	1.0		954	face	adult-70.jpg	0.0	78.42226257685616	8.016571527061387
12.0	36.405604719317125	pulse	1.0	t		face	adult-70.jpg	0.0	79.02236895048918	
12.0	37.105578548505946	pulse	1.0	t		face	adult-70.jpg	0.0	79.722342779678	
12.0	37.80556022591918	pulse	1.0	t		face	adult-70.jpg	0.0	80.42232445709124	
12.0	38.50555759978306	pulse	1.0	t		face	adult-70.jpg	0.0	81.12232183095512	
12.0	39.20560779823791	pulse	1.0	t		face	adult-70.jpg	0.0	81.82237202940996	
12.0	39.905584947828174	pulse	1.0	t		face	adult-70.jpg	0.0	82.52234917900023	
12.0	40.60557779386909	pulse	1.0	t		face	adult-70.jpg	0.0	83.22234202504114	
12.0	41.305576073296834	pulse	1.0	t		face	adult-70.jpg	0.0	83.92234030446889	
12.0	42.005549902485654	pulse	1.0	t		face	adult-70.jpg	0.0	84.62231413365771	
12.0	42.70553157989889	pulse	1.0	t		face	adult-70.jpg	0.0	85.32229581107094	
12.0	43.405515068439854	pulse	1.0	t		face	adult-70.jpg	0.0	86.02227929961191	
13.0	43.82206987274549	limb	0.0		46	body	limb-124.jpg	0.0	86.43883410391754	0.38325478568185645
13.0	44.10545026021282	pulse	0.0	t		body	limb-124.jpg	0.0	86.72221449138488	
13.0	44.205324658427344	ISI	1.0		236	body	limb-124.jpg	0.0	86.8220888895994	2.0166578575372114
13.0	44.80542650423922	pulse	1.0	t		body	limb-124.jpg	0.0	87.42219073541128	
13.0	45.50540214455759	pulse	1.0	t		body	limb-124.jpg	0.0	88.12216637572965	
14.0	46.221982515964555	adult	0.0		45	face	adult-103.jpg	0.0	88.83874674713661	0.3832901026944455
14.0	46.21414606331382	pulse	0.0	t		face	adult-103.jpg	0.0	88.83091029448588	
14.0	46.605272618659	ISI	1.0		593	face	adult-103.jpg	0.0	89.22203684983106	5.016632803588436
14.0	46.90538421438214	pulse	1.0	t		face	adult-103.jpg	0.0	89.5221484455542	
14.0	47.60535442131186	pulse	1.0	t		face	adult-103.jpg	0.0	90.22211865248391	
14.0	48.30534304138564	pulse	1.0	t		face	adult-103.jpg	0.0	90.9221072725577	
14.0	49.005328341056156	pulse	1.0	t		face	adult-103.jpg	0.0	91.62209257222821	
14.0	49.70532239451677	pulse	1.0	t		face	adult-103.jpg	0.0	92.32208662568883	
14.0	50.4053686688585	pulse	1.0	t		face	adult-103.jpg	0.0	93.02213290003056	
14.0	51.105358798206	pulse	1.0	t		face	adult-103.jpg	0.0	93.72212302937805	
15.0	51.62190542224744	number	0.0		46	character	number-118.jpg	0.0	94.23866965341949	0.38325750237527245
15.0	51.80527618054657	pulse	0.0	t		character	number-118.jpg	0.0	94.42204041171863	
15.0	52.00516292462271	ISI	1.0		833	character	number-118.jpg	0.0	94.62192715579476	7.016586016092333
15.0	52.50526510247437	pulse	1.0	t		character	number-118.jpg	0.0	95.12202933364642	
15.0	53.2052479873073	pulse	1.0	t		character	number-118.jpg	0.0	95.82201221847936	
15.0	53.9052305702844	pulse	1.0	t		character	number-118.jpg	0.0	96.52199480145646	
15.0	54.60521647366477	pulse	1.0	t		character	number-118.jpg	0.0	97.22198070483682	
15.0	55.30519724551414	pulse	1.0	t		character	number-118.jpg	0.0	97.92196147668619	
15.0	56.00518646929777	pulse	1.0	t		character	number-118.jpg	0.0	98.62195070046982	
15.0	56.70516543001759	pulse	1.0	t		character	number-118.jpg	0.0	99.32192966118964	
15.0	57.4051507296881	pulse	1.0	t		character	number-118.jpg	0.0	100.02191496086016	
15.0	58.10520877636736	pulse	1.0	t		character	number-118.jpg	0.0	100.72197300753942	
15.0	58.80519196305431	pulse	1.0	t		character	number-118.jpg	0.0	101.42195619422637	
16.0	59.02174894071504	number	0.0		46	character	number-51.jpg	0.0	101.6385131718871	0.3832867822911794
16.0	59.40503572300622	ISI	1.0		232	character	number-51.jpg	0.0	102.02179995417828	2.0166638946338935
16.0	59.50520322223929	pulse	1.0	t		character	number-51.jpg	0.0	102.12196745341134	
16.0	60.20516135497746	pulse	1.0	t		character	number-51.jpg	0.0	102.82192558614952	
16.0	60.905146956501994	pulse	1.0	t		character	number-51.jpg	0.0	103.52191118767405	
17.0	61.421699617640115	number	0.0		46	character	number-63.jpg	0.0	104.03846384881217	0.38328859341891075
17.0	61.605105994805854	pulse	0.0	t		character	number-63.jpg	0.0	104.22187022597791	
17.0	61.804988211059026	ISI	1.0		354	character	number-63.jpg	0.0	104.42175244223108	3.0166249553640228
17.0	62.305128120762674	pulse	1.0	t		character	number-63.jpg	0.0	104.92189235193473	
17.0	63.00510889261204	pulse	1.0	t		character	number-63.jpg	0.0	105.6218731237841	
17.0	63.705085740348295	pulse	1.0	t		character	number-63.jpg	0.0	106.32184997152035	
17.0	64.40508251050233	pulse	1.0	t		character	number-63.jpg	0.0	107.02184674167438	
18.0	64.82161316642305	car	0.0		46	object	car-69.jpg	0.0	107.4383773975951	0.3833045917253912
18.0	65.10502917275699	pulse	0.0	t		object	car-69.jpg	0.0	107.72179340392904	
18.0	65.20491775814844	ISI	1.0		354	object	car-69.jpg	0.0	107.8216819893205	3.0166400481029996
18.0	65.80505280798934	pulse	1.0	t		object	car-69.jpg	0.0	108.4218170391614	
18.0	66.50504172991714	pulse	1.0	t		object	car-69.jpg	0.0	109.1218059610892	
18.0	67.20501918136324	pulse	1.0	t		object	car-69.jpg	0.0	109.8217834125353	
18.0	67.9049960290995	pulse	1.0	t		object	car-69.jpg	0.0	110.52176026027155	
19.0	68.22155780625144	car	0.0		46	object	car-69.jpg	1.0	110.8383220374235	0.3832873860010295
19.0	68.60484519225247	ISI	1.0		712	object	car-69.jpg	1.0	111.22160942342452	6.016577564158069
19.0	68.66428462976364	pulse	1.0	t		object	car-69.jpg	1.0	111.2810488609357	
19.0	68.96331286858367	response	1.0	b		object	car-69.jpg	1.0	111.58007709975573	
19.0	69.3049777970682	pulse	1.0	t		object	car-69.jpg	1.0	111.92174202824026	
19.0	70.00495856891757	pulse	1.0	t		object	car-69.jpg	1.0	112.62172280008963	
19.0	70.7049323981064	pulse	1.0	t		object	car-69.jpg	1.0	113.32169662927845	
19.0	71.40493550721112	pulse	1.0	t		object	car-69.jpg	1.0	114.02169973838318	
19.0	72.1049205050258	pulse	1.0	t		object	car-69.jpg	1.0	114.72168473619786	
19.0	72.80489946574562	pulse	1.0	t		object	car-69.jpg	1.0	115.42166369691768	
19.0	73.50488536912599	pulse	1.0	t		object	car-69.jpg	1.0	116.12164960029804	
19.0	74.204886968957	pulse	1.0	t		object	car-69.jpg	1.0	116.82165120012905	
20.0	74.62142275641054	limb	0.0		46	body	limb-25.jpg	0.0	117.2381869875826	0.38328919712876086
20.0	74.9048263866971	pulse	0.0	t		body	limb-25.jpg	0.0	117.52159061786915	
20.0	75.0047119535393	ISI	1.0		353	body	limb-25.jpg	0.0	117.62147618471136	3.0166433685080847
20.0	75.60485092749332	pulse	1.0	t		body	limb-25.jpg	0.0	118.22161515866537	
20.0	76.30483139748685	pulse	1.0	t		body	limb-25.jpg	0.0	118.9215956286589	
20.0	77.0048094526428	pulse	1.0	t		body	limb-25.jpg	0.0	119.62157368381486	
20.0	77.70479294118559	pulse	1.0	t		body	limb-25.jpg	0.0	120.32155717235764	
21.0	78.02135532204738	house	0.0		46	place	house-141.jpg	0.0	120.63811955321944	0.38328648043534486
21.0	78.40464180248273	ISI	1.0		234	place	house-141.jpg	0.0	121.02140603365478	2.016662083504343
21.0	78.44765037727302	pulse	1.0	t		place	house-141.jpg	0.0	121.06441460844508	
21.0	79.10476927576747	pulse	1.0	t		place	house-141.jpg	0.0	121.72153350693952	
21.0	79.80476031068065	pulse	1.0	t		place	house-141.jpg	0.0	122.4215245418527	
22.0	80.42130388598707	adult	0.0		46	face	adult-88.jpg	0.0	123.03806811715913	0.38328497116344806
22.0	80.5047284046268	pulse	0.0	t		face	adult-88.jpg	0.0	123.12149263579886	
22.0	80.80458885715052	ISI	1.0		234	face	adult-88.jpg	0.0	123.42135308832258	2.0166644983419246
22.0	81.20473724897238	pulse	1.0	t		face	adult-88.jpg	0.0	123.82150148014443	
22.0	81.90470775775793	pulse	1.0	t		face	adult-88.jpg	0.0	124.52147198892999	
22.0	82.60469305742845	pulse	1.0	t		face	adult-88.jpg	0.0	125.2214572886005	
23.0	82.82125335549244	car	0.0		46	object	car-2.jpg	0.0	125.4380175866645	0.3832840655977634
23.0	83.20453742109021	ISI	1.0		354	object	car-2.jpg	0.0	125.82130165226226	3.016644575925966
23.0	83.30470461846744	pulse	1.0	t		object	car-2.jpg	0.0	125.9214688496395	
23.0	84.00466576975487	pulse	1.0	t		object	car-2.jpg	0.0	126.62143000092692	
23.0	84.70465167313523	pulse	1.0	t		object	car-2.jpg	0.0	127.32141590430729	
23.0	85.40463667095173	pulse	1.0	t		object	car-2.jpg	0.0	128.0214009021238	
23.0	86.10462166876641	pulse	1.0	t		object	car-2.jpg	0.0	128.72138589993847	
24.0	86.22118199701617	adult	0.0		46	face	adult-92.jpg	0.0	128.83794622818823	0.3832855748714792
24.0	86.60446757188765	ISI	1.0		235	face	adult-92.jpg	0.0	129.2212318030597	2.016664196487909
24.0	86.80461572222703	pulse	1.0	t		face	adult-92.jpg	0.0	129.42137995339908	
24.0	87.50459317367313	pulse	1.0	t		face	adult-92.jpg	0.0	130.12135740484518	
24.0	88.20457545479621	pulse	1.0	t		face	adult-92.jpg	0.0	130.82133968596827	
25.0	88.62113176837556	adult	0.0		46	face	adult-133.jpg	0.0	131.23789599954762	0.383255087537691
25.0	88.90450159092507	pulse	0.0	t		face	adult-133.jpg	0.0	131.52126582209712	
25.0	89.00438685591325	ISI	1.0		233	face	adult-133.jpg	0.0	131.6211510870853	2.0166551408437954
25.0	89.60448779615945	pulse	1.0	t		face	adult-133.jpg	0.0	132.2212520273315	
25.0	90.30446856800882	pulse	1.0	t		face	adult-133.jpg	0.0	132.92123279918087	
26.0	91.02104199675705	house	0.0		45	place	house-81.jpg	0.0	133.6378062279291	0.3832949323714274
26.0	91.01283728124145	pulse	0.0	t		place	house-81.jpg	0.0	133.6296015124135	
26.0	91.40433692912848	ISI	1.0		355	place	house-81.jpg	0.0	134.02110116030053	3.0166388406832993
26.0	91.7044421858991	pulse	1.0	t		place	house-81.jpg	0.0	134.32120641707115	
26.0	92.40442265589263	pulse	1.0	t		place	house-81.jpg	0.0	135.0211868870647	
26.0	93.10440403145185	pulse	1.0	t		place	house-81.jpg	0.0	135.7211682626239	
26.0	93.80438812370267	pulse	1.0	t		place	house-81.jpg	0.0	136.42115235487472	
27.0	94.42097576981178	car	0.0		46	object	car-66.jpg	0.0	137.03774000098383	0.38332089188406826
27.0	94.50439998659749	pulse	0.0	t		object	car-66.jpg	0.0	137.12116421776955	
27.0	94.80429666169584	ISI	1.0		236	object	car-66.jpg	0.0	137.4210608928679	2.0166623853601777
27.0	95.20444384609982	pulse	1.0	t		object	car-66.jpg	0.0	137.82120807727188	
27.0	95.90441616601493	pulse	1.0	t		object	car-66.jpg	0.0	138.52118039718698	
27.0	96.60440448423287	pulse	1.0	t		object	car-66.jpg	0.0	139.22116871540493	
28.0	96.82095904705602	adult	0.0		46	face	adult-99.jpg	0.0	139.43772327822808	0.3832565968095878
28.0	97.20421564386561	ISI	1.0		356	face	adult-99.jpg	0.0	139.82097987503766	3.0166400481048186
28.0	97.30432971479786	pulse	1.0	t		face	adult-99.jpg	0.0	139.92109394596991	
28.0	98.00430686438813	pulse	1.0	t		face	adult-99.jpg	0.0	140.62107109556018	
28.0	98.70428341027036	pulse	1.0	t		face	adult-99.jpg	0.0	141.32104764144242	
28.0	99.404277765585	pulse	1.0	t		face	adult-99.jpg	0.0	142.02104199675705	
28.0	100.10426034856391	pulse	1.0	t		face	adult-99.jpg	0.0	142.72102457973597	
29.0	100.22085569197043	adult	0.0		46	face	adult-99.jpg	1.0	142.83761992314248	0.3833012713203061
29.0	100.60415696329073	ISI	1.0		233	face	adult-99.jpg	1.0	143.2209211944628	2.0166469907653664
29.0	100.80425742057196	pulse	1.0	t		face	adult-99.jpg	1.0	143.421021651744	
29.0	100.95423488711094	response	1.0	b		face	adult-99.jpg	1.0	143.570999118283	
29.0	101.50422611822796	pulse	1.0	t		face	adult-99.jpg	1.0	144.12099034940002	
29.0	102.2042141345919	pulse	1.0	t		face	adult-99.jpg	1.0	144.82097836576395	
30.0	102.6208039540561	number	0.0		46	character	number-47.jpg	0.0	145.23756818522816	0.38332300486763415
30.0	102.90423837353228	pulse	0.0	t		character	number-47.jpg	0.0	145.52100260470434	
30.0	103.00412695892373	ISI	1.0		234	character	number-47.jpg	0.0	145.6208911900958	2.016656650117511
30.0	103.6042653291679	pulse	1.0	t		character	number-47.jpg	0.0	146.22102956033996	
30.0	104.304247912145	pulse	1.0	t		character	number-47.jpg	0.0	146.92101214331706	
31.0	105.02078360904125	number	0.0		45	character	number-13.jpg	0.0	147.6375478402133	0.3832901026944455
31.0	105.01303378872035	pulse	0.0	t		character	number-13.jpg	0.0	147.6297980198924	
31.0	105.40407371173569	ISI	1.0		475	character	number-13.jpg	0.0	148.02083794290775	4.016624049798338
31.0	105.70423420793668	pulse	1.0	t		character	number-13.jpg	0.0	148.32099843910873	
31.0	106.40420411301238	pulse	1.0	t		character	number-13.jpg	0.0	149.02096834418444	
31.0	107.10418096074864	pulse	1.0	t		character	number-13.jpg	0.0	149.7209451919207	
31.0	107.80416475114544	pulse	1.0	t		character	number-13.jpg	0.0	150.4209289823175	
31.0	108.5041518619455	pulse	1.0	t		character	number-13.jpg	0.0	151.12091609311756	
31.0	109.20415346177651	pulse	1.0	t		character	number-13.jpg	0.0	151.82091769294857	
32.0	109.42069776153403	adult	0.0		46	face	adult-60.jpg	0.0	152.03746199270608	0.38325267269829055
32.0	109.80395043423232	ISI	1.0		235	face	adult-60.jpg	0.0	152.42071466540438	2.016660272376612
32.0	109.904067523712	pulse	1.0	t		face	adult-60.jpg	0.0	152.52083175488406	
32.0	110.604036221368	pulse	1.0	t		face	adult-60.jpg	0.0	153.22080045254006	
32.0	111.30403268966802	pulse	1.0	t		face	adult-60.jpg	0.0	153.92079692084008	
33.0	111.82061070660893	adult	0.0		46	face	adult-21.jpg	0.0	154.437374937781	0.38329131011232676
33.0	112.00402040417612	pulse	0.0	t		face	adult-21.jpg	0.0	154.62078463534817	
33.0	112.20390201672126	ISI	1.0		593	face	adult-21.jpg	0.0	154.8206662478933	5.01663008689502
33.0	112.70401928731371	pulse	1.0	t		face	adult-21.jpg	0.0	155.32078351848577	
33.0	113.40398074045515	pulse	1.0	t		face	adult-21.jpg	0.0	156.0207449716272	
33.0	114.10397086980265	pulse	1.0	t		face	adult-21.jpg	0.0	156.7207351009747	
33.0	114.80395466019945	pulse	1.0	t		face	adult-21.jpg	0.0	157.4207188913715	
33.0	115.50400334938058	pulse	1.0	t		face	adult-21.jpg	0.0	158.12076758055264	
33.0	116.2039937805821	pulse	1.0	t		face	adult-21.jpg	0.0	158.82075801175415	
33.0	116.90397666541503	pulse	1.0	t		face	adult-21.jpg	0.0	159.52074089658709	
34.0	117.22053210361628	house	0.0		46	place	house-38.jpg	0.0	159.83729633478833	0.38328859342072974
34.0	117.60382069703701	ISI	1.0		473	place	house-38.jpg	0.0	160.22058492820906	4.016620125685222
34.0	117.65388361867008	pulse	1.0	t		place	house-38.jpg	0.0	160.27064784984213	
34.0	118.30394937774145	pulse	1.0	t		place	house-38.jpg	0.0	160.9207136089135	
34.0	119.00393226257256	pulse	1.0	t		place	house-38.jpg	0.0	161.62069649374462	
34.0	119.70391937337263	pulse	1.0	t		place	house-38.jpg	0.0	162.32068360454468	
34.0	120.403905276753	pulse	1.0	t		place	house-38.jpg	0.0	163.02066950792505	
34.0	121.10389510424648	pulse	1.0	t		place	house-38.jpg	0.0	163.72065933541853	
35.0	121.62044082272223	limb	0.0		46	body	limb-135.jpg	0.0	164.2372050538943	0.3832873860010295
35.0	121.80384478505039	pulse	0.0	t		body	limb-135.jpg	0.0	164.42060901622244	
35.0	122.00372820872326	ISI	1.0		715	body	limb-135.jpg	0.0	164.62049243989532	6.016579073431785
35.0	122.50387234439404	pulse	1.0	t		body	limb-135.jpg	0.0	165.1206365755661	
35.0	123.20384556987301	pulse	1.0	t		body	limb-135.jpg	0.0	165.82060980104507	
35.0	123.90382634172056	pulse	1.0	t		body	limb-135.jpg	0.0	166.52059057289262	
35.0	124.60382009332716	pulse	1.0	t		body	limb-135.jpg	0.0	167.2205843244992	
35.0	125.30380810969109	pulse	1.0	t		body	limb-135.jpg	0.0	167.92057234086315	
35.0	126.00379129637804	pulse	1.0	t		body	limb-135.jpg	0.0	168.6205555275501	
35.0	126.70376935153399	pulse	1.0	t		body	limb-135.jpg	0.0	169.32053358270605	
35.0	127.40375555676837	pulse	1.0	t		body	limb-135.jpg	0.0	170.02051978794043	
36.0	128.02030728215504	adult	0.0		46	face	adult-47.jpg	0.0	170.6370715133271	0.3832861785831483
36.0	128.10375383619612	pulse	0.0	t		face	adult-47.jpg	0.0	170.72051806736818	
36.0	128.4035934607382	ISI	1.0		473	face	adult-47.jpg	0.0	171.02035769191025	4.016622238668788
36.0	128.8037373247389	pulse	1.0	t		face	adult-47.jpg	0.0	171.42050155591096	
36.0	129.50371749287842	pulse	1.0	t		face	adult-47.jpg	0.0	172.12048172405048	
36.0	130.2036970573081	pulse	1.0	t		face	adult-47.jpg	0.0	172.82046128848015	
36.0	130.9036823569786	pulse	1.0	t		face	adult-47.jpg	0.0	173.52044658815066	
36.0	131.6036773160031	pulse	1.0	t		face	adult-47.jpg	0.0	174.22044154717514	
36.0	132.303665030513	pulse	1.0	t		face	adult-47.jpg	0.0	174.92042926168506	
37.0	132.42021569940698	number	0.0		46	character	number-85.jpg	0.0	175.03697993057904	0.38328798971087963
37.0	132.80350368911786	ISI	1.0		234	character	number-85.jpg	0.0	175.42026792028992	2.016660876084643
37.0	133.00365334873095	pulse	1.0	t		character	number-85.jpg	0.0	175.620417579903	
37.0	133.70363381872448	pulse	1.0	t		character	number-85.jpg	0.0	176.32039804989654	
37.0	134.40361760912128	pulse	1.0	t		character	number-85.jpg	0.0	177.02038184029334	
38.0	134.8201645652025	house	0.0		46	place	house-43.jpg	0.0	177.43692879637456	0.38328919713057985
38.0	135.10358057153644	pulse	0.0	t		place	house-43.jpg	0.0	177.7203448027085	
38.0	135.20345376233308	ISI	1.0		235	place	house-43.jpg	0.0	177.82021799350514	2.0166578575372114
38.0	135.80359484926885	pulse	1.0	t		place	house-43.jpg	0.0	178.4203590804409	
38.0	136.5035716970051	pulse	1.0	t		place	house-43.jpg	0.0	179.12033592817716	
39.0	137.2201116198703	car	0.0		45	object	car-4.jpg	0.0	179.83687585104235	0.3832910082583112
39.0	137.21047822555192	pulse	0.0	t		object	car-4.jpg	0.0	179.82724245672398	
39.0	137.6034026281286	ISI	1.0		595	object	car-4.jpg	0.0	180.22016685930066	5.0165992977035785
39.0	137.90354833344463	pulse	1.0	t		object	car-4.jpg	0.0	180.5203125646167	
39.0	138.60351310698752	pulse	1.0	t		object	car-4.jpg	0.0	181.22027733815958	
39.0	139.30351742351195	pulse	1.0	t		object	car-4.jpg	0.0	181.920281654684	
39.0	140.00349517681207	pulse	1.0	t		object	car-4.jpg	0.0	182.62025940798412	
39.0	140.70347504309575	pulse	1.0	t		object	car-4.jpg	0.0	183.3202392742678	
39.0	141.40347060583008	pulse	1.0	t		object	car-4.jpg	0.0	184.02023483700214	
39.0	142.10345409437286	pulse	1.0	t		object	car-4.jpg	0.0	184.72021832554492	
40.0	142.62000192583218	adult	0.0		46	face	adult-125.jpg	0.0	185.23676615700424	0.38328768785686407
40.0	142.80340739743406	pulse	0.0	t		face	adult-125.jpg	0.0	185.4201716286061	
40.0	143.00328961368905	ISI	1.0		473	face	adult-125.jpg	0.0	185.6200538448611	4.01661589971809
40.0	143.5034322400843	pulse	1.0	t		face	adult-125.jpg	0.0	186.12019647125635	
40.0	144.20341633233693	pulse	1.0	t		face	adult-125.jpg	0.0	186.82018056350898	
40.0	144.90339046337976	pulse	1.0	t		face	adult-125.jpg	0.0	187.52015469455182	
40.0	145.60337183893716	pulse	1.0	t		face	adult-125.jpg	0.0	188.22013607010922	
40.0	146.3033637794142	pulse	1.0	t		face	adult-125.jpg	0.0	188.92012801058627	
41.0	147.01990551340714	limb	0.0		45	body	limb-23.jpg	0.0	189.6366697445792	0.3832894989845954
41.0	147.01026457271837	pulse	0.0	t		body	limb-23.jpg	0.0	189.62702880389043	
41.0	147.40319501239173	ISI	1.0		355	body	limb-23.jpg	0.0	190.0199592435638	3.016644575925966
41.0	147.70335430117302	pulse	1.0	t		body	limb-23.jpg	0.0	190.32011853234508	
41.0	148.40331937657174	pulse	1.0	t		body	limb-23.jpg	0.0	191.0200836077438	
41.0	149.1032998465671	pulse	1.0	t		body	limb-23.jpg	0.0	191.72006407773915	
41.0	149.8032899759146	pulse	1.0	t		body	limb-23.jpg	0.0	192.42005420708665	
42.0	150.4198395883177	car	0.0		46	object	car-71.jpg	0.0	193.03660381948976	0.383297950918859
42.0	150.50326078655416	pulse	0.0	t		object	car-71.jpg	0.0	193.12002501772622	
42.0	150.80313753923656	ISI	1.0		235	object	car-71.jpg	0.0	193.41990177040861	2.0166518204405293
42.0	151.2033046460583	pulse	1.0	t		object	car-71.jpg	0.0	193.82006887723037	
42.0	151.9032479879097	pulse	1.0	t		object	car-71.jpg	0.0	194.52001221908176	
42.0	152.60322483564596	pulse	1.0	t		object	car-71.jpg	0.0	195.21998906681802	
43.0	152.8197893596771	car	0.0		46	object	car-128.jpg	0.0	195.43655359084914	0.38328285817988217
43.0	153.20307221785697	ISI	1.0		233	object	car-128.jpg	0.0	195.81983644902903	2.016665705761625
43.0	153.30324152821777	pulse	1.0	t		object	car-128.jpg	0.0	195.92000575938982	
43.0	154.0032014720855	pulse	1.0	t		object	car-128.jpg	0.0	196.61996570325755	
43.0	154.70318948844942	pulse	1.0	t		object	car-128.jpg	0.0	197.31995371962148	
44.0	155.2197379236186	limb	0.0		46	body	limb-66.jpg	0.0	197.83650215479065	0.38328104705033184
44.0	155.40314973417117	pulse	0.0	t		body	limb-66.jpg	0.0	198.01991396534322	
44.0	155.60301897066893	ISI	1.0		473	body	limb-66.jpg	0.0	198.21978320184098	4.016622842378638
44.0	156.1031658230313	pulse	1.0	t		body	limb-66.jpg	0.0	198.71993005420336	
44.0	156.8031432744774	pulse	1.0	t		body	limb-66.jpg	0.0	199.41990750564946	
44.0	157.50312404632677	pulse	1.0	t		body	limb-66.jpg	0.0	200.11988827749883	
44.0	158.20310874228744	pulse	1.0	t		body	limb-66.jpg	0.0	200.8198729734595	
44.0	158.90311969961658	pulse	1.0	t		body	limb-66.jpg	0.0	201.51988393078864	
45.0	159.61964181304756	house	0.0		45	place	house-96.jpg	0.0	202.23640604421962	0.38328919713057985
45.0	159.60992269196504	pulse	0.0	t		place	house-96.jpg	0.0	202.2266869231371	
45.0	160.00293101017814	ISI	1.0		355	place	house-96.jpg	0.0	202.6196952413502	3.01664185923255
45.0	160.30308033775145	pulse	1.0	t		place	house-96.jpg	0.0	202.9198445689235	
45.0	161.00305809105157	pulse	1.0	t		place	house-96.jpg	0.0	203.61982232222363	
45.0	161.7030385610451	pulse	1.0	t		place	house-96.jpg	0.0	204.31980279221716	
45.0	162.4030235588616	pulse	1.0	t		place	house-96.jpg	0.0	205.01978779003366	
46.0	163.0195728694107	car	0.0		46	object	car-129.jpg	0.0	205.63633710058275	0.3832876878550451
46.0	163.102994671357	pulse	0.0	t		object	car-129.jpg	0.0	205.71975890252907	
46.0	163.40286055726574	ISI	1.0		352	object	car-129.jpg	0.0	206.0196247884378	3.0166436703602812
46.0	163.80300411941244	pulse	1.0	t		object	car-129.jpg	0.0	206.4197683505845	
46.0	164.50298519311582	pulse	1.0	t		object	car-129.jpg	0.0	207.11974942428787	
46.0	165.2029674742389	pulse	1.0	t		object	car-129.jpg	0.0	207.81973170541096	
46.0	165.90294824608645	pulse	1.0	t		object	car-129.jpg	0.0	208.5197124772585	
47.0	166.41950422762602	number	0.0		46	character	number-27.jpg	0.0	209.03626845879808	0.3832846693076135
47.0	166.60291030293774	pulse	0.0	t		character	number-27.jpg	0.0	209.2196745341098	
47.0	166.80278889693363	ISI	1.0		355	character	number-27.jpg	0.0	209.4195531281057	3.016640349958834
47.0	167.3029315233307	pulse	1.0	t		character	number-27.jpg	0.0	209.91969575450275	
47.0	168.00290957848665	pulse	1.0	t		character	number-27.jpg	0.0	210.6196738096587	
47.0	168.7028903503342	pulse	1.0	t		character	number-27.jpg	0.0	211.31965458150626	
47.0	169.40288470565065	pulse	1.0	t		character	number-27.jpg	0.0	212.0196489368227	
48.0	169.81942924689247	limb	0.0		46	body	limb-24.jpg	0.0	212.43619347806452	0.3832888952747453
48.0	170.10283438645456	pulse	0.0	t		body	limb-24.jpg	0.0	212.71959861762662	
48.0	170.2027181421672	ISI	1.0		234	body	limb-24.jpg	0.0	212.81948237333927	2.016660876084643
48.0	170.8028583235391	pulse	1.0	t		body	limb-24.jpg	0.0	213.41962255471117	
48.0	171.50283969909833	pulse	1.0	t		body	limb-24.jpg	0.0	214.1196039302704	
49.0	172.21937901825186	house	0.0		45	place	house-73.jpg	0.0	214.8361432494239	0.3832855748732982
49.0	172.20971966442085	pulse	0.0	t		place	house-73.jpg	0.0	214.8264838955929	
49.0	172.60266459312516	ISI	1.0		235	place	house-73.jpg	0.0	215.2194288242972	2.016665705761625
49.0	172.90281482626233	pulse	1.0	t		place	house-73.jpg	0.0	215.51957905743438	
49.0	173.60283604665528	pulse	1.0	t		place	house-73.jpg	0.0	216.21960027782734	
49.0	174.30278270890994	pulse	1.0	t		place	house-73.jpg	0.0	216.919546940082	
50.0	174.61933029888678	house	0.0		46	place	house-73.jpg	1.0	217.23609453005884	0.3832910082583112
50.0	175.0026213071451	ISI	1.0		235	place	house-73.jpg	1.0	217.61938553831715	2.0166605742306274
50.0	175.04193125498205	pulse	1.0	t		place	house-73.jpg	1.0	217.6586954861541	
50.0	175.22775488544357	response	1.0	b		place	house-73.jpg	1.0	217.84451911661563	
50.0	175.70273580067442	pulse	1.0	t		place	house-73.jpg	1.0	218.31950003184647	
50.0	176.40273377824633	pulse	1.0	t		place	house-73.jpg	1.0	219.01949800941838	
51.0	177.01928188137572	limb	0.0		46	body	limb-74.jpg	0.0	219.63604611254777	0.3832855748714792
51.0	177.10268768501737	pulse	0.0	t		body	limb-74.jpg	0.0	219.71945191618943	
51.0	177.4025674562472	ISI	1.0		234	body	limb-74.jpg	0.0	220.01933168741925	2.016662989070028
51.0	177.8027125276676	pulse	1.0	t		body	limb-74.jpg	0.0	220.41947675883966	
51.0	178.50269148838743	pulse	1.0	t		body	limb-74.jpg	0.0	221.11945571955948	
51.0	179.2026837307185	pulse	1.0	t		body	limb-74.jpg	0.0	221.81944796189055	
52.0	179.41923044531723	house	0.0		46	place	house-137.jpg	0.0	222.03599467648928	0.3832876878550451
52.0	179.80251813317227	ISI	1.0		355	place	house-137.jpg	0.0	222.41928236434433	3.01664306665225
52.0	179.90266903039083	pulse	1.0	t		place	house-137.jpg	0.0	222.51943326156288	
52.0	180.60264044474025	pulse	1.0	t		place	house-137.jpg	0.0	223.2194046759123	
52.0	181.30263359263517	pulse	1.0	t		place	house-137.jpg	0.0	223.91939782380723	
52.0	182.00261194964696	pulse	1.0	t		place	house-137.jpg	0.0	224.61937618081902	
52.0	182.70259936230104	pulse	1.0	t		place	house-137.jpg	0.0	225.3193635934731	
53.0	182.81916119982452	car	0.0		46	object	car-96.jpg	0.0	225.43592543099658	0.3832849711616291
53.0	183.20244617098615	ISI	1.0		233	object	car-96.jpg	0.0	225.8192104021582	2.016663592778059
53.0	183.4025967361631	pulse	1.0	t		object	car-96.jpg	0.0	226.01936096733516	
53.0	184.10256965978806	pulse	1.0	t		object	car-96.jpg	0.0	226.71933389096012	
53.0	184.80256099655526	pulse	1.0	t		object	car-96.jpg	0.0	227.4193252277273	
54.0	185.2191097637642	limb	0.0		46	body	limb-8.jpg	0.0	227.83587399493626	0.3832867822911794
54.0	185.50251460147047	pulse	0.0	t		body	limb-8.jpg	0.0	228.11927883264252	
54.0	185.6023965460554	ISI	1.0		235	body	limb-8.jpg	0.0	228.21916077722744	2.0166605742306274
54.0	186.2025394441207	pulse	1.0	t		body	limb-8.jpg	0.0	228.81930367529276	
54.0	186.90251629185695	pulse	1.0	t		body	limb-8.jpg	0.0	229.519280523029	
55.0	187.61905712028602	house	0.0		45	place	house-98.jpg	0.0	230.23582135145807	0.3832888952747453
55.0	187.60941557588922	pulse	0.0	t		place	house-98.jpg	0.0	230.22617980706127	
55.0	188.00234601556076	ISI	1.0		473	place	house-98.jpg	0.0	230.61911024673282	4.0166210312509065
55.0	188.30249141902095	pulse	1.0	t		place	house-98.jpg	0.0	230.919255650193	
55.0	189.0024691723229	pulse	1.0	t		place	house-98.jpg	0.0	231.61923340349495	
55.0	189.7024517553	pulse	1.0	t		place	house-98.jpg	0.0	232.31921598647205	
55.0	190.40243735682634	pulse	1.0	t		place	house-98.jpg	0.0	233.0192015879984	
55.0	191.10242869359354	pulse	1.0	t		place	house-98.jpg	0.0	233.7191929247656	
55.0	191.80241157842465	pulse	1.0	t		place	house-98.jpg	0.0	234.4191758095967	
56.0	192.01896704681167	house	0.0		46	place	house-121.jpg	0.0	234.63573127798372	0.38328859342072974
56.0	192.4022556402324	ISI	1.0		234	place	house-121.jpg	0.0	235.01901987140445	2.016661479794493
56.0	192.5024225357538	pulse	1.0	t		place	house-121.jpg	0.0	235.11918676692585	
56.0	193.2023861018788	pulse	1.0	t		place	house-121.jpg	0.0	235.81915033305086	
56.0	193.90236838300189	pulse	1.0	t		place	house-121.jpg	0.0	236.51913261417394	
57.0	194.4189171200269	limb	0.0		46	body	limb-125.jpg	0.0	237.03568135119895	0.3832861785813293
57.0	194.60232470461233	pulse	0.0	t		body	limb-125.jpg	0.0	237.21908893578438	
57.0	194.80220329860822	ISI	1.0		473	body	limb-125.jpg	0.0	237.41896752978028	4.016618918267341
57.0	195.30234471758558	pulse	1.0	t		body	limb-125.jpg	0.0	237.91910894875764	
57.0	196.00232548943495	pulse	1.0	t		body	limb-125.jpg	0.0	238.619089720607	
57.0	196.70230927983175	pulse	1.0	t		body	limb-125.jpg	0.0	239.3190735110038	
57.0	197.40229035353514	pulse	1.0	t		body	limb-125.jpg	0.0	240.0190545847072	
57.0	198.10227776618922	pulse	1.0	t		body	limb-125.jpg	0.0	240.71904199736127	
58.0	198.81882221687556	number	0.0		45	character	number-21.jpg	0.0	241.43558644804762	0.3832916119681613
58.0	198.80920270787828	pulse	0.0	t		character	number-21.jpg	0.0	241.42596693905034	
58.0	199.20211382884372	ISI	1.0		353	character	number-21.jpg	0.0	241.81887806001578	3.0166406518128497
58.0	199.50226225085135	pulse	1.0	t		character	number-21.jpg	0.0	242.1190264820234	
58.0	200.20223849487957	pulse	1.0	t		character	number-21.jpg	0.0	242.81900272605162	
58.0	200.9022201722928	pulse	1.0	t		character	number-21.jpg	0.0	243.51898440346486	
58.0	201.60220547196332	pulse	1.0	t		character	number-21.jpg	0.0	244.21896970313537	
59.0	202.21875448065657	limb	0.0		46	body	limb-6.jpg	0.0	244.83551871182863	0.38325478568185645
59.0	202.30214156930015	pulse	0.0	t		body	limb-6.jpg	0.0	244.9189058004722	
59.0	202.60200926633843	ISI	1.0		233	body	limb-6.jpg	0.0	245.21877349751048	2.0166599705207773
59.0	203.00211479477912	pulse	1.0	t		body	limb-6.jpg	0.0	245.61887902595117	
59.0	203.7020883221121	pulse	1.0	t		body	limb-6.jpg	0.0	246.31885255328416	
59.0	204.40208237557272	pulse	1.0	t		body	limb-6.jpg	0.0	247.01884660674477	
60.0	204.6186692368592	house	0.0		46	place	house-21.jpg	0.0	247.23543346803126	0.3832904045484611
60.0	205.00195964140767	ISI	1.0		354	place	house-21.jpg	0.0	247.61872387257972	3.0166394443949685
60.0	205.10208729580518	pulse	1.0	t		place	house-21.jpg	0.0	247.71885152697723	
60.0	205.8020469378189	pulse	1.0	t		place	house-21.jpg	0.0	248.41881116899094	
60.0	206.50204823579406	pulse	1.0	t		place	house-21.jpg	0.0	249.11881246696612	
60.0	207.2020199519975	pulse	1.0	t		place	house-21.jpg	0.0	249.81878418316956	
60.0	207.901999818283	pulse	1.0	t		place	house-21.jpg	0.0	250.51876404945506	
61.0	208.01859908580263	limb	0.0		46	body	limb-93.jpg	0.0	250.6353633169747	0.3833199863183836
61.0	208.40191907212102	ISI	1.0		473	body	limb-93.jpg	0.0	251.01868330329307	4.016623144234472
61.0	208.60206903358994	pulse	1.0	t		body	limb-93.jpg	0.0	251.218833264762	
61.0	209.3020498054393	pulse	1.0	t		body	limb-93.jpg	0.0	251.91881403661137	
61.0	210.002029671723	pulse	1.0	t		body	limb-93.jpg	0.0	252.61879390289505	
61.0	210.70201044357236	pulse	1.0	t		body	limb-93.jpg	0.0	253.31877467474442	
61.0	211.40200540259684	pulse	1.0	t		body	limb-93.jpg	0.0	254.0187696337689	
61.0	212.10198828742978	pulse	1.0	t		body	limb-93.jpg	0.0	254.71875251860183	
62.0	212.4185422163555	car	0.0		46	object	car-102.jpg	0.0	255.03530644752755	0.38328798971087963
62.0	212.80183020606637	ISI	1.0		233	object	car-102.jpg	0.0	255.41859443723843	2.0166596686667617
62.0	212.85790184949292	pulse	1.0	t		object	car-102.jpg	0.0	255.47466608066497	
62.0	213.50195798120694	pulse	1.0	t		object	car-102.jpg	0.0	256.118722212379	
62.0	214.20197769232436	pulse	1.0	t		object	car-102.jpg	0.0	256.8187419234964	
63.0	214.81848987473313	number	0.0		46	character	number-93.jpg	0.0	257.4352541059052	0.3832861785813293
63.0	214.90189899877623	pulse	0.0	t		character	number-93.jpg	0.0	257.5186632299483	
63.0	215.20177605331446	ISI	1.0		235	character	number-93.jpg	0.0	257.8185402844865	2.016663592778059
63.0	215.6019316896527	pulse	1.0	t		character	number-93.jpg	0.0	258.21869592082476	
63.0	216.30189827432514	pulse	1.0	t		character	number-93.jpg	0.0	258.9186625054972	
63.0	217.00188176286792	pulse	1.0	t		character	number-93.jpg	0.0	259.61864599404	
64.0	217.21843964609252	car	0.0		46	object	car-127.jpg	0.0	259.8352038772646	0.3832861785813293
64.0	217.60172582467385	ISI	1.0		593	object	car-127.jpg	0.0	260.2184900558459	5.016597184721832
64.0	217.70189030535767	pulse	1.0	t		object	car-127.jpg	0.0	260.3186545365297	
64.0	218.4018529659188	pulse	1.0	t		object	car-127.jpg	0.0	261.01861719709086	
64.0	219.101839171155	pulse	1.0	t		object	car-127.jpg	0.0	261.71860340232706	
64.0	219.80182567824522	pulse	1.0	t		object	car-127.jpg	0.0	262.4185899094173	
64.0	220.5018067519486	pulse	1.0	t		object	car-127.jpg	0.0	263.11857098312066	
64.0	221.2018008054074	pulse	1.0	t		object	car-127.jpg	0.0	263.81856503657946	
64.0	221.90178006798305	pulse	1.0	t		object	car-127.jpg	0.0	264.5185442991551	
65.0	222.61832300939568	number	0.0		45	character	number-46.jpg	0.0	265.23508724056774	0.38329131011232676
65.0	222.60872764878332	pulse	0.0	t		character	number-46.jpg	0.0	265.22549187995537	
65.0	223.001614319508	ISI	1.0		239	character	number-46.jpg	0.0	265.61837855068006	1.9999942647591524
65.0	223.30175851555032	pulse	1.0	t		character	number-46.jpg	0.0	265.9185227467224	
65.0	224.0017368725603	pulse	1.0	t		character	number-46.jpg	0.0	266.61850110373234	
65.0	224.70172639819793	pulse	1.0	t		character	number-46.jpg	0.0	267.31849062937	
66.0	225.00160858426716	baseline	0.0		708		baseline	0.0	267.6183728154392	5.899876269713786
66.0	225.40171381085202	pulse	0.0	t			baseline	0.0	268.01847804202407	
66.0	226.10169367713752	pulse	0.0	t			baseline	0.0	268.7184579083096	
66.0	226.80167958051788	pulse	0.0	t			baseline	0.0	269.41844381168994	
66.0	227.50166186164097	pulse	0.0	t			baseline	0.0	270.118426092813	
66.0	228.20164776502133	pulse	0.0	t			baseline	0.0	270.8184119961934	
66.0	228.90163095170828	pulse	0.0	t			baseline	0.0	271.51839518288034	
66.0	229.6016253070229	pulse	0.0	t			baseline	0.0	272.21838953819497	
66.0	230.3016087955657	pulse	0.0	t			baseline	0.0	272.91837302673775	
66.0	230.90148485398095	ISI	1.0		12		baseline	0.0	273.518249085153	0.10000359207333531
