trial_nr	onset	event_type	phase	response	nr_frames	face_age	face_sex	face_eth	attractiveness	expression	face_id	sub_id	ses	run	trial_type	catch	onset_abs	duration
-1.0	0.056485145361875766	fix	0.0		714												24.966322262472204	5.966214500956994
-1.0	0.7062849715548509	pulse	0.0	t													25.61612208866518	
-1.0	1.4062769120801022	pulse	0.0	t													26.31611402919043	
-1.0	2.1062661359283084	pulse	0.0	t													27.016103253038636	
-1.0	2.8062366448912144	pulse	0.0	t													27.716073762001542	
-1.0	3.5062156057383618	pulse	0.0	t													28.41605272284869	
-1.0	4.206195472144827	pulse	0.0	t													29.116032589255155	
-1.0	4.906190129347124	pulse	0.0	t													29.816027246457452	
-1.0	5.606168184634953	pulse	0.0	t													30.51600530174528	
0.0	6.02269964631887	face	0.0		144	28.0	male	white	3.9076800636689217	smiling	033	sub-04	1.0	4.0	033_smiling	0.0	30.932536763429198	1.2333181702515503
0.0	6.306159521453992	pulse	0.0	t		28.0	male	white	3.9076800636689217	smiling	033	sub-04	1.0	4.0	033_smiling	0.0	31.21599663856432	
0.0	7.006133048947049	pulse	0.0	t		28.0	male	white	3.9076800636689217	smiling	033	sub-04	1.0	4.0	033_smiling	0.0	31.915970166057377	
0.0	7.25601781657042	fix	1.0		445	28.0	male	white	3.9076800636689217	smiling	033	sub-04	1.0	4.0	033_smiling	0.0	32.16585493368075	3.758202779401472
0.0	7.706125895031619	pulse	1.0	t		28.0	male	white	3.9076800636689217	smiling	033	sub-04	1.0	4.0	033_smiling	0.0	32.61596301214195	
0.0	8.406085537287254	pulse	1.0	t		28.0	male	white	3.9076800636689217	smiling	033	sub-04	1.0	4.0	033_smiling	0.0	33.31592265439758	
0.0	9.10606691295834	pulse	1.0	t		28.0	male	white	3.9076800636689217	smiling	033	sub-04	1.0	4.0	033_smiling	0.0	34.01590403006867	
0.0	9.806043157128443	pulse	1.0	t		28.0	male	white	3.9076800636689217	smiling	033	sub-04	1.0	4.0	033_smiling	0.0	34.71588027423877	
0.0	10.506024532799529	pulse	1.0	t		28.0	male	white	3.9076800636689217	smiling	033	sub-04	1.0	4.0	033_smiling	0.0	35.41586164990986	
1.0	11.014220595971892	face	0.0		146	24.0	female	black	3.0955033824114606	smiling	099	sub-04	1.0	4.0	099_smiling	1.0	35.92405771308222	1.2416671219616546
1.0	11.206023114090385	pulse	0.0	t		24.0	female	black	3.0955033824114606	smiling	099	sub-04	1.0	4.0	099_smiling	1.0	36.11586023120071	
1.0	11.905995132318822	pulse	0.0	t		24.0	female	black	3.0955033824114606	smiling	099	sub-04	1.0	4.0	099_smiling	1.0	36.81583224942915	
1.0	12.255887717933547	fix	1.0		236	24.0	female	black	3.0955033824114606	smiling	099	sub-04	1.0	4.0	099_smiling	1.0	37.165724835043875	2.0082819403478425
1.0	12.605983148754603	pulse	1.0	t		24.0	female	black	3.0955033824114606	smiling	099	sub-04	1.0	4.0	099_smiling	1.0	37.51582026586493	
1.0	13.305967844808947	pulse	1.0	t		24.0	female	black	3.0955033824114606	smiling	099	sub-04	1.0	4.0	099_smiling	1.0	38.215804961919275	
1.0	14.005943787125943	pulse	1.0	t		24.0	female	black	3.0955033824114606	smiling	099	sub-04	1.0	4.0	099_smiling	1.0	38.91578090423627	
1.0	14.26416965828139	rating	2.0		234	24.0	female	black	3.0955033824114606	smiling	099	sub-04	1.0	4.0	099_smiling	1.0	39.17400677539172	1.9916066759005844
1.0	14.700637000353709	pulse	2.0	t		24.0	female	black	3.0955033824114606	smiling	099	sub-04	1.0	4.0	099_smiling	1.0	39.61047411746404	
1.0	14.858961909473692	response	2.0	b		24.0	female	black	3.0955033824114606	smiling	099	sub-04	1.0	4.0	099_smiling	1.0	39.76879902658402	
1.0	15.405893256935997	pulse	2.0	t		24.0	female	black	3.0955033824114606	smiling	099	sub-04	1.0	4.0	099_smiling	1.0	40.315730374046325	
1.0	16.105899384551776	pulse	2.0	t		24.0	female	black	3.0955033824114606	smiling	099	sub-04	1.0	4.0	099_smiling	1.0	41.015736501662104	
1.0	16.255776334181974	fix	3.0		445	24.0	female	black	3.0955033824114606	smiling	099	sub-04	1.0	4.0	099_smiling	1.0	41.1656134512923	3.7582163627866976
1.0	16.80586234719067	pulse	3.0	t		24.0	female	black	3.0955033824114606	smiling	099	sub-04	1.0	4.0	099_smiling	1.0	41.715699464301	
1.0	17.50584342100865	pulse	3.0	t		24.0	female	black	3.0955033824114606	smiling	099	sub-04	1.0	4.0	099_smiling	1.0	42.41568053811898	
1.0	18.205822381854887	pulse	3.0	t		24.0	female	black	3.0955033824114606	smiling	099	sub-04	1.0	4.0	099_smiling	1.0	43.115659498965215	
1.0	18.905813718674835	pulse	3.0	t		24.0	female	black	3.0955033824114606	smiling	099	sub-04	1.0	4.0	099_smiling	1.0	43.81565083578516	
1.0	19.605787849874105	pulse	3.0	t		24.0	female	black	3.0955033824114606	smiling	099	sub-04	1.0	4.0	099_smiling	1.0	44.51562496698443	
2.0	20.01399269696867	face	0.0		146	30.0	female	black	2.7345801830481498	smiling	062	sub-04	1.0	4.0	062_smiling	0.0	44.923829814079	1.2416475015170363
2.0	20.305768923691176	pulse	0.0	t		30.0	female	black	2.7345801830481498	smiling	062	sub-04	1.0	4.0	062_smiling	0.0	45.215606040801504	
2.0	21.005745167861278	pulse	0.0	t		30.0	female	black	2.7345801830481498	smiling	062	sub-04	1.0	4.0	062_smiling	0.0	45.915582284971606	
2.0	21.255640198485708	fix	1.0		445	30.0	female	black	2.7345801830481498	smiling	062	sub-04	1.0	4.0	062_smiling	0.0	46.165477315596036	3.7582006664315486
2.0	21.70573771209274	pulse	1.0	t		30.0	female	black	2.7345801830481498	smiling	062	sub-04	1.0	4.0	062_smiling	0.0	46.61557482920307	
2.0	22.405706108085724	pulse	1.0	t		30.0	female	black	2.7345801830481498	smiling	062	sub-04	1.0	4.0	062_smiling	0.0	47.31554322519605	
2.0	23.105701972699535	pulse	1.0	t		30.0	female	black	2.7345801830481498	smiling	062	sub-04	1.0	4.0	062_smiling	0.0	48.01553908980986	
2.0	23.80567640575191	pulse	1.0	t		30.0	female	black	2.7345801830481498	smiling	062	sub-04	1.0	4.0	062_smiling	0.0	48.71551352286224	
2.0	24.505647216567922	pulse	1.0	t		30.0	female	black	2.7345801830481498	smiling	062	sub-04	1.0	4.0	062_smiling	0.0	49.41548433367825	
3.0	25.013840864917256	face	0.0		146	24.0	female	east_asian	4.409868682849185	smiling	030	sub-04	1.0	4.0	030_smiling	0.0	49.923677982027584	1.2416523311649144
3.0	25.205631912621357	pulse	0.0	t		24.0	female	east_asian	4.409868682849185	smiling	030	sub-04	1.0	4.0	030_smiling	0.0	50.115469029731685	
3.0	25.905614495704867	pulse	0.0	t		24.0	female	east_asian	4.409868682849185	smiling	030	sub-04	1.0	4.0	030_smiling	0.0	50.815451612815195	
3.0	26.25549319608217	fix	1.0		444	24.0	female	east_asian	4.409868682849185	smiling	030	sub-04	1.0	4.0	030_smiling	0.0	51.1653303131925	3.7582127405503343
3.0	26.605595871375044	pulse	1.0	t		24.0	female	east_asian	4.409868682849185	smiling	030	sub-04	1.0	4.0	030_smiling	0.0	51.51543298848537	
3.0	27.305570002574314	pulse	1.0	t		24.0	female	east_asian	4.409868682849185	smiling	030	sub-04	1.0	4.0	030_smiling	0.0	52.21540711968464	
3.0	28.005557415304793	pulse	1.0	t		24.0	female	east_asian	4.409868682849185	smiling	030	sub-04	1.0	4.0	030_smiling	0.0	52.91539453241512	
3.0	28.70554271506444	pulse	1.0	t		24.0	female	east_asian	4.409868682849185	smiling	030	sub-04	1.0	4.0	030_smiling	0.0	53.61537983217477	
3.0	29.405515336999088	pulse	1.0	t		24.0	female	east_asian	4.409868682849185	smiling	030	sub-04	1.0	4.0	030_smiling	0.0	54.315352454109416	
4.0	30.013705936632505	face	0.0		146	24.0	female	east_asian	2.9076800636689217	neutral	034	sub-04	1.0	4.0	034_neutral	0.0	54.92354305374283	1.2416447848409007
4.0	30.105501542317143	pulse	0.0	t		24.0	female	east_asian	2.9076800636689217	neutral	034	sub-04	1.0	4.0	034_neutral	0.0	55.01533865942747	
4.0	30.805482616135123	pulse	0.0	t		24.0	female	east_asian	2.9076800636689217	neutral	034	sub-04	1.0	4.0	034_neutral	0.0	55.71531973324545	
4.0	31.255350721473405	fix	1.0		444	24.0	female	east_asian	2.9076800636689217	neutral	034	sub-04	1.0	4.0	034_neutral	0.0	56.16518783858373	3.7665647107905897
4.0	31.505469123307194	pulse	1.0	t		24.0	female	east_asian	2.9076800636689217	neutral	034	sub-04	1.0	4.0	034_neutral	0.0	56.41530624041752	
4.0	32.20544114153563	pulse	1.0	t		24.0	female	east_asian	2.9076800636689217	neutral	034	sub-04	1.0	4.0	034_neutral	0.0	57.11527825864596	
4.0	32.90541980052876	pulse	1.0	t		24.0	female	east_asian	2.9076800636689217	neutral	034	sub-04	1.0	4.0	034_neutral	0.0	57.81525691763909	
4.0	33.60539634655197	pulse	1.0	t		24.0	female	east_asian	2.9076800636689217	neutral	034	sub-04	1.0	4.0	034_neutral	0.0	58.5152334636623	
4.0	34.30540790752184	pulse	1.0	t		24.0	female	east_asian	2.9076800636689217	neutral	034	sub-04	1.0	4.0	034_neutral	0.0	59.21524502463217	
5.0	35.021915432263995	face	0.0		146	24.0	male	white	3.1153999204138483	smiling	012	sub-04	1.0	4.0	012_smiling	0.0	59.93175254937432	1.2333021720432953
5.0	35.00811411008726	pulse	0.0	t		24.0	male	white	3.1153999204138483	smiling	012	sub-04	1.0	4.0	012_smiling	0.0	59.91795122719759	
5.0	35.70534832174235	pulse	0.0	t		24.0	male	white	3.1153999204138483	smiling	012	sub-04	1.0	4.0	012_smiling	0.0	60.61518543885268	
5.0	36.25521760430729	fix	1.0		443	24.0	male	white	3.1153999204138483	smiling	012	sub-04	1.0	4.0	012_smiling	0.0	61.16505472141762	3.7665429773751384
5.0	36.405333621501995	pulse	1.0	t		24.0	male	white	3.1153999204138483	smiling	012	sub-04	1.0	4.0	012_smiling	0.0	61.31517073861232	
5.0	37.10531741199702	pulse	1.0	t		24.0	male	white	3.1153999204138483	smiling	012	sub-04	1.0	4.0	012_smiling	0.0	62.01515452910735	
5.0	37.80530573028591	pulse	1.0	t		24.0	male	white	3.1153999204138483	smiling	012	sub-04	1.0	4.0	012_smiling	0.0	62.71514284739624	
5.0	38.505267485513286	pulse	1.0	t		24.0	male	white	3.1153999204138483	smiling	012	sub-04	1.0	4.0	012_smiling	0.0	63.415104602623614	
5.0	39.20524735191884	pulse	1.0	t		24.0	male	white	3.1153999204138483	smiling	012	sub-04	1.0	4.0	012_smiling	0.0	64.11508446902917	
5.0	39.905231444266974	pulse	1.0	t		24.0	male	white	3.1153999204138483	smiling	012	sub-04	1.0	4.0	012_smiling	0.0	64.8150685613773	
6.0	40.02176058168243	face	0.0		146	28.0	female	white	5.676880222841227	neutral	124	sub-04	1.0	4.0	124_neutral	0.0	64.93159769879276	1.2333362814306383
6.0	40.60522368664442	pulse	0.0	t		28.0	female	white	5.676880222841227	neutral	124	sub-04	1.0	4.0	124_neutral	0.0	65.51506080375475	
6.0	41.25509686311307	fix	1.0		443	28.0	female	white	5.676880222841227	neutral	124	sub-04	1.0	4.0	124_neutral	0.0	66.1649339802234	3.7582039868138963
6.0	41.305235851320504	pulse	1.0	t		28.0	female	white	5.676880222841227	neutral	124	sub-04	1.0	4.0	124_neutral	0.0	66.21507296843083	
6.0	42.005182513898035	pulse	1.0	t		28.0	female	white	5.676880222841227	neutral	124	sub-04	1.0	4.0	124_neutral	0.0	66.91501963100836	
6.0	42.70515392842026	pulse	1.0	t		28.0	female	white	5.676880222841227	neutral	124	sub-04	1.0	4.0	124_neutral	0.0	67.61499104553059	
6.0	43.405150094887176	pulse	1.0	t		28.0	female	white	5.676880222841227	neutral	124	sub-04	1.0	4.0	124_neutral	0.0	68.3149872119975	
6.0	44.1051272446166	pulse	1.0	t		28.0	female	white	5.676880222841227	neutral	124	sub-04	1.0	4.0	124_neutral	0.0	69.01496436172692	
6.0	44.80511254437624	pulse	1.0	t		28.0	female	white	5.676880222841227	neutral	124	sub-04	1.0	4.0	124_neutral	0.0	69.71494966148657	
7.0	45.013300849926964	face	0.0		146	20.0	male	black	3.1070433744528456	neutral	082	sub-04	1.0	4.0	082_neutral	0.0	69.92313796703729	1.2416634997262008
7.0	45.50509452375263	pulse	0.0	t		20.0	male	black	3.1070433744528456	neutral	082	sub-04	1.0	4.0	082_neutral	0.0	70.41493164086296	
7.0	46.20507318274667	pulse	0.0	t		20.0	male	black	3.1070433744528456	neutral	082	sub-04	1.0	4.0	082_neutral	0.0	71.114910299857	
7.0	46.254964349653164	fix	1.0		445	20.0	male	black	3.1070433744528456	neutral	082	sub-04	1.0	4.0	082_neutral	0.0	71.16480146676349	3.766548712581425
7.0	46.90504520097511	pulse	1.0	t		20.0	male	black	3.1070433744528456	neutral	082	sub-04	1.0	4.0	082_neutral	0.0	71.81488231808544	
7.0	47.60501993587968	pulse	1.0	t		20.0	male	black	3.1070433744528456	neutral	082	sub-04	1.0	4.0	082_neutral	0.0	72.51485705299001	
7.0	48.30501972458296	pulse	1.0	t		20.0	male	black	3.1070433744528456	neutral	082	sub-04	1.0	4.0	082_neutral	0.0	73.21485684169329	
7.0	49.00498359278026	pulse	1.0	t		20.0	male	black	3.1070433744528456	neutral	082	sub-04	1.0	4.0	082_neutral	0.0	73.91482070989059	
7.0	49.70497191107006	pulse	1.0	t		20.0	male	black	3.1070433744528456	neutral	082	sub-04	1.0	4.0	082_neutral	0.0	74.61480902818039	
8.0	50.02151306223459	face	0.0		145	27.0	female	white	3.504576203740549	neutral	144	sub-04	1.0	4.0	144_neutral	0.0	74.93135017934492	1.2333024738964014
8.0	50.40495238118183	pulse	0.0	t		27.0	female	white	3.504576203740549	neutral	144	sub-04	1.0	4.0	144_neutral	0.0	75.31478949829216	
8.0	51.10492892720504	pulse	0.0	t		27.0	female	white	3.504576203740549	neutral	144	sub-04	1.0	4.0	144_neutral	0.0	76.01476604431537	
8.0	51.25481553613099	fix	1.0		445	27.0	female	white	3.504576203740549	neutral	144	sub-04	1.0	4.0	144_neutral	0.0	76.16465265324132	3.7582124386981377
8.0	51.80490124728658	pulse	1.0	t		27.0	female	white	3.504576203740549	neutral	144	sub-04	1.0	4.0	144_neutral	0.0	76.71473836439691	
8.0	52.504910091578495	pulse	1.0	t		27.0	female	white	3.504576203740549	neutral	144	sub-04	1.0	4.0	144_neutral	0.0	77.41474720868882	
8.0	53.20488512833708	pulse	1.0	t		27.0	female	white	3.504576203740549	neutral	144	sub-04	1.0	4.0	144_neutral	0.0	78.11472224544741	
8.0	53.90486076880097	pulse	1.0	t		27.0	female	white	3.504576203740549	neutral	144	sub-04	1.0	4.0	144_neutral	0.0	78.8146978859113	
8.0	54.604837012971075	pulse	1.0	t		27.0	female	white	3.504576203740549	neutral	144	sub-04	1.0	4.0	144_neutral	0.0	79.5146741300814	
9.0	55.01302797482913	face	0.0		146	21.0	male	black	2.969757262236371	smiling	137	sub-04	1.0	4.0	137_smiling	0.0	79.92286509193946	1.2416505200471875
9.0	55.30481869049527	pulse	0.0	t		21.0	male	black	2.969757262236371	smiling	137	sub-04	1.0	4.0	137_smiling	0.0	80.2146558076056	
9.0	56.0047970476362	pulse	0.0	t		21.0	male	black	2.969757262236371	smiling	137	sub-04	1.0	4.0	137_smiling	0.0	80.91463416474653	
9.0	56.254678494876316	fix	1.0		444	21.0	male	black	2.969757262236371	smiling	137	sub-04	1.0	4.0	137_smiling	0.0	81.16451561198664	3.7665632015250594
9.0	56.70478144183653	pulse	1.0	t		21.0	male	black	2.969757262236371	smiling	137	sub-04	1.0	4.0	137_smiling	0.0	81.61461855894686	
9.0	57.40477217495027	pulse	1.0	t		21.0	male	black	2.969757262236371	smiling	137	sub-04	1.0	4.0	137_smiling	0.0	82.3146092920606	
9.0	58.104736948706886	pulse	1.0	t		21.0	male	black	2.969757262236371	smiling	137	sub-04	1.0	4.0	137_smiling	0.0	83.01457406581721	
9.0	58.80473130405608	pulse	1.0	t		21.0	male	black	2.969757262236371	smiling	137	sub-04	1.0	4.0	137_smiling	0.0	83.7145684211664	
9.0	59.50469819078353	pulse	1.0	t		21.0	male	black	2.969757262236371	smiling	137	sub-04	1.0	4.0	137_smiling	0.0	84.41453530789386	
10.0	60.021241696401376	face	0.0		145	22.0	female	west_asian	3.8205332272184642	smiling	066	sub-04	1.0	4.0	066_smiling	0.0	84.9310788135117	1.2333006627786745
10.0	60.20468862204416	pulse	0.0	t		22.0	female	west_asian	3.8205332272184642	smiling	066	sub-04	1.0	4.0	066_smiling	0.0	85.11452573915449	
10.0	60.90467573292153	pulse	0.0	t		22.0	female	west_asian	3.8205332272184642	smiling	066	sub-04	1.0	4.0	066_smiling	0.0	85.81451285003186	
10.0	61.25454235918005	fix	1.0		444	22.0	female	west_asian	3.8205332272184642	smiling	066	sub-04	1.0	4.0	066_smiling	0.0	86.16437947629038	3.758239303612754
10.0	61.60476426640162	pulse	1.0	t		22.0	female	west_asian	3.8205332272184642	smiling	066	sub-04	1.0	4.0	066_smiling	0.0	86.51460138351194	
10.0	62.30464150279295	pulse	1.0	t		22.0	female	west_asian	3.8205332272184642	smiling	066	sub-04	1.0	4.0	066_smiling	0.0	87.21447861990328	
10.0	63.0046083895204	pulse	1.0	t		22.0	female	west_asian	3.8205332272184642	smiling	066	sub-04	1.0	4.0	066_smiling	0.0	87.91444550663073	
10.0	63.704590670749894	pulse	1.0	t		22.0	female	west_asian	3.8205332272184642	smiling	066	sub-04	1.0	4.0	066_smiling	0.0	88.61442778786022	
10.0	64.40458140386363	pulse	1.0	t		22.0	female	west_asian	3.8205332272184642	smiling	066	sub-04	1.0	4.0	066_smiling	0.0	89.31441852097396	
11.0	65.0127816627928	face	0.0		146	22.0	male	black	2.767608436132113	neutral	044	sub-04	1.0	4.0	044_neutral	0.0	89.92261877990313	1.2416408607523408
11.0	65.10464277057508	pulse	0.0	t		22.0	male	black	2.767608436132113	neutral	044	sub-04	1.0	4.0	044_neutral	0.0	90.01447988768541	
11.0	65.8045378162924	pulse	0.0	t		22.0	male	black	2.767608436132113	neutral	044	sub-04	1.0	4.0	044_neutral	0.0	90.71437493340272	
11.0	66.25442252354514	fix	1.0		444	22.0	male	black	2.767608436132113	neutral	044	sub-04	1.0	4.0	044_neutral	0.0	91.16425964065547	3.7665459959052896
11.0	66.50451768269886	pulse	1.0	t		22.0	male	black	2.767608436132113	neutral	044	sub-04	1.0	4.0	044_neutral	0.0	91.41435479980919	
11.0	67.20449453057427	pulse	1.0	t		22.0	male	black	2.767608436132113	neutral	044	sub-04	1.0	4.0	044_neutral	0.0	92.1143316476846	
11.0	67.90447500068603	pulse	1.0	t		22.0	male	black	2.767608436132113	neutral	044	sub-04	1.0	4.0	044_neutral	0.0	92.81431211779636	
11.0	68.60444007629576	pulse	1.0	t		22.0	male	black	2.767608436132113	neutral	044	sub-04	1.0	4.0	044_neutral	0.0	93.51427719340609	
11.0	69.3044440909407	pulse	1.0	t		22.0	male	black	2.767608436132113	neutral	044	sub-04	1.0	4.0	044_neutral	0.0	94.21428120805103	
12.0	70.02096851945043	face	0.0		146	40.0	female	west_asian	1.5777954635893354	smiling	038	sub-04	1.0	4.0	038_smiling	0.0	94.93080563656076	1.2333178683984443
12.0	70.00711346744265	pulse	0.0	t		40.0	female	west_asian	1.5777954635893354	smiling	038	sub-04	1.0	4.0	038_smiling	0.0	94.91695058455298	
12.0	70.70441287934227	pulse	0.0	t		40.0	female	west_asian	1.5777954635893354	smiling	038	sub-04	1.0	4.0	038_smiling	0.0	95.6142499964526	
12.0	71.25428638784888	fix	1.0		443	40.0	female	west_asian	1.5777954635893354	smiling	038	sub-04	1.0	4.0	038_smiling	0.0	96.1641235049592	3.7665526366708946
12.0	71.40439968836654	pulse	1.0	t		40.0	female	west_asian	1.5777954635893354	smiling	038	sub-04	1.0	4.0	038_smiling	0.0	96.31423680547687	
12.0	72.10436566953558	pulse	1.0	t		40.0	female	west_asian	1.5777954635893354	smiling	038	sub-04	1.0	4.0	038_smiling	0.0	97.01420278664591	
12.0	72.80435791191394	pulse	1.0	t		40.0	female	west_asian	1.5777954635893354	smiling	038	sub-04	1.0	4.0	038_smiling	0.0	97.71419502902427	
12.0	73.50436464323502	pulse	1.0	t		40.0	female	west_asian	1.5777954635893354	smiling	038	sub-04	1.0	4.0	038_smiling	0.0	98.41420176034535	
12.0	74.20430406134074	pulse	1.0	t		40.0	female	west_asian	1.5777954635893354	smiling	038	sub-04	1.0	4.0	038_smiling	0.0	99.11414117845106	
12.0	74.90428332404099	pulse	1.0	t		40.0	female	west_asian	1.5777954635893354	smiling	038	sub-04	1.0	4.0	038_smiling	0.0	99.81412044115132	
13.0	75.02083902451977	face	0.0		146	25.0	female	black	3.858336649423	smiling	126	sub-04	1.0	4.0	126_smiling	0.0	99.9306761416301	1.2333118313390514
13.0	75.60427194418298	pulse	0.0	t		25.0	female	black	3.858336649423	smiling	126	sub-04	1.0	4.0	126_smiling	0.0	100.51410906129331	
13.0	76.25415085585882	fix	1.0		443	25.0	female	black	3.858336649423	smiling	126	sub-04	1.0	4.0	126_smiling	0.0	101.16398797296915	3.758356120717508
13.0	76.30426509212066	pulse	1.0	t		25.0	female	black	3.858336649423	smiling	126	sub-04	1.0	4.0	126_smiling	0.0	101.21410220923099	
13.0	77.00424827890947	pulse	1.0	t		25.0	female	black	3.858336649423	smiling	126	sub-04	1.0	4.0	126_smiling	0.0	101.9140853960198	
13.0	77.70420309151723	pulse	1.0	t		25.0	female	black	3.858336649423	smiling	126	sub-04	1.0	4.0	126_smiling	0.0	102.61404020862756	
13.0	78.40420982283922	pulse	1.0	t		25.0	female	black	3.858336649423	smiling	126	sub-04	1.0	4.0	126_smiling	0.0	103.31404693994955	
13.0	79.1041788225375	pulse	1.0	t		25.0	female	black	3.858336649423	smiling	126	sub-04	1.0	4.0	126_smiling	0.0	104.01401593964783	
13.0	79.8041605000617	pulse	1.0	t		25.0	female	black	3.858336649423	smiling	126	sub-04	1.0	4.0	126_smiling	0.0	104.71399761717203	
14.0	80.01250697657633	face	0.0		146	32.0	male	white	2.389176283326701	neutral	092	sub-04	1.0	4.0	092_neutral	0.0	104.92234409368666	1.2415089509977406
14.0	80.50414821464528	pulse	0.0	t		32.0	male	white	2.389176283326701	neutral	092	sub-04	1.0	4.0	092_neutral	0.0	105.41398533175561	
14.0	81.20412626993311	pulse	0.0	t		32.0	male	white	2.389176283326701	neutral	092	sub-04	1.0	4.0	092_neutral	0.0	106.11396338704344	
14.0	81.25401592757407	fix	1.0		444	32.0	male	white	2.389176283326701	neutral	092	sub-04	1.0	4.0	092_neutral	0.0	106.1638530446844	3.76655142925938
14.0	81.90409798630844	pulse	1.0	t		32.0	male	white	2.389176283326701	neutral	092	sub-04	1.0	4.0	092_neutral	0.0	106.81393510341877	
14.0	82.60407543789006	pulse	1.0	t		32.0	male	white	2.389176283326701	neutral	092	sub-04	1.0	4.0	092_neutral	0.0	107.51391255500039	
14.0	83.3040601339435	pulse	1.0	t		32.0	male	white	2.389176283326701	neutral	092	sub-04	1.0	4.0	092_neutral	0.0	108.21389725105382	
14.0	84.00403698181981	pulse	1.0	t		32.0	male	white	2.389176283326701	neutral	092	sub-04	1.0	4.0	092_neutral	0.0	108.91387409893014	
14.0	84.70403465755226	pulse	1.0	t		32.0	male	white	2.389176283326701	neutral	092	sub-04	1.0	4.0	092_neutral	0.0	109.61387177466258	
15.0	85.02056735683345	face	0.0		145	25.0	female	black	3.858336649423	neutral	126	sub-04	1.0	4.0	126_neutral	0.0	109.93040447394378	1.2333202832223833
15.0	85.40402207028274	pulse	0.0	t		25.0	female	black	3.858336649423	neutral	126	sub-04	1.0	4.0	126_neutral	0.0	110.31385918739306	
15.0	86.10398050512686	pulse	0.0	t		25.0	female	black	3.858336649423	neutral	126	sub-04	1.0	4.0	126_neutral	0.0	111.01381762223718	
15.0	86.25388764005584	fix	1.0		444	25.0	female	black	3.858336649423	neutral	126	sub-04	1.0	4.0	126_neutral	0.0	111.16372475716616	3.7665339217855944
15.0	86.8039784827115	pulse	1.0	t		25.0	female	black	3.858336649423	neutral	126	sub-04	1.0	4.0	126_neutral	0.0	111.71381559982183	
15.0	87.50396197135342	pulse	1.0	t		25.0	female	black	3.858336649423	neutral	126	sub-04	1.0	4.0	126_neutral	0.0	112.41379908846375	
15.0	88.20394485628913	pulse	1.0	t		25.0	female	black	3.858336649423	neutral	126	sub-04	1.0	4.0	126_neutral	0.0	113.11378197339945	
15.0	88.90466426250805	pulse	1.0	t		25.0	female	black	3.858336649423	neutral	126	sub-04	1.0	4.0	126_neutral	0.0	113.81450137961838	
15.0	89.60388225197948	pulse	1.0	t		25.0	female	black	3.858336649423	neutral	126	sub-04	1.0	4.0	126_neutral	0.0	114.51371936908981	
16.0	90.02042156184143	face	0.0		145	31.0	male	west_asian	1.9538400318344609	neutral	070	sub-04	1.0	4.0	070_neutral	1.0	114.93025867895176	1.2333251128702614
16.0	90.30388566291822	pulse	0.0	t		31.0	male	west_asian	1.9538400318344609	neutral	070	sub-04	1.0	4.0	070_neutral	1.0	115.21372278002855	
16.0	91.00386100152991	pulse	0.0	t		31.0	male	west_asian	1.9538400318344609	neutral	070	sub-04	1.0	4.0	070_neutral	1.0	115.91369811864024	
16.0	91.25374667471169	fix	1.0		236	31.0	male	west_asian	1.9538400318344609	neutral	070	sub-04	1.0	4.0	070_neutral	1.0	116.16358379182202	1.99993208307842
16.0	91.70384539573024	pulse	1.0	t		31.0	male	west_asian	1.9538400318344609	neutral	070	sub-04	1.0	4.0	070_neutral	1.0	116.61368251284057	
16.0	92.40381409357633	pulse	1.0	t		31.0	male	west_asian	1.9538400318344609	neutral	070	sub-04	1.0	4.0	070_neutral	1.0	117.31365121068666	
16.0	93.10380271371832	pulse	1.0	t		31.0	male	west_asian	1.9538400318344609	neutral	070	sub-04	1.0	4.0	070_neutral	1.0	118.01363983082865	
16.0	93.25367875779011	rating	2.0		235	31.0	male	west_asian	1.9538400318344609	neutral	070	sub-04	1.0	4.0	070_neutral	1.0	118.16351587490044	1.9999441571981151
16.0	93.7985028695648	pulse	2.0	t		31.0	male	west_asian	1.9538400318344609	neutral	070	sub-04	1.0	4.0	070_neutral	1.0	118.70833998667513	
16.0	93.99544020880967	response	2.0	n		31.0	male	west_asian	1.9538400318344609	neutral	070	sub-04	1.0	4.0	070_neutral	1.0	118.90527732592	
16.0	94.50375097611686	pulse	2.0	t		31.0	male	west_asian	1.9538400318344609	neutral	070	sub-04	1.0	4.0	070_neutral	1.0	119.41358809322719	
16.0	95.20373537031719	pulse	2.0	t		31.0	male	west_asian	1.9538400318344609	neutral	070	sub-04	1.0	4.0	070_neutral	1.0	120.11357248742752	
16.0	95.25362291498823	fix	3.0		445	31.0	male	west_asian	1.9538400318344609	neutral	070	sub-04	1.0	4.0	070_neutral	1.0	120.16346003209856	3.766566521907407
16.0	95.9037306312257	pulse	3.0	t		31.0	male	west_asian	1.9538400318344609	neutral	070	sub-04	1.0	4.0	070_neutral	1.0	120.81356774833603	
16.0	96.60370596983648	pulse	3.0	t		31.0	male	west_asian	1.9538400318344609	neutral	070	sub-04	1.0	4.0	070_neutral	1.0	121.51354308694681	
16.0	97.30369308071386	pulse	3.0	t		31.0	male	west_asian	1.9538400318344609	neutral	070	sub-04	1.0	4.0	070_neutral	1.0	122.21353019782418	
16.0	98.00366117485373	pulse	3.0	t		31.0	male	west_asian	1.9538400318344609	neutral	070	sub-04	1.0	4.0	070_neutral	1.0	122.91349829196406	
16.0	98.70365070055504	pulse	3.0	t		31.0	male	west_asian	1.9538400318344609	neutral	070	sub-04	1.0	4.0	070_neutral	1.0	123.61348781766537	
17.0	99.02018943689563	face	0.0		145	34.0	male	white	2.651014723438122	neutral	121	sub-04	1.0	4.0	121_neutral	0.0	123.93002655400596	1.2332979461016293
17.0	99.4036363021678	pulse	0.0	t		34.0	male	white	2.651014723438122	neutral	121	sub-04	1.0	4.0	121_neutral	0.0	124.31347341927813	
17.0	100.10365359834395	pulse	0.0	t		34.0	male	white	2.651014723438122	neutral	121	sub-04	1.0	4.0	121_neutral	0.0	125.01349071545428	
17.0	100.25348738299726	fix	1.0		444	34.0	male	white	2.651014723438122	neutral	121	sub-04	1.0	4.0	121_neutral	0.0	125.16332450010759	3.76654750517082
17.0	100.80360478871626	pulse	1.0	t		34.0	male	white	2.651014723438122	neutral	121	sub-04	1.0	4.0	121_neutral	0.0	125.71344190582658	
17.0	101.50357499582697	pulse	1.0	t		34.0	male	white	2.651014723438122	neutral	121	sub-04	1.0	4.0	121_neutral	0.0	126.4134121129373	
17.0	102.20357176599919	pulse	1.0	t		34.0	male	white	2.651014723438122	neutral	121	sub-04	1.0	4.0	121_neutral	0.0	127.11340888310951	
17.0	102.90353321937346	pulse	1.0	t		34.0	male	white	2.651014723438122	neutral	121	sub-04	1.0	4.0	121_neutral	0.0	127.81337033648379	
17.0	103.60350493574879	pulse	1.0	t		34.0	male	white	2.651014723438122	neutral	121	sub-04	1.0	4.0	121_neutral	0.0	128.51334205285912	
18.0	104.02003488816808	face	0.0		145	28.0	male	white	3.9076800636689217	neutral	033	sub-04	1.0	4.0	033_neutral	0.0	128.9298720052784	1.2333178683984443
18.0	104.30354034310403	pulse	0.0	t		28.0	male	white	3.9076800636689217	neutral	033	sub-04	1.0	4.0	033_neutral	0.0	129.21337746021436	
18.0	105.0034704037671	pulse	0.0	t		28.0	male	white	3.9076800636689217	neutral	033	sub-04	1.0	4.0	033_neutral	0.0	129.91330752087742	
18.0	105.25335275656653	fix	1.0		444	28.0	male	white	3.9076800636689217	neutral	033	sub-04	1.0	4.0	033_neutral	0.0	130.16318987367686	3.7582649611167653
18.0	105.70345389240902	pulse	1.0	t		28.0	male	white	3.9076800636689217	neutral	033	sub-04	1.0	4.0	033_neutral	0.0	130.61329100951934	
18.0	106.40343768290404	pulse	1.0	t		28.0	male	white	3.9076800636689217	neutral	033	sub-04	1.0	4.0	033_neutral	0.0	131.31327480001437	
18.0	107.10352682009034	pulse	1.0	t		28.0	male	white	3.9076800636689217	neutral	033	sub-04	1.0	4.0	033_neutral	0.0	132.01336393720067	
18.0	107.80355256814983	pulse	1.0	t		28.0	male	white	3.9076800636689217	neutral	033	sub-04	1.0	4.0	033_neutral	0.0	132.71338968526015	
18.0	108.50339237477056	pulse	1.0	t		28.0	male	white	3.9076800636689217	neutral	033	sub-04	1.0	4.0	033_neutral	0.0	133.41322949188088	
19.0	109.0116177176833	face	0.0		146	26.0	female	white	4.854755272582572	neutral	027	sub-04	1.0	4.0	027_neutral	0.0	133.92145483479362	1.2415982994807564
19.0	109.20336439299899	pulse	0.0	t		26.0	female	white	4.854755272582572	neutral	027	sub-04	1.0	4.0	027_neutral	0.0	134.11320151010932	
19.0	109.90333067602023	pulse	0.0	t		26.0	female	white	4.854755272582572	neutral	027	sub-04	1.0	4.0	027_neutral	0.0	134.81316779313056	
19.0	110.25321601716405	fix	1.0		444	26.0	female	white	4.854755272582572	neutral	027	sub-04	1.0	4.0	027_neutral	0.0	135.16305313427438	3.7665523348177885
19.0	110.60333710548912	pulse	1.0	t		26.0	female	white	4.854755272582572	neutral	027	sub-04	1.0	4.0	027_neutral	0.0	135.51317422259945	
19.0	111.30330489777589	pulse	1.0	t		26.0	female	white	4.854755272582572	neutral	027	sub-04	1.0	4.0	027_neutral	0.0	136.21314201488622	
19.0	112.00328385862213	pulse	1.0	t		26.0	female	white	4.854755272582572	neutral	027	sub-04	1.0	4.0	027_neutral	0.0	136.91312097573245	
19.0	112.70327549729518	pulse	1.0	t		26.0	female	white	4.854755272582572	neutral	027	sub-04	1.0	4.0	027_neutral	0.0	137.6131126144055	
19.0	113.4032595896424	pulse	1.0	t		26.0	female	white	4.854755272582572	neutral	027	sub-04	1.0	4.0	027_neutral	0.0	138.31309670675273	
20.0	114.01976835198184	face	0.0		145	31.0	female	white	2.1822522881018704	smiling	102	sub-04	1.0	4.0	102_smiling	1.0	138.92960546909217	1.2333293388119273
20.0	114.10322436339902	pulse	0.0	t		31.0	female	white	2.1822522881018704	smiling	102	sub-04	1.0	4.0	102_smiling	1.0	139.01306148050935	
20.0	114.80322445395541	pulse	0.0	t		31.0	female	white	2.1822522881018704	smiling	102	sub-04	1.0	4.0	102_smiling	1.0	139.71306157106574	
20.0	115.25309769079377	fix	1.0		236	31.0	female	white	2.1822522881018704	smiling	102	sub-04	1.0	4.0	102_smiling	1.0	140.1629348079041	1.9999311775200113
20.0	115.50320341480165	pulse	1.0	t		31.0	female	white	2.1822522881018704	smiling	102	sub-04	1.0	4.0	102_smiling	1.0	140.41304053191197	
20.0	116.20314826626145	pulse	1.0	t		31.0	female	white	2.1822522881018704	smiling	102	sub-04	1.0	4.0	102_smiling	1.0	141.11298538337178	
20.0	116.90314654570011	pulse	1.0	t		31.0	female	white	2.1822522881018704	smiling	102	sub-04	1.0	4.0	102_smiling	1.0	141.81298366281044	
20.0	117.25302886831378	rating	2.0		235	31.0	female	white	2.1822522881018704	smiling	102	sub-04	1.0	4.0	102_smiling	1.0	142.1628659854241	1.9999698147012168
20.0	117.59785545528302	pulse	2.0	t		31.0	female	white	2.1822522881018704	smiling	102	sub-04	1.0	4.0	102_smiling	1.0	142.50769257239335	
20.0	118.29784588654366	pulse	2.0	t		31.0	female	white	2.1822522881018704	smiling	102	sub-04	1.0	4.0	102_smiling	1.0	143.20768300365398	
20.0	118.87811085913017	response	2.0	w		31.0	female	white	2.1822522881018704	smiling	102	sub-04	1.0	4.0	102_smiling	1.0	143.7879479762405	
20.0	118.99780552879929	pulse	2.0	t		31.0	female	white	2.1822522881018704	smiling	102	sub-04	1.0	4.0	102_smiling	1.0	143.90764264590962	
20.0	119.252998683015	fix	3.0		444	31.0	female	white	2.1822522881018704	smiling	102	sub-04	1.0	4.0	102_smiling	1.0	144.16283580012532	3.7665242624898383
20.0	119.7030690298534	pulse	3.0	t		31.0	female	white	2.1822522881018704	smiling	102	sub-04	1.0	4.0	102_smiling	1.0	144.61290614696372	
20.0	120.40307938341084	pulse	3.0	t		31.0	female	white	2.1822522881018704	smiling	102	sub-04	1.0	4.0	102_smiling	1.0	145.31291650052117	
20.0	121.10305109978617	pulse	3.0	t		31.0	female	white	2.1822522881018704	smiling	102	sub-04	1.0	4.0	102_smiling	1.0	146.0128882168965	
20.0	121.80302100504286	pulse	3.0	t		31.0	female	white	2.1822522881018704	smiling	102	sub-04	1.0	4.0	102_smiling	1.0	146.7128581221532	
20.0	122.50299604180145	pulse	3.0	t		31.0	female	white	2.1822522881018704	smiling	102	sub-04	1.0	4.0	102_smiling	1.0	147.41283315891178	
21.0	123.01952294550483	face	0.0		145	19.0	male	white	3.2522881018702745	neutral	018	sub-04	1.0	4.0	018_neutral	0.0	147.92936006261516	1.2333160572816269
21.0	123.20304352327639	pulse	0.0	t		19.0	male	white	3.2522881018702745	neutral	018	sub-04	1.0	4.0	018_neutral	0.0	148.11288064038672	
21.0	123.90296754688006	pulse	0.0	t		19.0	male	white	3.2522881018702745	neutral	018	sub-04	1.0	4.0	018_neutral	0.0	148.8128046639904	
21.0	124.25283900278646	fix	1.0		444	19.0	male	white	3.2522881018702745	neutral	018	sub-04	1.0	4.0	018_neutral	0.0	149.1626761198968	3.766557466317863
21.0	124.60295827999289	pulse	1.0	t		19.0	male	white	3.2522881018702745	neutral	018	sub-04	1.0	4.0	018_neutral	0.0	149.51279539710322	
21.0	125.3029348260161	pulse	1.0	t		19.0	male	white	3.2522881018702745	neutral	018	sub-04	1.0	4.0	018_neutral	0.0	150.21277194312643	
21.0	126.00291922021643	pulse	1.0	t		19.0	male	white	3.2522881018702745	neutral	018	sub-04	1.0	4.0	018_neutral	0.0	150.91275633732675	
21.0	126.70289003103335	pulse	1.0	t		19.0	male	white	3.2522881018702745	neutral	018	sub-04	1.0	4.0	018_neutral	0.0	151.61272714814368	
21.0	127.40286536964413	pulse	1.0	t		19.0	male	white	3.2522881018702745	neutral	018	sub-04	1.0	4.0	018_neutral	0.0	152.31270248675446	
22.0	128.01939646910432	face	0.0		145	26.0	female	white	4.854755272582572	smiling	027	sub-04	1.0	4.0	027_smiling	0.0	152.92923358621465	1.2333229998994284
22.0	128.10304808125602	pulse	0.0	t		26.0	female	white	4.854755272582572	smiling	027	sub-04	1.0	4.0	027_smiling	0.0	153.01288519836635	
22.0	128.80283234692797	pulse	0.0	t		26.0	female	white	4.854755272582572	smiling	027	sub-04	1.0	4.0	027_smiling	0.0	153.7126694640383	
22.0	129.25271946900375	fix	1.0		444	26.0	female	white	4.854755272582572	smiling	027	sub-04	1.0	4.0	027_smiling	0.0	154.16255658611408	3.76655142925938
22.0	129.50282458930633	pulse	1.0	t		26.0	female	white	4.854755272582572	smiling	027	sub-04	1.0	4.0	027_smiling	0.0	154.41266170641666	
22.0	130.2027935890046	pulse	1.0	t		26.0	female	white	4.854755272582572	smiling	027	sub-04	1.0	4.0	027_smiling	0.0	155.11263070611494	
22.0	130.90278854806002	pulse	1.0	t		26.0	female	white	4.854755272582572	smiling	027	sub-04	1.0	4.0	027_smiling	0.0	155.81262566517034	
22.0	131.6027578496114	pulse	1.0	t		26.0	female	white	4.854755272582572	smiling	027	sub-04	1.0	4.0	027_smiling	0.0	156.51259496672174	
22.0	132.30274888457734	pulse	1.0	t		26.0	female	white	4.854755272582572	smiling	027	sub-04	1.0	4.0	027_smiling	0.0	157.21258600168767	
23.0	133.01927089826313	face	0.0		146	20.0	male	black	3.1070433744528456	smiling	082	sub-04	1.0	4.0	082_smiling	0.0	157.92910801537346	1.2333006627786745
23.0	133.00542671296262	pulse	0.0	t		20.0	male	black	3.1070433744528456	smiling	082	sub-04	1.0	4.0	082_smiling	0.0	157.91526383007294	
23.0	133.7026986562405	pulse	0.0	t		20.0	male	black	3.1070433744528456	smiling	082	sub-04	1.0	4.0	082_smiling	0.0	158.61253577335083	
23.0	134.2525715610418	fix	1.0		1184	20.0	male	black	3.1070433744528456	smiling	082	sub-04	1.0	4.0	082_smiling	0.0	159.16240867815213	10.016381259638365
23.0	134.40268606897098	pulse	1.0	t		20.0	male	black	3.1070433744528456	smiling	082	sub-04	1.0	4.0	082_smiling	0.0	159.3125231860813	
23.0	135.10266835020138	pulse	1.0	t		20.0	male	black	3.1070433744528456	smiling	082	sub-04	1.0	4.0	082_smiling	0.0	160.0125054673117	
23.0	135.802658479608	pulse	1.0	t		20.0	male	black	3.1070433744528456	smiling	082	sub-04	1.0	4.0	082_smiling	0.0	160.71249559671833	
23.0	136.5026024255094	pulse	1.0	t		20.0	male	black	3.1070433744528456	smiling	082	sub-04	1.0	4.0	082_smiling	0.0	161.41243954261972	
23.0	137.20260221421177	pulse	1.0	t		20.0	male	black	3.1070433744528456	smiling	082	sub-04	1.0	4.0	082_smiling	0.0	162.1124393313221	
23.0	137.90258509914747	pulse	1.0	t		20.0	male	black	3.1070433744528456	smiling	082	sub-04	1.0	4.0	082_smiling	0.0	162.8124222162578	
23.0	138.60256526740704	pulse	1.0	t		20.0	male	black	3.1070433744528456	smiling	082	sub-04	1.0	4.0	082_smiling	0.0	163.51240238451737	
23.0	139.30255237828442	pulse	1.0	t		20.0	male	black	3.1070433744528456	smiling	082	sub-04	1.0	4.0	082_smiling	0.0	164.21238949539475	
23.0	140.00266204147374	pulse	1.0	t		20.0	male	black	3.1070433744528456	smiling	082	sub-04	1.0	4.0	082_smiling	0.0	164.91249915858407	
23.0	140.70251754444962	pulse	1.0	t		20.0	male	black	3.1070433744528456	smiling	082	sub-04	1.0	4.0	082_smiling	0.0	165.61235466155995	
23.0	141.40250284420927	pulse	1.0	t		20.0	male	black	3.1070433744528456	smiling	082	sub-04	1.0	4.0	082_smiling	0.0	166.3123399613196	
23.0	142.10248240876263	pulse	1.0	t		20.0	male	black	3.1070433744528456	smiling	082	sub-04	1.0	4.0	082_smiling	0.0	167.01231952587295	
23.0	142.80246559555144	pulse	1.0	t		20.0	male	black	3.1070433744528456	smiling	082	sub-04	1.0	4.0	082_smiling	0.0	167.71230271266177	
23.0	143.50241105071655	pulse	1.0	t		20.0	male	black	3.1070433744528456	smiling	082	sub-04	1.0	4.0	082_smiling	0.0	168.41224816782687	
23.0	144.20241295239066	pulse	1.0	t		20.0	male	black	3.1070433744528456	smiling	082	sub-04	1.0	4.0	082_smiling	0.0	169.112250069501	
24.0	144.26895282068017	face	0.0		146	27.0	female	white	4.181058495821727	smiling	039	sub-04	1.0	4.0	039_smiling	0.0	169.1787899377905	1.2333293388119273
24.0	144.90239644103258	pulse	0.0	t		27.0	female	white	4.181058495821727	smiling	039	sub-04	1.0	4.0	039_smiling	0.0	169.8122335581429	
24.0	145.5022821594921	fix	1.0		443	27.0	female	white	4.181058495821727	smiling	039	sub-04	1.0	4.0	039_smiling	0.0	170.41211927660243	3.7665511274062737
24.0	145.60239079638177	pulse	1.0	t		27.0	female	white	4.181058495821727	smiling	039	sub-04	1.0	4.0	039_smiling	0.0	170.5122279134921	
24.0	146.3023751905821	pulse	1.0	t		27.0	female	white	4.181058495821727	smiling	039	sub-04	1.0	4.0	039_smiling	0.0	171.21221230769243	
24.0	147.00234358657417	pulse	1.0	t		27.0	female	white	4.181058495821727	smiling	039	sub-04	1.0	4.0	039_smiling	0.0	171.9121807036845	
24.0	147.70231711406814	pulse	1.0	t		27.0	female	white	4.181058495821727	smiling	039	sub-04	1.0	4.0	039_smiling	0.0	172.61215423117847	
24.0	148.40231237497574	pulse	1.0	t		27.0	female	white	4.181058495821727	smiling	039	sub-04	1.0	4.0	039_smiling	0.0	173.31214949208606	
24.0	149.1022868080281	pulse	1.0	t		27.0	female	white	4.181058495821727	smiling	039	sub-04	1.0	4.0	039_smiling	0.0	174.01212392513844	
25.0	149.26883328689837	face	0.0		146	21.0	male	black	2.969757262236371	neutral	137	sub-04	1.0	4.0	137_neutral	0.0	174.1786704040087	1.2332991535131441
25.0	149.80226516516905	pulse	0.0	t		21.0	male	black	2.969757262236371	neutral	137	sub-04	1.0	4.0	137_neutral	0.0	174.71210228227937	
25.0	150.50213244041151	fix	1.0		444	21.0	male	black	2.969757262236371	neutral	137	sub-04	1.0	4.0	137_neutral	0.0	175.41196955752184	3.7665668237614227
25.0	150.509631374116	pulse	1.0	t		21.0	male	black	2.969757262236371	neutral	137	sub-04	1.0	4.0	137_neutral	0.0	175.41946849122633	
25.0	151.20222580353948	pulse	1.0	t		21.0	male	black	2.969757262236371	neutral	137	sub-04	1.0	4.0	137_neutral	0.0	176.1120629206498	
25.0	151.90220717921056	pulse	1.0	t		21.0	male	black	2.969757262236371	neutral	137	sub-04	1.0	4.0	137_neutral	0.0	176.8120442963209	
25.0	152.6021861400577	pulse	1.0	t		21.0	male	black	2.969757262236371	neutral	137	sub-04	1.0	4.0	137_neutral	0.0	177.51202325716804	
25.0	153.302150008255	pulse	1.0	t		21.0	male	black	2.969757262236371	neutral	137	sub-04	1.0	4.0	137_neutral	0.0	178.21198712536534	
25.0	154.00215190992913	pulse	1.0	t		21.0	male	black	2.969757262236371	neutral	137	sub-04	1.0	4.0	137_neutral	0.0	178.91198902703945	
26.0	154.26869926417294	face	0.0		145	36.0	female	white	2.7548746518105847	neutral	011	sub-04	1.0	4.0	011_neutral	0.0	179.17853638128327	1.2333136424567783
26.0	154.70213449301173	pulse	0.0	t		36.0	female	white	2.7548746518105847	neutral	011	sub-04	1.0	4.0	011_neutral	0.0	179.61197161012205	
26.0	155.40212401871304	pulse	0.0	t		36.0	female	white	2.7548746518105847	neutral	011	sub-04	1.0	4.0	011_neutral	0.0	180.31196113582337	
26.0	155.50201290662972	fix	1.0		444	36.0	female	white	2.7548746518105847	neutral	011	sub-04	1.0	4.0	011_neutral	0.0	180.41185002374004	3.758286392678201
26.0	156.10209301841132	pulse	1.0	t		36.0	female	white	2.7548746518105847	neutral	011	sub-04	1.0	4.0	011_neutral	0.0	181.01193013552165	
26.0	156.80208465708438	pulse	1.0	t		36.0	female	white	2.7548746518105847	neutral	011	sub-04	1.0	4.0	011_neutral	0.0	181.7119217741947	
26.0	157.5020497326941	pulse	1.0	t		36.0	female	white	2.7548746518105847	neutral	011	sub-04	1.0	4.0	011_neutral	0.0	182.41188684980443	
26.0	158.20205435104435	pulse	1.0	t		36.0	female	white	2.7548746518105847	neutral	011	sub-04	1.0	4.0	011_neutral	0.0	183.11189146815468	
26.0	158.90201278588847	pulse	1.0	t		36.0	female	white	2.7548746518105847	neutral	011	sub-04	1.0	4.0	011_neutral	0.0	183.8118499029988	
27.0	159.26029929930792	face	0.0		146	26.0	male	white	2.7966573816155993	smiling	117	sub-04	1.0	4.0	117_smiling	0.0	184.17013641641825	1.241580490155684
27.0	159.60201227273865	pulse	0.0	t		26.0	male	white	2.7966573816155993	smiling	117	sub-04	1.0	4.0	117_smiling	0.0	184.51184938984898	
27.0	160.3019918372911	pulse	0.0	t		26.0	male	white	2.7966573816155993	smiling	117	sub-04	1.0	4.0	117_smiling	0.0	185.21182895440143	
27.0	160.5018797894636	fix	1.0		444	26.0	male	white	2.7966573816155993	smiling	117	sub-04	1.0	4.0	117_smiling	0.0	185.41171690657393	3.7665357329033213
27.0	161.0019671759028	pulse	1.0	t		26.0	male	white	2.7966573816155993	smiling	117	sub-04	1.0	4.0	117_smiling	0.0	185.91180429301312	
27.0	161.70194523119062	pulse	1.0	t		26.0	male	white	2.7966573816155993	smiling	117	sub-04	1.0	4.0	117_smiling	0.0	186.61178234830095	
27.0	162.4019196642421	pulse	1.0	t		26.0	male	white	2.7966573816155993	smiling	117	sub-04	1.0	4.0	117_smiling	0.0	187.31175678135241	
27.0	163.10190586956105	pulse	1.0	t		26.0	male	white	2.7966573816155993	smiling	117	sub-04	1.0	4.0	117_smiling	0.0	188.01174298667138	
27.0	163.80188664152593	pulse	1.0	t		26.0	male	white	2.7966573816155993	smiling	117	sub-04	1.0	4.0	117_smiling	0.0	188.71172375863625	
28.0	164.26841552236692	face	0.0		145	34.0	male	white	2.651014723438122	smiling	121	sub-04	1.0	4.0	121_smiling	1.0	189.17825263947725	1.2333266221348822
28.0	164.50186922460853	pulse	0.0	t		34.0	male	white	2.651014723438122	smiling	121	sub-04	1.0	4.0	121_smiling	1.0	189.41170634171885	
28.0	165.20185392066287	pulse	0.0	t		34.0	male	white	2.651014723438122	smiling	121	sub-04	1.0	4.0	121_smiling	1.0	190.1116910377732	
28.0	165.5017421445018	fix	1.0		236	34.0	male	white	2.651014723438122	smiling	121	sub-04	1.0	4.0	121_smiling	1.0	190.41157926161213	1.9999335923439503
28.0	165.90183107039138	pulse	1.0	t		34.0	male	white	2.651014723438122	smiling	121	sub-04	1.0	4.0	121_smiling	1.0	190.8116681875017	
28.0	166.6018205960927	pulse	1.0	t		34.0	male	white	2.651014723438122	smiling	121	sub-04	1.0	4.0	121_smiling	1.0	191.51165771320302	
28.0	167.3018034810284	pulse	1.0	t		34.0	male	white	2.651014723438122	smiling	121	sub-04	1.0	4.0	121_smiling	1.0	192.21164059813873	
28.0	167.50167573684575	rating	2.0		235	34.0	male	white	2.651014723438122	smiling	121	sub-04	1.0	4.0	121_smiling	1.0	192.41151285395608	1.9999619665231876
28.0	167.99649759981548	pulse	2.0	t		34.0	male	white	2.651014723438122	smiling	121	sub-04	1.0	4.0	121_smiling	1.0	192.9063347169258	
28.0	168.56313994719312	response	2.0	w		34.0	male	white	2.651014723438122	smiling	121	sub-04	1.0	4.0	121_smiling	1.0	193.47297706430345	
28.0	168.6964744476918	pulse	2.0	t		34.0	male	white	2.651014723438122	smiling	121	sub-04	1.0	4.0	121_smiling	1.0	193.60631156480213	
28.0	169.40174338209908	pulse	2.0	t		34.0	male	white	2.651014723438122	smiling	121	sub-04	1.0	4.0	121_smiling	1.0	194.3115804992094	
28.0	169.50163770336894	fix	3.0		444	34.0	male	white	2.651014723438122	smiling	121	sub-04	1.0	4.0	121_smiling	1.0	194.41147482047927	3.7583368021278147
28.0	170.10173743559517	pulse	3.0	t		34.0	male	white	2.651014723438122	smiling	121	sub-04	1.0	4.0	121_smiling	1.0	195.0115745527055	
28.0	170.80169164449762	pulse	3.0	t		34.0	male	white	2.651014723438122	smiling	121	sub-04	1.0	4.0	121_smiling	1.0	195.71152876160795	
28.0	171.50166607755	pulse	3.0	t		34.0	male	white	2.651014723438122	smiling	121	sub-04	1.0	4.0	121_smiling	1.0	196.41150319466033	
28.0	172.2016737144304	pulse	3.0	t		34.0	male	white	2.651014723438122	smiling	121	sub-04	1.0	4.0	121_smiling	1.0	197.11151083154073	
28.0	172.90164844933588	pulse	3.0	t		34.0	male	white	2.651014723438122	smiling	121	sub-04	1.0	4.0	121_smiling	1.0	197.8114855664462	
29.0	173.25997450549676	face	0.0		146	31.0	female	east_asian	3.395941106247513	neutral	087	sub-04	1.0	4.0	087_neutral	0.0	198.16981162260709	1.2415270621759191
29.0	173.60162046756432	pulse	0.0	t		31.0	female	east_asian	3.395941106247513	neutral	087	sub-04	1.0	4.0	087_neutral	0.0	198.51145758467464	
29.0	174.3016142192073	pulse	0.0	t		31.0	female	east_asian	3.395941106247513	neutral	087	sub-04	1.0	4.0	087_neutral	0.0	199.21145133631762	
29.0	174.50150156767268	fix	1.0		444	31.0	female	east_asian	3.395941106247513	neutral	087	sub-04	1.0	4.0	087_neutral	0.0	199.411338684783	3.766540260699003
29.0	175.00158593558263	pulse	1.0	t		31.0	female	east_asian	3.395941106247513	neutral	087	sub-04	1.0	4.0	087_neutral	0.0	199.91142305269295	
29.0	175.70156519828197	pulse	1.0	t		31.0	female	east_asian	3.395941106247513	neutral	087	sub-04	1.0	4.0	087_neutral	0.0	200.6114023153923	
29.0	176.40156076104358	pulse	1.0	t		31.0	female	east_asian	3.395941106247513	neutral	087	sub-04	1.0	4.0	087_neutral	0.0	201.3113978781539	
29.0	177.10152644035952	pulse	1.0	t		31.0	female	east_asian	3.395941106247513	neutral	087	sub-04	1.0	4.0	087_neutral	0.0	202.01136355746985	
29.0	177.80151838088477	pulse	1.0	t		31.0	female	east_asian	3.395941106247513	neutral	087	sub-04	1.0	4.0	087_neutral	0.0	202.7113554979951	
30.0	178.26804182837168	face	0.0		145	47.0	male	east_asian	2.171110226820533	neutral	024	sub-04	1.0	4.0	024_neutral	0.0	203.177878945482	1.2333217924870041
30.0	178.50149432320177	pulse	0.0	t		47.0	male	east_asian	2.171110226820533	neutral	024	sub-04	1.0	4.0	024_neutral	0.0	203.4113314403121	
30.0	179.2014654358709	pulse	0.0	t		47.0	male	east_asian	2.171110226820533	neutral	024	sub-04	1.0	4.0	024_neutral	0.0	204.11130255298121	
30.0	179.50136362085868	fix	1.0		444	47.0	male	east_asian	2.171110226820533	neutral	024	sub-04	1.0	4.0	024_neutral	0.0	204.411200737969	3.7665529385240006
30.0	179.90146492272106	pulse	1.0	t		47.0	male	east_asian	2.171110226820533	neutral	024	sub-04	1.0	4.0	024_neutral	0.0	204.8113020398314	
30.0	180.60143030018298	pulse	1.0	t		47.0	male	east_asian	2.171110226820533	neutral	024	sub-04	1.0	4.0	024_neutral	0.0	205.5112674172933	
30.0	181.30141650550195	pulse	1.0	t		47.0	male	east_asian	2.171110226820533	neutral	024	sub-04	1.0	4.0	024_neutral	0.0	206.21125362261228	
30.0	182.00141025714493	pulse	1.0	t		47.0	male	east_asian	2.171110226820533	neutral	024	sub-04	1.0	4.0	024_neutral	0.0	206.91124737425525	
30.0	182.70138982169829	pulse	1.0	t		47.0	male	east_asian	2.171110226820533	neutral	024	sub-04	1.0	4.0	024_neutral	0.0	207.6112269388086	
31.0	183.26791655938268	face	0.0		145	30.0	female	black	2.7345801830481498	neutral	062	sub-04	1.0	4.0	062_neutral	0.0	208.177753676493	1.2332967386901146
31.0	183.40136153807362	pulse	0.0	t		30.0	female	black	2.7345801830481498	neutral	062	sub-04	1.0	4.0	062_neutral	0.0	208.31119865518394	
31.0	184.10134774339167	pulse	0.0	t		30.0	female	black	2.7345801830481498	neutral	062	sub-04	1.0	4.0	062_neutral	0.0	209.011184860502	
31.0	184.5012132980728	fix	1.0		444	30.0	female	black	2.7345801830481498	neutral	062	sub-04	1.0	4.0	062_neutral	0.0	209.41105041518313	3.766568936731346
31.0	184.80132278015026	pulse	1.0	t		30.0	female	black	2.7345801830481498	neutral	062	sub-04	1.0	4.0	062_neutral	0.0	209.7111598972606	
31.0	185.50130868361612	pulse	1.0	t		30.0	female	black	2.7345801830481498	neutral	062	sub-04	1.0	4.0	062_neutral	0.0	210.41114580072644	
31.0	186.20128704075705	pulse	1.0	t		30.0	female	black	2.7345801830481498	neutral	062	sub-04	1.0	4.0	062_neutral	0.0	211.11112415786738	
31.0	186.901272944222	pulse	1.0	t		30.0	female	black	2.7345801830481498	neutral	062	sub-04	1.0	4.0	062_neutral	0.0	211.81111006133233	
31.0	187.60123379389006	pulse	1.0	t		30.0	female	black	2.7345801830481498	neutral	062	sub-04	1.0	4.0	062_neutral	0.0	212.5110709110004	
32.0	188.26778223480414	face	0.0		145	22.0	male	black	2.767608436132113	smiling	044	sub-04	1.0	4.0	044_smiling	0.0	213.17761935191447	1.2333139443098844
32.0	188.3012432418882	pulse	0.0	t		22.0	male	black	2.767608436132113	smiling	044	sub-04	1.0	4.0	044_smiling	0.0	213.21108035899852	
32.0	189.00121556196973	pulse	0.0	t		22.0	male	black	2.767608436132113	smiling	044	sub-04	1.0	4.0	044_smiling	0.0	213.91105267908006	
32.0	189.50109617911403	fix	1.0		443	22.0	male	black	2.767608436132113	smiling	044	sub-04	1.0	4.0	044_smiling	0.0	214.41093329622436	3.7665505237000616
32.0	189.70120086172938	pulse	1.0	t		22.0	male	black	2.767608436132113	smiling	044	sub-04	1.0	4.0	044_smiling	0.0	214.6110379788397	
32.0	190.4011719743985	pulse	1.0	t		22.0	male	black	2.767608436132113	smiling	044	sub-04	1.0	4.0	044_smiling	0.0	215.31100909150882	
32.0	191.10117115939556	pulse	1.0	t		22.0	male	black	2.767608436132113	smiling	044	sub-04	1.0	4.0	044_smiling	0.0	216.0110082765059	
32.0	191.8011368387115	pulse	1.0	t		22.0	male	black	2.767608436132113	smiling	044	sub-04	1.0	4.0	044_smiling	0.0	216.71097395582183	
32.0	192.50112425144198	pulse	1.0	t		22.0	male	black	2.767608436132113	smiling	044	sub-04	1.0	4.0	044_smiling	0.0	217.4109613685523	
32.0	193.2011071363777	pulse	1.0	t		22.0	male	black	2.767608436132113	smiling	044	sub-04	1.0	4.0	044_smiling	0.0	218.11094425348801	
33.0	193.2676467028141	face	0.0		146	31.0	female	white	2.1822522881018704	neutral	102	sub-04	1.0	4.0	102_neutral	0.0	218.17748381992442	1.2333079072504916
33.0	193.90108579537173	pulse	0.0	t		31.0	female	white	2.1822522881018704	neutral	102	sub-04	1.0	4.0	102_neutral	0.0	218.81092291248206	
33.0	194.50095461006458	fix	1.0		443	31.0	female	white	2.1822522881018704	neutral	102	sub-04	1.0	4.0	102_neutral	0.0	219.4107917271749	3.758281864883429
33.0	194.60106777474812	pulse	1.0	t		31.0	female	white	2.1822522881018704	neutral	102	sub-04	1.0	4.0	102_neutral	0.0	219.51090489185844	
33.0	195.301035868888	pulse	1.0	t		31.0	female	white	2.1822522881018704	neutral	102	sub-04	1.0	4.0	102_neutral	0.0	220.21087298599832	
33.0	196.00102237605915	pulse	1.0	t		31.0	female	white	2.1822522881018704	neutral	102	sub-04	1.0	4.0	102_neutral	0.0	220.91085949316948	
33.0	196.70099167761146	pulse	1.0	t		31.0	female	white	2.1822522881018704	neutral	102	sub-04	1.0	4.0	102_neutral	0.0	221.61082879472178	
33.0	197.40097607181178	pulse	1.0	t		31.0	female	white	2.1822522881018704	neutral	102	sub-04	1.0	4.0	102_neutral	0.0	222.3108131889221	
33.0	198.10097314383802	pulse	1.0	t		31.0	female	white	2.1822522881018704	neutral	102	sub-04	1.0	4.0	102_neutral	0.0	223.01081026094835	
34.0	198.259236474948	face	0.0		147	40.0	female	west_asian	1.5777954635893354	neutral	038	sub-04	1.0	4.0	038_neutral	0.0	223.16907359205834	1.2415901494505306
34.0	198.80094425650714	pulse	0.0	t		40.0	female	west_asian	1.5777954635893354	neutral	038	sub-04	1.0	4.0	038_neutral	0.0	223.71078137361746	
34.0	199.50082662439854	fix	1.0		444	40.0	female	west_asian	1.5777954635893354	neutral	038	sub-04	1.0	4.0	038_neutral	0.0	224.41066374150887	3.7665327143740797
34.0	199.50832646366234	pulse	1.0	t		40.0	female	west_asian	1.5777954635893354	neutral	038	sub-04	1.0	4.0	038_neutral	0.0	224.41816358077267	
34.0	200.20092028938052	pulse	1.0	t		40.0	female	west_asian	1.5777954635893354	neutral	038	sub-04	1.0	4.0	038_neutral	0.0	225.11075740649085	
34.0	200.90089713725592	pulse	1.0	t		40.0	female	west_asian	1.5777954635893354	neutral	038	sub-04	1.0	4.0	038_neutral	0.0	225.81073425436625	
34.0	201.60086160915944	pulse	1.0	t		40.0	female	west_asian	1.5777954635893354	neutral	038	sub-04	1.0	4.0	038_neutral	0.0	226.51069872626977	
34.0	202.3008481163315	pulse	1.0	t		40.0	female	west_asian	1.5777954635893354	neutral	038	sub-04	1.0	4.0	038_neutral	0.0	227.21068523344184	
34.0	203.00084096241608	pulse	1.0	t		40.0	female	west_asian	1.5777954635893354	neutral	038	sub-04	1.0	4.0	038_neutral	0.0	227.9106780795264	
35.0	203.26735933877262	face	0.0		145	24.0	male	white	3.1153999204138483	neutral	012	sub-04	1.0	4.0	012_neutral	0.0	228.17719645588295	1.2333073035442794
35.0	203.7008120750852	pulse	0.0	t		24.0	male	white	3.1153999204138483	neutral	012	sub-04	1.0	4.0	012_neutral	0.0	228.61064919219552	
35.0	204.40077835810644	pulse	0.0	t		24.0	male	white	3.1153999204138483	neutral	012	sub-04	1.0	4.0	012_neutral	0.0	229.31061547521676	
35.0	204.5006666423169	fix	1.0		444	24.0	male	white	3.1153999204138483	neutral	012	sub-04	1.0	4.0	012_neutral	0.0	229.41050375942723	3.7665773886155876
35.0	205.10078448572222	pulse	1.0	t		24.0	male	white	3.1153999204138483	neutral	012	sub-04	1.0	4.0	012_neutral	0.0	230.01062160283254	
35.0	205.80075650395065	pulse	1.0	t		24.0	male	white	3.1153999204138483	neutral	012	sub-04	1.0	4.0	012_neutral	0.0	230.71059362106098	
35.0	206.50074663335818	pulse	1.0	t		24.0	male	white	3.1153999204138483	neutral	012	sub-04	1.0	4.0	012_neutral	0.0	231.4105837504685	
35.0	207.20071442564404	pulse	1.0	t		24.0	male	white	3.1153999204138483	neutral	012	sub-04	1.0	4.0	012_neutral	0.0	232.11055154275437	
35.0	207.90080929803753	pulse	1.0	t		24.0	male	white	3.1153999204138483	neutral	012	sub-04	1.0	4.0	012_neutral	0.0	232.81064641514786	
36.0	208.2672440309325	face	0.0		145	23.0	male	white	2.6275368085953046	smiling	141	sub-04	1.0	4.0	141_smiling	1.0	233.17708114804282	1.2333112276328393
36.0	208.60068653442886	pulse	0.0	t		23.0	male	white	2.6275368085953046	smiling	141	sub-04	1.0	4.0	141_smiling	1.0	233.5105236515392	
36.0	209.30065553412715	pulse	0.0	t		23.0	male	white	2.6275368085953046	smiling	141	sub-04	1.0	4.0	141_smiling	1.0	234.21049265123747	
36.0	209.50055525856533	fix	1.0		236	23.0	male	white	2.6275368085953046	smiling	141	sub-04	1.0	4.0	141_smiling	1.0	234.41039237567566	1.9999486849928871
36.0	210.00064294685762	pulse	1.0	t		23.0	male	white	2.6275368085953046	smiling	141	sub-04	1.0	4.0	141_smiling	1.0	234.91048006396795	
36.0	210.70063217070583	pulse	1.0	t		23.0	male	white	2.6275368085953046	smiling	141	sub-04	1.0	4.0	141_smiling	1.0	235.61046928781616	
36.0	211.40061354637692	pulse	1.0	t		23.0	male	white	2.6275368085953046	smiling	141	sub-04	1.0	4.0	141_smiling	1.0	236.31045066348725	
36.0	211.50050394355821	rating	2.0		236	23.0	male	white	2.6275368085953046	smiling	141	sub-04	1.0	4.0	141_smiling	1.0	236.41034106066854	1.9999338941961469
36.0	212.09530585404627	pulse	2.0	t		23.0	male	white	2.6275368085953046	smiling	141	sub-04	1.0	4.0	141_smiling	1.0	237.0051429711566	
36.0	212.27872319809558	response	2.0	w		23.0	male	white	2.6275368085953046	smiling	141	sub-04	1.0	4.0	141_smiling	1.0	237.1885603152059	
36.0	212.80053554756523	pulse	2.0	t		23.0	male	white	2.6275368085953046	smiling	141	sub-04	1.0	4.0	141_smiling	1.0	237.71037266467556	
36.0	213.50043783775436	fix	3.0		444	23.0	male	white	2.6275368085953046	smiling	141	sub-04	1.0	4.0	141_smiling	1.0	238.4102749548647	3.7665447884928653
36.0	213.5079533733724	pulse	3.0	t		23.0	male	white	2.6275368085953046	smiling	141	sub-04	1.0	4.0	141_smiling	1.0	238.41779049048273	
36.0	214.2005305971761	pulse	3.0	t		23.0	male	white	2.6275368085953046	smiling	141	sub-04	1.0	4.0	141_smiling	1.0	239.11036771428644	
36.0	214.90050925617015	pulse	3.0	t		23.0	male	white	2.6275368085953046	smiling	141	sub-04	1.0	4.0	141_smiling	1.0	239.81034637328048	
36.0	215.6004939522245	pulse	3.0	t		23.0	male	white	2.6275368085953046	smiling	141	sub-04	1.0	4.0	141_smiling	1.0	240.51033106933482	
36.0	216.3004828742196	pulse	3.0	t		23.0	male	white	2.6275368085953046	smiling	141	sub-04	1.0	4.0	141_smiling	1.0	241.21031999132992	
36.0	217.00044945909394	pulse	3.0	t		23.0	male	white	2.6275368085953046	smiling	141	sub-04	1.0	4.0	141_smiling	1.0	241.91028657620427	
37.0	217.26698262624723	face	0.0		145	20.0	male	black	2.609629924393156	smiling	043	sub-04	1.0	4.0	043_smiling	0.0	242.17681974335756	1.2333139443098844
37.0	217.70043385329518	pulse	0.0	t		20.0	male	black	2.609629924393156	smiling	043	sub-04	1.0	4.0	043_smiling	0.0	242.6102709704055	
37.0	218.40041221043612	pulse	0.0	t		20.0	male	black	2.609629924393156	smiling	043	sub-04	1.0	4.0	043_smiling	0.0	243.31024932754644	
37.0	218.5002965705571	fix	1.0		444	20.0	male	black	2.609629924393156	smiling	043	sub-04	1.0	4.0	043_smiling	0.0	243.41013368766744	3.7582190794637427
37.0	219.10039751019576	pulse	1.0	t		20.0	male	black	2.609629924393156	smiling	043	sub-04	1.0	4.0	043_smiling	0.0	244.0102346273061	
37.0	219.80037435807117	pulse	1.0	t		20.0	male	black	2.609629924393156	smiling	043	sub-04	1.0	4.0	043_smiling	0.0	244.7102114751815	
37.0	220.50037535418596	pulse	1.0	t		20.0	male	black	2.609629924393156	smiling	043	sub-04	1.0	4.0	043_smiling	0.0	245.4102124712963	
37.0	221.20033892053107	pulse	1.0	t		20.0	male	black	2.609629924393156	smiling	043	sub-04	1.0	4.0	043_smiling	0.0	246.1101760376414	
37.0	221.9003293517917	pulse	1.0	t		20.0	male	black	2.609629924393156	smiling	043	sub-04	1.0	4.0	043_smiling	0.0	246.81016646890203	
38.0	222.25851565002085	face	0.0		146	37.0	male	white	3.898925586947871	smiling	101	sub-04	1.0	4.0	101_smiling	0.0	247.16835276713118	1.2416456903993094
38.0	222.60030076631392	pulse	0.0	t		37.0	male	white	3.898925586947871	smiling	101	sub-04	1.0	4.0	101_smiling	0.0	247.51013788342425	
38.0	223.3002939142507	pulse	0.0	t		37.0	male	white	3.898925586947871	smiling	101	sub-04	1.0	4.0	101_smiling	0.0	248.21013103136102	
38.0	223.50016134042016	fix	1.0		444	37.0	male	white	3.898925586947871	smiling	101	sub-04	1.0	4.0	101_smiling	0.0	248.4099984575305	3.7583017871811535
38.0	224.00028042142276	pulse	1.0	t		37.0	male	white	3.898925586947871	smiling	101	sub-04	1.0	4.0	101_smiling	0.0	248.9101175385331	
38.0	224.70024308220854	pulse	1.0	t		37.0	male	white	3.898925586947871	smiling	101	sub-04	1.0	4.0	101_smiling	0.0	249.61008019931887	
38.0	225.40022053379016	pulse	1.0	t		37.0	male	white	3.898925586947871	smiling	101	sub-04	1.0	4.0	101_smiling	0.0	250.3100576509005	
38.0	226.10022213361117	pulse	1.0	t		37.0	male	white	3.898925586947871	smiling	101	sub-04	1.0	4.0	101_smiling	0.0	251.0100592507215	
38.0	226.80019837778127	pulse	1.0	t		37.0	male	white	3.898925586947871	smiling	101	sub-04	1.0	4.0	101_smiling	0.0	251.7100354948916	
39.0	227.25846312760132	face	0.0		146	28.0	female	white	5.676880222841227	smiling	124	sub-04	1.0	4.0	124_smiling	0.0	252.16830024471165	1.2415819994193953
39.0	227.50017130156903	pulse	0.0	t		28.0	female	white	5.676880222841227	smiling	124	sub-04	1.0	4.0	124_smiling	0.0	252.41000841867935	
39.0	228.20016143097564	pulse	0.0	t		28.0	female	white	5.676880222841227	smiling	124	sub-04	1.0	4.0	124_smiling	0.0	253.10999854808597	
39.0	228.5000451270207	fix	1.0		444	28.0	female	white	5.676880222841227	smiling	124	sub-04	1.0	4.0	124_smiling	0.0	253.40988224413104	3.749898200080679
39.0	228.90014854185392	pulse	1.0	t		28.0	female	white	5.676880222841227	smiling	124	sub-04	1.0	4.0	124_smiling	0.0	253.80998565896425	
39.0	229.60010576928562	pulse	1.0	t		28.0	female	white	5.676880222841227	smiling	124	sub-04	1.0	4.0	124_smiling	0.0	254.50994288639595	
39.0	230.30009106904527	pulse	1.0	t		28.0	female	white	5.676880222841227	smiling	124	sub-04	1.0	4.0	124_smiling	0.0	255.2099281861556	
39.0	231.00008029289347	pulse	1.0	t		28.0	female	white	5.676880222841227	smiling	124	sub-04	1.0	4.0	124_smiling	0.0	255.9099174100038	
39.0	231.70005563150517	pulse	1.0	t		28.0	female	white	5.676880222841227	smiling	124	sub-04	1.0	4.0	124_smiling	0.0	256.6098927486155	
40.0	232.2499433271014	fix	0.0		720												257.1597804442117	5.99984303644851
40.0	232.40005089241276	pulse	0.0	t													257.3098880095231	
40.0	233.10003075881923	pulse	0.0	t													258.00986787592956	
40.0	233.80000670113623	pulse	0.0	t													258.70984381824655	
40.0	234.50000105648542	pulse	0.0	t													259.40983817359574	
40.0	235.1999694524775	pulse	0.0	t													260.1098065695878	
40.0	235.89994328182365	pulse	0.0	t													260.809780398934	
40.0	236.59991922414065	pulse	0.0	t													261.509756341251	
40.0	237.2998915442222	pulse	0.0	t													262.2097286613325	
40.0	237.99990823669214	pulse	0.0	t													262.90974535380246	
