trial_nr	onset	event_type	phase	response	nr_frames	face_age	face_sex	face_eth	attractiveness	expression	face_id	sub_id	ses	run	trial_type	catch	rating_type	onset_abs	duration
-1.0	0.06021037468872237	fix	0.0		713													93.45664202826993	5.957880689473313
-1.0	-50.52471240028626	response	0.0	b														42.87171925329494	
-1.0	0.701666932801345	pulse	0.0	t														94.09809858638255	
-1.0	1.4016425731188065	pulse	0.0	t														94.79807422670001	
-1.0	2.101655341577498	pulse	0.0	t														95.4980869951587	
-1.0	2.8016249447982773	pulse	0.0	t														96.19805659837948	
-1.0	3.501605112936886	pulse	0.0	t														96.89803676651809	
-1.0	4.201591921882027	pulse	0.0	t														97.59802357546323	
-1.0	4.901581145665659	pulse	0.0	t														98.29801279924686	
-1.0	5.601556484128196	pulse	0.0	t														98.9979881377094	
0.0	6.018091064162036	face	0.0		144	28.0	male	east_asian	1.5563072025467568	neutral	005	sub-08	2.0	1.0	005_neutral	1.0	dominance	99.41452271774324	1.2333253140568559
0.0	6.3015466134756934	pulse	0.0	t		28.0	male	east_asian	1.5563072025467568	neutral	005	sub-08	2.0	1.0	005_neutral	1.0	dominance	99.6979782670569	
0.0	7.001549420725496	pulse	0.0	t		28.0	male	east_asian	1.5563072025467568	neutral	005	sub-08	2.0	1.0	005_neutral	1.0	dominance	100.3979810743067	
0.0	7.251416378218892	fix	1.0		177	28.0	male	east_asian	1.5563072025467568	neutral	005	sub-08	2.0	1.0	005_neutral	1.0	dominance	100.6478480318001	1.5083204768343421
0.0	7.701528985155164	pulse	1.0	t		28.0	male	east_asian	1.5563072025467568	neutral	005	sub-08	2.0	1.0	005_neutral	1.0	dominance	101.09796063873637	
0.0	8.401504323616791	pulse	1.0	t		28.0	male	east_asian	1.5563072025467568	neutral	005	sub-08	2.0	1.0	005_neutral	1.0	dominance	101.797935977198	
0.0	8.759736855053234	rating	2.0		293	28.0	male	east_asian	1.5563072025467568	neutral	005	sub-08	2.0	1.0	005_neutral	1.0	dominance	102.15616850863444	2.4915962112390844
0.0	9.101504112319162	pulse	2.0	t		28.0	male	east_asian	1.5563072025467568	neutral	005	sub-08	2.0	1.0	005_neutral	1.0	dominance	102.49793576590037	
0.0	9.801503297310774	pulse	2.0	t		28.0	male	east_asian	1.5563072025467568	neutral	005	sub-08	2.0	1.0	005_neutral	1.0	dominance	103.19793495089198	
0.0	10.493128124385294	response	2.0	d		28.0	male	east_asian	1.5563072025467568	neutral	005	sub-08	2.0	1.0	005_neutral	1.0	dominance	103.8895597779665	
0.0	10.504145522994804	pulse	2.0	t		28.0	male	east_asian	1.5563072025467568	neutral	005	sub-08	2.0	1.0	005_neutral	1.0	dominance	103.90057717657601	
0.0	11.201440692623692	pulse	2.0	t		28.0	male	east_asian	1.5563072025467568	neutral	005	sub-08	2.0	1.0	005_neutral	1.0	dominance	104.5978723462049	
0.0	11.251333066292318	fix	3.0		444	28.0	male	east_asian	1.5563072025467568	neutral	005	sub-08	2.0	1.0	005_neutral	1.0	dominance	104.64776471987352	3.758248408998952
0.0	11.901435651648171	pulse	3.0	t		28.0	male	east_asian	1.5563072025467568	neutral	005	sub-08	2.0	1.0	005_neutral	1.0	dominance	105.29786730522937	
0.0	12.60141521607784	pulse	3.0	t		28.0	male	east_asian	1.5563072025467568	neutral	005	sub-08	2.0	1.0	005_neutral	1.0	dominance	105.99784686965904	
0.0	13.30141138252202	pulse	3.0	t		28.0	male	east_asian	1.5563072025467568	neutral	005	sub-08	2.0	1.0	005_neutral	1.0	dominance	106.69784303610322	
0.0	14.00138460800099	pulse	3.0	t		28.0	male	east_asian	1.5563072025467568	neutral	005	sub-08	2.0	1.0	005_neutral	1.0	dominance	107.3978162615822	
0.0	14.701368700251805	pulse	3.0	t		28.0	male	east_asian	1.5563072025467568	neutral	005	sub-08	2.0	1.0	005_neutral	1.0	dominance	108.09780035383301	
1.0	15.00958147529127	face	0.0		146	32.0	male	white	2.389176283326701	neutral	092	sub-08	2.0	1.0	092_neutral	0.0		108.40601312887247	1.2416607327040765
1.0	15.401359131455138	pulse	0.0	t		32.0	male	white	2.389176283326701	neutral	092	sub-08	2.0	1.0	092_neutral	0.0		108.79779078503634	
1.0	16.10134714781907	pulse	0.0	t		32.0	male	white	2.389176283326701	neutral	092	sub-08	2.0	1.0	092_neutral	0.0		109.49777880140027	
1.0	16.251242207995347	fix	1.0		445	32.0	male	white	2.389176283326701	neutral	092	sub-08	2.0	1.0	092_neutral	0.0		109.64767386157655	3.7665699423241676
1.0	16.801341804988624	pulse	1.0	t		32.0	male	white	2.389176283326701	neutral	092	sub-08	2.0	1.0	092_neutral	0.0		110.19777345856983	
1.0	17.501328010223915	pulse	1.0	t		32.0	male	white	2.389176283326701	neutral	092	sub-08	2.0	1.0	092_neutral	0.0		110.89775966380512	
1.0	18.20130214126766	pulse	1.0	t		32.0	male	white	2.389176283326701	neutral	092	sub-08	2.0	1.0	092_neutral	0.0		111.59773379484886	
1.0	18.901295591017515	pulse	1.0	t		32.0	male	white	2.389176283326701	neutral	092	sub-08	2.0	1.0	092_neutral	0.0		112.29772724459872	
1.0	19.601266401657995	pulse	1.0	t		32.0	male	white	2.389176283326701	neutral	092	sub-08	2.0	1.0	092_neutral	0.0		112.9976980552392	
2.0	20.017812150319514	face	0.0		145	54.0	female	white	2.286908077994429	neutral	136	sub-08	2.0	1.0	136_neutral	0.0		113.41424380390072	1.2333162584136517
2.0	20.301266794069306	pulse	0.0	t		54.0	female	white	2.286908077994429	neutral	136	sub-08	2.0	1.0	136_neutral	0.0		113.69769844765051	
2.0	21.001235793580236	pulse	0.0	t		54.0	female	white	2.286908077994429	neutral	136	sub-08	2.0	1.0	136_neutral	0.0		114.39766744716144	
2.0	21.251128408733166	fix	1.0		444	54.0	female	white	2.286908077994429	neutral	136	sub-08	2.0	1.0	136_neutral	0.0		114.64756006231437	3.766569036760302
2.0	21.701224413654018	pulse	1.0	t		54.0	female	white	2.286908077994429	neutral	136	sub-08	2.0	1.0	136_neutral	0.0		115.09765606723522	
2.0	22.401217561549856	pulse	1.0	t		54.0	female	white	2.286908077994429	neutral	136	sub-08	2.0	1.0	136_neutral	0.0		115.79764921513106	
2.0	23.101197729689375	pulse	1.0	t		54.0	female	white	2.286908077994429	neutral	136	sub-08	2.0	1.0	136_neutral	0.0		116.49762938327058	
2.0	23.801181520086175	pulse	1.0	t		54.0	female	white	2.286908077994429	neutral	136	sub-08	2.0	1.0	136_neutral	0.0		117.19761317366738	
2.0	24.501164706773125	pulse	1.0	t		54.0	female	white	2.286908077994429	neutral	136	sub-08	2.0	1.0	136_neutral	0.0		117.89759636035433	
2.0	24.659486043893594	response	1.0	b		54.0	female	white	2.286908077994429	neutral	136	sub-08	2.0	1.0	136_neutral	0.0		118.0559176974748	
3.0	25.017697445493468	face	0.0		145	21.0	male	east_asian/white	3.501790688420215	smiling	036	sub-08	2.0	1.0	036_smiling	0.0		118.41412909907467	1.233325917766706
3.0	25.201127971043206	pulse	0.0	t		21.0	male	east_asian/white	3.501790688420215	smiling	036	sub-08	2.0	1.0	036_smiling	0.0		118.59755962462441	
3.0	25.9011331931315	pulse	0.0	t		21.0	male	east_asian/white	3.501790688420215	smiling	036	sub-08	2.0	1.0	036_smiling	0.0		119.2975648467127	
3.0	26.251023363260174	fix	1.0		444	21.0	male	east_asian/white	3.501790688420215	smiling	036	sub-08	2.0	1.0	036_smiling	0.0		119.64745501684138	3.7582336181130813
3.0	26.60112754844704	pulse	1.0	t		21.0	male	east_asian/white	3.501790688420215	smiling	036	sub-08	2.0	1.0	036_smiling	0.0		119.99755920202824	
3.0	27.301107414730723	pulse	1.0	t		21.0	male	east_asian/white	3.501790688420215	smiling	036	sub-08	2.0	1.0	036_smiling	0.0		120.69753906831193	
3.0	28.001093619966014	pulse	1.0	t		21.0	male	east_asian/white	3.501790688420215	smiling	036	sub-08	2.0	1.0	036_smiling	0.0		121.39752527354722	
3.0	28.701094616087175	pulse	1.0	t		21.0	male	east_asian/white	3.501790688420215	smiling	036	sub-08	2.0	1.0	036_smiling	0.0		122.09752626966838	
3.0	29.401072369388203	pulse	1.0	t		21.0	male	east_asian/white	3.501790688420215	smiling	036	sub-08	2.0	1.0	036_smiling	0.0		122.7975040229694	
4.0	30.009256981373255	face	0.0		146	22.0	female	west_asian	3.8205332272184642	smiling	066	sub-08	2.0	1.0	066_smiling	0.0		123.40568863495446	1.2416634493974925
4.0	30.10105948018736	pulse	0.0	t		22.0	female	west_asian	3.8205332272184642	smiling	066	sub-08	2.0	1.0	066_smiling	0.0		123.49749113376856	
4.0	30.801037535343312	pulse	0.0	t		22.0	female	west_asian	3.8205332272184642	smiling	066	sub-08	2.0	1.0	066_smiling	0.0		124.19746918892452	
4.0	31.250920430770748	fix	1.0		444	22.0	female	west_asian	3.8205332272184642	smiling	066	sub-08	2.0	1.0	066_smiling	0.0		124.64735208435195	3.766576281275775
4.0	31.501026155417094	pulse	1.0	t		22.0	female	west_asian	3.8205332272184642	smiling	066	sub-08	2.0	1.0	066_smiling	0.0		124.8974578089983	
4.0	32.20101749218429	pulse	1.0	t		22.0	female	west_asian	3.8205332272184642	smiling	066	sub-08	2.0	1.0	066_smiling	0.0		125.5974491457655	
4.0	32.90103931628619	pulse	1.0	t		22.0	female	west_asian	3.8205332272184642	smiling	066	sub-08	2.0	1.0	066_smiling	0.0		126.29747096986739	
4.0	33.60099080821874	pulse	1.0	t		22.0	female	west_asian	3.8205332272184642	smiling	066	sub-08	2.0	1.0	066_smiling	0.0		126.99742246179994	
4.0	34.30097459861554	pulse	1.0	t		22.0	female	west_asian	3.8205332272184642	smiling	066	sub-08	2.0	1.0	066_smiling	0.0		127.69740625219674	
5.0	35.01749671204652	face	0.0		146	40.0	female	west_asian	1.5777954635893354	neutral	038	sub-08	2.0	1.0	038_neutral	0.0		128.41392836562773	1.2333129380103856
5.0	35.00378012775036	pulse	0.0	t		40.0	female	west_asian	1.5777954635893354	neutral	038	sub-08	2.0	1.0	038_neutral	0.0		128.40021178133156	
5.0	35.70095063134431	pulse	0.0	t		40.0	female	west_asian	1.5777954635893354	neutral	038	sub-08	2.0	1.0	038_neutral	0.0		129.09738228492552	
5.0	36.25080965005691	fix	1.0		443	40.0	female	west_asian	1.5777954635893354	neutral	038	sub-08	2.0	1.0	038_neutral	0.0		129.6472413036381	3.7665865443386792
5.0	36.4009241586773	pulse	1.0	t		40.0	female	west_asian	1.5777954635893354	neutral	038	sub-08	2.0	1.0	038_neutral	0.0		129.7973558122585	
5.0	37.1009167028642	pulse	1.0	t		40.0	female	west_asian	1.5777954635893354	neutral	038	sub-08	2.0	1.0	038_neutral	0.0		130.4973483564454	
5.0	37.80088600423005	pulse	1.0	t		40.0	female	west_asian	1.5777954635893354	neutral	038	sub-08	2.0	1.0	038_neutral	0.0		131.19731765781125	
5.0	38.500870096481776	pulse	1.0	t		40.0	female	west_asian	1.5777954635893354	neutral	038	sub-08	2.0	1.0	038_neutral	0.0		131.89730175006298	
5.0	39.20088135566584	pulse	1.0	t		40.0	female	west_asian	1.5777954635893354	neutral	038	sub-08	2.0	1.0	038_neutral	0.0		132.59731300924705	
5.0	39.900855788563604	pulse	1.0	t		40.0	female	west_asian	1.5777954635893354	neutral	038	sub-08	2.0	1.0	038_neutral	0.0		133.2972874421448	
6.0	40.01739619439559	face	0.0		146	25.0	female	west_asian	2.6756864305610826	smiling	064	sub-08	2.0	1.0	064_smiling	0.0		133.4138278479768	1.2333102213169695
6.0	40.600841390089045	pulse	0.0	t		25.0	female	west_asian	2.6756864305610826	smiling	064	sub-08	2.0	1.0	064_smiling	0.0		133.99727304367025	
6.0	41.25070641571256	fix	1.0		443	25.0	female	west_asian	2.6756864305610826	smiling	064	sub-08	2.0	1.0	064_smiling	0.0		134.64713806929376	3.7665856387748136
6.0	41.30082125637364	pulse	1.0	t		25.0	female	west_asian	2.6756864305610826	smiling	064	sub-08	2.0	1.0	064_smiling	0.0		134.69725290995484	
6.0	42.00080927273757	pulse	1.0	t		25.0	female	west_asian	2.6756864305610826	smiling	064	sub-08	2.0	1.0	064_smiling	0.0		135.39724092631877	
6.0	42.70079547797286	pulse	1.0	t		25.0	female	west_asian	2.6756864305610826	smiling	064	sub-08	2.0	1.0	064_smiling	0.0		136.09722713155406	
6.0	43.40079224812689	pulse	1.0	t		25.0	female	west_asian	2.6756864305610826	smiling	064	sub-08	2.0	1.0	064_smiling	0.0		136.7972239017081	
6.0	44.10075943650918	pulse	1.0	t		25.0	female	west_asian	2.6756864305610826	smiling	064	sub-08	2.0	1.0	064_smiling	0.0		137.49719109009038	
6.0	44.800745943599395	pulse	1.0	t		25.0	female	west_asian	2.6756864305610826	smiling	064	sub-08	2.0	1.0	064_smiling	0.0		138.1971775971806	
7.0	45.01729205448737	face	0.0		145	23.0	male	white	2.6275368085953046	smiling	141	sub-08	2.0	1.0	141_smiling	0.0		138.41372370806857	1.2333268233305716
7.0	45.50072369690042	pulse	0.0	t		23.0	male	white	2.6275368085953046	smiling	141	sub-08	2.0	1.0	141_smiling	0.0		138.89715535048163	
7.0	46.20073193753615	pulse	0.0	t		23.0	male	white	2.6275368085953046	smiling	141	sub-08	2.0	1.0	141_smiling	0.0		139.59716359111735	
7.0	46.25061887781794	fix	1.0		445	23.0	male	white	2.6275368085953046	smiling	141	sub-08	2.0	1.0	141_smiling	0.0		139.64705053139915	3.7665533403105655
7.0	46.90070757785361	pulse	1.0	t		23.0	male	white	2.6275368085953046	smiling	141	sub-08	2.0	1.0	141_smiling	0.0		140.2971392314348	
7.0	47.60068563300865	pulse	1.0	t		23.0	male	white	2.6275368085953046	smiling	141	sub-08	2.0	1.0	141_smiling	0.0		140.99711728658986	
7.0	48.3006775734857	pulse	1.0	t		23.0	male	white	2.6275368085953046	smiling	141	sub-08	2.0	1.0	141_smiling	0.0		141.6971092270669	
7.0	49.000661062027575	pulse	1.0	t		23.0	male	white	2.6275368085953046	smiling	141	sub-08	2.0	1.0	141_smiling	0.0		142.39709271560878	
7.0	49.70064092831217	pulse	1.0	t		23.0	male	white	2.6275368085953046	smiling	141	sub-08	2.0	1.0	141_smiling	0.0		143.09707258189337	
8.0	50.01717221812851	face	0.0		145	31.0	female	east_asian	3.395941106247513	smiling	087	sub-08	2.0	1.0	087_smiling	0.0		143.4136038717097	1.2333307474436879
8.0	50.40064615040046	pulse	0.0	t		31.0	female	east_asian	3.395941106247513	smiling	087	sub-08	2.0	1.0	087_smiling	0.0		143.79707780398167	
8.0	51.1006139424926	pulse	0.0	t		31.0	female	east_asian	3.395941106247513	smiling	087	sub-08	2.0	1.0	087_smiling	0.0		144.4970455960738	
8.0	51.250502965572196	fix	1.0		445	31.0	female	east_asian	3.395941106247513	smiling	087	sub-08	2.0	1.0	087_smiling	0.0		144.6469346191534	3.7665811109527567
8.0	51.800610410790796	pulse	1.0	t		31.0	female	east_asian	3.395941106247513	smiling	087	sub-08	2.0	1.0	087_smiling	0.0		145.197042064372	
8.0	52.50058333441484	pulse	1.0	t		31.0	female	east_asian	3.395941106247513	smiling	087	sub-08	2.0	1.0	087_smiling	0.0		145.89701498799604	
8.0	53.20058523609987	pulse	1.0	t		31.0	female	east_asian	3.395941106247513	smiling	087	sub-08	2.0	1.0	087_smiling	0.0		146.59701688968107	
8.0	53.90056540423939	pulse	1.0	t		31.0	female	east_asian	3.395941106247513	smiling	087	sub-08	2.0	1.0	087_smiling	0.0		147.2969970578206	
8.0	54.60054345939443	pulse	1.0	t		31.0	female	east_asian	3.395941106247513	smiling	087	sub-08	2.0	1.0	087_smiling	0.0		147.99697511297563	
9.0	55.01708407652495	face	0.0		145	31.0	female	white	2.1822522881018704	neutral	102	sub-08	2.0	1.0	102_neutral	0.0		148.41351573010616	1.233326219621631
9.0	55.300530570194496	pulse	0.0	t		31.0	female	white	2.1822522881018704	neutral	102	sub-08	2.0	1.0	102_neutral	0.0		148.6969622237757	
9.0	56.00050922905939	pulse	0.0	t		31.0	female	white	2.1822522881018704	neutral	102	sub-08	2.0	1.0	102_neutral	0.0		149.3969408826406	
9.0	56.25041029614658	fix	1.0		444	31.0	female	white	2.1822522881018704	neutral	102	sub-08	2.0	1.0	102_neutral	0.0		149.6468419497278	3.7665723571626586
9.0	56.70051203630919	pulse	1.0	t		31.0	female	white	2.1822522881018704	neutral	102	sub-08	2.0	1.0	102_neutral	0.0		150.0969436898904	
9.0	57.40049039332007	pulse	1.0	t		31.0	female	white	2.1822522881018704	neutral	102	sub-08	2.0	1.0	102_neutral	0.0		150.79692204690127	
9.0	58.10047931524787	pulse	1.0	t		31.0	female	white	2.1822522881018704	neutral	102	sub-08	2.0	1.0	102_neutral	0.0		151.49691096882907	
9.0	58.80045918153246	pulse	1.0	t		31.0	female	white	2.1822522881018704	neutral	102	sub-08	2.0	1.0	102_neutral	0.0		152.19689083511366	
9.0	59.50044931087996	pulse	1.0	t		31.0	female	white	2.1822522881018704	neutral	102	sub-08	2.0	1.0	102_neutral	0.0		152.89688096446116	
10.0	60.01698265330924	face	0.0		145	40.0	male	black	2.408674890569041	neutral	061	sub-08	2.0	1.0	061_neutral	0.0		153.41341430689045	1.233307202769538
10.0	60.20044215692178	pulse	0.0	t		40.0	male	black	2.408674890569041	neutral	061	sub-08	2.0	1.0	061_neutral	0.0		153.59687381050298	
10.0	60.90041236385241	pulse	0.0	t		40.0	male	black	2.408674890569041	neutral	061	sub-08	2.0	1.0	061_neutral	0.0		154.2968440174336	
10.0	61.25028985607878	fix	1.0		444	40.0	male	black	2.408674890569041	neutral	061	sub-08	2.0	1.0	061_neutral	0.0		154.64672150965998	3.76658895917717
10.0	61.60040309690976	pulse	1.0	t		40.0	male	black	2.408674890569041	neutral	061	sub-08	2.0	1.0	061_neutral	0.0		154.99683475049096	
10.0	62.30039171698354	pulse	1.0	t		40.0	male	black	2.408674890569041	neutral	061	sub-08	2.0	1.0	061_neutral	0.0		155.69682337056474	
10.0	63.00037007399351	pulse	1.0	t		40.0	male	black	2.408674890569041	neutral	061	sub-08	2.0	1.0	061_neutral	0.0		156.3968017275747	
10.0	63.700369560840045	pulse	1.0	t		40.0	male	black	2.408674890569041	neutral	061	sub-08	2.0	1.0	061_neutral	0.0		157.09680121442125	
10.0	64.40034278631902	pulse	1.0	t		40.0	male	black	2.408674890569041	neutral	061	sub-08	2.0	1.0	061_neutral	0.0		157.79677443990022	
11.0	65.01687881525595	face	0.0		145	36.0	female	white	2.7548746518105847	neutral	011	sub-08	2.0	1.0	011_neutral	0.0		158.41331046883715	1.2333144472841013
11.0	65.10034649913268	pulse	0.0	t		36.0	female	white	2.7548746518105847	neutral	011	sub-08	2.0	1.0	011_neutral	0.0		158.4967781527139	
11.0	65.80031791348301	pulse	0.0	t		36.0	female	white	2.7548746518105847	neutral	011	sub-08	2.0	1.0	011_neutral	0.0		159.19674956706422	
11.0	66.25019326254005	fix	1.0		444	36.0	female	white	2.7548746518105847	neutral	011	sub-08	2.0	1.0	011_neutral	0.0		159.64662491612125	3.7665780924044157
11.0	66.50031407992628	pulse	1.0	t		36.0	female	white	2.7548746518105847	neutral	011	sub-08	2.0	1.0	011_neutral	0.0		159.8967457335075	
11.0	67.20028579613154	pulse	1.0	t		36.0	female	white	2.7548746518105847	neutral	011	sub-08	2.0	1.0	011_neutral	0.0		160.59671744971274	
11.0	67.90026988838326	pulse	1.0	t		36.0	female	white	2.7548746518105847	neutral	011	sub-08	2.0	1.0	011_neutral	0.0		161.29670154196447	
11.0	68.60025458434393	pulse	1.0	t		36.0	female	white	2.7548746518105847	neutral	011	sub-08	2.0	1.0	011_neutral	0.0		161.99668623792513	
11.0	69.30023324320973	pulse	1.0	t		36.0	female	white	2.7548746518105847	neutral	011	sub-08	2.0	1.0	011_neutral	0.0		162.69666489679094	
12.0	70.01677135494447	face	0.0		146	30.0	female	black	2.7345801830481498	smiling	062	sub-08	2.0	1.0	062_smiling	0.0		163.41320300852567	1.2333162584127422
12.0	70.003117858304	pulse	0.0	t		30.0	female	black	2.7345801830481498	smiling	062	sub-08	2.0	1.0	062_smiling	0.0		163.3995495118852	
12.0	70.70021742601784	pulse	0.0	t		30.0	female	black	2.7345801830481498	smiling	062	sub-08	2.0	1.0	062_smiling	0.0		164.09664907959905	
12.0	71.25008761335721	fix	1.0		443	30.0	female	black	2.7345801830481498	smiling	062	sub-08	2.0	1.0	062_smiling	0.0		164.6465192669384	3.7582278828722337
12.0	71.4001994052851	pulse	1.0	t		30.0	female	black	2.7345801830481498	smiling	062	sub-08	2.0	1.0	062_smiling	0.0		164.7966310588663	
12.0	72.10018470495652	pulse	1.0	t		30.0	female	black	2.7345801830481498	smiling	062	sub-08	2.0	1.0	062_smiling	0.0		165.49661635853772	
12.0	72.80016426938619	pulse	1.0	t		30.0	female	black	2.7345801830481498	smiling	062	sub-08	2.0	1.0	062_smiling	0.0		166.1965959229674	
12.0	73.50015439873368	pulse	1.0	t		30.0	female	black	2.7345801830481498	smiling	062	sub-08	2.0	1.0	062_smiling	0.0		166.8965860523149	
12.0	74.20013728356571	pulse	1.0	t		30.0	female	black	2.7345801830481498	smiling	062	sub-08	2.0	1.0	062_smiling	0.0		167.5965689371469	
12.0	74.90012560178548	pulse	1.0	t		30.0	female	black	2.7345801830481498	smiling	062	sub-08	2.0	1.0	062_smiling	0.0		168.29655725536668	
13.0	75.00831549622944	face	0.0		147	31.0	male	west_asian	1.9538400318344609	neutral	070	sub-08	2.0	1.0	070_neutral	0.0		168.40474714981065	1.2416697883481902
13.0	75.60011935339026	pulse	0.0	t		31.0	male	west_asian	1.9538400318344609	neutral	070	sub-08	2.0	1.0	070_neutral	0.0		168.99655100697146	
13.0	76.24998528457763	fix	1.0		443	31.0	male	west_asian	1.9538400318344609	neutral	070	sub-08	2.0	1.0	070_neutral	0.0		169.64641693815884	3.758245390450611
13.0	76.30008382508004	pulse	1.0	t		31.0	male	west_asian	1.9538400318344609	neutral	070	sub-08	2.0	1.0	070_neutral	0.0		169.69651547866124	
13.0	77.00011198813354	pulse	1.0	t		31.0	male	west_asian	1.9538400318344609	neutral	070	sub-08	2.0	1.0	070_neutral	0.0		170.39654364171474	
13.0	77.70007615796749	pulse	1.0	t		31.0	male	west_asian	1.9538400318344609	neutral	070	sub-08	2.0	1.0	070_neutral	0.0		171.0965078115487	
13.0	78.40005270384881	pulse	1.0	t		31.0	male	west_asian	1.9538400318344609	neutral	070	sub-08	2.0	1.0	070_neutral	0.0		171.79648435743002	
13.0	79.10003739981039	pulse	1.0	t		31.0	male	west_asian	1.9538400318344609	neutral	070	sub-08	2.0	1.0	070_neutral	0.0		172.4964690533916	
13.0	79.80002541617432	pulse	1.0	t		31.0	male	west_asian	1.9538400318344609	neutral	070	sub-08	2.0	1.0	070_neutral	0.0		173.19645706975552	
14.0	80.00823067502824	face	0.0		146	22.0	female	white	4.614007162753682	smiling	009	sub-08	2.0	1.0	009_smiling	0.0		173.40466232860945	1.2416598271402108
14.0	80.5000101121359	pulse	0.0	t		22.0	female	white	4.614007162753682	smiling	009	sub-08	2.0	1.0	009_smiling	0.0		173.8964417657171	
14.0	81.2000014489031	pulse	0.0	t		22.0	female	white	4.614007162753682	smiling	009	sub-08	2.0	1.0	009_smiling	0.0		174.5964331024843	
14.0	81.24989050216845	fix	1.0		444	22.0	female	white	4.614007162753682	smiling	009	sub-08	2.0	1.0	009_smiling	0.0		174.64632215574966	3.766569640470152
14.0	81.89999188010552	pulse	1.0	t		22.0	female	white	4.614007162753682	smiling	009	sub-08	2.0	1.0	009_smiling	0.0		175.29642353368672	
14.0	82.5999654074385	pulse	1.0	t		22.0	female	white	4.614007162753682	smiling	009	sub-08	2.0	1.0	009_smiling	0.0		175.9963970610197	
14.0	83.29996066831882	pulse	1.0	t		22.0	female	white	4.614007162753682	smiling	009	sub-08	2.0	1.0	009_smiling	0.0		176.69639232190002	
14.0	83.9999341956518	pulse	1.0	t		22.0	female	white	4.614007162753682	smiling	009	sub-08	2.0	1.0	009_smiling	0.0		177.396365849233	
14.0	84.69992855096734	pulse	1.0	t		22.0	female	white	4.614007162753682	smiling	009	sub-08	2.0	1.0	009_smiling	0.0		178.09636020454855	
15.0	85.0164601426386	face	0.0		145	27.0	female	white	3.504576203740549	neutral	144	sub-08	2.0	1.0	144_neutral	0.0		178.4128917962198	1.233328936315047
15.0	85.39990992652565	pulse	0.0	t		27.0	female	white	3.504576203740549	neutral	144	sub-08	2.0	1.0	144_neutral	0.0		178.79634158010685	
15.0	86.09990096143792	pulse	0.0	t		27.0	female	white	3.504576203740549	neutral	144	sub-08	2.0	1.0	144_neutral	0.0		179.49633261501913	
15.0	86.24978907895365	fix	1.0		444	27.0	female	white	3.504576203740549	neutral	144	sub-08	2.0	1.0	144_neutral	0.0		179.64622073253486	3.7582595776266317
15.0	86.79989380747884	pulse	1.0	t		27.0	female	white	3.504576203740549	neutral	144	sub-08	2.0	1.0	144_neutral	0.0		180.19632546106004	
15.0	87.49988816279347	pulse	1.0	t		27.0	female	white	3.504576203740549	neutral	144	sub-08	2.0	1.0	144_neutral	0.0		180.89631981637467	
15.0	88.1998622938363	pulse	1.0	t		27.0	female	white	3.504576203740549	neutral	144	sub-08	2.0	1.0	144_neutral	0.0		181.5962939474175	
15.0	88.899831897058	pulse	1.0	t		27.0	female	white	3.504576203740549	neutral	144	sub-08	2.0	1.0	144_neutral	0.0		182.2962635506392	
15.0	89.59981297076138	pulse	1.0	t		27.0	female	white	3.504576203740549	neutral	144	sub-08	2.0	1.0	144_neutral	0.0		182.99624462434258	
16.0	90.00804865658029	face	0.0		146	36.0	female	white	2.7548746518105847	smiling	011	sub-08	2.0	1.0	011_smiling	1.0	trustworthiness	183.4044803101615	1.241636886174092
16.0	90.29982151325203	pulse	0.0	t		36.0	female	white	2.7548746518105847	smiling	011	sub-08	2.0	1.0	011_smiling	1.0	trustworthiness	183.69625316683323	
16.0	90.99980077582677	pulse	0.0	t		36.0	female	white	2.7548746518105847	smiling	011	sub-08	2.0	1.0	011_smiling	1.0	trustworthiness	184.39623242940797	
16.0	91.24968554275438	fix	1.0		177	36.0	female	white	2.7548746518105847	smiling	011	sub-08	2.0	1.0	011_smiling	1.0	trustworthiness	184.64611719633558	1.4999729839946667
16.0	91.69978788662684	pulse	1.0	t		36.0	female	white	2.7548746518105847	smiling	011	sub-08	2.0	1.0	011_smiling	1.0	trustworthiness	185.09621954020804	
16.0	92.39976684734665	pulse	1.0	t		36.0	female	white	2.7548746518105847	smiling	011	sub-08	2.0	1.0	011_smiling	1.0	trustworthiness	185.79619850092786	
16.0	92.74965852674904	rating	2.0		294	36.0	female	white	2.7548746518105847	smiling	011	sub-08	2.0	1.0	011_smiling	1.0	trustworthiness	186.14609018033025	2.499908990776021
16.0	93.09976180637113	pulse	2.0	t		36.0	female	white	2.7548746518105847	smiling	011	sub-08	2.0	1.0	011_smiling	1.0	trustworthiness	186.49619345995234	
16.0	93.79974408749422	pulse	2.0	t		36.0	female	white	2.7548746518105847	smiling	011	sub-08	2.0	1.0	011_smiling	1.0	trustworthiness	187.19617574107542	
16.0	94.38306552271752	response	2.0	g		36.0	female	white	2.7548746518105847	smiling	011	sub-08	2.0	1.0	011_smiling	1.0	trustworthiness	187.77949717629872	
16.0	94.49972697232624	pulse	2.0	t		36.0	female	white	2.7548746518105847	smiling	011	sub-08	2.0	1.0	011_smiling	1.0	trustworthiness	187.89615862590745	
16.0	95.1997164979648	pulse	2.0	t		36.0	female	white	2.7548746518105847	smiling	011	sub-08	2.0	1.0	011_smiling	1.0	trustworthiness	188.596148151546	
16.0	95.24956751752507	fix	3.0		444	36.0	female	white	2.7548746518105847	smiling	011	sub-08	2.0	1.0	011_smiling	1.0	trustworthiness	188.64599917110627	3.758247503434177
16.0	95.89970089207145	pulse	3.0	t		36.0	female	white	2.7548746518105847	smiling	011	sub-08	2.0	1.0	011_smiling	1.0	trustworthiness	189.29613254565265	
16.0	96.59967804166263	pulse	3.0	t		36.0	female	white	2.7548746518105847	smiling	011	sub-08	2.0	1.0	011_smiling	1.0	trustworthiness	189.99610969524383	
16.0	97.29965730423737	pulse	3.0	t		36.0	female	white	2.7548746518105847	smiling	011	sub-08	2.0	1.0	011_smiling	1.0	trustworthiness	190.69608895781857	
16.0	97.99965497995527	pulse	3.0	t		36.0	female	white	2.7548746518105847	smiling	011	sub-08	2.0	1.0	011_smiling	1.0	trustworthiness	191.39608663353647	
16.0	98.69963635551358	pulse	3.0	t		36.0	female	white	2.7548746518105847	smiling	011	sub-08	2.0	1.0	011_smiling	1.0	trustworthiness	192.09606800909478	
17.0	99.00781502095924	face	0.0		146	28.0	male	white	3.9076800636689217	neutral	033	sub-08	2.0	1.0	033_neutral	0.0		192.40424667454045	1.2416815606857199
17.0	99.39962769228077	pulse	0.0	t		28.0	male	white	3.9076800636689217	neutral	033	sub-08	2.0	1.0	033_neutral	0.0		192.79605934586198	
17.0	100.09960604929074	pulse	0.0	t		28.0	male	white	3.9076800636689217	neutral	033	sub-08	2.0	1.0	033_neutral	0.0		193.49603770287194	
17.0	100.24949658164496	fix	1.0		444	28.0	male	white	3.9076800636689217	neutral	033	sub-08	2.0	1.0	033_neutral	0.0		193.64592823522617	3.766576281275775
17.0	100.79959195267111	pulse	1.0	t		28.0	male	white	3.9076800636689217	neutral	033	sub-08	2.0	1.0	033_neutral	0.0		194.1960236062523	
17.0	101.49957996903595	pulse	1.0	t		28.0	male	white	3.9076800636689217	neutral	033	sub-08	2.0	1.0	033_neutral	0.0		194.89601162261715	
17.0	102.19956496685154	pulse	1.0	t		28.0	male	white	3.9076800636689217	neutral	033	sub-08	2.0	1.0	033_neutral	0.0		195.59599662043274	
17.0	102.89954634240985	pulse	1.0	t		28.0	male	white	3.9076800636689217	neutral	033	sub-08	2.0	1.0	033_neutral	0.0		196.29597799599105	
17.0	103.59953134022635	pulse	1.0	t		28.0	male	white	3.9076800636689217	neutral	033	sub-08	2.0	1.0	033_neutral	0.0		196.99596299380755	
18.0	104.01607286292074	face	0.0		145	34.0	male	white	2.651014723438122	neutral	121	sub-08	2.0	1.0	121_neutral	0.0		197.41250451650194	1.2333120324456104
18.0	104.29952811037947	pulse	0.0	t		34.0	male	white	2.651014723438122	neutral	121	sub-08	2.0	1.0	121_neutral	0.0		197.69595976396067	
18.0	104.99950797666406	pulse	0.0	t		34.0	male	white	2.651014723438122	neutral	121	sub-08	2.0	1.0	121_neutral	0.0		198.39593963024527	
18.0	105.24938489536635	fix	1.0		444	34.0	male	white	2.651014723438122	neutral	121	sub-08	2.0	1.0	121_neutral	0.0		198.64581654894755	3.7665823183715474
18.0	105.69948935222237	pulse	1.0	t		34.0	male	white	2.651014723438122	neutral	121	sub-08	2.0	1.0	121_neutral	0.0		199.09592100580358	
18.0	106.39948400939193	pulse	1.0	t		34.0	male	white	2.651014723438122	neutral	121	sub-08	2.0	1.0	121_neutral	0.0		199.79591566297313	
18.0	107.09945300890377	pulse	1.0	t		34.0	male	white	2.651014723438122	neutral	121	sub-08	2.0	1.0	121_neutral	0.0		200.49588466248497	
18.0	107.79944706236347	pulse	1.0	t		34.0	male	white	2.651014723438122	neutral	121	sub-08	2.0	1.0	121_neutral	0.0		201.19587871594467	
18.0	108.49943055090625	pulse	1.0	t		34.0	male	white	2.651014723438122	neutral	121	sub-08	2.0	1.0	121_neutral	0.0		201.89586220448746	
19.0	109.0159672137379	face	0.0		145	19.0	female	white	4.298846000795861	neutral	100	sub-08	2.0	1.0	100_neutral	0.0		202.4123988673191	1.2333147491390264
19.0	109.19943094331757	pulse	0.0	t		19.0	female	white	4.298846000795861	neutral	100	sub-08	2.0	1.0	100_neutral	0.0		202.59586259689877	
19.0	109.89939601871629	pulse	0.0	t		19.0	female	white	4.298846000795861	neutral	100	sub-08	2.0	1.0	100_neutral	0.0		203.2958276722975	
19.0	110.24928196287692	fix	1.0		444	19.0	female	white	4.298846000795861	neutral	100	sub-08	2.0	1.0	100_neutral	0.0		203.64571361645812	3.7665651126480952
19.0	110.59943595410732	pulse	1.0	t		19.0	female	white	4.298846000795861	neutral	100	sub-08	2.0	1.0	100_neutral	0.0		203.99586760768852	
19.0	111.29936842918687	pulse	1.0	t		19.0	female	white	4.298846000795861	neutral	100	sub-08	2.0	1.0	100_neutral	0.0		204.69580008276807	
19.0	111.99936519933999	pulse	1.0	t		19.0	female	white	4.298846000795861	neutral	100	sub-08	2.0	1.0	100_neutral	0.0		205.3957968529212	
19.0	112.69934566933443	pulse	1.0	t		19.0	female	white	4.298846000795861	neutral	100	sub-08	2.0	1.0	100_neutral	0.0		206.09577732291564	
19.0	113.39933247827867	pulse	1.0	t		19.0	female	white	4.298846000795861	neutral	100	sub-08	2.0	1.0	100_neutral	0.0		206.79576413185987	
20.0	114.01584707552502	face	0.0		145	22.0	male	black	2.767608436132113	smiling	044	sub-08	2.0	1.0	044_smiling	0.0		207.41227872910622	1.2333410105065923
20.0	114.09931838165994	pulse	0.0	t		22.0	male	black	2.767608436132113	smiling	044	sub-08	2.0	1.0	044_smiling	0.0		207.49575003524114	
20.0	114.79926806246294	pulse	0.0	t		22.0	male	black	2.767608436132113	smiling	044	sub-08	2.0	1.0	044_smiling	0.0		208.19569971604415	
20.0	115.24918808603161	fix	1.0		1186	22.0	male	black	2.767608436132113	smiling	044	sub-08	2.0	1.0	044_smiling	0.0		208.6456197396128	10.02477443144926
20.0	115.4992968292263	pulse	1.0	t		22.0	male	black	2.767608436132113	smiling	044	sub-08	2.0	1.0	044_smiling	0.0		208.8957284828075	
20.0	116.19927669551089	pulse	1.0	t		22.0	male	black	2.767608436132113	smiling	044	sub-08	2.0	1.0	044_smiling	0.0		209.5957083490921	
20.0	116.89926380631005	pulse	1.0	t		22.0	male	black	2.767608436132113	smiling	044	sub-08	2.0	1.0	044_smiling	0.0		210.29569545989125	
20.0	117.59924397444956	pulse	1.0	t		22.0	male	black	2.767608436132113	smiling	044	sub-08	2.0	1.0	044_smiling	0.0		210.99567562803077	
20.0	118.29923863161912	pulse	1.0	t		22.0	male	black	2.767608436132113	smiling	044	sub-08	2.0	1.0	044_smiling	0.0		211.69567028520032	
20.0	118.99921638492015	pulse	1.0	t		22.0	male	black	2.767608436132113	smiling	044	sub-08	2.0	1.0	044_smiling	0.0		212.39564803850135	
20.0	119.69919142152776	pulse	1.0	t		22.0	male	black	2.767608436132113	smiling	044	sub-08	2.0	1.0	044_smiling	0.0		213.09562307510896	
20.0	120.39918728611701	pulse	1.0	t		22.0	male	black	2.767608436132113	smiling	044	sub-08	2.0	1.0	044_smiling	0.0		213.79561893969822	
20.0	121.09917620804572	pulse	1.0	t		22.0	male	black	2.767608436132113	smiling	044	sub-08	2.0	1.0	044_smiling	0.0		214.49560786162692	
20.0	121.79914792425006	pulse	1.0	t		22.0	male	black	2.767608436132113	smiling	044	sub-08	2.0	1.0	044_smiling	0.0		215.19557957783127	
20.0	122.49913141279194	pulse	1.0	t		22.0	male	black	2.767608436132113	smiling	044	sub-08	2.0	1.0	044_smiling	0.0		215.89556306637314	
20.0	123.19913452189667	pulse	1.0	t		22.0	male	black	2.767608436132113	smiling	044	sub-08	2.0	1.0	044_smiling	0.0		216.59556617547787	
20.0	123.89909416390856	pulse	1.0	t		22.0	male	black	2.767608436132113	smiling	044	sub-08	2.0	1.0	044_smiling	0.0		217.29552581748976	
20.0	124.59910934720574	pulse	1.0	t		22.0	male	black	2.767608436132113	smiling	044	sub-08	2.0	1.0	044_smiling	0.0		217.99554100078694	
21.0	125.27396251748087	face	0.0		145	20.0	male	black	2.609629924393156	smiling	043	sub-08	2.0	1.0	043_smiling	0.0		218.67039417106207	1.2333216917995742
21.0	125.29913117130855	pulse	0.0	t		20.0	male	black	2.609629924393156	smiling	043	sub-08	2.0	1.0	043_smiling	0.0		218.69556282488975	
21.0	125.99906515566181	pulse	0.0	t		20.0	male	black	2.609629924393156	smiling	043	sub-08	2.0	1.0	043_smiling	0.0		219.395496809243	
21.0	126.50728420928044	fix	1.0		443	20.0	male	black	2.609629924393156	smiling	043	sub-08	2.0	1.0	043_smiling	0.0		219.90371586286165	3.7665774886945655
21.0	126.69906494436327	pulse	1.0	t		20.0	male	black	2.609629924393156	smiling	043	sub-08	2.0	1.0	043_smiling	0.0		220.09549659794448	
21.0	127.39904511250279	pulse	1.0	t		20.0	male	black	2.609629924393156	smiling	043	sub-08	2.0	1.0	043_smiling	0.0		220.795476766084	
21.0	128.09902105467427	pulse	1.0	t		20.0	male	black	2.609629924393156	smiling	043	sub-08	2.0	1.0	043_smiling	0.0		221.49545270825547	
21.0	128.79900695805463	pulse	1.0	t		20.0	male	black	2.609629924393156	smiling	043	sub-08	2.0	1.0	043_smiling	0.0		222.19543861163584	
21.0	129.49899225772606	pulse	1.0	t		20.0	male	black	2.609629924393156	smiling	043	sub-08	2.0	1.0	043_smiling	0.0		222.89542391130726	
21.0	130.19898480191205	pulse	1.0	t		20.0	male	black	2.609629924393156	smiling	043	sub-08	2.0	1.0	043_smiling	0.0		223.59541645549325	
22.0	130.273861697975	face	0.0		146	21.0	male	black	2.969757262236371	neutral	137	sub-08	2.0	1.0	137_neutral	0.0		223.6702933515562	1.233302373092556
22.0	130.89896949787362	pulse	0.0	t		21.0	male	black	2.969757262236371	neutral	137	sub-08	2.0	1.0	137_neutral	0.0		224.29540115145483	
22.0	131.50716407106756	fix	1.0		443	21.0	male	black	2.969757262236371	neutral	137	sub-08	2.0	1.0	137_neutral	0.0		224.90359572464877	3.766571451598793
22.0	131.5989493641573	pulse	1.0	t		21.0	male	black	2.969757262236371	neutral	137	sub-08	2.0	1.0	137_neutral	0.0		224.9953810177385	
22.0	132.29893707866722	pulse	1.0	t		21.0	male	black	2.969757262236371	neutral	137	sub-08	2.0	1.0	137_neutral	0.0		225.69536873224843	
22.0	132.9989308302729	pulse	1.0	t		21.0	male	black	2.969757262236371	neutral	137	sub-08	2.0	1.0	137_neutral	0.0		226.39536248385411	
22.0	133.69891099841152	pulse	1.0	t		21.0	male	black	2.969757262236371	neutral	137	sub-08	2.0	1.0	137_neutral	0.0		227.09534265199272	
22.0	134.3988881480027	pulse	1.0	t		21.0	male	black	2.969757262236371	neutral	137	sub-08	2.0	1.0	137_neutral	0.0		227.7953198015839	
22.0	135.09887888106005	pulse	1.0	t		21.0	male	black	2.969757262236371	neutral	137	sub-08	2.0	1.0	137_neutral	0.0		228.49531053464125	
23.0	135.27373552266636	face	0.0		146	27.0	female	white	4.181058495821727	neutral	039	sub-08	2.0	1.0	039_neutral	1.0	attractiveness	228.67016717624756	1.2416839755242108
23.0	135.7988798771812	pulse	0.0	t		27.0	female	white	4.181058495821727	neutral	039	sub-08	2.0	1.0	039_neutral	1.0	attractiveness	229.1953115307624	
23.0	136.49888479741458	pulse	0.0	t		27.0	female	white	4.181058495821727	neutral	039	sub-08	2.0	1.0	039_neutral	1.0	attractiveness	229.89531645099578	
23.0	136.51541949819057	fix	1.0		176	27.0	female	white	4.181058495821727	neutral	039	sub-08	2.0	1.0	039_neutral	1.0	attractiveness	229.91185115177177	1.4916230763165004
23.0	137.19883538378235	pulse	1.0	t		27.0	female	white	4.181058495821727	neutral	039	sub-08	2.0	1.0	039_neutral	1.0	attractiveness	230.59526703736356	
23.0	137.8988182686153	pulse	1.0	t		27.0	female	white	4.181058495821727	neutral	039	sub-08	2.0	1.0	039_neutral	1.0	attractiveness	231.2952499221965	
23.0	138.00704257450707	rating	2.0		296	27.0	female	white	4.181058495821727	neutral	039	sub-08	2.0	1.0	039_neutral	1.0	attractiveness	231.40347422808827	2.4999482319008166
23.0	138.59882167957403	pulse	2.0	t		27.0	female	white	4.181058495821727	neutral	039	sub-08	2.0	1.0	039_neutral	1.0	attractiveness	231.99525333315523	
23.0	139.29878886795632	pulse	2.0	t		27.0	female	white	4.181058495821727	neutral	039	sub-08	2.0	1.0	039_neutral	1.0	attractiveness	232.69522052153752	
23.0	139.99878805294884	pulse	2.0	t		27.0	female	white	4.181058495821727	neutral	039	sub-08	2.0	1.0	039_neutral	1.0	attractiveness	233.39521970653004	
23.0	140.50699080640788	fix	3.0		440	27.0	female	white	4.181058495821727	neutral	039	sub-08	2.0	1.0	039_neutral	1.0	attractiveness	233.9034224599891	3.758245692305536
23.0	140.69874648754194	pulse	3.0	t		27.0	female	white	4.181058495821727	neutral	039	sub-08	2.0	1.0	039_neutral	1.0	attractiveness	234.09517814112314	
23.0	141.0237324286545	response	3.0	b		27.0	female	white	4.181058495821727	neutral	039	sub-08	2.0	1.0	039_neutral	1.0	attractiveness	234.42016408223571	
23.0	141.39874174842134	pulse	3.0	t		27.0	female	white	4.181058495821727	neutral	039	sub-08	2.0	1.0	039_neutral	1.0	attractiveness	234.79517340200255	
23.0	141.74040184723071	response	3.0	b		27.0	female	white	4.181058495821727	neutral	039	sub-08	2.0	1.0	039_neutral	1.0	attractiveness	235.13683350081192	
23.0	142.0987201054313	pulse	3.0	t		27.0	female	white	4.181058495821727	neutral	039	sub-08	2.0	1.0	039_neutral	1.0	attractiveness	235.49515175901251	
23.0	142.69039084462293	response	3.0	b		27.0	female	white	4.181058495821727	neutral	039	sub-08	2.0	1.0	039_neutral	1.0	attractiveness	236.08682249820413	
23.0	142.79871566816564	pulse	3.0	t		27.0	female	white	4.181058495821727	neutral	039	sub-08	2.0	1.0	039_neutral	1.0	attractiveness	236.19514732174684	
23.0	143.49870308082063	pulse	3.0	t		27.0	female	white	4.181058495821727	neutral	039	sub-08	2.0	1.0	039_neutral	1.0	attractiveness	236.89513473440184	
23.0	144.19869864355496	pulse	3.0	t		27.0	female	white	4.181058495821727	neutral	039	sub-08	2.0	1.0	039_neutral	1.0	attractiveness	237.59513029713617	
24.0	144.26523649871342	face	0.0		146	20.0	female	white	3.9502586549940313	smiling	091	sub-08	2.0	1.0	091_smiling	1.0	trustworthiness	237.66166815229462	1.2416619401237767
24.0	144.66534414013768	response	0.0	b		20.0	female	white	3.9502586549940313	smiling	091	sub-08	2.0	1.0	091_smiling	1.0	trustworthiness	238.06177579371888	
24.0	144.89867609500106	pulse	0.0	t		20.0	female	white	3.9502586549940313	smiling	091	sub-08	2.0	1.0	091_smiling	1.0	trustworthiness	238.29510774858227	
24.0	145.5068984388372	fix	1.0		175	20.0	female	white	3.9502586549940313	smiling	091	sub-08	2.0	1.0	091_smiling	1.0	trustworthiness	238.9033300924184	1.516632954515444
24.0	145.5987084840217	pulse	1.0	t		20.0	female	white	3.9502586549940313	smiling	091	sub-08	2.0	1.0	091_smiling	1.0	trustworthiness	238.9951401376029	
24.0	145.6486524748625	response	1.0	b		20.0	female	white	3.9502586549940313	smiling	091	sub-08	2.0	1.0	091_smiling	1.0	trustworthiness	239.0450841284437	
24.0	146.29864337393974	pulse	1.0	t		20.0	female	white	3.9502586549940313	smiling	091	sub-08	2.0	1.0	091_smiling	1.0	trustworthiness	239.69507502752094	
24.0	146.58195041068848	response	1.0	y		20.0	female	white	3.9502586549940313	smiling	091	sub-08	2.0	1.0	091_smiling	1.0	trustworthiness	239.97838206426968	
24.0	146.99862625877176	response	1.0	b		20.0	female	white	3.9502586549940313	smiling	091	sub-08	2.0	1.0	091_smiling	1.0	trustworthiness	240.39505791235297	
24.0	146.99874790625927	pulse	1.0	t		20.0	female	white	3.9502586549940313	smiling	091	sub-08	2.0	1.0	091_smiling	1.0	trustworthiness	240.39517955984047	
24.0	147.02353139335264	rating	2.0		294	20.0	female	white	3.9502586549940313	smiling	091	sub-08	2.0	1.0	091_smiling	1.0	trustworthiness	240.41996304693384	2.483266829688546
24.0	147.6986055213465	pulse	2.0	t		20.0	female	white	3.9502586549940313	smiling	091	sub-08	2.0	1.0	091_smiling	1.0	trustworthiness	241.0950371749277	
24.0	148.3986031970644	pulse	2.0	t		20.0	female	white	3.9502586549940313	smiling	091	sub-08	2.0	1.0	091_smiling	1.0	trustworthiness	241.7950348506456	
24.0	149.09859664681517	pulse	2.0	t		20.0	female	white	3.9502586549940313	smiling	091	sub-08	2.0	1.0	091_smiling	1.0	trustworthiness	242.49502830039637	
24.0	149.5067982230412	fix	3.0		444	20.0	female	white	3.9502586549940313	smiling	091	sub-08	2.0	1.0	091_smiling	1.0	trustworthiness	242.9032298766224	3.766568734905377
24.0	149.79857500382604	pulse	3.0	t		20.0	female	white	3.9502586549940313	smiling	091	sub-08	2.0	1.0	091_smiling	1.0	trustworthiness	243.19500665740725	
24.0	150.49855366269094	pulse	3.0	t		20.0	female	white	3.9502586549940313	smiling	091	sub-08	2.0	1.0	091_smiling	1.0	trustworthiness	243.89498531627214	
24.0	151.19854862171542	pulse	3.0	t		20.0	female	white	3.9502586549940313	smiling	091	sub-08	2.0	1.0	091_smiling	1.0	trustworthiness	244.59498027529662	
24.0	151.8985348269507	pulse	3.0	t		20.0	female	white	3.9502586549940313	smiling	091	sub-08	2.0	1.0	091_smiling	1.0	trustworthiness	245.2949664805319	
24.0	152.5985186173475	pulse	3.0	t		20.0	female	white	3.9502586549940313	smiling	091	sub-08	2.0	1.0	091_smiling	1.0	trustworthiness	245.9949502709287	
25.0	153.27336695794656	face	0.0		145	22.0	female	white	4.614007162753682	neutral	009	sub-08	2.0	1.0	009_neutral	0.0		246.66979861152777	1.2333425197812176
25.0	153.29850965225978	pulse	0.0	t		22.0	female	white	4.614007162753682	neutral	009	sub-08	2.0	1.0	009_neutral	0.0		246.69494130584098	
25.0	153.99850189459175	pulse	0.0	t		22.0	female	white	4.614007162753682	neutral	009	sub-08	2.0	1.0	009_neutral	0.0		247.39493354817296	
25.0	154.50670947772778	fix	1.0		443	22.0	female	white	4.614007162753682	neutral	009	sub-08	2.0	1.0	009_neutral	0.0		247.90314113130898	3.766566320066886
25.0	154.69848447756885	pulse	1.0	t		22.0	female	white	4.614007162753682	neutral	009	sub-08	2.0	1.0	009_neutral	0.0		248.09491613115006	
25.0	155.39845559006426	pulse	1.0	t		22.0	female	white	4.614007162753682	neutral	009	sub-08	2.0	1.0	009_neutral	0.0		248.79488724364546	
25.0	156.09843907860613	pulse	1.0	t		22.0	female	white	4.614007162753682	neutral	009	sub-08	2.0	1.0	009_neutral	0.0		249.49487073218734	
25.0	156.7984159263424	pulse	1.0	t		22.0	female	white	4.614007162753682	neutral	009	sub-08	2.0	1.0	009_neutral	0.0		250.1948475799236	
25.0	157.49842084657575	pulse	1.0	t		22.0	female	white	4.614007162753682	neutral	009	sub-08	2.0	1.0	009_neutral	0.0		250.89485250015696	
25.0	158.198402523989	pulse	1.0	t		22.0	female	white	4.614007162753682	neutral	009	sub-08	2.0	1.0	009_neutral	0.0		251.5948341775702	
26.0	158.27327579779467	face	0.0		146	40.0	female	west_asian	1.5777954635893354	smiling	038	sub-08	2.0	1.0	038_smiling	1.0	attractiveness	251.66970745137587	1.2333274270404218
26.0	158.8983866162407	pulse	0.0	t		40.0	female	west_asian	1.5777954635893354	smiling	038	sub-08	2.0	1.0	038_smiling	1.0	attractiveness	252.29481826982192	
26.0	159.5066032248351	fix	1.0		177	40.0	female	west_asian	1.5777954635893354	smiling	038	sub-08	2.0	1.0	038_smiling	1.0	attractiveness	252.9030348784163	1.50829029135366
26.0	159.59839002720037	pulse	1.0	t		40.0	female	west_asian	1.5777954635893354	smiling	038	sub-08	2.0	1.0	038_smiling	1.0	attractiveness	252.99482168078157	
26.0	160.2983526877606	pulse	1.0	t		40.0	female	west_asian	1.5777954635893354	smiling	038	sub-08	2.0	1.0	038_smiling	1.0	attractiveness	253.6947843413418	
26.0	160.9983542875907	pulse	1.0	t		40.0	female	west_asian	1.5777954635893354	smiling	038	sub-08	2.0	1.0	038_smiling	1.0	attractiveness	254.3947859411719	
26.0	161.01489351618875	rating	2.0		294	40.0	female	west_asian	1.5777954635893354	smiling	038	sub-08	2.0	1.0	038_smiling	1.0	attractiveness	254.41132516976995	2.491604663173348
26.0	161.69833868169735	pulse	2.0	t		40.0	female	west_asian	1.5777954635893354	smiling	038	sub-08	2.0	1.0	038_smiling	1.0	attractiveness	255.09477033527855	
26.0	162.39832518878757	pulse	2.0	t		40.0	female	west_asian	1.5777954635893354	smiling	038	sub-08	2.0	1.0	038_smiling	1.0	attractiveness	255.79475684236877	
26.0	163.09830626249095	pulse	2.0	t		40.0	female	west_asian	1.5777954635893354	smiling	038	sub-08	2.0	1.0	038_smiling	1.0	attractiveness	256.49473791607215	
26.0	163.28186145407653	response	2.0	d		40.0	female	west_asian	1.5777954635893354	smiling	038	sub-08	2.0	1.0	038_smiling	1.0	attractiveness	256.67829310765774	
26.0	163.5064981793621	fix	3.0		444	40.0	female	west_asian	1.5777954635893354	smiling	038	sub-08	2.0	1.0	038_smiling	1.0	attractiveness	256.9029298329433	3.7665946944189272
26.0	163.798284317646	pulse	3.0	t		40.0	female	west_asian	1.5777954635893354	smiling	038	sub-08	2.0	1.0	038_smiling	1.0	attractiveness	257.1947159712272	
26.0	164.49827142844606	pulse	3.0	t		40.0	female	west_asian	1.5777954635893354	smiling	038	sub-08	2.0	1.0	038_smiling	1.0	attractiveness	257.89470308202726	
26.0	165.1982558225527	pulse	3.0	t		40.0	female	west_asian	1.5777954635893354	smiling	038	sub-08	2.0	1.0	038_smiling	1.0	attractiveness	258.5946874761339	
26.0	165.8982507815772	pulse	3.0	t		40.0	female	west_asian	1.5777954635893354	smiling	038	sub-08	2.0	1.0	038_smiling	1.0	attractiveness	259.2946824351584	
26.0	166.59823638310263	pulse	3.0	t		40.0	female	west_asian	1.5777954635893354	smiling	038	sub-08	2.0	1.0	038_smiling	1.0	attractiveness	259.99466803668383	
27.0	167.27309287378102	face	0.0		145	31.0	female	west_asian	2.364902506963788	neutral	006	sub-08	2.0	1.0	006_neutral	0.0		260.6695245273622	1.2333156547038016
27.0	167.29822802172475	pulse	0.0	t		31.0	female	west_asian	2.364902506963788	neutral	006	sub-08	2.0	1.0	006_neutral	0.0		260.69465967530596	
27.0	167.99820275647744	pulse	0.0	t		31.0	female	west_asian	2.364902506963788	neutral	006	sub-08	2.0	1.0	006_neutral	0.0		261.39463441005864	
27.0	168.50640852848483	fix	1.0		443	31.0	female	west_asian	2.364902506963788	neutral	006	sub-08	2.0	1.0	006_neutral	0.0		261.90284018206603	3.766564508938245
27.0	168.69818654687424	pulse	1.0	t		31.0	female	west_asian	2.364902506963788	neutral	006	sub-08	2.0	1.0	006_neutral	0.0		262.09461820045544	
27.0	169.3981772799316	pulse	1.0	t		31.0	female	west_asian	2.364902506963788	neutral	006	sub-08	2.0	1.0	006_neutral	0.0		262.7946089335128	
27.0	170.09815261839412	pulse	1.0	t		31.0	female	west_asian	2.364902506963788	neutral	006	sub-08	2.0	1.0	006_neutral	0.0		263.4945842719753	
27.0	170.79813550322615	pulse	1.0	t		31.0	female	west_asian	2.364902506963788	neutral	006	sub-08	2.0	1.0	006_neutral	0.0		264.19456715680735	
27.0	171.4981298585417	pulse	1.0	t		31.0	female	west_asian	2.364902506963788	neutral	006	sub-08	2.0	1.0	006_neutral	0.0		264.8945615121229	
27.0	172.19811847861547	pulse	1.0	t		31.0	female	west_asian	2.364902506963788	neutral	006	sub-08	2.0	1.0	006_neutral	0.0		265.5945501321967	
28.0	172.27297303742307	face	0.0		146	37.0	male	white	3.898925586947871	neutral	101	sub-08	2.0	1.0	101_neutral	0.0		265.6694046910043	1.2333319548624786
28.0	172.89810075973855	pulse	0.0	t		37.0	male	white	3.898925586947871	neutral	101	sub-08	2.0	1.0	101_neutral	0.0		266.29453241331976	
28.0	173.50630499228555	fix	1.0		443	37.0	male	white	3.898925586947871	neutral	101	sub-08	2.0	1.0	101_neutral	0.0		266.90273664586675	3.7582302977107247
28.0	173.59808485198937	pulse	1.0	t		37.0	male	white	3.898925586947871	neutral	101	sub-08	2.0	1.0	101_neutral	0.0		266.9945165055706	
28.0	174.2980716609345	pulse	1.0	t		37.0	male	white	3.898925586947871	neutral	101	sub-08	2.0	1.0	101_neutral	0.0		267.6945033145157	
28.0	174.9980439808487	pulse	1.0	t		37.0	male	white	3.898925586947871	neutral	101	sub-08	2.0	1.0	101_neutral	0.0		268.3944756344299	
28.0	175.69803048793892	pulse	1.0	t		37.0	male	white	3.898925586947871	neutral	101	sub-08	2.0	1.0	101_neutral	0.0		269.0944621415201	
28.0	176.3980191080127	pulse	1.0	t		37.0	male	white	3.898925586947871	neutral	101	sub-08	2.0	1.0	101_neutral	0.0		269.7944507615939	
28.0	177.09801889671417	pulse	1.0	t		37.0	male	white	3.898925586947871	neutral	101	sub-08	2.0	1.0	101_neutral	0.0		270.49445055029537	
29.0	177.26453528999627	face	0.0		147	27.0	male	black	3.5523278949462798	smiling	042	sub-08	2.0	1.0	042_smiling	0.0		270.6609669435775	1.250000981028279
29.0	177.79799574445042	pulse	0.0	t		27.0	male	black	3.5523278949462798	smiling	042	sub-08	2.0	1.0	042_smiling	0.0		271.1944273980316	
29.0	178.49797832742843	pulse	0.0	t		27.0	male	black	3.5523278949462798	smiling	042	sub-08	2.0	1.0	042_smiling	0.0		271.89440998100963	
29.0	178.51453627102455	fix	1.0		443	27.0	male	black	3.5523278949462798	smiling	042	sub-08	2.0	1.0	042_smiling	0.0		271.91096792460576	3.7500436934833488
29.0	179.1979705697595	pulse	1.0	t		27.0	male	black	3.5523278949462798	smiling	042	sub-08	2.0	1.0	042_smiling	0.0		272.5944022233407	
29.0	179.89795164346378	pulse	1.0	t		27.0	male	black	3.5523278949462798	smiling	042	sub-08	2.0	1.0	042_smiling	0.0		273.294383297045	
29.0	180.5979444895047	pulse	1.0	t		27.0	male	black	3.5523278949462798	smiling	042	sub-08	2.0	1.0	042_smiling	0.0		273.9943761430859	
29.0	181.2979560505437	pulse	1.0	t		27.0	male	black	3.5523278949462798	smiling	042	sub-08	2.0	1.0	042_smiling	0.0		274.6943877041249	
29.0	181.99790271279926	pulse	1.0	t		27.0	male	black	3.5523278949462798	smiling	042	sub-08	2.0	1.0	042_smiling	0.0		275.39433436638046	
30.0	182.2645799645079	face	0.0		146	24.0	male	white	3.1153999204138483	smiling	012	sub-08	2.0	1.0	012_smiling	0.0		275.6610116180891	1.2415131257030225
30.0	182.69790310521057	pulse	0.0	t		24.0	male	white	3.1153999204138483	smiling	012	sub-08	2.0	1.0	012_smiling	0.0		276.0943347587918	
30.0	183.39788931044586	pulse	0.0	t		24.0	male	white	3.1153999204138483	smiling	012	sub-08	2.0	1.0	012_smiling	0.0		276.79432096402707	
30.0	183.50609309021092	fix	1.0		444	24.0	male	white	3.1153999204138483	smiling	012	sub-08	2.0	1.0	012_smiling	0.0		276.9025247437921	3.7665853369198885
30.0	184.09786555447226	pulse	1.0	t		24.0	male	white	3.1153999204138483	smiling	012	sub-08	2.0	1.0	012_smiling	0.0		277.49429720805347	
30.0	184.79785508011082	pulse	1.0	t		24.0	male	white	3.1153999204138483	smiling	012	sub-08	2.0	1.0	012_smiling	0.0		278.194286733692	
30.0	185.49783887050762	pulse	1.0	t		24.0	male	white	3.1153999204138483	smiling	012	sub-08	2.0	1.0	012_smiling	0.0		278.8942705240888	
30.0	186.19783171654854	pulse	1.0	t		24.0	male	white	3.1153999204138483	smiling	012	sub-08	2.0	1.0	012_smiling	0.0		279.59426337012974	
30.0	186.8978136958167	pulse	1.0	t		24.0	male	white	3.1153999204138483	smiling	012	sub-08	2.0	1.0	012_smiling	0.0		280.2942453493979	
31.0	187.2726784271308	face	0.0		145	27.0	female	white	4.181058495821727	smiling	039	sub-08	2.0	1.0	039_smiling	0.0		280.669110080712	1.2332930155935173
31.0	187.5977899398431	pulse	0.0	t		27.0	female	white	4.181058495821727	smiling	039	sub-08	2.0	1.0	039_smiling	0.0		280.9942215934243	
31.0	188.2977773524981	pulse	0.0	t		27.0	female	white	4.181058495821727	smiling	039	sub-08	2.0	1.0	039_smiling	0.0		281.6942090060793	
31.0	188.50597144272433	fix	1.0		444	27.0	female	white	4.181058495821727	smiling	039	sub-08	2.0	1.0	039_smiling	0.0		281.90240309630553	3.7666137112710203
31.0	188.99777563192492	pulse	1.0	t		27.0	female	white	4.181058495821727	smiling	039	sub-08	2.0	1.0	039_smiling	0.0		282.3942072855061	
31.0	189.6977440277269	pulse	1.0	t		27.0	female	white	4.181058495821727	smiling	039	sub-08	2.0	1.0	039_smiling	0.0		283.0941756813081	
31.0	190.3977338552204	pulse	1.0	t		27.0	female	white	4.181058495821727	smiling	039	sub-08	2.0	1.0	039_smiling	0.0		283.7941655088016	
31.0	191.09773334206693	pulse	1.0	t		27.0	female	white	4.181058495821727	smiling	039	sub-08	2.0	1.0	039_smiling	0.0		284.49416499564813	
31.0	191.79768785254691	pulse	1.0	t		27.0	female	white	4.181058495821727	smiling	039	sub-08	2.0	1.0	039_smiling	0.0		285.1941195061281	
32.0	192.27258515399535	face	0.0		145	40.0	male	black	2.408674890569041	smiling	061	sub-08	2.0	1.0	061_smiling	0.0		285.66901680757655	1.2333156547038016
32.0	192.4977105822145	pulse	0.0	t		40.0	male	black	2.408674890569041	smiling	061	sub-08	2.0	1.0	061_smiling	0.0		285.8941422357957	
32.0	193.19768984478924	pulse	0.0	t		40.0	male	black	2.408674890569041	smiling	061	sub-08	2.0	1.0	061_smiling	0.0		286.59412149837044	
32.0	193.50590080869915	fix	1.0		444	40.0	male	black	2.408674890569041	smiling	061	sub-08	2.0	1.0	061_smiling	0.0		286.90233246228036	3.766559377406338
32.0	193.8976682017992	pulse	1.0	t		40.0	male	black	2.408674890569041	smiling	061	sub-08	2.0	1.0	061_smiling	0.0		287.2940998553804	
32.0	194.59765501074435	pulse	1.0	t		40.0	male	black	2.408674890569041	smiling	061	sub-08	2.0	1.0	061_smiling	0.0		287.99408666432555	
32.0	195.2976418196895	pulse	1.0	t		40.0	male	black	2.408674890569041	smiling	061	sub-08	2.0	1.0	061_smiling	0.0		288.6940734732707	
32.0	195.9976132340389	pulse	1.0	t		40.0	male	black	2.408674890569041	smiling	061	sub-08	2.0	1.0	061_smiling	0.0		289.3940448876201	
32.0	196.69759611887184	pulse	1.0	t		40.0	male	black	2.408674890569041	smiling	061	sub-08	2.0	1.0	061_smiling	0.0		290.09402777245305	
33.0	197.2724601861055	face	0.0		145	30.0	female	black	2.7345801830481498	neutral	062	sub-08	2.0	1.0	062_neutral	0.0		290.6688918396867	1.2333225973634399
33.0	197.3975922853151	pulse	0.0	t		30.0	female	black	2.7345801830481498	neutral	062	sub-08	2.0	1.0	062_neutral	0.0		290.7940239388963	
33.0	198.09757245345463	pulse	0.0	t		30.0	female	black	2.7345801830481498	neutral	062	sub-08	2.0	1.0	062_neutral	0.0		291.49400410703583	
33.0	198.50578278346893	fix	1.0		444	30.0	female	black	2.7345801830481498	neutral	062	sub-08	2.0	1.0	062_neutral	0.0		291.90221443705013	3.7665874499034544
33.0	198.79757043102745	pulse	1.0	t		30.0	female	black	2.7345801830481498	neutral	062	sub-08	2.0	1.0	062_neutral	0.0		292.19400208460866	
33.0	199.49754063795808	pulse	1.0	t		30.0	female	black	2.7345801830481498	neutral	062	sub-08	2.0	1.0	062_neutral	0.0		292.8939722915393	
33.0	200.19753831367598	pulse	1.0	t		30.0	female	black	2.7345801830481498	neutral	062	sub-08	2.0	1.0	062_neutral	0.0		293.5939699672572	
33.0	200.897521198508	pulse	1.0	t		30.0	female	black	2.7345801830481498	neutral	062	sub-08	2.0	1.0	062_neutral	0.0		294.2939528520892	
33.0	201.59749502769682	pulse	1.0	t		30.0	female	black	2.7345801830481498	neutral	062	sub-08	2.0	1.0	062_neutral	0.0		294.993926681278	
34.0	202.27237023337238	face	0.0		145	28.0	male	white	3.9076800636689217	smiling	033	sub-08	2.0	1.0	033_smiling	0.0		295.6688018869536	1.2333198806709333
34.0	202.29750115534898	pulse	0.0	t		28.0	male	white	3.9076800636689217	smiling	033	sub-08	2.0	1.0	033_smiling	0.0		295.6939328089302	
34.0	202.99748102163358	pulse	0.0	t		28.0	male	white	3.9076800636689217	smiling	033	sub-08	2.0	1.0	033_smiling	0.0		296.3939126752148	
34.0	203.50569011404332	fix	1.0		442	28.0	male	white	3.9076800636689217	smiling	033	sub-08	2.0	1.0	033_smiling	0.0		296.9021217676245	3.766573564582359
34.0	203.69746662315902	pulse	1.0	t		28.0	male	white	3.9076800636689217	smiling	033	sub-08	2.0	1.0	033_smiling	0.0		297.0938982767402	
34.0	204.39744437646004	pulse	1.0	t		28.0	male	white	3.9076800636689217	smiling	033	sub-08	2.0	1.0	033_smiling	0.0		297.79387603004125	
34.0	205.0974390336296	pulse	1.0	t		28.0	male	white	3.9076800636689217	smiling	033	sub-08	2.0	1.0	033_smiling	0.0		298.4938706872108	
34.0	205.79741618322078	pulse	1.0	t		28.0	male	white	3.9076800636689217	smiling	033	sub-08	2.0	1.0	033_smiling	0.0		299.193847836802	
34.0	205.87241201007782	response	1.0	b		28.0	male	white	3.9076800636689217	smiling	033	sub-08	2.0	1.0	033_smiling	0.0		299.268843663659	
34.0	206.49738035305563	pulse	1.0	t		28.0	male	white	3.9076800636689217	smiling	033	sub-08	2.0	1.0	033_smiling	0.0		299.89381200663684	
34.0	207.1973940270782	pulse	1.0	t		28.0	male	white	3.9076800636689217	smiling	033	sub-08	2.0	1.0	033_smiling	0.0		300.5938256806594	
35.0	207.27226367862568	face	0.0		146	19.0	male	white	2.243931555909272	neutral	130	sub-08	2.0	1.0	130_neutral	0.0		300.6686953322069	1.233326521476556
35.0	207.89737902489378	pulse	0.0	t		19.0	male	white	2.243931555909272	neutral	130	sub-08	2.0	1.0	130_neutral	0.0		301.293810678475	
35.0	208.50559020010223	fix	1.0		442	19.0	male	white	2.243931555909272	neutral	130	sub-08	2.0	1.0	130_neutral	0.0		301.90202185368344	3.7665702441790927
35.0	208.59736583383892	pulse	1.0	t		19.0	male	white	2.243931555909272	neutral	130	sub-08	2.0	1.0	130_neutral	0.0		301.9937974874201	
35.0	209.29735354834793	pulse	1.0	t		19.0	male	white	2.243931555909272	neutral	130	sub-08	2.0	1.0	130_neutral	0.0		302.69378520192913	
35.0	209.83067303660755	response	1.0	n		19.0	male	white	2.243931555909272	neutral	130	sub-08	2.0	1.0	130_neutral	0.0		303.22710469018875	
35.0	209.9973267738269	pulse	1.0	t		19.0	male	white	2.243931555909272	neutral	130	sub-08	2.0	1.0	130_neutral	0.0		303.3937584274081	
35.0	210.69731358277204	pulse	1.0	t		19.0	male	white	2.243931555909272	neutral	130	sub-08	2.0	1.0	130_neutral	0.0		304.09374523635324	
35.0	211.39730371211954	pulse	1.0	t		19.0	male	white	2.243931555909272	neutral	130	sub-08	2.0	1.0	130_neutral	0.0		304.79373536570074	
35.0	212.09729263404824	pulse	1.0	t		19.0	male	white	2.243931555909272	neutral	130	sub-08	2.0	1.0	130_neutral	0.0		305.49372428762945	
36.0	212.27216044428133	face	0.0		146	31.0	female	white	2.1822522881018704	smiling	102	sub-08	2.0	1.0	102_smiling	0.0		305.66859209786253	1.241650167786247
36.0	212.79727763186474	pulse	0.0	t		31.0	female	white	2.1822522881018704	smiling	102	sub-08	2.0	1.0	102_smiling	0.0		306.19370928544595	
36.0	213.49726172411556	pulse	0.0	t		31.0	female	white	2.1822522881018704	smiling	102	sub-08	2.0	1.0	102_smiling	0.0		306.89369337769676	
36.0	213.51381061206757	fix	1.0		443	31.0	female	white	2.1822522881018704	smiling	102	sub-08	2.0	1.0	102_smiling	0.0		306.9102422656488	3.7499099718043
36.0	214.19725004233533	pulse	1.0	t		31.0	female	white	2.1822522881018704	smiling	102	sub-08	2.0	1.0	102_smiling	0.0		307.59368169591653	
36.0	214.8972374549894	pulse	1.0	t		31.0	female	white	2.1822522881018704	smiling	102	sub-08	2.0	1.0	102_smiling	0.0		308.2936691085706	
36.0	215.59721792498385	pulse	1.0	t		31.0	female	white	2.1822522881018704	smiling	102	sub-08	2.0	1.0	102_smiling	0.0		308.99364957856505	
36.0	216.2971996023971	pulse	1.0	t		31.0	female	white	2.1822522881018704	smiling	102	sub-08	2.0	1.0	102_smiling	0.0		309.6936312559783	
36.0	216.9971761482784	pulse	1.0	t		31.0	female	white	2.1822522881018704	smiling	102	sub-08	2.0	1.0	102_smiling	0.0		310.3936078018596	
37.0	217.26372058387187	face	0.0		146	26.0	male	white	2.7966573816155993	smiling	117	sub-08	2.0	1.0	117_smiling	0.0		310.6601522374531	1.2416631475425675
37.0	217.6971774462536	pulse	0.0	t		26.0	male	white	2.7966573816155993	smiling	117	sub-08	2.0	1.0	117_smiling	0.0		311.0936090998348	
37.0	218.3971576143931	pulse	0.0	t		26.0	male	white	2.7966573816155993	smiling	117	sub-08	2.0	1.0	117_smiling	0.0		311.7935892679743	
37.0	218.50538373141444	fix	1.0		444	26.0	male	white	2.7966573816155993	smiling	117	sub-08	2.0	1.0	117_smiling	0.0		311.90181538499564	3.7665702441790927
37.0	219.09714653632182	pulse	1.0	t		26.0	male	white	2.7966573816155993	smiling	117	sub-08	2.0	1.0	117_smiling	0.0		312.493578189903	
37.0	219.79712428962193	pulse	1.0	t		26.0	male	white	2.7966573816155993	smiling	117	sub-08	2.0	1.0	117_smiling	0.0		313.19355594320314	
37.0	220.4971050614713	pulse	1.0	t		26.0	male	white	2.7966573816155993	smiling	117	sub-08	2.0	1.0	117_smiling	0.0		313.8935367150525	
37.0	221.19709036114182	pulse	1.0	t		26.0	male	white	2.7966573816155993	smiling	117	sub-08	2.0	1.0	117_smiling	0.0		314.593522014723	
37.0	221.89708230161887	pulse	1.0	t		26.0	male	white	2.7966573816155993	smiling	117	sub-08	2.0	1.0	117_smiling	0.0		315.29351395520007	
38.0	222.27195397559353	face	0.0		145	32.0	male	white	2.389176283326701	smiling	092	sub-08	2.0	1.0	092_smiling	0.0		315.66838562917474	1.2333147491390264
38.0	222.5970766569335	pulse	0.0	t		32.0	male	white	2.389176283326701	smiling	092	sub-08	2.0	1.0	092_smiling	0.0		315.9935083105147	
38.0	223.29706105104015	pulse	0.0	t		32.0	male	white	2.389176283326701	smiling	092	sub-08	2.0	1.0	092_smiling	0.0		316.69349270462135	
38.0	223.50526872473256	fix	1.0		444	32.0	male	white	2.389176283326701	smiling	092	sub-08	2.0	1.0	092_smiling	0.0		316.90170037831376	3.766581714662607
38.0	223.99703306909942	pulse	1.0	t		32.0	male	white	2.389176283326701	smiling	092	sub-08	2.0	1.0	092_smiling	0.0		317.3934647226806	
38.0	224.6970241040117	pulse	1.0	t		32.0	male	white	2.389176283326701	smiling	092	sub-08	2.0	1.0	092_smiling	0.0		318.0934557575929	
38.0	225.3970078944085	pulse	1.0	t		32.0	male	white	2.389176283326701	smiling	092	sub-08	2.0	1.0	092_smiling	0.0		318.7934395479897	
38.0	226.09698564770952	pulse	1.0	t		32.0	male	white	2.389176283326701	smiling	092	sub-08	2.0	1.0	092_smiling	0.0		319.4934173012907	
38.0	226.79698936052318	pulse	1.0	t		32.0	male	white	2.389176283326701	smiling	092	sub-08	2.0	1.0	092_smiling	0.0		320.1934210141044	
39.0	227.27185043939517	face	0.0		145	27.0	male	black	3.5523278949462798	neutral	042	sub-08	2.0	1.0	042_neutral	0.0		320.66828209297637	1.233328634460122
39.0	227.49699307333776	pulse	0.0	t		27.0	male	black	3.5523278949462798	neutral	042	sub-08	2.0	1.0	042_neutral	0.0		320.89342472691897	
39.0	228.19696388397733	pulse	0.0	t		27.0	male	black	3.5523278949462798	neutral	042	sub-08	2.0	1.0	042_neutral	0.0		321.59339553755854	
39.0	228.5051790738553	fix	1.0		444	27.0	male	black	3.5523278949462798	neutral	042	sub-08	2.0	1.0	042_neutral	0.0		321.9016107274365	3.749922951559711
39.0	228.8969458632455	pulse	1.0	t		27.0	male	black	3.5523278949462798	neutral	042	sub-08	2.0	1.0	042_neutral	0.0		322.2933775168267	
39.0	229.59691395719256	pulse	1.0	t		27.0	male	black	3.5523278949462798	neutral	042	sub-08	2.0	1.0	042_neutral	0.0		322.99334561077376	
39.0	230.29690287912126	pulse	1.0	t		27.0	male	black	3.5523278949462798	neutral	042	sub-08	2.0	1.0	042_neutral	0.0		323.69333453270247	
39.0	230.99689391403354	pulse	1.0	t		27.0	male	black	3.5523278949462798	neutral	042	sub-08	2.0	1.0	042_neutral	0.0		324.39332556761474	
39.0	231.6968786099942	pulse	1.0	t		27.0	male	black	3.5523278949462798	neutral	042	sub-08	2.0	1.0	042_neutral	0.0		325.0933102635754	
40.0	232.255102025415	fix	0.0		720													325.6515336789962	5.999859637515328
40.0	232.3968799079703	pulse	0.0	t														325.7933115615515	
40.0	233.096844983369	pulse	0.0	t														326.4932766369502	
40.0	233.79684326279676	pulse	0.0	t														327.19327491637796	
40.0	234.49681528085603	pulse	0.0	t														327.89324693443723	
40.0	235.19680480649458	pulse	0.0	t														328.5932364600758	
40.0	235.89679614326087	pulse	0.0	t														329.2932277968421	
40.0	236.59677842438396	pulse	0.0	t														329.99321007796516	
40.0	237.2967640259094	pulse	0.0	t														330.6931956794906	
40.0	237.99674751445218	pulse	0.0	t														331.3931791680334	
