trial_nr	onset	event_type	phase	response	nr_frames	face_age	face_sex	face_eth	attractiveness	expression	face_id	sub_id	ses	run	trial_type	catch	rating_type	onset_abs	duration
-1.0	0.056237382397739566	fix	0.0		714													25.940611839056146	5.966353862797405
-1.0	0.7061459802371246	pulse	0.0	t														26.59052043689553	
-1.0	1.4061244276799698	pulse	0.0	t														27.290498884338376	
-1.0	2.1061137419583247	pulse	0.0	t														27.99048819861673	
-1.0	2.8060970191072556	pulse	0.0	t														28.690471475765662	
-1.0	3.506102029925387	pulse	0.0	t														29.390476486583793	
-1.0	4.206085608930152	pulse	0.0	t														30.09046006558856	
-1.0	4.906078545485798	pulse	0.0	t														30.790453002144204	
-1.0	5.60606695419483	pulse	0.0	t														31.490441410853236	
0.0	6.022591245195144	face	0.0		144	22.0	female	west_asian	3.8205332272184642	neutral	066	sub-08	1.0	6.0	066_neutral	0.0		31.90696570185355	1.233331481946152
0.0	6.306064720456561	pulse	0.0	t		22.0	female	west_asian	3.8205332272184642	neutral	066	sub-08	1.0	6.0	066_neutral	0.0		32.19043917711497	
0.0	7.006036828912329	pulse	0.0	t		22.0	female	west_asian	3.8205332272184642	neutral	066	sub-08	1.0	6.0	066_neutral	0.0		32.890411285570735	
0.0	7.2559227271412965	fix	1.0		445	22.0	female	west_asian	3.8205332272184642	neutral	066	sub-08	1.0	6.0	066_neutral	0.0		33.1402971837997	3.7582756988576875
0.0	7.706041537874626	pulse	1.0	t		22.0	female	west_asian	3.8205332272184642	neutral	066	sub-08	1.0	6.0	066_neutral	0.0		33.59041599453303	
0.0	8.406016061182527	pulse	1.0	t		22.0	female	west_asian	3.8205332272184642	neutral	066	sub-08	1.0	6.0	066_neutral	0.0		34.29039051784093	
0.0	9.105996923479324	pulse	1.0	t		22.0	female	west_asian	3.8205332272184642	neutral	066	sub-08	1.0	6.0	066_neutral	0.0		34.99037138013773	
0.0	9.806004952863077	pulse	1.0	t		22.0	female	west_asian	3.8205332272184642	neutral	066	sub-08	1.0	6.0	066_neutral	0.0		35.69037940952148	
0.0	10.505994267141432	pulse	1.0	t		22.0	female	west_asian	3.8205332272184642	neutral	066	sub-08	1.0	6.0	066_neutral	0.0		36.39036872379984	
1.0	11.014198425998984	face	0.0		146	21.0	male	black	2.969757262236371	neutral	137	sub-08	1.0	6.0	137_neutral	0.0		36.89857288265739	1.2416464221550996
1.0	11.205986599985408	pulse	0.0	t		21.0	male	black	2.969757262236371	neutral	137	sub-08	1.0	6.0	137_neutral	0.0		37.090361056643815	
1.0	11.90596836784971	pulse	0.0	t		21.0	male	black	2.969757262236371	neutral	137	sub-08	1.0	6.0	137_neutral	0.0		37.790342824508116	
1.0	12.255844848154084	fix	1.0		444	21.0	male	black	2.969757262236371	neutral	137	sub-08	1.0	6.0	137_neutral	0.0		38.14021930481249	3.758256681896455
1.0	12.605956776558742	pulse	1.0	t		21.0	male	black	2.969757262236371	neutral	137	sub-08	1.0	6.0	137_neutral	0.0		38.49033123321715	
1.0	13.30593039429732	pulse	1.0	t		21.0	male	black	2.969757262236371	neutral	137	sub-08	1.0	6.0	137_neutral	0.0		39.19030485095573	
1.0	14.00594114039086	pulse	1.0	t		21.0	male	black	2.969757262236371	neutral	137	sub-08	1.0	6.0	137_neutral	0.0		39.890315597049266	
1.0	14.705934982517647	pulse	1.0	t		21.0	male	black	2.969757262236371	neutral	137	sub-08	1.0	6.0	137_neutral	0.0		40.59030943917605	
1.0	15.405911920677681	pulse	1.0	t		21.0	male	black	2.969757262236371	neutral	137	sub-08	1.0	6.0	137_neutral	0.0		41.29028637733609	
2.0	16.01410153005054	face	0.0		146	24.0	female	east_asian	4.409868682849185	neutral	030	sub-08	1.0	6.0	030_neutral	0.0		41.898475986708945	1.241668155826119
2.0	16.1059081776566	pulse	0.0	t		24.0	female	east_asian	4.409868682849185	neutral	030	sub-08	1.0	6.0	030_neutral	0.0		41.99028263431501	
2.0	16.805887832524604	pulse	0.0	t		24.0	female	east_asian	4.409868682849185	neutral	030	sub-08	1.0	6.0	030_neutral	0.0		42.69026228918301	
2.0	17.255769685876658	fix	1.0		445	24.0	female	east_asian	4.409868682849185	neutral	030	sub-08	1.0	6.0	030_neutral	0.0		43.140144142535064	3.7582545689001563
2.0	17.505883183934202	pulse	1.0	t		24.0	female	east_asian	4.409868682849185	neutral	030	sub-08	1.0	6.0	030_neutral	0.0		43.39025764059261	
2.0	18.205856499816946	pulse	1.0	t		24.0	female	east_asian	4.409868682849185	neutral	030	sub-08	1.0	6.0	030_neutral	0.0		44.09023095647535	
2.0	18.90585154936889	pulse	1.0	t		24.0	female	east_asian	4.409868682849185	neutral	030	sub-08	1.0	6.0	030_neutral	0.0		44.7902260060273	
2.0	19.60585927689681	pulse	1.0	t		24.0	female	east_asian	4.409868682849185	neutral	030	sub-08	1.0	6.0	030_neutral	0.0		45.490233733555215	
2.0	20.305839535480118	pulse	1.0	t		24.0	female	east_asian	4.409868682849185	neutral	030	sub-08	1.0	6.0	030_neutral	0.0		46.190213992138524	
3.0	21.014024254776814	face	0.0		147	22.0	female	west_asian	3.8205332272184642	smiling	066	sub-08	1.0	6.0	066_smiling	0.0		46.89839871143522	1.241685361648706
3.0	21.00653549591516	pulse	0.0	t		22.0	female	west_asian	3.8205332272184642	smiling	066	sub-08	1.0	6.0	066_smiling	0.0		46.890909952573566	
3.0	21.70582842715885	pulse	0.0	t		22.0	female	west_asian	3.8205332272184642	smiling	066	sub-08	1.0	6.0	066_smiling	0.0		47.590202883817255	
3.0	22.25570961642552	fix	1.0		443	22.0	female	west_asian	3.8205332272184642	smiling	066	sub-08	1.0	6.0	066_smiling	0.0		48.140084073083926	3.758244909491623
3.0	22.405818647006527	pulse	1.0	t		22.0	female	west_asian	3.8205332272184642	smiling	066	sub-08	1.0	6.0	066_smiling	0.0		48.29019310366493	
3.0	23.105791359175782	pulse	1.0	t		22.0	female	west_asian	3.8205332272184642	smiling	066	sub-08	1.0	6.0	066_smiling	0.0		48.99016581583419	
3.0	23.805784295733247	pulse	1.0	t		22.0	female	west_asian	3.8205332272184642	smiling	066	sub-08	1.0	6.0	066_smiling	0.0		49.69015875239165	
3.0	24.505768780307335	pulse	1.0	t		22.0	female	west_asian	3.8205332272184642	smiling	066	sub-08	1.0	6.0	066_smiling	0.0		50.39014323696574	
3.0	25.205771376273333	pulse	1.0	t		22.0	female	west_asian	3.8205332272184642	smiling	066	sub-08	1.0	6.0	066_smiling	0.0		51.09014583293174	
3.0	25.905754653420445	pulse	1.0	t		22.0	female	west_asian	3.8205332272184642	smiling	066	sub-08	1.0	6.0	066_smiling	0.0		51.79012911007885	
4.0	26.013954525917143	face	0.0		147	25.0	female	west_asian	2.6756864305610826	smiling	064	sub-08	1.0	6.0	064_smiling	0.0		51.89832898257555	1.2416624205507105
4.0	26.6057533252515	pulse	0.0	t		25.0	female	west_asian	2.6756864305610826	smiling	064	sub-08	1.0	6.0	064_smiling	0.0		52.490127781909905	
4.0	27.255616946467853	fix	1.0		443	25.0	female	west_asian	2.6756864305610826	smiling	064	sub-08	1.0	6.0	064_smiling	0.0		53.13999140312626	3.7666141838762996
4.0	27.305728452272888	pulse	1.0	t		25.0	female	west_asian	2.6756864305610826	smiling	064	sub-08	1.0	6.0	064_smiling	0.0		53.190102908931294	
4.0	28.005736179800806	pulse	1.0	t		25.0	female	west_asian	2.6756864305610826	smiling	064	sub-08	1.0	6.0	064_smiling	0.0		53.89011063645921	
4.0	28.705707080829598	pulse	1.0	t		25.0	female	west_asian	2.6756864305610826	smiling	064	sub-08	1.0	6.0	064_smiling	0.0		54.590081537488004	
4.0	29.405706054518305	pulse	1.0	t		25.0	female	west_asian	2.6756864305610826	smiling	064	sub-08	1.0	6.0	064_smiling	0.0		55.29008051117671	
4.0	30.105691444661716	pulse	1.0	t		25.0	female	west_asian	2.6756864305610826	smiling	064	sub-08	1.0	6.0	064_smiling	0.0		55.99006590132012	
4.0	30.805688305354124	pulse	1.0	t		25.0	female	west_asian	2.6756864305610826	smiling	064	sub-08	1.0	6.0	064_smiling	0.0		56.69006276201253	
5.0	31.022231130344153	face	0.0		145	27.0	female	white	4.181058495821727	neutral	039	sub-08	1.0	6.0	039_neutral	0.0		56.90660558700256	1.2333100501327863
5.0	31.505668865793268	pulse	0.0	t		27.0	female	white	4.181058495821727	neutral	039	sub-08	1.0	6.0	039_neutral	0.0		57.390043322451675	
5.0	32.20564218167419	pulse	0.0	t		27.0	female	white	4.181058495821727	neutral	039	sub-08	1.0	6.0	039_neutral	0.0		58.0900166383326	
5.0	32.25554118047694	fix	1.0		445	27.0	female	white	4.181058495821727	neutral	039	sub-08	1.0	6.0	039_neutral	0.0		58.139915637135346	3.7583523704179242
5.0	32.905646588780655	pulse	1.0	t		27.0	female	white	4.181058495821727	neutral	039	sub-08	1.0	6.0	039_neutral	0.0		58.79002104543906	
5.0	33.605644958754056	pulse	1.0	t		27.0	female	white	4.181058495821727	neutral	039	sub-08	1.0	6.0	039_neutral	0.0		59.49001941541246	
5.0	34.30563940459433	pulse	1.0	t		27.0	female	white	4.181058495821727	neutral	039	sub-08	1.0	6.0	039_neutral	0.0		60.19001386125274	
5.0	35.005621474316285	pulse	1.0	t		27.0	female	white	4.181058495821727	neutral	039	sub-08	1.0	6.0	039_neutral	0.0		60.88999593097469	
5.0	35.70560414774991	pulse	1.0	t		27.0	female	white	4.181058495821727	neutral	039	sub-08	1.0	6.0	039_neutral	0.0		61.589978604408316	
6.0	36.01389355089486	face	0.0		146	20.0	male	black	2.609629924393156	smiling	043	sub-08	1.0	6.0	043_smiling	0.0		61.89826800755327	1.2415745802991296
6.0	36.40559225460311	pulse	0.0	t		20.0	male	black	2.609629924393156	smiling	043	sub-08	1.0	6.0	043_smiling	0.0		62.28996671126151	
6.0	37.10557915402933	pulse	0.0	t		20.0	male	black	2.609629924393156	smiling	043	sub-08	1.0	6.0	043_smiling	0.0		62.989953610687735	
6.0	37.25546813119399	fix	1.0		445	20.0	male	black	2.609629924393156	smiling	043	sub-08	1.0	6.0	043_smiling	0.0		63.1398425878524	3.758277509998152
6.0	37.80557692029106	pulse	1.0	t		20.0	male	black	2.609629924393156	smiling	043	sub-08	1.0	6.0	043_smiling	0.0		63.689951376949466	
6.0	38.505553858451094	pulse	1.0	t		20.0	male	black	2.609629924393156	smiling	043	sub-08	1.0	6.0	043_smiling	0.0		64.3899283151095	
6.0	39.20556128412136	pulse	1.0	t		20.0	male	black	2.609629924393156	smiling	043	sub-08	1.0	6.0	043_smiling	0.0		65.08993574077977	
6.0	39.905541240848834	pulse	1.0	t		20.0	male	black	2.609629924393156	smiling	043	sub-08	1.0	6.0	043_smiling	0.0		65.78991569750724	
6.0	40.60553629040078	pulse	1.0	t		20.0	male	black	2.609629924393156	smiling	043	sub-08	1.0	6.0	043_smiling	0.0		66.48991074705918	
7.0	41.013745641192145	face	0.0		146	23.0	male	white	2.6275368085953046	neutral	141	sub-08	1.0	6.0	141_neutral	0.0		66.89812009785055	1.241668155826119
7.0	41.3055159452706	pulse	0.0	t		23.0	male	white	2.6275368085953046	neutral	141	sub-08	1.0	6.0	141_neutral	0.0		67.189890401929	
7.0	42.005516126384464	pulse	0.0	t		23.0	male	white	2.6275368085953046	neutral	141	sub-08	1.0	6.0	141_neutral	0.0		67.88989058304287	
7.0	42.255413797018264	fix	1.0		445	23.0	male	white	2.6275368085953046	neutral	141	sub-08	1.0	6.0	141_neutral	0.0		68.13978825367667	3.7665864130740374
7.0	42.70551147779406	pulse	1.0	t		23.0	male	white	2.6275368085953046	neutral	141	sub-08	1.0	6.0	141_neutral	0.0		68.58988593445247	
7.0	43.405488415954096	pulse	1.0	t		23.0	male	white	2.6275368085953046	neutral	141	sub-08	1.0	6.0	141_neutral	0.0		69.2898628726125	
7.0	44.105470787531885	pulse	1.0	t		23.0	male	white	2.6275368085953046	neutral	141	sub-08	1.0	6.0	141_neutral	0.0		69.98984524419029	
7.0	44.80546462965867	pulse	1.0	t		23.0	male	white	2.6275368085953046	neutral	141	sub-08	1.0	6.0	141_neutral	0.0		70.68983908631708	
7.0	45.505463301489726	pulse	1.0	t		23.0	male	white	2.6275368085953046	neutral	141	sub-08	1.0	6.0	141_neutral	0.0		71.38983775814813	
8.0	46.0220002100923	face	0.0		145	28.0	female	white	5.676880222841227	neutral	124	sub-08	1.0	6.0	124_neutral	1.0	attractiveness	71.90637466675071	1.2333293689516722
8.0	46.20545835104167	pulse	0.0	t		28.0	female	white	5.676880222841227	neutral	124	sub-08	1.0	6.0	124_neutral	1.0	attractiveness	72.08983280770008	
8.0	46.90544464675622	pulse	0.0	t		28.0	female	white	5.676880222841227	neutral	124	sub-08	1.0	6.0	124_neutral	1.0	attractiveness	72.78981910341463	
8.0	47.25532957904397	fix	1.0		177	28.0	female	white	5.676880222841227	neutral	124	sub-08	1.0	6.0	124_neutral	1.0	attractiveness	73.13970403570238	1.5083010548059974
8.0	47.60542732018985	pulse	1.0	t		28.0	female	white	5.676880222841227	neutral	124	sub-08	1.0	6.0	124_neutral	1.0	attractiveness	73.48980177684825	
8.0	48.30539852307629	pulse	1.0	t		28.0	female	white	5.676880222841227	neutral	124	sub-08	1.0	6.0	124_neutral	1.0	attractiveness	74.1897729797347	
8.0	48.76363063384997	rating	2.0		293	28.0	female	white	5.676880222841227	neutral	124	sub-08	1.0	6.0	124_neutral	1.0	attractiveness	74.64800509050838	2.4916431017336436
8.0	49.00026774674916	pulse	2.0	t		28.0	female	white	5.676880222841227	neutral	124	sub-08	1.0	6.0	124_neutral	1.0	attractiveness	74.88464220340757	
8.0	49.70025072204044	pulse	2.0	t		28.0	female	white	5.676880222841227	neutral	124	sub-08	1.0	6.0	124_neutral	1.0	attractiveness	75.58462517869884	
8.0	49.73870150976654	response	2.0	r		28.0	female	white	5.676880222841227	neutral	124	sub-08	1.0	6.0	124_neutral	1.0	attractiveness	75.62307596642495	
8.0	50.40537189932911	pulse	2.0	t		28.0	female	white	5.676880222841227	neutral	124	sub-08	1.0	6.0	124_neutral	1.0	attractiveness	76.28974635598752	
8.0	51.10537992871468	pulse	2.0	t		28.0	female	white	5.676880222841227	neutral	124	sub-08	1.0	6.0	124_neutral	1.0	attractiveness	76.98975438537309	
8.0	51.255273735583614	fix	3.0		444	28.0	female	white	5.676880222841227	neutral	124	sub-08	1.0	6.0	124_neutral	1.0	attractiveness	77.13964819224202	3.758389196917051
8.0	51.805449536832384	pulse	3.0	t		28.0	female	white	5.676880222841227	neutral	124	sub-08	1.0	6.0	124_neutral	1.0	attractiveness	77.68982399349079	
8.0	52.50534527558375	pulse	3.0	t		28.0	female	white	5.676880222841227	neutral	124	sub-08	1.0	6.0	124_neutral	1.0	attractiveness	78.38971973224216	
8.0	53.205339721422206	pulse	3.0	t		28.0	female	white	5.676880222841227	neutral	124	sub-08	1.0	6.0	124_neutral	1.0	attractiveness	79.08971417808061	
8.0	53.90533748768394	pulse	3.0	t		28.0	female	white	5.676880222841227	neutral	124	sub-08	1.0	6.0	124_neutral	1.0	attractiveness	79.78971194434234	
8.0	54.60532951867208	pulse	3.0	t		28.0	female	white	5.676880222841227	neutral	124	sub-08	1.0	6.0	124_neutral	1.0	attractiveness	80.48970397533049	
9.0	55.013662932500665	face	0.0		146	24.0	female	east_asian	2.9076800636689217	smiling	034	sub-08	1.0	6.0	034_smiling	0.0		80.89803738915907	1.2415160201308026
9.0	55.305323964512354	pulse	0.0	t		24.0	female	east_asian	2.9076800636689217	smiling	034	sub-08	1.0	6.0	034_smiling	0.0		81.18969842117076	
9.0	56.00528580984428	pulse	0.0	t		24.0	female	east_asian	2.9076800636689217	smiling	034	sub-08	1.0	6.0	034_smiling	0.0		81.88966026650269	
9.0	56.25517895263147	fix	1.0		444	24.0	female	east_asian	2.9076800636689217	smiling	034	sub-08	1.0	6.0	034_smiling	0.0		82.13955340928987	3.7582877731183544
9.0	56.705284481677154	pulse	1.0	t		24.0	female	east_asian	2.9076800636689217	smiling	034	sub-08	1.0	6.0	034_smiling	0.0		82.58965893833556	
9.0	57.40526534397213	pulse	1.0	t		24.0	female	east_asian	2.9076800636689217	smiling	034	sub-08	1.0	6.0	034_smiling	0.0		83.28963980063054	
9.0	58.105260997237565	pulse	1.0	t		24.0	female	east_asian	2.9076800636689217	smiling	034	sub-08	1.0	6.0	034_smiling	0.0		83.98963545389597	
9.0	58.805251518942896	pulse	1.0	t		24.0	female	east_asian	2.9076800636689217	smiling	034	sub-08	1.0	6.0	034_smiling	0.0		84.6896259756013	
9.0	59.50525652976103	pulse	1.0	t		24.0	female	east_asian	2.9076800636689217	smiling	034	sub-08	1.0	6.0	034_smiling	0.0		85.38963098641943	
10.0	60.01346672574982	face	0.0		146	21.0	male	east_asian/white	3.501790688420215	smiling	036	sub-08	1.0	6.0	036_smiling	0.0		85.89784118240823	1.2416373664600542
10.0	60.20523829762533	pulse	0.0	t		21.0	male	east_asian/white	3.501790688420215	smiling	036	sub-08	1.0	6.0	036_smiling	0.0		86.08961275428373	
10.0	60.905215537643016	pulse	0.0	t		21.0	male	east_asian/white	3.501790688420215	smiling	036	sub-08	1.0	6.0	036_smiling	0.0		86.78958999430142	
10.0	61.255104092209876	fix	1.0		445	21.0	male	east_asian/white	3.501790688420215	smiling	036	sub-08	1.0	6.0	036_smiling	0.0		87.13947854886828	3.758392517338507
10.0	61.6052114927661	pulse	1.0	t		21.0	male	east_asian/white	3.501790688420215	smiling	036	sub-08	1.0	6.0	036_smiling	0.0		87.48958594942451	
10.0	62.305235520545466	pulse	1.0	t		21.0	male	east_asian/white	3.501790688420215	smiling	036	sub-08	1.0	6.0	036_smiling	0.0		88.18960997720387	
10.0	63.00520159187181	pulse	1.0	t		21.0	male	east_asian/white	3.501790688420215	smiling	036	sub-08	1.0	6.0	036_smiling	0.0		88.88957604853022	
10.0	63.705188793153866	pulse	1.0	t		21.0	male	east_asian/white	3.501790688420215	smiling	036	sub-08	1.0	6.0	036_smiling	0.0		89.58956324981227	
10.0	64.40517629629358	pulse	1.0	t		21.0	male	east_asian/white	3.501790688420215	smiling	036	sub-08	1.0	6.0	036_smiling	0.0		90.28955075295198	
11.0	65.01349660954838	face	0.0		146	34.0	male	white	2.651014723438122	smiling	121	sub-08	1.0	6.0	121_smiling	0.0		90.89787106620679	1.2415296036742802
11.0	65.1051740625553	pulse	0.0	t		34.0	male	white	2.651014723438122	smiling	121	sub-08	1.0	6.0	121_smiling	0.0		90.98954851921371	
11.0	65.80514586915342	pulse	0.0	t		34.0	male	white	2.651014723438122	smiling	121	sub-08	1.0	6.0	121_smiling	0.0		91.68952032581183	
11.0	66.25502621322266	fix	1.0		444	34.0	male	white	2.651014723438122	smiling	121	sub-08	1.0	6.0	121_smiling	0.0		92.13940066988107	3.7665876205010136
11.0	66.50513940942437	pulse	1.0	t		34.0	male	white	2.651014723438122	smiling	121	sub-08	1.0	6.0	121_smiling	0.0		92.38951386608278	
11.0	67.2051263088506	pulse	1.0	t		34.0	male	white	2.651014723438122	smiling	121	sub-08	1.0	6.0	121_smiling	0.0		93.089500765509	
11.0	67.90511260456333	pulse	1.0	t		34.0	male	white	2.651014723438122	smiling	121	sub-08	1.0	6.0	121_smiling	0.0		93.78948706122173	
11.0	68.60509920213372	pulse	1.0	t		34.0	male	white	2.651014723438122	smiling	121	sub-08	1.0	6.0	121_smiling	0.0		94.48947365879212	
11.0	69.3050909312642	pulse	1.0	t		34.0	male	white	2.651014723438122	smiling	121	sub-08	1.0	6.0	121_smiling	0.0		95.18946538792261	
12.0	70.02161383372368	face	0.0		145	37.0	male	white	3.898925586947871	neutral	101	sub-08	1.0	6.0	101_neutral	1.0	trustworthiness	95.90598829038208	1.2333556304693047
12.0	70.00771273641476	pulse	0.0	t		37.0	male	white	3.898925586947871	neutral	101	sub-08	1.0	6.0	101_neutral	1.0	trustworthiness	95.89208719307317	
12.0	70.70508797307048	pulse	0.0	t		37.0	male	white	3.898925586947871	neutral	101	sub-08	1.0	6.0	101_neutral	1.0	trustworthiness	96.58946242972888	
12.0	71.25496946419298	fix	1.0		177	37.0	male	white	3.898925586947871	neutral	101	sub-08	1.0	6.0	101_neutral	1.0	trustworthiness	97.13934392085139	1.4999761533326819
12.0	71.40507668363534	pulse	1.0	t		37.0	male	white	3.898925586947871	neutral	101	sub-08	1.0	6.0	101_neutral	1.0	trustworthiness	97.28945114029375	
12.0	72.10506358306156	pulse	1.0	t		37.0	male	white	3.898925586947871	neutral	101	sub-08	1.0	6.0	101_neutral	1.0	trustworthiness	97.98943803971997	
12.0	72.75494561752566	rating	2.0		294	37.0	male	white	3.898925586947871	neutral	101	sub-08	1.0	6.0	101_neutral	1.0	trustworthiness	98.63932007418407	2.499961362364047
12.0	72.79979666943655	pulse	2.0	t		37.0	male	white	3.898925586947871	neutral	101	sub-08	1.0	6.0	101_neutral	1.0	trustworthiness	98.68417112609495	
12.0	73.49977783358736	pulse	2.0	t		37.0	male	white	3.898925586947871	neutral	101	sub-08	1.0	6.0	101_neutral	1.0	trustworthiness	99.38415229024577	
12.0	74.19976895900618	pulse	2.0	t		37.0	male	white	3.898925586947871	neutral	101	sub-08	1.0	6.0	101_neutral	1.0	trustworthiness	100.08414341566458	
12.0	74.40809494716268	response	2.0	w		37.0	male	white	3.898925586947871	neutral	101	sub-08	1.0	6.0	101_neutral	1.0	trustworthiness	100.29246940382109	
12.0	74.90500061578678	pulse	2.0	t		37.0	male	white	3.898925586947871	neutral	101	sub-08	1.0	6.0	101_neutral	1.0	trustworthiness	100.78937507244518	
12.0	75.25490697988971	fix	3.0		443	37.0	male	white	3.898925586947871	neutral	101	sub-08	1.0	6.0	101_neutral	1.0	trustworthiness	101.13928143654812	3.7665936576322565
12.0	75.60500924888402	pulse	3.0	t		37.0	male	white	3.898925586947871	neutral	101	sub-08	1.0	6.0	101_neutral	1.0	trustworthiness	101.48938370554242	
12.0	76.30499071489248	pulse	3.0	t		37.0	male	white	3.898925586947871	neutral	101	sub-08	1.0	6.0	101_neutral	1.0	trustworthiness	102.18936517155089	
12.0	76.38831096777722	response	3.0	w		37.0	male	white	3.898925586947871	neutral	101	sub-08	1.0	6.0	101_neutral	1.0	trustworthiness	102.27268542443562	
12.0	77.00496071035377	pulse	3.0	t		37.0	male	white	3.898925586947871	neutral	101	sub-08	1.0	6.0	101_neutral	1.0	trustworthiness	102.88933516701218	
12.0	77.70495877847134	pulse	3.0	t		37.0	male	white	3.898925586947871	neutral	101	sub-08	1.0	6.0	101_neutral	1.0	trustworthiness	103.58933323512974	
12.0	78.4049444704724	pulse	3.0	t		37.0	male	white	3.898925586947871	neutral	101	sub-08	1.0	6.0	101_neutral	1.0	trustworthiness	104.28931892713081	
13.0	79.02150063752197	face	0.0		145	20.0	male	black	3.1070433744528456	neutral	082	sub-08	1.0	6.0	082_neutral	1.0	dominance	104.90587509418037	1.2333311800884985
13.0	79.10496517783031	pulse	0.0	t		20.0	male	black	3.1070433744528456	neutral	082	sub-08	1.0	6.0	082_neutral	1.0	dominance	104.98933963448872	
13.0	79.80493668257259	pulse	0.0	t		20.0	male	black	3.1070433744528456	neutral	082	sub-08	1.0	6.0	082_neutral	1.0	dominance	105.689311139231	
13.0	80.25483181761047	fix	1.0		177	20.0	male	black	3.1070433744528456	neutral	082	sub-08	1.0	6.0	082_neutral	1.0	dominance	106.13920627426887	1.499964079072015
13.0	80.5049407878214	pulse	1.0	t		20.0	male	black	3.1070433744528456	neutral	082	sub-08	1.0	6.0	082_neutral	1.0	dominance	106.3893152444798	
13.0	81.20491380184649	pulse	1.0	t		20.0	male	black	3.1070433744528456	neutral	082	sub-08	1.0	6.0	082_neutral	1.0	dominance	107.0892882585049	
13.0	81.75479589668248	rating	2.0		294	20.0	male	black	3.1070433744528456	neutral	082	sub-08	1.0	6.0	082_neutral	1.0	dominance	107.63917035334089	2.499957438229103
13.0	81.89976008442318	pulse	2.0	t		20.0	male	black	3.1070433744528456	neutral	082	sub-08	1.0	6.0	082_neutral	1.0	dominance	107.78413454108158	
13.0	82.5996835939768	pulse	2.0	t		20.0	male	black	3.1070433744528456	neutral	082	sub-08	1.0	6.0	082_neutral	1.0	dominance	108.48405805063521	
13.0	83.29973720369708	pulse	2.0	t		20.0	male	black	3.1070433744528456	neutral	082	sub-08	1.0	6.0	082_neutral	1.0	dominance	109.18411166035548	
13.0	83.71325198500926	response	2.0	b		20.0	male	black	3.1070433744528456	neutral	082	sub-08	1.0	6.0	082_neutral	1.0	dominance	109.59762644166767	
13.0	83.99967791907329	pulse	2.0	t		20.0	male	black	3.1070433744528456	neutral	082	sub-08	1.0	6.0	082_neutral	1.0	dominance	109.8840523757317	
13.0	84.25475333491158	fix	3.0		444	20.0	male	black	3.1070433744528456	neutral	082	sub-08	1.0	6.0	082_neutral	1.0	dominance	110.13912779156999	3.766600600332822
13.0	84.70486097695357	pulse	3.0	t		20.0	male	black	3.1070433744528456	neutral	082	sub-08	1.0	6.0	082_neutral	1.0	dominance	110.58923543361198	
13.0	85.40485300793989	pulse	3.0	t		20.0	male	black	3.1070433744528456	neutral	082	sub-08	1.0	6.0	082_neutral	1.0	dominance	111.2892274645983	
13.0	86.10484141664892	pulse	3.0	t		20.0	male	black	3.1070433744528456	neutral	082	sub-08	1.0	6.0	082_neutral	1.0	dominance	111.98921587330733	
13.0	86.80484280518976	pulse	3.0	t		20.0	male	black	3.1070433744528456	neutral	082	sub-08	1.0	6.0	082_neutral	1.0	dominance	112.68921726184817	
13.0	87.50481944149396	pulse	3.0	t		20.0	male	black	3.1070433744528456	neutral	082	sub-08	1.0	6.0	082_neutral	1.0	dominance	113.38919389815237	
14.0	88.0213539352444	face	0.0		145	40.0	female	west_asian	1.5777954635893354	neutral	038	sub-08	1.0	6.0	038_neutral	0.0		113.90572839190281	1.233340839498851
14.0	88.20480452977972	pulse	0.0	t		40.0	female	west_asian	1.5777954635893354	neutral	038	sub-08	1.0	6.0	038_neutral	0.0		114.08917898643813	
14.0	88.90480923874202	pulse	0.0	t		40.0	female	west_asian	1.5777954635893354	neutral	038	sub-08	1.0	6.0	038_neutral	0.0		114.78918369540042	
14.0	89.25469477474326	fix	1.0		444	40.0	female	west_asian	1.5777954635893354	neutral	038	sub-08	1.0	6.0	038_neutral	0.0		115.13906923140166	3.7583747078024317
14.0	89.60480217529948	pulse	1.0	t		40.0	female	west_asian	1.5777954635893354	neutral	038	sub-08	1.0	6.0	038_neutral	0.0		115.48917663195789	
14.0	90.30477488746874	pulse	1.0	t		40.0	female	west_asian	1.5777954635893354	neutral	038	sub-08	1.0	6.0	038_neutral	0.0		116.18914934412715	
14.0	91.00476993702068	pulse	1.0	t		40.0	female	west_asian	1.5777954635893354	neutral	038	sub-08	1.0	6.0	038_neutral	0.0		116.88914439367909	
14.0	91.70475261045613	pulse	1.0	t		40.0	female	west_asian	1.5777954635893354	neutral	038	sub-08	1.0	6.0	038_neutral	0.0		117.58912706711453	
14.0	92.40473588760324	pulse	1.0	t		40.0	female	west_asian	1.5777954635893354	neutral	038	sub-08	1.0	6.0	038_neutral	0.0		118.28911034426164	
15.0	93.01306948254569	face	0.0		146	36.0	female	white	2.7548746518105847	smiling	011	sub-08	1.0	6.0	011_smiling	0.0		118.8974439392041	1.2415329240957362
15.0	93.10473848356924	pulse	0.0	t		36.0	female	white	2.7548746518105847	smiling	011	sub-08	1.0	6.0	011_smiling	0.0		118.98911294022764	
15.0	93.80471723286973	pulse	0.0	t		36.0	female	white	2.7548746518105847	smiling	011	sub-08	1.0	6.0	011_smiling	0.0		119.68909168952814	
15.0	94.25460240664142	fix	1.0		444	36.0	female	white	2.7548746518105847	smiling	011	sub-08	1.0	6.0	011_smiling	0.0		120.13897686329983	3.7665924502070993
15.0	94.50471288613517	pulse	1.0	t		36.0	female	white	2.7548746518105847	smiling	011	sub-08	1.0	6.0	011_smiling	0.0		120.38908734279357	
15.0	95.20468710758723	pulse	1.0	t		36.0	female	white	2.7548746518105847	smiling	011	sub-08	1.0	6.0	011_smiling	0.0		121.08906156424564	
15.0	95.90468608127412	pulse	1.0	t		36.0	female	white	2.7548746518105847	smiling	011	sub-08	1.0	6.0	011_smiling	0.0		121.78906053793253	
15.0	96.60467901783159	pulse	1.0	t		36.0	female	white	2.7548746518105847	smiling	011	sub-08	1.0	6.0	011_smiling	0.0		122.48905347448999	
15.0	97.30465384299714	pulse	1.0	t		36.0	female	white	2.7548746518105847	smiling	011	sub-08	1.0	6.0	011_smiling	0.0		123.18902829965555	
16.0	98.02119485684852	face	0.0		146	27.0	male	black	3.5523278949462798	neutral	042	sub-08	1.0	6.0	042_neutral	0.0		123.90556931350693	1.2333320856596401
16.0	98.00758384367327	pulse	0.0	t		27.0	male	black	3.5523278949462798	neutral	042	sub-08	1.0	6.0	042_neutral	0.0		123.89195830033168	
16.0	98.70464756438014	pulse	0.0	t		27.0	male	black	3.5523278949462798	neutral	042	sub-08	1.0	6.0	042_neutral	0.0		124.58902202103855	
16.0	99.25452694250816	fix	1.0		443	27.0	male	black	3.5523278949462798	neutral	042	sub-08	1.0	6.0	042_neutral	0.0		125.13890139916657	3.7582636245952017
16.0	99.40465378262525	pulse	1.0	t		27.0	male	black	3.5523278949462798	neutral	042	sub-08	1.0	6.0	042_neutral	0.0		125.28902823928365	
16.0	100.10462498551169	pulse	1.0	t		27.0	male	black	3.5523278949462798	neutral	042	sub-08	1.0	6.0	042_neutral	0.0		125.9889994421701	
16.0	100.8046124886514	pulse	1.0	t		27.0	male	black	3.5523278949462798	neutral	042	sub-08	1.0	6.0	042_neutral	0.0		126.68898694530981	
16.0	101.50460331221257	pulse	1.0	t		27.0	male	black	3.5523278949462798	neutral	042	sub-08	1.0	6.0	042_neutral	0.0		127.38897776887097	
16.0	102.20460741746138	pulse	1.0	t		27.0	male	black	3.5523278949462798	neutral	042	sub-08	1.0	6.0	042_neutral	0.0		128.08898187411978	
16.0	102.90458948718151	pulse	1.0	t		27.0	male	black	3.5523278949462798	neutral	042	sub-08	1.0	6.0	042_neutral	0.0		128.78896394383992	
17.0	103.01279056710337	face	0.0		147	26.0	female	white	4.854755272582572	neutral	027	sub-08	1.0	6.0	027_neutral	0.0		128.89716502376177	1.241678117092306
17.0	103.60458664973157	pulse	0.0	t		26.0	female	white	4.854755272582572	neutral	027	sub-08	1.0	6.0	027_neutral	0.0		129.48896110638998	
17.0	104.25446868419567	fix	1.0		443	26.0	female	white	4.854755272582572	neutral	027	sub-08	1.0	6.0	027_neutral	0.0		130.13884314085408	3.766577357378992
17.0	104.3045735491578	pulse	1.0	t		26.0	female	white	4.854755272582572	neutral	027	sub-08	1.0	6.0	027_neutral	0.0		130.1889480058162	
17.0	105.00455622259142	pulse	1.0	t		26.0	female	white	4.854755272582572	neutral	027	sub-08	1.0	6.0	027_neutral	0.0		130.88893067924982	
17.0	105.70454674429675	pulse	1.0	t		26.0	female	white	4.854755272582572	neutral	027	sub-08	1.0	6.0	027_neutral	0.0		131.58892120095516	
17.0	106.40452277688746	pulse	1.0	t		26.0	female	white	4.854755272582572	neutral	027	sub-08	1.0	6.0	027_neutral	0.0		132.28889723354587	
17.0	107.10452869327491	pulse	1.0	t		26.0	female	white	4.854755272582572	neutral	027	sub-08	1.0	6.0	027_neutral	0.0		132.98890314993332	
17.0	107.8045080462889	pulse	1.0	t		26.0	female	white	4.854755272582572	neutral	027	sub-08	1.0	6.0	027_neutral	0.0		133.6888825029473	
18.0	108.02104604157466	face	0.0		145	19.0	male	white	3.2522881018702745	smiling	018	sub-08	1.0	6.0	018_smiling	0.0		133.90542049823307	1.2333293689498532
18.0	108.50450460512366	pulse	0.0	t		19.0	male	white	3.2522881018702745	smiling	018	sub-08	1.0	6.0	018_smiling	0.0		134.38887906178206	
18.0	109.20448003400088	pulse	0.0	t		19.0	male	white	3.2522881018702745	smiling	018	sub-08	1.0	6.0	018_smiling	0.0		135.0888544906593	
18.0	109.25437541052452	fix	1.0		444	19.0	male	white	3.2522881018702745	smiling	018	sub-08	1.0	6.0	018_smiling	0.0		135.13874986718292	3.7582756988595065
18.0	109.9044784039761	pulse	1.0	t		19.0	male	white	3.2522881018702745	smiling	018	sub-08	1.0	6.0	018_smiling	0.0		135.7888528606345	
18.0	110.60448009437278	pulse	1.0	t		19.0	male	white	3.2522881018702745	smiling	018	sub-08	1.0	6.0	018_smiling	0.0		136.48885455103118	
18.0	111.3044410341372	pulse	1.0	t		19.0	male	white	3.2522881018702745	smiling	018	sub-08	1.0	6.0	018_smiling	0.0		137.1888154907956	
18.0	112.00445721364667	pulse	1.0	t		19.0	male	white	3.2522881018702745	smiling	018	sub-08	1.0	6.0	018_smiling	0.0		137.88883167030508	
18.0	112.70444652792503	pulse	1.0	t		19.0	male	white	3.2522881018702745	smiling	018	sub-08	1.0	6.0	018_smiling	0.0		138.58882098458344	
19.0	113.01265110938402	face	0.0		146	24.0	female	east_asian	4.409868682849185	smiling	030	sub-08	1.0	6.0	030_smiling	0.0		138.89702556604243	1.2416669483991427
19.0	113.404438860769	pulse	0.0	t		24.0	female	east_asian	4.409868682849185	smiling	030	sub-08	1.0	6.0	030_smiling	0.0		139.2888133174274	
19.0	114.10445594584962	pulse	0.0	t		24.0	female	east_asian	4.409868682849185	smiling	030	sub-08	1.0	6.0	030_smiling	0.0		139.98883040250803	
19.0	114.25431805778317	fix	1.0		444	24.0	female	east_asian	4.409868682849185	smiling	030	sub-08	1.0	6.0	030_smiling	0.0		140.13869251444157	3.76657796109248
19.0	114.80441839489686	pulse	1.0	t		24.0	female	east_asian	4.409868682849185	smiling	030	sub-08	1.0	6.0	030_smiling	0.0		140.68879285155526	
19.0	115.50440106833048	pulse	1.0	t		24.0	female	east_asian	4.409868682849185	smiling	030	sub-08	1.0	6.0	030_smiling	0.0		141.3887755249889	
19.0	116.20438193062728	pulse	1.0	t		24.0	female	east_asian	4.409868682849185	smiling	030	sub-08	1.0	6.0	030_smiling	0.0		142.08875638728568	
19.0	116.90438513030495	pulse	1.0	t		24.0	female	east_asian	4.409868682849185	smiling	030	sub-08	1.0	6.0	030_smiling	0.0		142.78875958696335	
19.0	117.60435935175701	pulse	1.0	t		24.0	female	east_asian	4.409868682849185	smiling	030	sub-08	1.0	6.0	030_smiling	0.0		143.48873380841542	
20.0	118.02089601887565	face	0.0		145	40.0	male	black	2.408674890569041	neutral	061	sub-08	1.0	6.0	061_neutral	0.0		143.90527047553405	1.233327557811208
20.0	118.30435228831448	pulse	0.0	t		40.0	male	black	2.408674890569041	neutral	061	sub-08	1.0	6.0	061_neutral	0.0		144.18872674497288	
20.0	119.00433254689597	pulse	0.0	t		40.0	male	black	2.408674890569041	neutral	061	sub-08	1.0	6.0	061_neutral	0.0		144.88870700355437	
20.0	119.25422357668685	fix	1.0		1185	40.0	male	black	2.408674890569041	neutral	061	sub-08	1.0	6.0	061_neutral	0.0		145.13859803334526	10.008298036242195
20.0	119.70434510412815	pulse	1.0	t		40.0	male	black	2.408674890569041	neutral	061	sub-08	1.0	6.0	061_neutral	0.0		145.58871956078656	
20.0	120.40431057174101	pulse	1.0	t		40.0	male	black	2.408674890569041	neutral	061	sub-08	1.0	6.0	061_neutral	0.0		146.2886850283994	
20.0	121.1042965655979	pulse	1.0	t		40.0	male	black	2.408674890569041	neutral	061	sub-08	1.0	6.0	061_neutral	0.0		146.9886710222563	
20.0	121.80430097270255	pulse	1.0	t		40.0	male	black	2.408674890569041	neutral	061	sub-08	1.0	6.0	061_neutral	0.0		147.68867542936096	
20.0	122.50429481482934	pulse	1.0	t		40.0	male	black	2.408674890569041	neutral	061	sub-08	1.0	6.0	061_neutral	0.0		148.38866927148774	
20.0	123.2042654140023	pulse	1.0	t		40.0	male	black	2.408674890569041	neutral	061	sub-08	1.0	6.0	061_neutral	0.0		149.0886398706607	
20.0	123.90427434895537	pulse	1.0	t		40.0	male	black	2.408674890569041	neutral	061	sub-08	1.0	6.0	061_neutral	0.0		149.78864880561378	
20.0	124.60426336137789	pulse	1.0	t		40.0	male	black	2.408674890569041	neutral	061	sub-08	1.0	6.0	061_neutral	0.0		150.4886378180363	
20.0	125.30424512924401	pulse	1.0	t		40.0	male	black	2.408674890569041	neutral	061	sub-08	1.0	6.0	061_neutral	0.0		151.18861958590242	
20.0	126.00423534909169	pulse	1.0	t		40.0	male	black	2.408674890569041	neutral	061	sub-08	1.0	6.0	061_neutral	0.0		151.8886098057501	
20.0	126.70422134294859	pulse	1.0	t		40.0	male	black	2.408674890569041	neutral	061	sub-08	1.0	6.0	061_neutral	0.0		152.588595799607	
20.0	127.4042160906447	pulse	1.0	t		40.0	male	black	2.408674890569041	neutral	061	sub-08	1.0	6.0	061_neutral	0.0		153.2885905473031	
20.0	128.1041755211263	pulse	1.0	t		40.0	male	black	2.408674890569041	neutral	061	sub-08	1.0	6.0	061_neutral	0.0		153.98854997778471	
20.0	128.804187474645	pulse	1.0	t		40.0	male	black	2.408674890569041	neutral	061	sub-08	1.0	6.0	061_neutral	0.0		154.6885619313034	
21.0	129.26252161292905	face	0.0		146	19.0	male	white	2.243931555909272	smiling	130	sub-08	1.0	6.0	130_smiling	0.0		155.14689606958746	1.2415486206355126
21.0	129.50418192048346	pulse	0.0	t		19.0	male	white	2.243931555909272	smiling	130	sub-08	1.0	6.0	130_smiling	0.0		155.38855637714187	
21.0	130.2041760644679	pulse	0.0	t		19.0	male	white	2.243931555909272	smiling	130	sub-08	1.0	6.0	130_smiling	0.0		156.0885505211263	
21.0	130.50407023356456	fix	1.0		444	19.0	male	white	2.243931555909272	smiling	130	sub-08	1.0	6.0	130_smiling	0.0		156.38844469022297	3.766594563201579
21.0	130.90415692676288	pulse	1.0	t		19.0	male	white	2.243931555909272	smiling	130	sub-08	1.0	6.0	130_smiling	0.0		156.7885313834213	
21.0	131.60414865589337	pulse	1.0	t		19.0	male	white	2.243931555909272	smiling	130	sub-08	1.0	6.0	130_smiling	0.0		157.48852311255177	
21.0	132.30413827202938	pulse	1.0	t		19.0	male	white	2.243931555909272	smiling	130	sub-08	1.0	6.0	130_smiling	0.0		158.18851272868778	
21.0	133.00413211415434	pulse	1.0	t		19.0	male	white	2.243931555909272	smiling	130	sub-08	1.0	6.0	130_smiling	0.0		158.88850657081275	
21.0	133.70412323957316	pulse	1.0	t		19.0	male	white	2.243931555909272	smiling	130	sub-08	1.0	6.0	130_smiling	0.0		159.58849769623157	
22.0	134.27066479676614	face	0.0		145	31.0	male	west_asian	1.9538400318344609	smiling	070	sub-08	1.0	6.0	070_smiling	0.0		160.15503925342455	1.233327557811208
22.0	134.40412221326005	pulse	0.0	t		31.0	male	west_asian	1.9538400318344609	smiling	070	sub-08	1.0	6.0	070_smiling	0.0		160.28849666991846	
22.0	135.10410790526112	pulse	0.0	t		31.0	male	west_asian	1.9538400318344609	smiling	070	sub-08	1.0	6.0	070_smiling	0.0		160.98848236191952	
22.0	135.50399235457735	fix	1.0		444	31.0	male	west_asian	1.9538400318344609	smiling	070	sub-08	1.0	6.0	070_smiling	0.0		161.38836681123576	3.7665692072532693
22.0	135.80410053996093	pulse	1.0	t		31.0	male	west_asian	1.9538400318344609	smiling	070	sub-08	1.0	6.0	070_smiling	0.0		161.68847499661933	
22.0	136.50409166537975	pulse	1.0	t		31.0	male	west_asian	1.9538400318344609	smiling	070	sub-08	1.0	6.0	070_smiling	0.0		162.38846612203815	
22.0	137.20406347197786	pulse	1.0	t		31.0	male	west_asian	1.9538400318344609	smiling	070	sub-08	1.0	6.0	070_smiling	0.0		163.08843792863627	
22.0	137.90406003081443	pulse	1.0	t		31.0	male	west_asian	1.9538400318344609	smiling	070	sub-08	1.0	6.0	070_smiling	0.0		163.78843448747284	
22.0	138.6040565896492	pulse	1.0	t		31.0	male	west_asian	1.9538400318344609	smiling	070	sub-08	1.0	6.0	070_smiling	0.0		164.4884310463076	
23.0	139.27056156183062	face	0.0		145	30.0	female	black	2.7345801830481498	neutral	062	sub-08	1.0	6.0	062_neutral	0.0		165.15493601848902	1.2333571397521155
23.0	139.30404680949687	pulse	0.0	t		30.0	female	black	2.7345801830481498	neutral	062	sub-08	1.0	6.0	062_neutral	0.0		165.18842126615527	
23.0	140.0040379349157	pulse	0.0	t		30.0	female	black	2.7345801830481498	neutral	062	sub-08	1.0	6.0	062_neutral	0.0		165.8884123915741	
23.0	140.50391870158273	fix	1.0		443	30.0	female	black	2.7345801830481498	neutral	062	sub-08	1.0	6.0	062_neutral	0.0		166.38829315824114	3.76657796109248
23.0	140.70402604176707	pulse	1.0	t		30.0	female	black	2.7345801830481498	neutral	062	sub-08	1.0	6.0	062_neutral	0.0		166.58840049842547	
23.0	141.40400750777553	pulse	1.0	t		30.0	female	black	2.7345801830481498	neutral	062	sub-08	1.0	6.0	062_neutral	0.0		167.28838196443394	
23.0	142.10399199234962	pulse	1.0	t		30.0	female	black	2.7345801830481498	neutral	062	sub-08	1.0	6.0	062_neutral	0.0		167.98836644900803	
23.0	142.80398040105865	pulse	1.0	t		30.0	female	black	2.7345801830481498	neutral	062	sub-08	1.0	6.0	062_neutral	0.0		168.68835485771706	
23.0	143.50396277263644	pulse	1.0	t		30.0	female	black	2.7345801830481498	neutral	062	sub-08	1.0	6.0	062_neutral	0.0		169.38833722929485	
23.0	144.2039584259037	pulse	1.0	t		30.0	female	black	2.7345801830481498	neutral	062	sub-08	1.0	6.0	062_neutral	0.0		170.0883328825621	
24.0	144.2704966626752	face	0.0		146	20.0	male	black	3.1070433744528456	smiling	082	sub-08	1.0	6.0	082_smiling	0.0		170.15487111933362	1.233331481946152
24.0	144.90394623089924	pulse	0.0	t		20.0	male	black	3.1070433744528456	smiling	082	sub-08	1.0	6.0	082_smiling	0.0		170.78832068755764	
24.0	145.50382814462137	fix	1.0		443	20.0	male	black	3.1070433744528456	smiling	082	sub-08	1.0	6.0	082_smiling	0.0		171.38820260127977	3.7665909409224696
24.0	145.60395275100018	pulse	1.0	t		20.0	male	black	3.1070433744528456	smiling	082	sub-08	1.0	6.0	082_smiling	0.0		171.48832720765859	
24.0	146.3039194260382	pulse	1.0	t		20.0	male	black	3.1070433744528456	smiling	082	sub-08	1.0	6.0	082_smiling	0.0		172.1882938826966	
24.0	147.00392775727778	pulse	1.0	t		20.0	male	black	3.1070433744528456	smiling	082	sub-08	1.0	6.0	082_smiling	0.0		172.88830221393619	
24.0	147.703901676874	pulse	1.0	t		20.0	male	black	3.1070433744528456	smiling	082	sub-08	1.0	6.0	082_smiling	0.0		173.58827613353242	
24.0	148.40388163359967	pulse	1.0	t		20.0	male	black	3.1070433744528456	smiling	082	sub-08	1.0	6.0	082_smiling	0.0		174.28825609025807	
24.0	149.10387457015713	pulse	1.0	t		20.0	male	black	3.1070433744528456	smiling	082	sub-08	1.0	6.0	082_smiling	0.0		174.98824902681554	
25.0	149.27041908554384	face	0.0		146	28.0	male	east_asian	1.5563072025467568	smiling	005	sub-08	1.0	6.0	005_smiling	0.0		175.15479354220224	1.2333345005117735
25.0	149.80389044781077	pulse	0.0	t		28.0	male	east_asian	1.5563072025467568	smiling	005	sub-08	1.0	6.0	005_smiling	0.0		175.68826490446918	
25.0	150.5037535860556	fix	1.0		443	28.0	male	east_asian	1.5563072025467568	smiling	005	sub-08	1.0	6.0	005_smiling	0.0		176.38812804271402	3.7584000637525605
25.0	150.51167822575917	pulse	1.0	t		28.0	male	east_asian	1.5563072025467568	smiling	005	sub-08	1.0	6.0	005_smiling	0.0		176.39605268241758	
25.0	151.20384100370939	pulse	1.0	t		28.0	male	east_asian	1.5563072025467568	smiling	005	sub-08	1.0	6.0	005_smiling	0.0		177.0882154603678	
25.0	151.9038399773981	pulse	1.0	t		28.0	male	east_asian	1.5563072025467568	smiling	005	sub-08	1.0	6.0	005_smiling	0.0		177.7882144340565	
25.0	152.60384136593711	pulse	1.0	t		28.0	male	east_asian	1.5563072025467568	smiling	005	sub-08	1.0	6.0	005_smiling	0.0		178.48821582259552	
25.0	153.30382071894928	pulse	1.0	t		28.0	male	east_asian	1.5563072025467568	smiling	005	sub-08	1.0	6.0	005_smiling	0.0		179.1881951756077	
25.0	154.0038175796417	pulse	1.0	t		28.0	male	east_asian	1.5563072025467568	smiling	005	sub-08	1.0	6.0	005_smiling	0.0		179.8881920363001	
26.0	154.26215364980817	face	0.0		146	22.0	female	white	4.614007162753682	neutral	009	sub-08	1.0	6.0	009_neutral	0.0		180.14652810646658	1.241521755404392
26.0	154.70381323290712	pulse	0.0	t		22.0	female	white	4.614007162753682	neutral	009	sub-08	1.0	6.0	009_neutral	0.0		180.58818768956553	
26.0	155.40377870051998	pulse	0.0	t		22.0	female	white	4.614007162753682	neutral	009	sub-08	1.0	6.0	009_neutral	0.0		181.28815315717839	
26.0	155.50367540521256	fix	1.0		444	22.0	female	white	4.614007162753682	neutral	009	sub-08	1.0	6.0	009_neutral	0.0		181.38804986187097	3.766612674593489
26.0	156.10377978720317	pulse	1.0	t		22.0	female	white	4.614007162753682	neutral	009	sub-08	1.0	6.0	009_neutral	0.0		181.98815424386157	
26.0	156.80376517734658	pulse	1.0	t		22.0	female	white	4.614007162753682	neutral	009	sub-08	1.0	6.0	009_neutral	0.0		182.68813963400498	
26.0	157.50375177491696	pulse	1.0	t		22.0	female	white	4.614007162753682	neutral	009	sub-08	1.0	6.0	009_neutral	0.0		183.38812623157537	
26.0	158.20373897619902	pulse	1.0	t		22.0	female	white	4.614007162753682	neutral	009	sub-08	1.0	6.0	009_neutral	0.0		184.08811343285743	
26.0	158.90372859233503	pulse	1.0	t		22.0	female	white	4.614007162753682	neutral	009	sub-08	1.0	6.0	009_neutral	0.0		184.78810304899343	
27.0	159.27028807980605	face	0.0		145	25.0	female	black	3.858336649423	smiling	126	sub-08	1.0	6.0	126_smiling	0.0		185.15466253646446	1.2333127668407542
27.0	159.60373873471508	pulse	0.0	t		25.0	female	black	3.858336649423	smiling	126	sub-08	1.0	6.0	126_smiling	0.0		185.4881131913735	
27.0	160.30370631532242	pulse	0.0	t		25.0	female	black	3.858336649423	smiling	126	sub-08	1.0	6.0	126_smiling	0.0		186.18808077198082	
27.0	160.5036008466468	fix	1.0		444	25.0	female	black	3.858336649423	smiling	126	sub-08	1.0	6.0	126_smiling	0.0		186.3879753033052	3.7665942613457446
27.0	161.00370619457863	pulse	1.0	t		25.0	female	black	3.858336649423	smiling	126	sub-08	1.0	6.0	126_smiling	0.0		186.88808065123703	
27.0	161.70369671628396	pulse	1.0	t		25.0	female	black	3.858336649423	smiling	126	sub-08	1.0	6.0	126_smiling	0.0		187.58807117294236	
27.0	162.403696595542	pulse	1.0	t		25.0	female	black	3.858336649423	smiling	126	sub-08	1.0	6.0	126_smiling	0.0		188.2880710522004	
27.0	163.10366628914562	pulse	1.0	t		25.0	female	black	3.858336649423	smiling	126	sub-08	1.0	6.0	126_smiling	0.0		188.98804074580403	
27.0	163.8036601312724	pulse	1.0	t		25.0	female	black	3.858336649423	smiling	126	sub-08	1.0	6.0	126_smiling	0.0		189.68803458793082	
28.0	164.27019510799255	face	0.0		145	20.0	male	black	2.609629924393156	neutral	043	sub-08	1.0	6.0	043_neutral	0.0		190.15456956465096	1.2333456692031177
28.0	164.5036518604029	pulse	0.0	t		20.0	male	black	2.609629924393156	neutral	043	sub-08	1.0	6.0	043_neutral	0.0		190.3880263170613	
28.0	165.2036444951027	pulse	0.0	t		20.0	male	black	2.609629924393156	neutral	043	sub-08	1.0	6.0	043_neutral	0.0		191.08801895176111	
28.0	165.50354077719567	fix	1.0		444	20.0	male	black	2.609629924393156	neutral	043	sub-08	1.0	6.0	043_neutral	0.0		191.38791523385407	3.7665770555231575
28.0	165.90364497807423	pulse	1.0	t		20.0	male	black	2.609629924393156	neutral	043	sub-08	1.0	6.0	043_neutral	0.0		191.78801943473263	
28.0	166.60362040695145	pulse	1.0	t		20.0	male	black	2.609629924393156	neutral	043	sub-08	1.0	6.0	043_neutral	0.0		192.48799486360986	
28.0	167.3036097212298	pulse	1.0	t		20.0	male	black	2.609629924393156	neutral	043	sub-08	1.0	6.0	043_neutral	0.0		193.1879841778882	
28.0	168.0035936020904	pulse	1.0	t		20.0	male	black	2.609629924393156	neutral	043	sub-08	1.0	6.0	043_neutral	0.0		193.8879680587488	
28.0	168.70358261451292	pulse	1.0	t		20.0	male	black	2.609629924393156	neutral	043	sub-08	1.0	6.0	043_neutral	0.0		194.58795707117133	
29.0	169.27011783271882	face	0.0		145	21.0	male	east_asian/white	3.501790688420215	neutral	036	sub-08	1.0	6.0	036_neutral	0.0		195.15449228937723	1.233348084055251
29.0	169.4035951717451	pulse	0.0	t		21.0	male	east_asian/white	3.501790688420215	neutral	036	sub-08	1.0	6.0	036_neutral	0.0		195.28796962840352	
29.0	170.1035702987665	pulse	0.0	t		21.0	male	east_asian/white	3.501790688420215	neutral	036	sub-08	1.0	6.0	036_neutral	0.0		195.9879447554249	
29.0	170.50346591677408	fix	1.0		444	21.0	male	east_asian/white	3.501790688420215	neutral	036	sub-08	1.0	6.0	036_neutral	0.0		196.38784037343248	3.766578564805968
29.0	170.80357108359203	pulse	1.0	t		21.0	male	east_asian/white	3.501790688420215	neutral	036	sub-08	1.0	6.0	036_neutral	0.0		196.68794554025044	
29.0	171.50355647373726	pulse	1.0	t		21.0	male	east_asian/white	3.501790688420215	neutral	036	sub-08	1.0	6.0	036_neutral	0.0		197.38793093039567	
29.0	172.20353401561078	pulse	1.0	t		21.0	male	east_asian/white	3.501790688420215	neutral	036	sub-08	1.0	6.0	036_neutral	0.0		198.0879084722692	
29.0	172.903520915037	pulse	1.0	t		21.0	male	east_asian/white	3.501790688420215	neutral	036	sub-08	1.0	6.0	036_neutral	0.0		198.7878953716954	
29.0	173.60350509775344	pulse	1.0	t		21.0	male	east_asian/white	3.501790688420215	neutral	036	sub-08	1.0	6.0	036_neutral	0.0		199.48787955441185	
30.0	174.27004448158004	face	0.0		145	40.0	male	black	2.408674890569041	smiling	061	sub-08	1.0	6.0	061_smiling	0.0		200.15441893823845	1.2333299726633413
30.0	174.3035037695845	pulse	0.0	t		40.0	male	black	2.408674890569041	smiling	061	sub-08	1.0	6.0	061_smiling	0.0		200.1878782262429	
30.0	175.0035353437779	pulse	0.0	t		40.0	male	black	2.408674890569041	smiling	061	sub-08	1.0	6.0	061_smiling	0.0		200.88790980043632	
30.0	175.50337445424339	fix	1.0		443	40.0	male	black	2.408674890569041	smiling	061	sub-08	1.0	6.0	061_smiling	0.0		201.3877489109018	3.7665930539187684
30.0	175.7034845111375	pulse	1.0	t		40.0	male	black	2.408674890569041	smiling	061	sub-08	1.0	6.0	061_smiling	0.0		201.5878589677959	
30.0	176.40346869385576	pulse	1.0	t		40.0	male	black	2.408674890569041	smiling	061	sub-08	1.0	6.0	061_smiling	0.0		202.28784315051416	
30.0	177.1034558951378	pulse	1.0	t		40.0	male	black	2.408674890569041	smiling	061	sub-08	1.0	6.0	061_smiling	0.0		202.98783035179622	
30.0	177.80344430384685	pulse	1.0	t		40.0	male	black	2.408674890569041	smiling	061	sub-08	1.0	6.0	061_smiling	0.0		203.68781876050525	
30.0	178.50343059955958	pulse	1.0	t		40.0	male	black	2.408674890569041	smiling	061	sub-08	1.0	6.0	061_smiling	0.0		204.38780505621799	
30.0	179.20342353611704	pulse	1.0	t		40.0	male	black	2.408674890569041	smiling	061	sub-08	1.0	6.0	061_smiling	0.0		205.08779799277545	
31.0	179.26996750816215	face	0.0		146	40.0	male	white	1.868682849184242	neutral	172	sub-08	1.0	6.0	172_neutral	1.0	trustworthiness	205.15434196482056	1.2333444617779605
31.0	179.90343428220876	pulse	0.0	t		40.0	male	white	1.868682849184242	neutral	172	sub-08	1.0	6.0	172_neutral	1.0	trustworthiness	205.78780873886717	
31.0	180.5033119699401	fix	1.0		177	40.0	male	white	1.868682849184242	neutral	172	sub-08	1.0	6.0	172_neutral	1.0	trustworthiness	206.38768642659852	1.4999782663289807
31.0	180.60342299277545	pulse	1.0	t		40.0	male	white	1.868682849184242	neutral	172	sub-08	1.0	6.0	172_neutral	1.0	trustworthiness	206.48779744943386	
31.0	181.3034014402183	pulse	1.0	t		40.0	male	white	1.868682849184242	neutral	172	sub-08	1.0	6.0	172_neutral	1.0	trustworthiness	207.1877758968767	
31.0	182.0032902362691	rating	2.0		294	40.0	male	white	1.868682849184242	neutral	172	sub-08	1.0	6.0	172_neutral	1.0	trustworthiness	207.8876646929275	2.4999471751052624
31.0	181.99834461874343	pulse	2.0	t		40.0	male	white	1.868682849184242	neutral	172	sub-08	1.0	6.0	172_neutral	1.0	trustworthiness	207.88271907540184	
31.0	182.69812052045017	pulse	2.0	t		40.0	male	white	1.868682849184242	neutral	172	sub-08	1.0	6.0	172_neutral	1.0	trustworthiness	208.58249497710858	
31.0	183.39811164586717	pulse	2.0	t		40.0	male	white	1.868682849184242	neutral	172	sub-08	1.0	6.0	172_neutral	1.0	trustworthiness	209.28248610252558	
31.0	184.09820932664297	pulse	2.0	t		40.0	male	white	1.868682849184242	neutral	172	sub-08	1.0	6.0	172_neutral	1.0	trustworthiness	209.98258378330138	
31.0	184.23983679220692	response	2.0	e		40.0	male	white	1.868682849184242	neutral	172	sub-08	1.0	6.0	172_neutral	1.0	trustworthiness	210.12421124886532	
31.0	184.50323741137436	fix	3.0		444	40.0	male	white	1.868682849184242	neutral	172	sub-08	1.0	6.0	172_neutral	1.0	trustworthiness	210.38761186803276	3.766594563201579
31.0	184.80334559675794	pulse	3.0	t		40.0	male	white	1.868682849184242	neutral	172	sub-08	1.0	6.0	172_neutral	1.0	trustworthiness	210.68772005341634	
31.0	185.50335090943372	pulse	3.0	t		40.0	male	white	1.868682849184242	neutral	172	sub-08	1.0	6.0	172_neutral	1.0	trustworthiness	211.38772536609213	
31.0	186.20332754573792	pulse	3.0	t		40.0	male	white	1.868682849184242	neutral	172	sub-08	1.0	6.0	172_neutral	1.0	trustworthiness	212.08770200239633	
31.0	186.90332259528986	pulse	3.0	t		40.0	male	white	1.868682849184242	neutral	172	sub-08	1.0	6.0	172_neutral	1.0	trustworthiness	212.78769705194827	
31.0	187.60329742045542	pulse	3.0	t		40.0	male	white	1.868682849184242	neutral	172	sub-08	1.0	6.0	172_neutral	1.0	trustworthiness	213.48767187711383	
32.0	188.26983197457594	face	0.0		145	19.0	female	white	4.298846000795861	smiling	100	sub-08	1.0	6.0	100_smiling	0.0		214.15420643123434	1.2333287652381841
32.0	188.30329669599996	pulse	0.0	t		19.0	female	white	4.298846000795861	smiling	100	sub-08	1.0	6.0	100_smiling	0.0		214.18767115265837	
32.0	189.00327031373854	pulse	0.0	t		19.0	female	white	4.298846000795861	smiling	100	sub-08	1.0	6.0	100_smiling	0.0		214.88764477039695	
32.0	189.50316073981412	fix	1.0		443	19.0	female	white	4.298846000795861	smiling	100	sub-08	1.0	6.0	100_smiling	0.0		215.38753519647253	3.7666123727376544
32.0	189.70327260784688	pulse	1.0	t		19.0	female	white	4.298846000795861	smiling	100	sub-08	1.0	6.0	100_smiling	0.0		215.5876470645053	
32.0	190.403267355543	pulse	1.0	t		19.0	female	white	4.298846000795861	smiling	100	sub-08	1.0	6.0	100_smiling	0.0		216.2876418122014	
32.0	191.10324670855698	pulse	1.0	t		19.0	female	white	4.298846000795861	smiling	100	sub-08	1.0	6.0	100_smiling	0.0		216.9876211652154	
32.0	191.80325202123095	pulse	1.0	t		19.0	female	white	4.298846000795861	smiling	100	sub-08	1.0	6.0	100_smiling	0.0		217.68762647788935	
32.0	192.5032419392228	pulse	1.0	t		19.0	female	white	4.298846000795861	smiling	100	sub-08	1.0	6.0	100_smiling	0.0		218.3876163958812	
32.0	193.20321766995767	pulse	1.0	t		19.0	female	white	4.298846000795861	smiling	100	sub-08	1.0	6.0	100_smiling	0.0		219.08759212661607	
33.0	193.26977311255177	face	0.0		146	24.0	female	black	3.0955033824114606	smiling	099	sub-08	1.0	6.0	099_smiling	0.0		219.15414756921018	1.2333305763768294
33.0	193.90321966221018	pulse	0.0	t		24.0	female	black	3.0955033824114606	smiling	099	sub-08	1.0	6.0	099_smiling	0.0		219.78759411886858	
33.0	194.5031036889286	fix	1.0		443	24.0	female	black	3.0955033824114606	smiling	099	sub-08	1.0	6.0	099_smiling	0.0		220.387478145587	3.7665957706285553
33.0	194.60321169319832	pulse	1.0	t		24.0	female	black	3.0955033824114606	smiling	099	sub-08	1.0	6.0	099_smiling	0.0		220.48758614985672	
33.0	195.30318802764486	pulse	1.0	t		24.0	female	black	3.0955033824114606	smiling	099	sub-08	1.0	6.0	099_smiling	0.0		221.18756248430327	
33.0	196.0031707010803	pulse	1.0	t		24.0	female	black	3.0955033824114606	smiling	099	sub-08	1.0	6.0	099_smiling	0.0		221.8875451577387	
33.0	196.7031645432071	pulse	1.0	t		24.0	female	black	3.0955033824114606	smiling	099	sub-08	1.0	6.0	099_smiling	0.0		222.5875389998655	
33.0	197.40316744102893	pulse	1.0	t		24.0	female	black	3.0955033824114606	smiling	099	sub-08	1.0	6.0	099_smiling	0.0		223.28754189768733	
33.0	198.10314075691167	pulse	1.0	t		24.0	female	black	3.0955033824114606	smiling	099	sub-08	1.0	6.0	099_smiling	0.0		223.98751521357008	
34.0	198.26969945955716	face	0.0		146	22.0	male	black	2.767608436132113	smiling	044	sub-08	1.0	6.0	044_smiling	0.0		224.15407391621557	1.233314276123565
34.0	198.8031436547335	pulse	0.0	t		22.0	male	black	2.767608436132113	smiling	044	sub-08	1.0	6.0	044_smiling	0.0		224.6875181113919	
34.0	199.50301373568072	fix	1.0		444	22.0	male	black	2.767608436132113	smiling	044	sub-08	1.0	6.0	044_smiling	0.0		225.38738819233913	3.766590035353147
34.0	199.51058610880318	pulse	1.0	t		22.0	male	black	2.767608436132113	smiling	044	sub-08	1.0	6.0	044_smiling	0.0		225.3949605654616	
34.0	200.2031256037135	pulse	1.0	t		22.0	male	black	2.767608436132113	smiling	044	sub-08	1.0	6.0	044_smiling	0.0		226.0875000603719	
34.0	200.9031073715778	pulse	1.0	t		22.0	male	black	2.767608436132113	smiling	044	sub-08	1.0	6.0	044_smiling	0.0		226.7874818282362	
34.0	201.60310000627942	pulse	1.0	t		22.0	male	black	2.767608436132113	smiling	044	sub-08	1.0	6.0	044_smiling	0.0		227.48747446293783	
34.0	202.30307845372226	pulse	1.0	t		22.0	male	black	2.767608436132113	smiling	044	sub-08	1.0	6.0	044_smiling	0.0		228.18745291038067	
34.0	203.0030611271559	pulse	1.0	t		22.0	male	black	2.767608436132113	smiling	044	sub-08	1.0	6.0	044_smiling	0.0		228.8874355838143	
35.0	203.26960377103387	face	0.0		145	20.0	female	white	3.9502586549940313	neutral	091	sub-08	1.0	6.0	091_neutral	1.0	attractiveness	229.15397822769228	1.2333453673472832
35.0	203.70307187324943	pulse	0.0	t		20.0	female	white	3.9502586549940313	neutral	091	sub-08	1.0	6.0	091_neutral	1.0	attractiveness	229.58744632990783	
35.0	204.4030533392579	pulse	0.0	t		20.0	female	white	3.9502586549940313	neutral	091	sub-08	1.0	6.0	091_neutral	1.0	attractiveness	230.2874277959163	
35.0	204.50294913838115	fix	1.0		177	20.0	female	white	3.9502586549940313	neutral	091	sub-08	1.0	6.0	091_neutral	1.0	attractiveness	230.38732359503956	1.4999788700424688
35.0	205.10304838881166	pulse	1.0	t		20.0	female	white	3.9502586549940313	neutral	091	sub-08	1.0	6.0	091_neutral	1.0	attractiveness	230.98742284547006	
35.0	205.80303891051517	pulse	1.0	t		20.0	female	white	3.9502586549940313	neutral	091	sub-08	1.0	6.0	091_neutral	1.0	attractiveness	231.68741336717358	
35.0	206.00292800842362	rating	2.0		295	20.0	female	white	3.9502586549940313	neutral	091	sub-08	1.0	6.0	091_neutral	1.0	attractiveness	231.88730246508203	2.499961362362228
35.0	206.49778075072936	pulse	2.0	t		20.0	female	white	3.9502586549940313	neutral	091	sub-08	1.0	6.0	091_neutral	1.0	attractiveness	232.38215520738777	
35.0	207.1977613111685	pulse	2.0	t		20.0	female	white	3.9502586549940313	neutral	091	sub-08	1.0	6.0	091_neutral	1.0	attractiveness	233.0821357678269	
35.0	207.48634310463058	response	2.0	b		20.0	female	white	3.9502586549940313	neutral	091	sub-08	1.0	6.0	091_neutral	1.0	attractiveness	233.37071756128898	
35.0	207.90298693081968	pulse	2.0	t		20.0	female	white	3.9502586549940313	neutral	091	sub-08	1.0	6.0	091_neutral	1.0	attractiveness	233.7873613874781	
35.0	208.50288937078585	fix	3.0		443	20.0	female	white	3.9502586549940313	neutral	091	sub-08	1.0	6.0	091_neutral	1.0	attractiveness	234.38726382744426	3.7665788666618027
35.0	208.6030631797821	pulse	3.0	t		20.0	female	white	3.9502586549940313	neutral	091	sub-08	1.0	6.0	091_neutral	1.0	attractiveness	234.48743763644052	
35.0	209.30296676680337	pulse	3.0	t		20.0	female	white	3.9502586549940313	neutral	091	sub-08	1.0	6.0	091_neutral	1.0	attractiveness	235.18734122346177	
35.0	210.00298566302263	pulse	3.0	t		20.0	female	white	3.9502586549940313	neutral	091	sub-08	1.0	6.0	091_neutral	1.0	attractiveness	235.88736011968103	
35.0	210.7029463009294	pulse	3.0	t		20.0	female	white	3.9502586549940313	neutral	091	sub-08	1.0	6.0	091_neutral	1.0	attractiveness	236.5873207575878	
35.0	211.40292987993416	pulse	3.0	t		20.0	female	white	3.9502586549940313	neutral	091	sub-08	1.0	6.0	091_neutral	1.0	attractiveness	237.28730433659257	
35.0	212.10292311834746	pulse	3.0	t		20.0	female	white	3.9502586549940313	neutral	091	sub-08	1.0	6.0	091_neutral	1.0	attractiveness	237.98729757500587	
36.0	212.26946823744765	face	0.0		146	26.0	female	white	4.854755272582572	smiling	027	sub-08	1.0	6.0	027_smiling	0.0		238.15384269410606	1.2333320856596401
36.0	212.80292420503065	pulse	0.0	t		26.0	female	white	4.854755272582572	smiling	027	sub-08	1.0	6.0	027_smiling	0.0		238.68729866168906	
36.0	213.5028003231073	fix	1.0		444	26.0	female	white	4.854755272582572	smiling	027	sub-08	1.0	6.0	027_smiling	0.0		239.3871747797657	3.75825487075781
36.0	213.51032077690616	pulse	1.0	t		26.0	female	white	4.854755272582572	smiling	027	sub-08	1.0	6.0	027_smiling	0.0		239.39469523356456	
36.0	214.20289106118253	pulse	1.0	t		26.0	female	white	4.854755272582572	smiling	027	sub-08	1.0	6.0	027_smiling	0.0		240.08726551784093	
36.0	214.90288067731854	pulse	1.0	t		26.0	female	white	4.854755272582572	smiling	027	sub-08	1.0	6.0	027_smiling	0.0		240.78725513397694	
36.0	215.60288538628083	pulse	1.0	t		26.0	female	white	4.854755272582572	smiling	027	sub-08	1.0	6.0	027_smiling	0.0		241.48725984293924	
36.0	216.30286805971446	pulse	1.0	t		26.0	female	white	4.854755272582572	smiling	027	sub-08	1.0	6.0	027_smiling	0.0		242.18724251637286	
36.0	217.00285465728484	pulse	1.0	t		26.0	female	white	4.854755272582572	smiling	027	sub-08	1.0	6.0	027_smiling	0.0		242.88722911394325	
37.0	217.2610551938651	face	0.0		146	54.0	female	white	2.286908077994429	smiling	136	sub-08	1.0	6.0	136_smiling	0.0		243.1454296505235	1.2416675521126308
37.0	217.70284578270184	pulse	0.0	t		54.0	female	white	2.286908077994429	smiling	136	sub-08	1.0	6.0	136_smiling	0.0		243.58722023936025	
37.0	218.40284203968076	pulse	0.0	t		54.0	female	white	2.286908077994429	smiling	136	sub-08	1.0	6.0	136_smiling	0.0		244.28721649633917	
37.0	218.50272274597774	fix	1.0		444	54.0	female	white	2.286908077994429	smiling	136	sub-08	1.0	6.0	136_smiling	0.0		244.38709720263614	3.7582443057781347
37.0	219.10282290197574	pulse	1.0	t		54.0	female	white	2.286908077994429	smiling	136	sub-08	1.0	6.0	136_smiling	0.0		244.98719735863415	
37.0	219.80280889583264	pulse	1.0	t		54.0	female	white	2.286908077994429	smiling	136	sub-08	1.0	6.0	136_smiling	0.0		245.68718335249105	
37.0	220.50281088808697	pulse	1.0	t		54.0	female	white	2.286908077994429	smiling	136	sub-08	1.0	6.0	136_smiling	0.0		246.38718534474538	
37.0	221.20277756312498	pulse	1.0	t		54.0	female	white	2.286908077994429	smiling	136	sub-08	1.0	6.0	136_smiling	0.0		247.0871520197834	
37.0	221.90278015909098	pulse	1.0	t		54.0	female	white	2.286908077994429	smiling	136	sub-08	1.0	6.0	136_smiling	0.0		247.7871546157494	
38.0	222.26096705175587	face	0.0		146	25.0	female	west_asian	2.6756864305610826	neutral	064	sub-08	1.0	6.0	064_neutral	0.0		248.14534150841428	1.241678720803975
38.0	222.6027878866189	pulse	0.0	t		25.0	female	west_asian	2.6756864305610826	neutral	064	sub-08	1.0	6.0	064_neutral	0.0		248.4871623432773	
38.0	223.3027587876477	pulse	0.0	t		25.0	female	west_asian	2.6756864305610826	neutral	064	sub-08	1.0	6.0	064_neutral	0.0		249.1871332443061	
38.0	223.50264577255984	fix	1.0		444	25.0	female	west_asian	2.6756864305610826	neutral	064	sub-08	1.0	6.0	064_neutral	0.0		249.38702022921825	3.7665975817672006
38.0	224.0027478000702	pulse	1.0	t		25.0	female	west_asian	2.6756864305610826	neutral	064	sub-08	1.0	6.0	064_neutral	0.0		249.88712225672862	
38.0	224.7027374162044	pulse	1.0	t		25.0	female	west_asian	2.6756864305610826	neutral	064	sub-08	1.0	6.0	064_neutral	0.0		250.5871118728628	
38.0	225.40273518246613	pulse	1.0	t		25.0	female	west_asian	2.6756864305610826	neutral	064	sub-08	1.0	6.0	064_neutral	0.0		251.28710963912454	
38.0	226.10272147817886	pulse	1.0	t		25.0	female	west_asian	2.6756864305610826	neutral	064	sub-08	1.0	6.0	064_neutral	0.0		251.98709593483727	
38.0	226.8027041516143	pulse	1.0	t		25.0	female	west_asian	2.6756864305610826	neutral	064	sub-08	1.0	6.0	064_neutral	0.0		252.6870786082727	
39.0	227.26924335432705	face	0.0		145	26.0	male	white	2.7966573816155993	neutral	117	sub-08	1.0	6.0	117_neutral	0.0		253.15361781098545	1.233344763633795
39.0	227.50271429399436	pulse	0.0	t		26.0	male	white	2.7966573816155993	neutral	117	sub-08	1.0	6.0	117_neutral	0.0		253.38708875065277	
39.0	228.2026861005943	pulse	0.0	t		26.0	male	white	2.7966573816155993	neutral	117	sub-08	1.0	6.0	117_neutral	0.0		254.0870605572527	
39.0	228.50258811796084	fix	1.0		444	26.0	male	white	2.7966573816155993	neutral	117	sub-08	1.0	6.0	117_neutral	0.0		254.38696257461925	3.7499426472586492
39.0	228.90268990398545	pulse	1.0	t		26.0	male	white	2.7966573816155993	neutral	117	sub-08	1.0	6.0	117_neutral	0.0		254.78706436064385	
39.0	229.6026792182638	pulse	1.0	t		26.0	male	white	2.7966573816155993	neutral	117	sub-08	1.0	6.0	117_neutral	0.0		255.4870536749222	
39.0	230.3026552508545	pulse	1.0	t		26.0	male	white	2.7966573816155993	neutral	117	sub-08	1.0	6.0	117_neutral	0.0		256.1870297075129	
39.0	231.0026599598168	pulse	1.0	t		26.0	male	white	2.7966573816155993	neutral	117	sub-08	1.0	6.0	117_neutral	0.0		256.8870344164752	
39.0	231.70264685924303	pulse	1.0	t		26.0	male	white	2.7966573816155993	neutral	117	sub-08	1.0	6.0	117_neutral	0.0		257.58702131590144	
40.0	232.2525307652195	fix	0.0		720													258.1369052218779	5.999890727931415
40.0	232.40262802339566	pulse	0.0	t														258.28700248005407	
40.0	233.1027878866189	pulse	0.0	t														258.9871623432773	
40.0	233.8026552508545	pulse	0.0	t														259.6870297075129	
40.0	234.50260200336197	pulse	0.0	t														260.3869764600204	
40.0	235.20257803595268	pulse	0.0	t														261.0869524926111	
40.0	235.90257157622182	pulse	0.0	t														261.7869460328802	
40.0	236.60255907936153	pulse	0.0	t														262.48693353601993	
40.0	237.30254084722765	pulse	0.0	t														263.18691530388605	
40.0	238.00252985964835	pulse	0.0	t														263.88690431630675	
