trial_nr	onset	event_type	phase	response	nr_frames	trial_type	stim_name	task_probe	onset_abs	duration
0.0	0.053963017075147945	baseline	0.0		701		baseline	0.0	42.09308517061072	5.849573181036249
0.0	0.7038332206429914	pulse	0.0	t			baseline	0.0	42.742955374178564	
0.0	1.403786735409085	pulse	0.0	t			baseline	0.0	43.44290888894466	
0.0	2.1037559464894002	pulse	0.0	t			baseline	0.0	44.14287810002497	
0.0	2.8037514187053603	pulse	0.0	t			baseline	0.0	44.84287357224093	
0.0	3.5037348168370954	pulse	0.0	t			baseline	0.0	45.54285697037267	
0.0	4.203701009395445	pulse	0.0	t			baseline	0.0	46.24282316293102	
0.0	4.903679879742413	pulse	0.0	t			baseline	0.0	46.942802033277985	
0.0	5.603650600081892	pulse	0.0	t			baseline	0.0	47.642772753617464	
0.0	5.9035361981113965	ISI	1.0		2		baseline	0.0	47.94265835164697	0.12499728333204985
1.0	6.028533481443446	car	0.0		45	object	car-133.jpg	0.0	48.06765563497902	0.37493027214804897
1.0	6.303588720387779	pulse	0.0	t		object	car-133.jpg	0.0	48.34271087392335	
1.0	6.403463753591495	ISI	1.0		235	object	car-133.jpg	0.0	48.44258590712707	2.016653485788993
1.0	7.0035790611218545	pulse	1.0	t		object	car-133.jpg	0.0	49.04270121465743	
1.0	7.703553101833677	pulse	1.0	t		object	car-133.jpg	0.0	49.74267525536925	
2.0	8.420117239380488	car	0.0		45	object	car-90.jpg	0.0	50.45923939291606	0.3832982178646489
2.0	8.411893579002935	pulse	0.0	t		object	car-90.jpg	0.0	50.45101573253851	
2.0	8.803415457245137	ISI	1.0		231	object	car-90.jpg	0.0	50.84253761078071	2.0166284320621344
2.0	9.103507824009284	pulse	1.0	t		object	car-90.jpg	0.0	51.14262997754486	
2.0	9.8034770350896	pulse	1.0	t		object	car-90.jpg	0.0	51.84259918862517	
2.0	10.503477035090327	pulse	1.0	t		object	car-90.jpg	0.0	52.5425991886259	
3.0	10.820043889307271	adult	0.0		46	face	adult-90.jpg	0.0	52.859166042842844	0.3832985197150265
3.0	11.203342409022298	ISI	1.0		228	face	adult-90.jpg	0.0	53.24246456255787	2.01664835430347
3.0	11.29756133635965	pulse	1.0	t		face	adult-90.jpg	0.0	53.33668348989522	
3.0	11.903437794306228	pulse	1.0	t		face	adult-90.jpg	0.0	53.9425599478418	
3.0	12.60347733693925	pulse	1.0	t		face	adult-90.jpg	0.0	54.64259949047482	
4.0	13.219990763325768	number	0.0		46	character	number-127.jpg	0.0	55.25911291686134	0.3832653159770416
4.0	13.303397647970996	pulse	0.0	t		character	number-127.jpg	0.0	55.34251980150657	
4.0	13.60325607930281	ISI	1.0		233	character	number-127.jpg	0.0	55.64237823283838	2.016644128372718
4.0	14.003371688682819	pulse	1.0	t		character	number-127.jpg	0.0	56.04249384221839	
4.0	14.703345125693886	pulse	1.0	t		character	number-127.jpg	0.0	56.74246727922946	
4.0	15.40332792011759	pulse	1.0	t		character	number-127.jpg	0.0	57.44245007365316	
5.0	15.619900207675528	limb	0.0		46	body	limb-61.jpg	0.0	57.6590223612111	0.3832894641527673
5.0	16.003189671828295	ISI	1.0		231	body	limb-61.jpg	0.0	58.04231182536387	2.016640807996737
5.0	16.10331192195372	pulse	1.0	t		body	limb-61.jpg	0.0	58.14243407548929	
5.0	16.80328837748675	pulse	1.0	t		body	limb-61.jpg	0.0	58.842410531022324	
5.0	17.503297433049738	pulse	1.0	t		body	limb-61.jpg	0.0	59.54241958658531	
6.0	18.019830479825032	house	0.0		46	place	house-72.jpg	0.0	60.058952633360605	0.3832994252734352
6.0	18.203249136702652	pulse	0.0	t		place	house-72.jpg	0.0	60.242371290238225	
6.0	18.403129905098467	ISI	1.0		232	place	house-72.jpg	0.0	60.44225205863404	2.0166655598768557
6.0	18.90321714037418	pulse	1.0	t		place	house-72.jpg	0.0	60.942339293909754	
6.0	19.603266945981886	pulse	1.0	t		place	house-72.jpg	0.0	61.64238909951746	
6.0	20.303248231146426	pulse	1.0	t		place	house-72.jpg	0.0	62.342370384682	
7.0	20.419795464975323	number	0.0		46	character	number-126.jpg	0.0	62.458917618510895	0.38329580304707633
7.0	20.8030912680224	ISI	1.0		352	character	number-126.jpg	0.0	62.84221342155797	3.0165982468424772
7.0	21.00323434594975	pulse	1.0	t		character	number-126.jpg	0.0	63.04235649948532	
7.0	21.703198727391282	pulse	1.0	t		character	number-126.jpg	0.0	63.742320880926854	
7.0	22.40318001255946	pulse	1.0	t		character	number-126.jpg	0.0	64.44230216609503	
7.0	23.10316733476793	pulse	1.0	t		character	number-126.jpg	0.0	65.1422894883035	
8.0	23.819689514864876	car	0.0		45	object	car-142.jpg	0.0	65.85881166840045	0.3832876530395879
8.0	23.808108352855925	pulse	0.0	t		object	car-142.jpg	0.0	65.8472305063915	
8.0	24.202977167904464	ISI	1.0		471	object	car-142.jpg	0.0	66.24209932144004	4.016587983867794
8.0	24.503133225472993	pulse	1.0	t		object	car-142.jpg	0.0	66.54225537900857	
8.0	25.203106964334438	pulse	1.0	t		object	car-142.jpg	0.0	67.24222911787001	
8.0	25.90307647726513	pulse	1.0	t		object	car-142.jpg	0.0	67.9421986308007	
8.0	26.603057460579294	pulse	1.0	t		object	car-142.jpg	0.0	68.64217961411487	
8.0	27.303035123517475	pulse	1.0	t		object	car-142.jpg	0.0	69.34215727705305	
8.0	28.00301761609444	pulse	1.0	t		object	car-142.jpg	0.0	70.04213976963001	
9.0	28.219565151772258	number	0.0		46	character	number-39.jpg	0.0	70.25868730530783	0.38329580304707633
9.0	28.602860954819334	ISI	1.0		593	character	number-39.jpg	0.0	70.6419831083549	5.016532443070901
9.0	28.703010975346842	pulse	1.0	t		character	number-39.jpg	0.0	70.74213312888241	
9.0	29.40297203641603	pulse	1.0	t		character	number-39.jpg	0.0	71.4420941899516	
9.0	30.102936719715217	pulse	1.0	t		character	number-39.jpg	0.0	72.14205887325079	
9.0	30.802937927121093	pulse	1.0	t		character	number-39.jpg	0.0	72.84206008065667	
9.0	31.50291770302647	pulse	1.0	t		character	number-39.jpg	0.0	73.54203985656204	
9.0	32.20290230856699	pulse	1.0	t		character	number-39.jpg	0.0	74.24202446210256	
9.0	32.90287544372404	pulse	1.0	t		character	number-39.jpg	0.0	74.94199759725961	
10.0	33.619393397890235	house	0.0		45	place	house-110.jpg	0.0	75.65851555142581	0.38330757528092363
10.0	33.607465105891606	pulse	0.0	t		place	house-110.jpg	0.0	75.64658725942718	
10.0	34.00270097317116	ISI	1.0		235	place	house-110.jpg	0.0	76.04182312670673	2.0166172635290422
10.0	34.30283982516994	pulse	1.0	t		place	house-110.jpg	0.0	76.34196197870551	
10.0	35.002819902925694	pulse	1.0	t		place	house-110.jpg	0.0	77.04194205646127	
10.0	35.70278639733442	pulse	1.0	t		place	house-110.jpg	0.0	77.74190855087	
11.0	36.0193182367002	house	0.0		46	place	house-110.jpg	1.0	78.05844039023577	0.3833012363866146
11.0	36.402619473086816	ISI	1.0		351	place	house-110.jpg	1.0	78.44174162662239	3.01660066166005
11.0	36.475105044555676	pulse	1.0	t		place	house-110.jpg	1.0	78.51422719809125	
11.0	36.76109819854901	response	1.0	b		place	house-110.jpg	1.0	78.80022035208458	
11.0	37.1027350824661	pulse	1.0	t		place	house-110.jpg	1.0	79.14185723600167	
11.0	37.802741119510756	pulse	1.0	t		place	house-110.jpg	1.0	79.84186327304633	
11.0	38.5026988602076	pulse	1.0	t		place	house-110.jpg	1.0	80.54182101374317	
11.0	39.202681654634944	pulse	1.0	t		place	house-110.jpg	1.0	81.24180380817052	
12.0	39.419220134746865	house	0.0		46	place	house-5.jpg	1.0	81.45834228828244	0.3833121030656912
12.0	39.80253223781256	ISI	1.0		473	place	house-5.jpg	1.0	81.84165439134813	4.0165571949473815
12.0	39.90269071019793	pulse	1.0	t		place	house-5.jpg	1.0	81.9418128637335	
12.0	40.602642413850845	pulse	1.0	t		place	house-5.jpg	1.0	82.64176456738642	
12.0	41.302614643453126	pulse	1.0	t		place	house-5.jpg	1.0	83.3417367969887	
12.0	42.00261343604507	pulse	1.0	t		place	house-5.jpg	1.0	84.04173558958064	
12.0	42.702584156384546	pulse	1.0	t		place	house-5.jpg	1.0	84.74170630992012	
12.0	43.40257510081938	pulse	1.0	t		place	house-5.jpg	1.0	85.44169725435495	
13.0	43.81908943275994	adult	0.0		46	face	adult-119.jpg	0.0	85.85821158629551	0.3833142160292482
13.0	44.10251352297928	pulse	0.0	t		face	adult-119.jpg	0.0	86.14163567651485	
13.0	44.202403648789186	ISI	1.0		232	face	adult-119.jpg	0.0	86.24152580232476	2.0166248098357755
13.0	44.802532539662934	pulse	1.0	t		face	adult-119.jpg	0.0	86.8416546931985	
13.0	45.50251473038588	pulse	1.0	t		face	adult-119.jpg	0.0	87.54163688392146	
14.0	46.21902845862496	limb	0.0		45	body	limb-98.jpg	0.0	88.25815061216053	0.3833057641677442
14.0	46.206746094034315	pulse	0.0	t		body	limb-98.jpg	0.0	88.24586824756989	
14.0	46.602334222792706	ISI	1.0		472	body	limb-98.jpg	0.0	88.64145637632828	4.016555383834202
14.0	46.90246583033513	pulse	1.0	t		body	limb-98.jpg	0.0	88.9415879838707	
14.0	47.60243504141545	pulse	1.0	t		body	limb-98.jpg	0.0	89.64155719495102	
14.0	48.3024256839999	pulse	1.0	t		body	limb-98.jpg	0.0	90.34154783753547	
14.0	49.002402139529295	pulse	1.0	t		body	limb-98.jpg	0.0	91.04152429306487	
14.0	49.70237527468635	pulse	1.0	t		body	limb-98.jpg	0.0	91.74149742822192	
14.0	50.402362898748834	pulse	1.0	t		body	limb-98.jpg	0.0	92.4414850522844	
15.0	50.61888960662691	car	0.0		46	object	car-121.jpg	0.0	92.65801176016248	0.38331180121167563
15.0	51.002201407838584	ISI	1.0		232	object	car-121.jpg	0.0	93.04132356137416	2.0166320542848553
15.0	51.10234780613973	pulse	1.0	t		object	car-121.jpg	0.0	93.1414699596753	
15.0	51.80232486537352	pulse	1.0	t		object	car-121.jpg	0.0	93.8414470189091	
15.0	52.502308263505256	pulse	1.0	t		object	car-121.jpg	0.0	94.54143041704083	
16.0	53.01883346212344	adult	0.0		46	face	adult-22.jpg	0.0	95.05795561565901	0.3832843326672446
16.0	53.20224910048273	pulse	0.0	t		face	adult-22.jpg	0.0	95.2413712540183	
16.0	53.40211779479068	ISI	1.0		233	face	adult-22.jpg	0.0	95.44123994832626	2.0166311487264466
16.0	53.902262683830486	pulse	1.0	t		face	adult-22.jpg	0.0	95.94138483736606	
16.0	54.60223823380511	pulse	1.0	t		face	adult-22.jpg	0.0	96.64136038734068	
16.0	55.302205030064215	pulse	1.0	t		face	adult-22.jpg	0.0	97.34132718359979	
17.0	55.41874894351713	limb	0.0		46	body	limb-118.jpg	0.0	97.4578710970527	0.38327950303209946
17.0	55.80202844654923	ISI	1.0		473	body	limb-118.jpg	0.0	97.8411506000848	4.016559006060561
17.0	56.00215099852721	pulse	1.0	t		body	limb-118.jpg	0.0	98.04127315206279	
17.0	56.70209515587703	pulse	1.0	t		body	limb-118.jpg	0.0	98.7412173094126	
17.0	57.4020915336514	pulse	1.0	t		body	limb-118.jpg	0.0	99.44121368718697	
17.0	58.10206014102732	pulse	1.0	t		body	limb-118.jpg	0.0	100.1411822945629	
17.0	58.80203569100195	pulse	1.0	t		body	limb-118.jpg	0.0	100.84115784453752	
17.0	59.50202723914117	pulse	1.0	t		body	limb-118.jpg	0.0	101.54114939267674	
18.0	59.81858745260979	adult	0.0		46	face	adult-32.jpg	0.0	101.85770960614536	0.38331149936129805
18.0	60.20189895197109	ISI	1.0		351	face	adult-32.jpg	0.0	102.24102110550666	3.016634469102428
18.0	60.27311493323214	pulse	1.0	t		face	adult-32.jpg	0.0	102.31223708676771	
18.0	60.90197682982762	pulse	1.0	t		face	adult-32.jpg	0.0	102.94109898336319	
18.0	61.60202874840252	pulse	1.0	t		face	adult-32.jpg	0.0	103.64115090193809	
18.0	62.30201275023501	pulse	1.0	t		face	adult-32.jpg	0.0	104.34113490377058	
18.0	63.00199343169879	pulse	1.0	t		face	adult-32.jpg	0.0	105.04111558523437	
19.0	63.218533421073516	adult	0.0		46	face	adult-59.jpg	0.0	105.25765557460909	0.3832674289442366
19.0	63.60180085001775	ISI	1.0		953	face	adult-59.jpg	0.0	105.64092300355333	8.016482939314301
19.0	63.701916157544474	pulse	1.0	t		face	adult-59.jpg	0.0	105.74103831108005	
19.0	64.40186906860617	pulse	1.0	t		face	adult-59.jpg	0.0	106.44099122214175	
19.0	65.10185669266866	pulse	1.0	t		face	adult-59.jpg	0.0	107.14097884620423	
19.0	65.80182982782571	pulse	1.0	t		face	adult-59.jpg	0.0	107.84095198136129	
19.0	66.50182469633728	pulse	1.0	t		face	adult-59.jpg	0.0	108.54094684987285	
19.0	67.2018002463119	pulse	1.0	t		face	adult-59.jpg	0.0	109.24092239984748	
19.0	67.90177157035578	pulse	1.0	t		face	adult-59.jpg	0.0	109.94089372389135	
19.0	68.60175798700948	pulse	1.0	t		face	adult-59.jpg	0.0	110.64088014054505	
19.0	69.3017975296425	pulse	1.0	t		face	adult-59.jpg	0.0	111.34091968317807	
19.0	70.00178062592022	pulse	1.0	t		face	adult-59.jpg	0.0	112.04090277945579	
19.0	70.70176221293877	pulse	1.0	t		face	adult-59.jpg	0.0	112.74088436647435	
19.0	71.4017377629134	pulse	1.0	t		face	adult-59.jpg	0.0	113.44085991644897	
20.0	71.61828378933205	number	0.0		46	character	number-53.jpg	0.0	113.65740594286763	0.3832674289442366
20.0	72.00155121827629	ISI	1.0		354	character	number-53.jpg	0.0	114.04067337181186	3.016591304243775
20.0	72.10168705175238	pulse	1.0	t		character	number-53.jpg	0.0	114.14080920528795	
20.0	72.80163392577015	pulse	1.0	t		character	number-53.jpg	0.0	114.84075607930572	
20.0	73.50161641834347	pulse	1.0	t		character	number-53.jpg	0.0	115.54073857187905	
20.0	74.20159559054446	pulse	1.0	t		character	number-53.jpg	0.0	116.24071774408003	
20.0	74.90156329236197	pulse	1.0	t		character	number-53.jpg	0.0	116.94068544589754	
21.0	75.01814252252007	adult	0.0		46	face	adult-91.jpg	0.0	117.05726467605564	0.3833087826897099
21.0	75.40145130520978	ISI	1.0		593	face	adult-91.jpg	0.0	117.44057345874535	5.0165614208781335
21.0	75.60155544420559	pulse	1.0	t		face	adult-91.jpg	0.0	117.64067759774116	
21.0	76.30152827751226	pulse	1.0	t		face	adult-91.jpg	0.0	118.34065043104783	
21.0	77.00150322378249	pulse	1.0	t		face	adult-91.jpg	0.0	119.04062537731807	
21.0	77.70154880345945	pulse	1.0	t		face	adult-91.jpg	0.0	119.74067095699502	
21.0	78.40152948491959	pulse	1.0	t		face	adult-91.jpg	0.0	120.44065163845517	
21.0	79.10150503489422	pulse	1.0	t		face	adult-91.jpg	0.0	121.14062718842979	
21.0	79.80148813117557	pulse	1.0	t		face	adult-91.jpg	0.0	121.84061028471115	
22.0	80.41801272608791	limb	0.0		46	body	limb-18.jpg	0.0	122.45713487962348	0.38327648451013374
22.0	80.50141478109799	pulse	0.0	t		body	limb-18.jpg	0.0	122.54053693463356	
22.0	80.80128921059804	ISI	1.0		471	body	limb-18.jpg	0.0	122.84041136413362	4.016573193111981
22.0	81.20137886068915	pulse	1.0	t		body	limb-18.jpg	0.0	123.24050101422472	
22.0	81.90135712733536	pulse	1.0	t		body	limb-18.jpg	0.0	123.94047928087093	
22.0	82.60136044770843	pulse	1.0	t		body	limb-18.jpg	0.0	124.640482601244	
22.0	83.301325432858	pulse	1.0	t		body	limb-18.jpg	0.0	125.34044758639357	
22.0	84.00130943469412	pulse	1.0	t		body	limb-18.jpg	0.0	126.0404315882297	
22.0	84.70127562724883	pulse	1.0	t		body	limb-18.jpg	0.0	126.7403977807844	
23.0	84.81786240371002	adult	0.0		46	face	adult-12.jpg	0.0	126.8569845572456	0.3832979160142713
23.0	85.2011603197243	ISI	1.0		235	face	adult-12.jpg	0.0	127.24028247325987	2.016663145055645
23.0	85.4012644587201	pulse	1.0	t		face	adult-12.jpg	0.0	127.44038661225568	
23.0	86.1012264253477	pulse	1.0	t		face	adult-12.jpg	0.0	128.14034857888328	
23.0	86.8012913235616	pulse	1.0	t		face	adult-12.jpg	0.0	128.84041347709717	
24.0	87.21782346477994	adult	0.0		46	face	adult-60.jpg	0.0	129.2569456183155	0.38325173263365286
24.0	87.50119714568791	pulse	0.0	t		face	adult-60.jpg	0.0	129.54031929922348	
24.0	87.60107519741359	ISI	1.0		233	face	adult-60.jpg	0.0	129.64019735094917	2.0166374876243935
24.0	88.20118929753153	pulse	1.0	t		face	adult-60.jpg	0.0	130.2403114510671	
24.0	88.90116424380176	pulse	1.0	t		face	adult-60.jpg	0.0	130.94028639733733	
25.0	89.61771268503799	car	0.0		45	object	car-18.jpg	0.0	131.65683483857356	0.38330636787213734
25.0	89.6095524136108	pulse	0.0	t		object	car-18.jpg	0.0	131.64867456714637	
25.0	90.00101905291012	ISI	1.0		230	object	car-18.jpg	0.0	132.0401412064457	2.016635072806821
25.0	90.30112017338615	pulse	1.0	t		object	car-18.jpg	0.0	132.34024232692173	
25.0	91.00109723261994	pulse	1.0	t		object	car-18.jpg	0.0	133.0402193861555	
25.0	91.70107036777699	pulse	1.0	t		object	car-18.jpg	0.0	133.74019252131257	
26.0	92.01765412571694	house	0.0		46	place	house-120.jpg	0.0	134.05677627925252	0.38329248267473304
26.0	92.40094660839168	ISI	1.0		230	place	house-120.jpg	0.0	134.44006876192725	2.0166574098657293
26.0	92.47736410615835	pulse	1.0	t		place	house-120.jpg	0.0	134.51648625969392	
26.0	93.1010410881172	pulse	1.0	t		place	house-120.jpg	0.0	135.14016324165277	
26.0	93.80108274371742	pulse	1.0	t		place	house-120.jpg	0.0	135.840204897253	
27.0	94.4176040182574	limb	0.0		46	body	limb-75.jpg	0.0	136.45672617179298	0.383273465988168
27.0	94.50100426215431	pulse	0.0	t		body	limb-75.jpg	0.0	136.54012641568988	
27.0	94.80087748424558	ISI	1.0		234	body	limb-75.jpg	0.0	136.83999963778115	2.0166284320584964
27.0	95.2009743787894	pulse	1.0	t		body	limb-75.jpg	0.0	137.24009653232497	
27.0	95.90094208060691	pulse	1.0	t		body	limb-75.jpg	0.0	137.94006423414248	
27.0	96.60092849726061	pulse	1.0	t		body	limb-75.jpg	0.0	138.64005065079618	
28.0	96.81750591630407	car	0.0		46	object	car-31.jpg	0.0	138.85662806983964	0.3833003308282059
28.0	97.20080624713228	ISI	1.0		472	object	car-31.jpg	0.0	139.23992840066785	4.016603982036031
28.0	97.30091702687787	pulse	1.0	t		object	car-31.jpg	0.0	139.34003918041344	
28.0	98.00086208978246	pulse	1.0	t		object	car-31.jpg	0.0	140.03998424331803	
28.0	98.70085967496561	pulse	1.0	t		object	car-31.jpg	0.0	140.7399818285012	
28.0	99.40084458236015	pulse	1.0	t		object	car-31.jpg	0.0	141.43996673589572	
28.0	100.10081228417766	pulse	1.0	t		object	car-31.jpg	0.0	142.13993443771324	
28.0	100.80087899350474	pulse	1.0	t		object	car-31.jpg	0.0	142.8400011470403	
29.0	101.21741022916831	number	0.0		46	character	number-86.jpg	0.0	143.25653238270388	0.3832653159770416
29.0	101.50078602303984	pulse	0.0	t		character	number-86.jpg	0.0	143.5399081765754	
29.0	101.60067554514535	ISI	1.0		352	character	number-86.jpg	0.0	143.63979769868092	3.01660066166005
29.0	102.20075915819689	pulse	1.0	t		character	number-86.jpg	0.0	144.23988131173246	
29.0	102.90074316003302	pulse	1.0	t		character	number-86.jpg	0.0	144.9398653135686	
29.0	103.60071629519007	pulse	1.0	t		character	number-86.jpg	0.0	145.63983844872564	
29.0	104.30069969331817	pulse	1.0	t		character	number-86.jpg	0.0	146.33982184685374	
30.0	104.6172762068054	limb	0.0		46	body	limb-25.jpg	0.0	146.65639836034097	0.38328493637163774
30.0	105.00056114317704	ISI	1.0		233	body	limb-25.jpg	0.0	147.0396832967126	2.0166423172559007
30.0	105.05680012557059	pulse	1.0	t		body	limb-25.jpg	0.0	147.09592227910616	
30.0	105.70065109512143	pulse	1.0	t		body	limb-25.jpg	0.0	147.739773248657	
30.0	106.40062423027848	pulse	1.0	t		body	limb-25.jpg	0.0	148.43974638381405	
31.0	107.01720346043294	adult	0.0		46	face	adult-3.jpg	0.0	149.0563256139685	0.3833320253070269
31.0	107.10062362657482	pulse	0.0	t		face	adult-3.jpg	0.0	149.1397457801104	
31.0	107.40053548573997	ISI	1.0		349	face	adult-3.jpg	0.0	149.43965763927554	3.0165925116525614
31.0	107.8007455748484	pulse	1.0	t		face	adult-3.jpg	0.0	149.83986772838398	
31.0	108.50076036560495	pulse	1.0	t		face	adult-3.jpg	0.0	150.53988251914052	
31.0	109.20063388954804	pulse	1.0	t		face	adult-3.jpg	0.0	151.23975604308362	
31.0	109.90059706358443	pulse	1.0	t		face	adult-3.jpg	0.0	151.93971921712	
32.0	110.41712799739253	house	0.0		46	place	house-42.jpg	0.0	152.4562501509281	0.3832622974587139
32.0	110.60052129868927	pulse	0.0	t		place	house-42.jpg	0.0	152.63964345222485	
32.0	110.80039029485124	ISI	1.0		593	place	house-42.jpg	0.0	152.8395124483868	5.016540593078389
32.0	111.30050137644866	pulse	1.0	t		place	house-42.jpg	0.0	153.33962352998424	
32.0	112.00048235975919	pulse	1.0	t		place	house-42.jpg	0.0	154.03960451329476	
32.0	112.70044040231005	pulse	1.0	t		place	house-42.jpg	0.0	154.73956255584562	
32.0	113.4004379874932	pulse	1.0	t		place	house-42.jpg	0.0	155.43956014102878	
32.0	114.10040900968306	pulse	1.0	t		place	house-42.jpg	0.0	156.13953116321863	
32.0	114.80039572819078	pulse	1.0	t		place	house-42.jpg	0.0	156.83951788172635	
32.0	115.50037158001578	pulse	1.0	t		place	house-42.jpg	0.0	157.53949373355135	
33.0	115.81693088792963	number	0.0		46	character	number-105.jpg	0.0	157.8560530414652	0.38330184009100776
33.0	116.20023272802064	ISI	1.0		353	character	number-105.jpg	0.0	158.2393548815562	3.016646241336275
33.0	116.25302184202519	pulse	1.0	t		character	number-105.jpg	0.0	158.29214399556076	
33.0	116.90040870783196	pulse	1.0	t		character	number-105.jpg	0.0	158.93953086136753	
33.0	117.60038003187583	pulse	1.0	t		character	number-105.jpg	0.0	159.6395021854114	
33.0	118.30036493927037	pulse	1.0	t		character	number-105.jpg	0.0	160.33948709280594	
33.0	119.0003392818362	pulse	1.0	t		character	number-105.jpg	0.0	161.03946143537178	
34.0	119.21687896935691	limb	0.0		46	body	limb-34.jpg	0.0	161.25600112289249	0.38326350486750016
34.0	119.60014247422441	ISI	1.0		353	body	limb-34.jpg	0.0	161.63926462775999	3.016582248677878
34.0	119.70025506507955	pulse	1.0	t		body	limb-34.jpg	0.0	161.73937721861512	
34.0	120.40022518171463	pulse	1.0	t		body	limb-34.jpg	0.0	162.4393473352502	
34.0	121.10020073168926	pulse	1.0	t		body	limb-34.jpg	0.0	163.13932288522483	
34.0	121.80018745019697	pulse	1.0	t		body	limb-34.jpg	0.0	163.83930960373254	
34.0	122.50015545386486	pulse	1.0	t		body	limb-34.jpg	0.0	164.53927760740044	
35.0	122.61672472290229	number	0.0		46	character	number-77.jpg	0.0	164.65584687643786	0.3833196493687865
35.0	123.00004437227108	ISI	1.0		713	character	number-77.jpg	0.0	165.03916652580665	6.016530028253328
35.0	123.20015545386559	pulse	1.0	t		character	number-77.jpg	0.0	165.23927760740116	
35.0	123.90011017604047	pulse	1.0	t		character	number-77.jpg	0.0	165.93923232957604	
35.0	124.60010142232932	pulse	1.0	t		character	number-77.jpg	0.0	166.6392235758649	
35.0	125.3001536427546	pulse	1.0	t		character	number-77.jpg	0.0	167.33927579629017	
35.0	126.00011591123257	pulse	1.0	t		character	number-77.jpg	0.0	168.03923806476814	
35.0	126.70010806307619	pulse	1.0	t		character	number-77.jpg	0.0	168.73923021661176	
35.0	127.40008995194512	pulse	1.0	t		character	number-77.jpg	0.0	169.4392121054807	
35.0	128.10005946487945	pulse	1.0	t		character	number-77.jpg	0.0	170.13918161841502	
35.0	128.8000482963471	pulse	1.0	t		character	number-77.jpg	0.0	170.83917044988266	
36.0	129.0165744005244	car	0.0		46	object	car-136.jpg	0.0	171.05569655405998	0.38329912341941963
36.0	129.39987352394382	ISI	1.0		235	object	car-136.jpg	0.0	171.4389956774794	2.0166453357815044
36.0	129.50003592040957	pulse	1.0	t		object	car-136.jpg	0.0	171.53915807394515	
36.0	130.2000087537126	pulse	1.0	t		object	car-136.jpg	0.0	172.23913090724818	
36.0	130.89997796479292	pulse	1.0	t		object	car-136.jpg	0.0	172.9391001183285	
37.0	131.41651885972533	car	0.0		46	object	car-136.jpg	1.0	173.4556410132609	0.38329791601063334
37.0	131.5999251406647	pulse	0.0	t		object	car-136.jpg	1.0	173.63904729420028	
37.0	131.79981677573596	ISI	1.0		229	object	car-136.jpg	1.0	173.83893892927154	2.016633563547657
37.0	131.97495411847194	response	1.0	b		object	car-136.jpg	1.0	174.01407627200751	
37.0	132.29993178141376	pulse	1.0	t		object	car-136.jpg	1.0	174.33905393494933	
37.0	132.99993057400206	pulse	1.0	t		object	car-136.jpg	1.0	175.03905272753764	
37.0	133.69990280360435	pulse	1.0	t		object	car-136.jpg	1.0	175.73902495713992	
38.0	133.81645033928362	limb	0.0		46	body	limb-66.jpg	0.0	175.8555724928192	0.38329248267473304
38.0	134.19974282195835	ISI	1.0		352	body	limb-66.jpg	0.0	176.23886497549393	3.016597039433691
38.0	134.39988469247328	pulse	1.0	t		body	limb-66.jpg	0.0	176.43900684600885	
38.0	135.09991155731768	pulse	1.0	t		body	limb-66.jpg	0.0	177.13903371085325	
38.0	135.79989646470858	pulse	1.0	t		body	limb-66.jpg	0.0	177.83901861824415	
38.0	136.49982100166744	pulse	1.0	t		body	limb-66.jpg	0.0	178.53894315520301	
39.0	137.21633986139204	number	0.0		45	character	number-60.jpg	0.0	179.25546201492762	0.38330304749979405
39.0	137.20333033493807	pulse	0.0	t		character	number-60.jpg	0.0	179.24245248847365	
39.0	137.59964290889184	ISI	1.0		232	character	number-60.jpg	0.0	179.6387650624274	2.0166320542848553
39.0	137.89978176088698	pulse	1.0	t		character	number-60.jpg	0.0	179.93890391442255	
39.0	138.59974976455487	pulse	1.0	t		character	number-60.jpg	0.0	180.63887191809044	
39.0	139.29973014416464	pulse	1.0	t		character	number-60.jpg	0.0	181.3388522977002	
40.0	139.6162749631767	house	0.0		46	place	house-44.jpg	0.0	181.65539711671227	0.3832961048974539
40.0	139.99957106807415	ISI	1.0		352	place	house-44.jpg	0.0	182.03869322160972	3.0166045857404242
40.0	140.06482245055668	pulse	1.0	t		place	house-44.jpg	0.0	182.10394460409225	
40.0	140.6996902996798	pulse	1.0	t		place	house-44.jpg	0.0	182.73881245321536	
40.0	141.39967158484433	pulse	1.0	t		place	house-44.jpg	0.0	183.4387937383799	
40.0	142.09966283113317	pulse	1.0	t		place	house-44.jpg	0.0	184.13878498466875	
40.0	142.79963747555303	pulse	1.0	t		place	house-44.jpg	0.0	184.8387596290886	
41.0	143.01617565381457	car	0.0		46	object	car-103.jpg	0.0	185.05529780735014	0.38329580304707633
41.0	143.39947145686165	ISI	1.0		472	object	car-103.jpg	0.0	185.43859361039722	4.016573796816374
41.0	143.49961996812635	pulse	1.0	t		object	car-103.jpg	0.0	185.53874212166193	
41.0	144.19957287918805	pulse	1.0	t		object	car-103.jpg	0.0	186.23869503272363	
41.0	144.89956563473606	pulse	1.0	t		object	car-103.jpg	0.0	186.93868778827164	
41.0	145.59954027915592	pulse	1.0	t		object	car-103.jpg	0.0	187.6386624326915	
41.0	146.29952126246644	pulse	1.0	t		object	car-103.jpg	0.0	188.33864341600201	
41.0	146.9995034531894	pulse	1.0	t		object	car-103.jpg	0.0	189.03862560672496	
42.0	147.41604525367802	house	0.0		46	place	house-70.jpg	0.0	189.4551674072136	0.3832961049010919
42.0	147.69945425128753	pulse	0.0	t		place	house-70.jpg	0.0	189.7385764048231	
42.0	147.7993413585791	ISI	1.0		232	place	house-70.jpg	0.0	189.83846351211469	2.0166254135365307
42.0	148.399474777234	pulse	1.0	t		place	house-70.jpg	0.0	190.43859693076956	
42.0	149.09944911979983	pulse	1.0	t		place	house-70.jpg	0.0	191.1385712733354	
43.0	149.81596677211564	car	0.0		45	object	car-43.jpg	0.0	191.85508892565122	0.3832876530395879
43.0	149.80430712854286	pulse	0.0	t		object	car-43.jpg	0.0	191.84342928207843	
43.0	150.19925442515523	ISI	1.0		471	object	car-43.jpg	0.0	192.2383765786908	4.016572589407588
43.0	150.49940082345347	pulse	1.0	t		object	car-43.jpg	0.0	192.53852297698904	
43.0	151.1993763734281	pulse	1.0	t		object	car-43.jpg	0.0	193.23849852696367	
43.0	151.89935675303786	pulse	1.0	t		object	car-43.jpg	0.0	193.93847890657344	
43.0	152.59933411412567	pulse	1.0	t		object	car-43.jpg	0.0	194.63845626766124	
43.0	153.2993256622649	pulse	1.0	t		object	car-43.jpg	0.0	195.33844781580046	
43.0	153.9993099659514	pulse	1.0	t		object	car-43.jpg	0.0	196.03843211948697	
44.0	154.21582701456282	house	0.0		46	place	house-48.jpg	0.0	196.2549491680984	0.3833121030656912
44.0	154.5991391176285	ISI	1.0		834	place	house-48.jpg	0.0	196.63826127116408	7.0248179831432935
44.0	154.69928370481284	pulse	1.0	t		place	house-48.jpg	0.0	196.73840585834841	
44.0	155.39925955664148	pulse	1.0	t		place	house-48.jpg	0.0	197.43838171017705	
44.0	156.09922906957217	pulse	1.0	t		place	house-48.jpg	0.0	198.13835122310775	
44.0	156.7992136751127	pulse	1.0	t		place	house-48.jpg	0.0	198.83833582864827	
44.0	157.4991916399049	pulse	1.0	t		place	house-48.jpg	0.0	199.53831379344047	
44.0	158.19918741397487	pulse	1.0	t		place	house-48.jpg	0.0	200.23830956751044	
44.0	158.89915571949678	pulse	1.0	t		place	house-48.jpg	0.0	200.93827787303235	
44.0	159.5991324768802	pulse	1.0	t		place	house-48.jpg	0.0	201.63825463041576	
44.0	160.29911798797548	pulse	1.0	t		place	house-48.jpg	0.0	202.33824014151105	
44.0	160.99909172683692	pulse	1.0	t		place	house-48.jpg	0.0	203.0382138803725	
45.0	161.6239571007718	limb	0.0		46	body	limb-28.jpg	0.0	203.66307925430738	0.38326591968143475
45.0	161.69900962304746	pulse	0.0	t		body	limb-28.jpg	0.0	203.73813177658303	
45.0	162.00722302045324	ISI	1.0		350	body	limb-28.jpg	0.0	204.0463451739888	3.016599152400886
45.0	162.39897551375543	pulse	1.0	t		body	limb-28.jpg	0.0	204.438097667291	
45.0	163.09896766559905	pulse	1.0	t		body	limb-28.jpg	0.0	205.13808981913462	
45.0	163.7989420081649	pulse	1.0	t		body	limb-28.jpg	0.0	205.83806416170046	
45.0	164.49894381927515	pulse	1.0	t		body	limb-28.jpg	0.0	206.53806597281073	
46.0	165.02382217285412	house	0.0		46	place	house-117.jpg	0.0	207.0629443263897	0.3832843326636066
46.0	165.19889612663246	pulse	0.0	t		place	house-117.jpg	0.0	207.23801828016803	
46.0	165.40710650551773	ISI	1.0		234	place	house-117.jpg	0.0	207.4462286590533	2.0166465431902907
46.0	165.89888284514018	pulse	1.0	t		place	house-117.jpg	0.0	207.93800499867575	
46.0	166.59885296177526	pulse	1.0	t		place	house-117.jpg	0.0	208.63797511531084	
46.0	167.29884511361888	pulse	1.0	t		place	house-117.jpg	0.0	209.33796726715445	
47.0	167.42375304870802	number	0.0		46	character	number-121.jpg	0.0	209.4628752022436	0.3833314216026338
47.0	167.80708447031066	ISI	1.0		352	character	number-121.jpg	0.0	209.84620662384623	3.024934498080256
47.0	167.99889401366818	pulse	1.0	t		character	number-121.jpg	0.0	210.03801616720375	
47.0	168.69886624327046	pulse	1.0	t		character	number-121.jpg	0.0	210.73798839680603	
47.0	169.39884330250425	pulse	1.0	t		character	number-121.jpg	0.0	211.43796545603982	
47.0	170.09882247470523	pulse	1.0	t		character	number-121.jpg	0.0	212.1379446282408	
47.0	170.79879078022714	pulse	1.0	t		character	number-121.jpg	0.0	212.8379129337627	
48.0	170.8320189683909	limb	0.0		45	body	limb-139.jpg	0.0	212.87114112192648	0.3749658907072444
48.0	171.20698485909816	ISI	1.0		232	body	limb-139.jpg	0.0	213.24610701263373	2.0166275265000877
48.0	171.4987880635599	pulse	1.0	t		body	limb-139.jpg	0.0	213.5379102170955	
48.0	172.1987645190893	pulse	1.0	t		body	limb-139.jpg	0.0	214.23788667262488	
48.0	172.89874550240347	pulse	1.0	t		body	limb-139.jpg	0.0	214.93786765593904	
49.0	173.22361238559824	house	0.0		46	place	house-28.jpg	0.0	215.26273453913382	0.38326893820703845
49.0	173.59865736157008	pulse	0.0	t		place	house-28.jpg	0.0	215.63777951510565	
49.0	173.60688132380528	ISI	1.0		593	place	house-28.jpg	0.0	215.64600347734086	5.016517954165465
49.0	174.29862959117236	pulse	1.0	t		place	house-28.jpg	0.0	216.33775174470793	
49.0	174.9986048392966	pulse	1.0	t		place	house-28.jpg	0.0	217.03772699283218	
49.0	175.69859216150508	pulse	1.0	t		place	house-28.jpg	0.0	217.73771431504065	
49.0	176.39856740962568	pulse	1.0	t		place	house-28.jpg	0.0	218.43768956316126	
49.0	177.09854326145432	pulse	1.0	t		place	house-28.jpg	0.0	219.1376654149899	
49.0	177.79852062254213	pulse	1.0	t		place	house-28.jpg	0.0	219.8376427760777	
49.0	178.4985233392108	pulse	1.0	t		place	house-28.jpg	0.0	220.53764549274638	
50.0	178.62339927797075	limb	0.0		46	body	limb-103.jpg	0.0	220.66252143150632	0.3833090845437255
50.0	179.00670836251447	ISI	1.0		233	body	limb-103.jpg	0.0	221.04583051605005	2.0166601265373174
50.0	179.19849043732393	pulse	1.0	t		body	limb-103.jpg	0.0	221.2376125908595	
50.0	179.8985363188549	pulse	1.0	t		body	limb-103.jpg	0.0	221.93765847239047	
50.0	180.59850794474914	pulse	1.0	t		body	limb-103.jpg	0.0	222.63763009828472	
51.0	181.0233684890518	adult	0.0		46	face	adult-36.jpg	0.0	223.06249064258736	0.38326561783105717
51.0	181.29841889836098	pulse	0.0	t		face	adult-36.jpg	0.0	223.33754105189655	
51.0	181.40663410688285	ISI	1.0		230	face	adult-36.jpg	0.0	223.44575626041842	2.0166347709528054
51.0	181.99839776871158	pulse	1.0	t		face	adult-36.jpg	0.0	224.03751992224716	
51.0	182.69837543164977	pulse	1.0	t		face	adult-36.jpg	0.0	224.73749758518534	
51.0	183.39836426312104	pulse	1.0	t		face	adult-36.jpg	0.0	225.4374864166566	
52.0	183.42326887783565	number	0.0		46	character	number-52.jpg	0.0	225.46239103137123	0.3833096882481186
52.0	183.80657856608377	ISI	1.0		353	character	number-52.jpg	0.0	225.84570071961934	3.016582852382271
52.0	184.09834675569437	pulse	1.0	t		character	number-52.jpg	0.0	226.13746890922994	
52.0	184.7983063075044	pulse	1.0	t		character	number-52.jpg	0.0	226.83742846103996	
52.0	185.4982927241581	pulse	1.0	t		character	number-52.jpg	0.0	227.53741487769366	
52.0	186.19826404820196	pulse	1.0	t		character	number-52.jpg	0.0	228.23738620173754	
53.0	186.82316141846604	adult	0.0		46	face	adult-124.jpg	0.0	228.86228357200162	0.3833320253070269
53.0	186.89825801115876	pulse	0.0	t		face	adult-124.jpg	0.0	228.93738016469433	
53.0	187.20649344377307	ISI	1.0		353	face	adult-124.jpg	0.0	229.24561559730864	3.0166190746422217
53.0	187.59831475936517	pulse	1.0	t		face	adult-124.jpg	0.0	229.63743691290074	
53.0	188.29829061119017	pulse	1.0	t		face	adult-124.jpg	0.0	230.33741276472574	
53.0	188.99827038709554	pulse	1.0	t		face	adult-124.jpg	0.0	231.03739254063112	
53.0	189.69824261669783	pulse	1.0	t		face	adult-124.jpg	0.0	231.7373647702334	
54.0	190.2231125184153	house	0.0		46	place	house-84.jpg	0.0	232.26223467195086	0.3832782956196752
54.0	190.39819190553317	pulse	0.0	t		place	house-84.jpg	0.0	232.43731405906874	
54.0	190.60639081403497	ISI	1.0		233	place	house-84.jpg	0.0	232.64551296757054	2.0166522783802066
54.0	191.09819733887343	pulse	1.0	t		place	house-84.jpg	0.0	233.137319492409	
54.0	191.79818164255994	pulse	1.0	t		place	house-84.jpg	0.0	233.8373037960955	
54.0	192.4981876796046	pulse	1.0	t		place	house-84.jpg	0.0	234.53730983314017	
55.0	192.62304309241517	house	0.0		46	place	house-134.jpg	0.0	234.66216524595075	0.3832973123098782
55.0	193.00634040472505	ISI	1.0		232	place	house-134.jpg	0.0	235.04546255826062	2.0166121320435195
55.0	193.19815930549885	pulse	1.0	t		place	house-134.jpg	0.0	235.23728145903442	
55.0	193.89811221656055	pulse	1.0	t		place	house-134.jpg	0.0	235.93723437009612	
55.0	194.59809984062304	pulse	1.0	t		place	house-134.jpg	0.0	236.6372219941586	
56.0	195.02295253676857	adult	0.0		46	face	adult-30.jpg	0.0	237.06207469030414	0.38326924005377805
56.0	195.29801773683357	pulse	0.0	t		face	adult-30.jpg	0.0	237.33713989036914	
56.0	195.40622177682235	ISI	1.0		353	face	adult-30.jpg	0.0	237.44534393035792	3.0166151505654852
56.0	195.99801351090355	pulse	1.0	t		face	adult-30.jpg	0.0	238.03713566443912	
56.0	196.69795495158542	pulse	1.0	t		face	adult-30.jpg	0.0	238.737077105121	
56.0	197.39795283861895	pulse	1.0	t		face	adult-30.jpg	0.0	239.43707499215452	
56.0	198.09793261452432	pulse	1.0	t		face	adult-30.jpg	0.0	240.1370547680599	
57.0	198.42283692738783	car	0.0		46	object	car-48.jpg	0.0	240.4619590809234	0.3832825215504272
57.0	198.79790182560464	pulse	0.0	t		object	car-48.jpg	0.0	240.8370239791402	
57.0	198.80611944893826	ISI	1.0		231	object	car-48.jpg	0.0	240.84524160247383	2.0166411098507524
57.0	199.4978897515175	pulse	1.0	t		object	car-48.jpg	0.0	241.53701190505308	
57.0	200.197843869988	pulse	1.0	t		object	car-48.jpg	0.0	242.23696602352356	
58.0	200.822760558789	number	0.0		46	character	number-21.jpg	0.0	242.8618827123246	0.38333383642020635
58.0	200.89784085146675	pulse	0.0	t		character	number-21.jpg	0.0	242.93696300500233	
58.0	201.20609439520922	ISI	1.0		231	character	number-21.jpg	0.0	243.2452165487448	2.0166205839050235
58.0	201.5978858274393	pulse	1.0	t		character	number-21.jpg	0.0	243.6370079809749	
58.0	202.29786711260385	pulse	1.0	t		character	number-21.jpg	0.0	244.33698926613943	
58.0	202.99786228296944	pulse	1.0	t		character	number-21.jpg	0.0	245.036984436505	
59.0	203.22271497911424	car	0.0		46	object	car-108.jpg	0.0	245.26183713264982	0.38330938639410306
59.0	203.60602436550835	ISI	1.0		233	object	car-108.jpg	0.0	245.64514651904392	2.016631450580462
59.0	203.6978417570208	pulse	1.0	t		object	car-108.jpg	0.0	245.73696391055637	
59.0	204.39780704402438	pulse	1.0	t		object	car-108.jpg	0.0	246.43692919755995	
59.0	205.0977907440065	pulse	1.0	t		object	car-108.jpg	0.0	247.13691289754206	
60.0	205.6226558160888	adult	0.0		46	face	adult-101.jpg	0.0	247.66177796962438	0.38327527710134746
60.0	205.79772826060798	pulse	0.0	t		face	adult-101.jpg	0.0	247.83685041414356	
60.0	206.00593109319016	ISI	1.0		351	face	adult-101.jpg	0.0	248.04505324672573	3.0166094153719314
60.0	206.49775542730276	pulse	1.0	t		face	adult-101.jpg	0.0	248.53687758083834	
60.0	207.19773399579935	pulse	1.0	t		face	adult-101.jpg	0.0	249.23685614933493	
60.0	207.89771377170473	pulse	1.0	t		face	adult-101.jpg	0.0	249.9368359252403	
60.0	208.59768901982534	pulse	1.0	t		face	adult-101.jpg	0.0	250.6368111733609	
61.0	209.0225405085621	limb	0.0		46	body	limb-41.jpg	0.0	251.06166266209766	0.38327980488247704
61.0	209.29760450122194	pulse	0.0	t		body	limb-41.jpg	0.0	251.3367266547575	
61.0	209.40582031344456	ISI	1.0		233	body	limb-41.jpg	0.0	251.44494246698014	2.016631450580462
61.0	209.99758276786451	pulse	1.0	t		body	limb-41.jpg	0.0	252.0367049214001	
61.0	210.6975556011712	pulse	1.0	t		body	limb-41.jpg	0.0	252.73667775470676	
61.0	211.39754020670807	pulse	1.0	t		body	limb-41.jpg	0.0	253.43666236024364	
62.0	211.42245176402503	number	0.0		46	character	number-135.jpg	0.0	253.4615739175606	0.38328282340444275
62.0	211.80573458742947	ISI	1.0		713	character	number-135.jpg	0.0	253.84485674096504	6.016555383834202
62.0	212.09751968076307	pulse	1.0	t		character	number-135.jpg	0.0	254.13664183429864	
62.0	212.79760148269997	pulse	1.0	t		character	number-135.jpg	0.0	254.83672363623555	
62.0	213.49748526961412	pulse	1.0	t		character	number-135.jpg	0.0	255.5366074231497	
62.0	214.1974496510593	pulse	1.0	t		character	number-135.jpg	0.0	256.23657180459486	
62.0	214.8974285214099	pulse	1.0	t		character	number-135.jpg	0.0	256.93655067494547	
62.0	215.59746896959768	pulse	1.0	t		character	number-135.jpg	0.0	257.63659112313326	
62.0	216.29745629180616	pulse	1.0	t		character	number-135.jpg	0.0	258.33657844534173	
62.0	216.9974405954963	pulse	1.0	t		character	number-135.jpg	0.0	259.0365627490319	
62.0	217.6973998454523	pulse	1.0	t		character	number-135.jpg	0.0	259.7365219989879	
63.0	217.82228997126367	number	0.0		46	character	number-91.jpg	0.0	259.86141212479924	0.38329429378791247
63.0	218.20558426505158	ISI	1.0		232	character	number-91.jpg	0.0	260.24470641858716	2.016623904277367
63.0	218.3974040713838	pulse	1.0	t		character	number-91.jpg	0.0	260.43652622491936	
63.0	219.09737539542766	pulse	1.0	t		character	number-91.jpg	0.0	261.13649754896323	
63.0	219.79734732317593	pulse	1.0	t		character	number-91.jpg	0.0	261.8364694767115	
64.0	220.22220816932895	car	0.0		46	object	car-94.jpg	0.0	262.2613303228645	0.3833196493687865
64.0	220.4973053657268	pulse	0.0	t		object	car-94.jpg	0.0	262.53642751926236	
64.0	220.60552781869774	ISI	1.0		233	object	car-94.jpg	0.0	262.6446499722333	2.0249601555115078
64.0	221.19731925092492	pulse	1.0	t		object	car-94.jpg	0.0	263.2364414044605	
64.0	221.89729419719515	pulse	1.0	t		object	car-94.jpg	0.0	263.9364163507307	
64.0	222.59727216198735	pulse	1.0	t		object	car-94.jpg	0.0	264.6363943155229	
65.0	222.63048797420925	limb	0.0		45	body	limb-63.jpg	0.0	264.6696101277448	0.3749565332909697
65.0	223.00544450750021	ISI	1.0		239	body	limb-63.jpg	0.0	265.0445666610358	1.9999843036857783
65.0	223.29725586196946	pulse	1.0	t		body	limb-63.jpg	0.0	265.33637801550503	
65.0	223.99723503417044	pulse	1.0	t		body	limb-63.jpg	0.0	266.036357187706	
65.0	224.69720484895515	pulse	1.0	t		body	limb-63.jpg	0.0	266.7363270024907	
66.0	225.005428811186	baseline	0.0		708		baseline	0.0	267.04455096472157	5.8998053053546755
66.0	225.39718341745174	pulse	0.0	t			baseline	0.0	267.4363055709873	
66.0	226.09715685445917	pulse	0.0	t			baseline	0.0	268.13627900799474	
66.0	226.79714387481727	pulse	0.0	t			baseline	0.0	268.83626602835284	
66.0	227.49712938591256	pulse	0.0	t			baseline	0.0	269.53625153944813	
66.0	228.19710916181793	pulse	0.0	t			baseline	0.0	270.2362313153535	
66.0	228.89707958030704	pulse	0.0	t			baseline	0.0	270.9362017338426	
66.0	229.59706297843513	pulse	0.0	t			baseline	0.0	271.6361851319707	
66.0	230.29703973581854	pulse	0.0	t			baseline	0.0	272.3361618893541	
66.0	230.90523411654067	ISI	1.0		12		baseline	0.0	272.94435627007624	0.10000452778331237
66.0	230.99701860616915	pulse	1.0	t			baseline	0.0	273.0361407597047	
