trial_nr	onset	event_type	phase	response	nr_frames	face_age	face_sex	face_eth	attractiveness	expression	face_id	sub_id	ses	run	trial_type	catch	rating_type	onset_abs	duration
-1.0	0.05944903982071992	fix	0.0		713													24.723388263533252	5.957895734545673
-1.0	0.700923458836769	pulse	0.0	t														25.3648626825493	
-1.0	1.4009078530375518	pulse	0.0	t														26.064847076750084	
-1.0	2.1008780601478065	pulse	0.0	t														26.76481728386034	
-1.0	2.8008666802902553	pulse	0.0	t														27.464805904002787	
-1.0	3.5008495652259626	pulse	0.0	t														28.164788788938495	
-1.0	4.200850863193864	pulse	0.0	t														28.864790086906396	
-1.0	4.900834653688889	pulse	0.0	t														29.56477387740142	
-1.0	5.6008009367101295	pulse	0.0	t														30.26474016042266	
0.0	6.017344774366393	face	0.0		144	32.0	male	white	2.389176283326701	smiling	092	sub-14	1.0	3.0	092_smiling	1.0	attractiveness	30.681283998078925	1.2332964368370085
0.0	6.300798612442122	pulse	0.0	t		32.0	male	white	2.389176283326701	smiling	092	sub-14	1.0	3.0	092_smiling	1.0	attractiveness	30.964737836154654	
0.0	7.000750708373744	pulse	0.0	t		32.0	male	white	2.389176283326701	smiling	092	sub-14	1.0	3.0	092_smiling	1.0	attractiveness	31.664689932086276	
0.0	7.250641211203401	fix	1.0		177	32.0	male	white	2.389176283326701	smiling	092	sub-14	1.0	3.0	092_smiling	1.0	attractiveness	31.914580434915933	1.5083282747805242
0.0	7.700767702696794	pulse	1.0	t		32.0	male	white	2.389176283326701	smiling	092	sub-14	1.0	3.0	092_smiling	1.0	attractiveness	32.364706926409326	
0.0	8.400714968980083	pulse	1.0	t		32.0	male	white	2.389176283326701	smiling	092	sub-14	1.0	3.0	092_smiling	1.0	attractiveness	33.064654192692615	
0.0	8.758969485983926	rating	2.0		294	32.0	male	white	2.389176283326701	smiling	092	sub-14	1.0	3.0	092_smiling	1.0	attractiveness	33.42290870969646	2.4915624544387356
0.0	9.100719889183893	pulse	2.0	t		32.0	male	white	2.389176283326701	smiling	092	sub-14	1.0	3.0	092_smiling	1.0	attractiveness	33.764659112896425	
0.0	9.80066564620256	pulse	2.0	t		32.0	male	white	2.389176283326701	smiling	092	sub-14	1.0	3.0	092_smiling	1.0	attractiveness	34.46460486991509	
0.0	10.500675094200687	pulse	2.0	t		32.0	male	white	2.389176283326701	smiling	092	sub-14	1.0	3.0	092_smiling	1.0	attractiveness	35.16461431791322	
0.0	11.200649225399957	pulse	2.0	t		32.0	male	white	2.389176283326701	smiling	092	sub-14	1.0	3.0	092_smiling	1.0	attractiveness	35.86458844911249	
0.0	11.250531940422661	fix	3.0		444	32.0	male	white	2.389176283326701	smiling	092	sub-14	1.0	3.0	092_smiling	1.0	attractiveness	35.91447116413519	3.7582157590804854
0.0	11.900634223306497	pulse	3.0	t		32.0	male	white	2.389176283326701	smiling	092	sub-14	1.0	3.0	092_smiling	1.0	attractiveness	36.56457344701903	
0.0	12.600651217629547	pulse	3.0	t		32.0	male	white	2.389176283326701	smiling	092	sub-14	1.0	3.0	092_smiling	1.0	attractiveness	37.26459044134208	
0.0	13.300632593300634	pulse	3.0	t		32.0	male	white	2.389176283326701	smiling	092	sub-14	1.0	3.0	092_smiling	1.0	attractiveness	37.964571817013166	
0.0	14.00057140770059	pulse	3.0	t		32.0	male	white	2.389176283326701	smiling	092	sub-14	1.0	3.0	092_smiling	1.0	attractiveness	38.66451063141312	
0.0	14.700551877812359	pulse	3.0	t		32.0	male	white	2.389176283326701	smiling	092	sub-14	1.0	3.0	092_smiling	1.0	attractiveness	39.36449110152489	
1.0	15.008747699503147	face	0.0		146	27.0	male	black	3.5523278949462798	smiling	042	sub-14	1.0	3.0	042_smiling	0.0		39.67268692321568	1.2416641034315035
1.0	15.400529631247537	pulse	0.0	t		27.0	male	black	3.5523278949462798	smiling	042	sub-14	1.0	3.0	042_smiling	0.0		40.06446885496007	
1.0	16.100502555034836	pulse	0.0	t		27.0	male	black	3.5523278949462798	smiling	042	sub-14	1.0	3.0	042_smiling	0.0		40.76444177874737	
1.0	16.25041180293465	fix	1.0		445	27.0	male	black	3.5523278949462798	smiling	042	sub-14	1.0	3.0	042_smiling	0.0		40.91435102664718	3.758198855313367
1.0	16.800496306677815	pulse	1.0	t		27.0	male	black	3.5523278949462798	smiling	042	sub-14	1.0	3.0	042_smiling	0.0		41.46443553039035	
1.0	17.50049458611602	pulse	1.0	t		27.0	male	black	3.5523278949462798	smiling	042	sub-14	1.0	3.0	042_smiling	0.0		42.16443380982855	
1.0	18.20046539693203	pulse	1.0	t		27.0	male	black	3.5523278949462798	smiling	042	sub-14	1.0	3.0	042_smiling	0.0		42.864404620644564	
1.0	18.900449489280163	pulse	1.0	t		27.0	male	black	3.5523278949462798	smiling	042	sub-14	1.0	3.0	042_smiling	0.0		43.564388712992695	
1.0	19.600420903802387	pulse	1.0	t		27.0	male	black	3.5523278949462798	smiling	042	sub-14	1.0	3.0	042_smiling	0.0		44.26436012751492	
2.0	20.008610658248017	face	0.0		146	23.0	male	white	2.6275368085953046	smiling	141	sub-14	1.0	3.0	141_smiling	0.0		44.67254988196055	1.2416490107825666
2.0	20.30040922209173	pulse	0.0	t		23.0	male	white	2.6275368085953046	smiling	141	sub-14	1.0	3.0	141_smiling	0.0		44.96434844580426	
2.0	21.000383956996757	pulse	0.0	t		23.0	male	white	2.6275368085953046	smiling	141	sub-14	1.0	3.0	141_smiling	0.0		45.66432318070929	
2.0	21.250259669030584	fix	1.0		444	23.0	male	white	2.6275368085953046	smiling	141	sub-14	1.0	3.0	141_smiling	0.0		45.914198892743116	3.7582193813159392
2.0	21.70036442710898	pulse	1.0	t		23.0	male	white	2.6275368085953046	smiling	141	sub-14	1.0	3.0	141_smiling	0.0		46.36430365082151	
2.0	22.40035183983946	pulse	1.0	t		23.0	male	white	2.6275368085953046	smiling	141	sub-14	1.0	3.0	141_smiling	0.0		47.06429106355199	
2.0	23.10033321551009	pulse	1.0	t		23.0	male	white	2.6275368085953046	smiling	141	sub-14	1.0	3.0	141_smiling	0.0		47.76427243922262	
2.0	23.800327872712387	pulse	1.0	t		23.0	male	white	2.6275368085953046	smiling	141	sub-14	1.0	3.0	141_smiling	0.0		48.46426709642492	
2.0	24.500293250174764	pulse	1.0	t		23.0	male	white	2.6275368085953046	smiling	141	sub-14	1.0	3.0	141_smiling	0.0		49.164232473887296	
3.0	25.008479050346523	face	0.0		146	31.0	female	white	2.1822522881018704	neutral	102	sub-14	1.0	3.0	102_neutral	0.0		49.672418274059055	1.24166319787264
3.0	25.200298170378574	pulse	0.0	t		31.0	female	white	2.1822522881018704	neutral	102	sub-14	1.0	3.0	102_neutral	0.0		49.864237394091106	
3.0	25.9002729052836	pulse	0.0	t		31.0	female	white	2.1822522881018704	neutral	102	sub-14	1.0	3.0	102_neutral	0.0		50.56421212899613	
3.0	26.250142248219163	fix	1.0		444	31.0	female	white	2.1822522881018704	neutral	102	sub-14	1.0	3.0	102_neutral	0.0		50.914081471931695	3.7582199850221514
3.0	26.60024069757037	pulse	1.0	t		31.0	female	white	2.1822522881018704	neutral	102	sub-14	1.0	3.0	102_neutral	0.0		51.2641799212829	
3.0	27.300217243593124	pulse	1.0	t		31.0	female	white	2.1822522881018704	neutral	102	sub-14	1.0	3.0	102_neutral	0.0		51.964156467305656	
3.0	28.000222163796934	pulse	1.0	t		31.0	female	white	2.1822522881018704	neutral	102	sub-14	1.0	3.0	102_neutral	0.0		52.664161387509466	
3.0	28.700194483878477	pulse	1.0	t		31.0	female	white	2.1822522881018704	neutral	102	sub-14	1.0	3.0	102_neutral	0.0		53.36413370759101	
3.0	29.40018551884441	pulse	1.0	t		31.0	female	white	2.1822522881018704	neutral	102	sub-14	1.0	3.0	102_neutral	0.0		54.06412474255694	
4.0	30.008362233241314	face	0.0		146	19.0	female	white	4.298846000795861	smiling	100	sub-14	1.0	3.0	100_smiling	0.0		54.672301456953846	1.2416529348711265
4.0	30.100197079813825	pulse	0.0	t		19.0	female	white	4.298846000795861	smiling	100	sub-14	1.0	3.0	100_smiling	0.0		54.76413630352636	
4.0	30.8001464590684	pulse	0.0	t		19.0	female	white	4.298846000795861	smiling	100	sub-14	1.0	3.0	100_smiling	0.0		55.46408568278093	
4.0	31.25001516811244	fix	1.0		444	19.0	female	white	4.298846000795861	smiling	100	sub-14	1.0	3.0	100_smiling	0.0		55.91395439182497	3.766546901464153
4.0	31.500130551416078	pulse	1.0	t		19.0	female	white	4.298846000795861	smiling	100	sub-14	1.0	3.0	100_smiling	0.0		56.16406977512861	
4.0	32.20007962881755	pulse	1.0	t		19.0	female	white	4.298846000795861	smiling	100	sub-14	1.0	3.0	100_smiling	0.0		56.86401885253008	
4.0	32.90007760640265	pulse	1.0	t		19.0	female	white	4.298846000795861	smiling	100	sub-14	1.0	3.0	100_smiling	0.0		57.56401683011518	
4.0	33.60005988763214	pulse	1.0	t		19.0	female	white	4.298846000795861	smiling	100	sub-14	1.0	3.0	100_smiling	0.0		58.263999111344674	
4.0	34.30003552809649	pulse	1.0	t		19.0	female	white	4.298846000795861	smiling	100	sub-14	1.0	3.0	100_smiling	0.0		58.96397475180902	
5.0	35.016562069576594	face	0.0		146	28.0	female	white	5.676880222841227	smiling	124	sub-14	1.0	3.0	124_smiling	0.0		59.680501293289126	1.2333187739577625
5.0	35.002755314046226	pulse	0.0	t		28.0	female	white	5.676880222841227	smiling	124	sub-14	1.0	3.0	124_smiling	0.0		59.66669453775876	
5.0	35.70001457949911	pulse	0.0	t		28.0	female	white	5.676880222841227	smiling	124	sub-14	1.0	3.0	124_smiling	0.0		60.36395380321164	
5.0	36.249880843534356	fix	1.0		443	28.0	female	white	5.676880222841227	smiling	124	sub-14	1.0	3.0	124_smiling	0.0		60.91382006724689	3.7581994590191243
5.0	36.399976334726034	pulse	1.0	t		28.0	female	white	5.676880222841227	smiling	124	sub-14	1.0	3.0	124_smiling	0.0		61.063915558438566	
5.0	37.09995982336795	pulse	1.0	t		28.0	female	white	5.676880222841227	smiling	124	sub-14	1.0	3.0	124_smiling	0.0		61.763899047080486	
5.0	37.799948141657296	pulse	1.0	t		28.0	female	white	5.676880222841227	smiling	124	sub-14	1.0	3.0	124_smiling	0.0		62.46388736536983	
5.0	38.499929819181034	pulse	1.0	t		28.0	female	white	5.676880222841227	smiling	124	sub-14	1.0	3.0	124_smiling	0.0		63.163869042893566	
5.0	39.199903346674546	pulse	1.0	t		28.0	female	white	5.676880222841227	smiling	124	sub-14	1.0	3.0	124_smiling	0.0		63.86384257038708	
5.0	39.89989106125768	pulse	1.0	t		28.0	female	white	5.676880222841227	smiling	124	sub-14	1.0	3.0	124_smiling	0.0		64.56383028497021	
6.0	40.00808030255348	face	0.0		147	26.0	female	white	4.854755272582572	smiling	027	sub-14	1.0	3.0	027_smiling	0.0		64.67201952626601	1.2416662164023364
6.0	40.59986277763301	pulse	0.0	t		26.0	female	white	4.854755272582572	smiling	027	sub-14	1.0	3.0	027_smiling	0.0		65.26380200134554	
6.0	41.24974651895582	fix	1.0		443	26.0	female	white	4.854755272582572	smiling	027	sub-14	1.0	3.0	027_smiling	0.0		65.91368574266835	3.766551127405819
6.0	41.299851397775456	pulse	1.0	t		26.0	female	white	4.854755272582572	smiling	027	sub-14	1.0	3.0	027_smiling	0.0		65.96379062148799	
6.0	41.99983307529965	pulse	1.0	t		26.0	female	white	4.854755272582572	smiling	027	sub-14	1.0	3.0	027_smiling	0.0		66.66377229901218	
6.0	42.69980931946975	pulse	1.0	t		26.0	female	white	4.854755272582572	smiling	027	sub-14	1.0	3.0	027_smiling	0.0		67.36374854318228	
6.0	43.39979824146485	pulse	1.0	t		26.0	female	white	4.854755272582572	smiling	027	sub-14	1.0	3.0	027_smiling	0.0		68.06373746517738	
6.0	44.09976241151571	pulse	1.0	t		26.0	female	white	4.854755272582572	smiling	027	sub-14	1.0	3.0	027_smiling	0.0		68.76370163522824	
6.0	44.79975797427687	pulse	1.0	t		26.0	female	white	4.854755272582572	smiling	027	sub-14	1.0	3.0	027_smiling	0.0		69.4636971979894	
7.0	45.016297646361636	face	0.0		145	20.0	female	white	3.9502586549940313	neutral	091	sub-14	1.0	3.0	091_neutral	0.0		69.68023687007417	1.233317868398899
7.0	45.49974176477144	pulse	0.0	t		20.0	female	white	3.9502586549940313	neutral	091	sub-14	1.0	3.0	091_neutral	0.0		70.16368098848397	
7.0	46.199732497884725	pulse	0.0	t		20.0	female	white	3.9502586549940313	neutral	091	sub-14	1.0	3.0	091_neutral	0.0		70.86367172159726	
7.0	46.249615514760535	fix	1.0		445	20.0	female	white	3.9502586549940313	neutral	091	sub-14	1.0	3.0	091_neutral	0.0		70.91355473847307	3.758283977854717
7.0	46.89970964761369	pulse	1.0	t		20.0	female	white	3.9502586549940313	neutral	091	sub-14	1.0	3.0	091_neutral	0.0		71.56364887132622	
7.0	47.59968558993114	pulse	1.0	t		20.0	female	white	3.9502586549940313	neutral	091	sub-14	1.0	3.0	091_neutral	0.0		72.26362481364367	
7.0	48.299663343365864	pulse	1.0	t		20.0	female	white	3.9502586549940313	neutral	091	sub-14	1.0	3.0	091_neutral	0.0		72.9636025670784	
7.0	48.99964139865415	pulse	1.0	t		20.0	female	white	3.9502586549940313	neutral	091	sub-14	1.0	3.0	091_neutral	0.0		73.66358062236668	
7.0	49.699629113237734	pulse	1.0	t		20.0	female	white	3.9502586549940313	neutral	091	sub-14	1.0	3.0	091_neutral	0.0		74.36356833695027	
8.0	50.00789949261525	face	0.0		146	24.0	female	east_asian	2.9076800636689217	smiling	034	sub-14	1.0	3.0	034_smiling	0.0		74.67183871632778	1.241579584595911
8.0	50.399615620408895	pulse	0.0	t		24.0	female	east_asian	2.9076800636689217	smiling	034	sub-14	1.0	3.0	034_smiling	0.0		75.06355484412143	
8.0	51.09958794049044	pulse	0.0	t		24.0	female	east_asian	2.9076800636689217	smiling	034	sub-14	1.0	3.0	034_smiling	0.0		75.76352716420297	
8.0	51.24947907721116	fix	1.0		444	24.0	female	east_asian	2.9076800636689217	smiling	034	sub-14	1.0	3.0	034_smiling	0.0		75.9134183009237	3.766551127405819
8.0	51.79957505136781	pulse	1.0	t		24.0	female	east_asian	2.9076800636689217	smiling	034	sub-14	1.0	3.0	034_smiling	0.0		76.46351427508034	
8.0	52.499541334389505	pulse	1.0	t		24.0	female	east_asian	2.9076800636689217	smiling	034	sub-14	1.0	3.0	034_smiling	0.0		77.16348055810204	
8.0	53.1995359915918	pulse	1.0	t		24.0	female	east_asian	2.9076800636689217	smiling	034	sub-14	1.0	3.0	034_smiling	0.0		77.86347521530433	
8.0	53.899523102469175	pulse	1.0	t		24.0	female	east_asian	2.9076800636689217	smiling	034	sub-14	1.0	3.0	034_smiling	0.0		78.5634623261817	
8.0	54.59950025219814	pulse	1.0	t		24.0	female	east_asian	2.9076800636689217	smiling	034	sub-14	1.0	3.0	034_smiling	0.0		79.26343947591067	
9.0	55.01603020461698	face	0.0		145	30.0	female	black	2.7345801830481498	neutral	062	sub-14	1.0	3.0	062_neutral	0.0		79.67996942832951	1.2333193776639746
9.0	55.29946351669014	pulse	0.0	t		30.0	female	black	2.7345801830481498	neutral	062	sub-14	1.0	3.0	062_neutral	0.0		79.96340274040267	
9.0	55.99944791089047	pulse	0.0	t		30.0	female	black	2.7345801830481498	neutral	062	sub-14	1.0	3.0	062_neutral	0.0		80.663387134603	
9.0	56.249349582280956	fix	1.0		445	30.0	female	black	2.7345801830481498	neutral	062	sub-14	1.0	3.0	062_neutral	0.0		80.91328880599349	3.766549014434986
9.0	56.6994353236214	pulse	1.0	t		30.0	female	black	2.7345801830481498	neutral	062	sub-14	1.0	3.0	062_neutral	0.0		81.36337454733393	
9.0	57.399413077056124	pulse	1.0	t		30.0	female	black	2.7345801830481498	neutral	062	sub-14	1.0	3.0	062_neutral	0.0		82.06335230076866	
9.0	58.09940954537615	pulse	1.0	t		30.0	female	black	2.7345801830481498	neutral	062	sub-14	1.0	3.0	062_neutral	0.0		82.76334876908868	
9.0	58.79939303401807	pulse	1.0	t		30.0	female	black	2.7345801830481498	neutral	062	sub-14	1.0	3.0	062_neutral	0.0		83.4633322577306	
9.0	59.49936897633506	pulse	1.0	t		30.0	female	black	2.7345801830481498	neutral	062	sub-14	1.0	3.0	062_neutral	0.0		84.1633082000476	
10.0	60.01589859671594	face	0.0		145	21.0	male	east_asian/white	3.501790688420215	neutral	036	sub-14	1.0	3.0	036_neutral	1.0	dominance	84.67983782042847	1.2332949275714782
10.0	60.199345220505165	pulse	0.0	t		21.0	male	east_asian/white	3.501790688420215	neutral	036	sub-14	1.0	3.0	036_neutral	1.0	dominance	84.8632844442177	
10.0	60.89930939055603	pulse	0.0	t		21.0	male	east_asian/white	3.501790688420215	neutral	036	sub-14	1.0	3.0	036_neutral	1.0	dominance	85.56324861426856	
10.0	61.24919352428742	fix	1.0		177	21.0	male	east_asian/white	3.501790688420215	neutral	036	sub-14	1.0	3.0	036_neutral	1.0	dominance	85.91313274799995	1.4999847564245101
10.0	61.59930404775787	pulse	1.0	t		21.0	male	east_asian/white	3.501790688420215	neutral	036	sub-14	1.0	3.0	036_neutral	1.0	dominance	86.2632432714704	
10.0	62.29929538457736	pulse	1.0	t		21.0	male	east_asian/white	3.501790688420215	neutral	036	sub-14	1.0	3.0	036_neutral	1.0	dominance	86.9632346082899	
10.0	62.74917828071193	rating	2.0		295	21.0	male	east_asian/white	3.501790688420215	neutral	036	sub-14	1.0	3.0	036_neutral	1.0	dominance	87.41311750442446	2.508253415240233
10.0	62.99927132689436	pulse	2.0	t		21.0	male	east_asian/white	3.501790688420215	neutral	036	sub-14	1.0	3.0	036_neutral	1.0	dominance	87.66321055060689	
10.0	63.69925240071234	pulse	2.0	t		21.0	male	east_asian/white	3.501790688420215	neutral	036	sub-14	1.0	3.0	036_neutral	1.0	dominance	88.36319162442487	
10.0	64.0992338669389	response	2.0	y		21.0	male	east_asian/white	3.501790688420215	neutral	036	sub-14	1.0	3.0	036_neutral	1.0	dominance	88.76317309065143	
10.0	64.39923830417774	pulse	2.0	t		21.0	male	east_asian/white	3.501790688420215	neutral	036	sub-14	1.0	3.0	036_neutral	1.0	dominance	89.06317752789028	
10.0	65.09920760572959	pulse	2.0	t		21.0	male	east_asian/white	3.501790688420215	neutral	036	sub-14	1.0	3.0	036_neutral	1.0	dominance	89.76314682944212	
10.0	65.25743169595216	fix	3.0		444	21.0	male	east_asian/white	3.501790688420215	neutral	036	sub-14	1.0	3.0	036_neutral	1.0	dominance	89.9213709196647	3.758345555863798
10.0	65.79919350919499	pulse	3.0	t		21.0	male	east_asian/white	3.501790688420215	neutral	036	sub-14	1.0	3.0	036_neutral	1.0	dominance	90.46313273290752	
10.0	66.49917699783691	pulse	3.0	t		21.0	male	east_asian/white	3.501790688420215	neutral	036	sub-14	1.0	3.0	036_neutral	1.0	dominance	91.16311622154944	
10.0	67.19914811050603	pulse	3.0	t		21.0	male	east_asian/white	3.501790688420215	neutral	036	sub-14	1.0	3.0	036_neutral	1.0	dominance	91.86308733421856	
10.0	67.89913491953075	pulse	3.0	t		21.0	male	east_asian/white	3.501790688420215	neutral	036	sub-14	1.0	3.0	036_neutral	1.0	dominance	92.56307414324328	
10.0	68.59911659705449	pulse	3.0	t		21.0	male	east_asian/white	3.501790688420215	neutral	036	sub-14	1.0	3.0	036_neutral	1.0	dominance	93.26305582076702	
11.0	69.01577725181596	face	0.0		146	21.0	male	black	2.969757262236371	neutral	137	sub-14	1.0	3.0	137_neutral	0.0		93.6797164755285	1.2415327973831154
11.0	69.29911185796254	pulse	0.0	t		21.0	male	black	2.969757262236371	neutral	137	sub-14	1.0	3.0	137_neutral	0.0		93.96305108167508	
11.0	69.99909081880969	pulse	0.0	t		21.0	male	black	2.969757262236371	neutral	137	sub-14	1.0	3.0	137_neutral	0.0		94.66303004252222	
11.0	70.25731004919908	fix	1.0		444	21.0	male	black	2.969757262236371	neutral	137	sub-14	1.0	3.0	137_neutral	0.0		94.92124927291161	3.7665363366095335
11.0	70.6990770241282	pulse	1.0	t		21.0	male	black	2.969757262236371	neutral	137	sub-14	1.0	3.0	137_neutral	0.0		95.36301624784073	
11.0	71.39903908120777	pulse	1.0	t		21.0	male	black	2.969757262236371	neutral	137	sub-14	1.0	3.0	137_neutral	0.0		96.0629783049203	
11.0	72.09902679579136	pulse	1.0	t		21.0	male	black	2.969757262236371	neutral	137	sub-14	1.0	3.0	137_neutral	0.0		96.76296601950389	
11.0	72.79901239740411	pulse	1.0	t		21.0	male	black	2.969757262236371	neutral	137	sub-14	1.0	3.0	137_neutral	0.0		97.46295162111664	
11.0	73.49902426022618	pulse	1.0	t		21.0	male	black	2.969757262236371	neutral	137	sub-14	1.0	3.0	137_neutral	0.0		98.16296348393871	
12.0	74.02384638580861	face	0.0		145	34.0	male	white	2.651014723438122	neutral	121	sub-14	1.0	3.0	121_neutral	0.0		98.68778560952114	1.233317868398899
12.0	74.19897001724485	pulse	0.0	t		34.0	male	white	2.651014723438122	neutral	121	sub-14	1.0	3.0	121_neutral	0.0		98.86290924095738	
12.0	74.89895169476858	pulse	0.0	t		34.0	male	white	2.651014723438122	neutral	121	sub-14	1.0	3.0	121_neutral	0.0		99.56289091848112	
12.0	75.25716425420751	fix	1.0		444	34.0	male	white	2.651014723438122	neutral	121	sub-14	1.0	3.0	121_neutral	0.0		99.92110347792004	3.766567125614074
12.0	75.59894514455891	pulse	1.0	t		34.0	male	white	2.651014723438122	neutral	121	sub-14	1.0	3.0	121_neutral	0.0		100.26288436827144	
12.0	76.29890931460977	pulse	1.0	t		34.0	male	white	2.651014723438122	neutral	121	sub-14	1.0	3.0	121_neutral	0.0		100.9628485383223	
12.0	76.99888978472154	pulse	1.0	t		34.0	male	white	2.651014723438122	neutral	121	sub-14	1.0	3.0	121_neutral	0.0		101.66282900843407	
12.0	77.69887629189316	pulse	1.0	t		34.0	male	white	2.651014723438122	neutral	121	sub-14	1.0	3.0	121_neutral	0.0		102.36281551560569	
12.0	78.39884106564978	pulse	1.0	t		34.0	male	white	2.651014723438122	neutral	121	sub-14	1.0	3.0	121_neutral	0.0		103.06278028936231	
13.0	79.02373137982158	face	0.0		145	20.0	male	black	3.1070433744528456	neutral	082	sub-14	1.0	3.0	082_neutral	0.0		103.68767060353412	1.2333012664844318
13.0	79.09885323032495	pulse	0.0	t		20.0	male	black	3.1070433744528456	neutral	082	sub-14	1.0	3.0	082_neutral	0.0		103.76279245403748	
13.0	79.79882132446437	pulse	0.0	t		20.0	male	black	3.1070433744528456	neutral	082	sub-14	1.0	3.0	082_neutral	0.0		104.4627605481769	
13.0	80.25703264630602	fix	1.0		444	20.0	male	black	3.1070433744528456	neutral	082	sub-14	1.0	3.0	082_neutral	0.0		104.92097187001855	3.7665638052312715
13.0	80.49880270013546	pulse	1.0	t		20.0	male	black	3.1070433744528456	neutral	082	sub-14	1.0	3.0	082_neutral	0.0		105.16274192384799	
13.0	81.19878920730707	pulse	1.0	t		20.0	male	black	3.1070433744528456	neutral	082	sub-14	1.0	3.0	082_neutral	0.0		105.8627284310196	
13.0	81.89876545147717	pulse	1.0	t		20.0	male	black	3.1070433744528456	neutral	082	sub-14	1.0	3.0	082_neutral	0.0		106.5627046751897	
13.0	82.59874139379417	pulse	1.0	t		20.0	male	black	3.1070433744528456	neutral	082	sub-14	1.0	3.0	082_neutral	0.0		107.2626806175067	
13.0	83.29872669355382	pulse	1.0	t		20.0	male	black	3.1070433744528456	neutral	082	sub-14	1.0	3.0	082_neutral	0.0		107.96266591726635	
13.0	83.99870837107756	pulse	1.0	t		20.0	male	black	3.1070433744528456	neutral	082	sub-14	1.0	3.0	082_neutral	0.0		108.66264759479009	
14.0	84.02359645153729	face	0.0		146	27.0	female	white	3.504576203740549	smiling	144	sub-14	1.0	3.0	144_smiling	0.0		108.68753567524982	1.2333148498687478
14.0	84.69869216157213	pulse	0.0	t		27.0	female	white	3.504576203740549	smiling	144	sub-14	1.0	3.0	144_smiling	0.0		109.36263138528466	
14.0	85.25691130140603	fix	1.0		443	27.0	female	white	3.504576203740549	smiling	144	sub-14	1.0	3.0	144_smiling	0.0		109.92085052511857	3.758241718437148
14.0	85.39867595206715	pulse	1.0	t		27.0	female	white	3.504576203740549	smiling	144	sub-14	1.0	3.0	144_smiling	0.0		110.06261517577968	
14.0	86.0986675907393	pulse	1.0	t		27.0	female	white	3.504576203740549	smiling	144	sub-14	1.0	3.0	144_smiling	0.0		110.76260681445183	
14.0	86.79864232564432	pulse	1.0	t		27.0	female	white	3.504576203740549	smiling	144	sub-14	1.0	3.0	144_smiling	0.0		111.46258154935686	
14.0	87.49860951422488	pulse	1.0	t		27.0	female	white	3.504576203740549	smiling	144	sub-14	1.0	3.0	144_smiling	0.0		112.16254873793741	
14.0	88.19858877692513	pulse	1.0	t		27.0	female	white	3.504576203740549	smiling	144	sub-14	1.0	3.0	144_smiling	0.0		112.86252800063767	
14.0	88.89857709521448	pulse	1.0	t		27.0	female	white	3.504576203740549	smiling	144	sub-14	1.0	3.0	144_smiling	0.0		113.56251631892701	
15.0	89.01515301984318	face	0.0		147	30.0	female	black	2.7345801830481498	smiling	062	sub-14	1.0	3.0	062_smiling	0.0		113.67909224355571	1.2416254662493884
15.0	89.59856873388662	pulse	0.0	t		30.0	female	black	2.7345801830481498	smiling	062	sub-14	1.0	3.0	062_smiling	0.0		114.26250795759915	
15.0	90.25677848609257	fix	1.0		443	30.0	female	black	2.7345801830481498	smiling	062	sub-14	1.0	3.0	062_smiling	0.0		114.9207177098051	3.7665526366708946
15.0	90.29855252438165	pulse	1.0	t		30.0	female	black	2.7345801830481498	smiling	062	sub-14	1.0	3.0	062_smiling	0.0		114.96249174809418	
15.0	90.99852484446274	pulse	1.0	t		30.0	female	black	2.7345801830481498	smiling	062	sub-14	1.0	3.0	062_smiling	0.0		115.66246406817527	
15.0	91.69851648313534	pulse	1.0	t		30.0	female	black	2.7345801830481498	smiling	062	sub-14	1.0	3.0	062_smiling	0.0		116.36245570684787	
15.0	92.39848125689196	pulse	1.0	t		30.0	female	black	2.7345801830481498	smiling	062	sub-14	1.0	3.0	062_smiling	0.0		117.06242048060449	
15.0	93.09847138629902	pulse	1.0	t		30.0	female	black	2.7345801830481498	smiling	062	sub-14	1.0	3.0	062_smiling	0.0		117.76241061001156	
15.0	93.79845155455814	pulse	1.0	t		30.0	female	black	2.7345801830481498	smiling	062	sub-14	1.0	3.0	062_smiling	0.0		118.46239077827067	
16.0	94.02333112276347	face	0.0		145	24.0	male	white	3.1153999204138483	neutral	012	sub-14	1.0	3.0	012_neutral	0.0		118.687270346476	1.2333024738964014
16.0	94.4984404765537	pulse	0.0	t		24.0	male	white	3.1153999204138483	neutral	012	sub-14	1.0	3.0	012_neutral	0.0		119.16237970026623	
16.0	95.19841038181085	pulse	0.0	t		24.0	male	white	3.1153999204138483	neutral	012	sub-14	1.0	3.0	012_neutral	0.0		119.86234960552338	
16.0	95.25663359665987	fix	1.0		445	24.0	male	white	3.1153999204138483	neutral	012	sub-14	1.0	3.0	012_neutral	0.0		119.9205728203724	3.758230549876771
16.0	95.89838572042208	pulse	1.0	t		24.0	male	white	3.1153999204138483	neutral	012	sub-14	1.0	3.0	012_neutral	0.0		120.56232494413462	
16.0	96.5983719257406	pulse	1.0	t		24.0	male	white	3.1153999204138483	neutral	012	sub-14	1.0	3.0	012_neutral	0.0		121.26231114945313	
16.0	97.29835873476532	pulse	1.0	t		24.0	male	white	3.1153999204138483	neutral	012	sub-14	1.0	3.0	012_neutral	0.0		121.96229795847785	
16.0	97.99833648820004	pulse	1.0	t		24.0	male	white	3.1153999204138483	neutral	012	sub-14	1.0	3.0	012_neutral	0.0		122.66227571191257	
16.0	98.69832933428461	pulse	1.0	t		24.0	male	white	3.1153999204138483	neutral	012	sub-14	1.0	3.0	012_neutral	0.0		123.36226855799714	
17.0	99.01486414653664	face	0.0		146	24.0	female	east_asian	2.9076800636689217	neutral	034	sub-14	1.0	3.0	034_neutral	0.0		123.67880337024917	1.2416411626045374
17.0	99.3983170488682	pulse	0.0	t		24.0	female	east_asian	2.9076800636689217	neutral	034	sub-14	1.0	3.0	034_neutral	0.0		124.06225627258073	
17.0	100.09829691527375	pulse	0.0	t		24.0	female	east_asian	2.9076800636689217	neutral	034	sub-14	1.0	3.0	034_neutral	0.0		124.76223613898628	
17.0	100.25650530914118	fix	1.0		444	24.0	female	east_asian	2.9076800636689217	neutral	034	sub-14	1.0	3.0	034_neutral	0.0		124.92044453285371	3.7665616922604386
17.0	100.79826470756052	pulse	1.0	t		24.0	female	east_asian	2.9076800636689217	neutral	034	sub-14	1.0	3.0	034_neutral	0.0		125.46220393127305	
17.0	101.49824306470146	pulse	1.0	t		24.0	female	east_asian	2.9076800636689217	neutral	034	sub-14	1.0	3.0	034_neutral	0.0		126.16218228841399	
17.0	102.19822202554815	pulse	1.0	t		24.0	female	east_asian	2.9076800636689217	neutral	034	sub-14	1.0	3.0	034_neutral	0.0		126.86216124926068	
17.0	102.89820521233696	pulse	1.0	t		24.0	female	east_asian	2.9076800636689217	neutral	034	sub-14	1.0	3.0	034_neutral	0.0		127.5621444360495	
17.0	103.59819836027418	pulse	1.0	t		24.0	female	east_asian	2.9076800636689217	neutral	034	sub-14	1.0	3.0	034_neutral	0.0		128.2621375839867	
18.0	104.02306700140161	face	0.0		145	26.0	male	white	2.7966573816155993	neutral	117	sub-14	1.0	3.0	117_neutral	0.0		128.68700622511415	1.2332976442485233
18.0	104.298181547063	pulse	0.0	t		26.0	male	white	2.7966573816155993	neutral	117	sub-14	1.0	3.0	117_neutral	0.0		128.96212077077553	
18.0	104.99815115046749	pulse	0.0	t		26.0	male	white	2.7966573816155993	neutral	117	sub-14	1.0	3.0	117_neutral	0.0		129.66209037418002	
18.0	105.25636464565014	fix	1.0		444	26.0	male	white	2.7966573816155993	neutral	117	sub-14	1.0	3.0	117_neutral	0.0		129.92030386936267	3.7583316706268306
18.0	105.69813192243237	pulse	1.0	t		26.0	male	white	2.7966573816155993	neutral	117	sub-14	1.0	3.0	117_neutral	0.0		130.3620711461449	
18.0	106.39811299625035	pulse	1.0	t		26.0	male	white	2.7966573816155993	neutral	117	sub-14	1.0	3.0	117_neutral	0.0		131.06205221996288	
18.0	107.0980961830387	pulse	1.0	t		26.0	male	white	2.7966573816155993	neutral	117	sub-14	1.0	3.0	117_neutral	0.0		131.76203540675124	
18.0	107.79808389762229	pulse	1.0	t		26.0	male	white	2.7966573816155993	neutral	117	sub-14	1.0	3.0	117_neutral	0.0		132.46202312133482	
18.0	108.49805772696845	pulse	1.0	t		26.0	male	white	2.7966573816155993	neutral	117	sub-14	1.0	3.0	117_neutral	0.0		133.161996950681	
19.0	109.01469631627697	face	0.0		146	25.0	female	west_asian	2.6756864305610826	neutral	064	sub-14	1.0	3.0	064_neutral	0.0		133.6786355399895	1.2415379288840995
19.0	109.19804544155204	pulse	0.0	t		25.0	female	west_asian	2.6756864305610826	neutral	064	sub-14	1.0	3.0	064_neutral	0.0		133.86198466526457	
19.0	109.89841892425056	pulse	0.0	t		25.0	female	west_asian	2.6756864305610826	neutral	064	sub-14	1.0	3.0	064_neutral	0.0		134.5623581479631	
19.0	110.25623424516107	fix	1.0		444	25.0	female	west_asian	2.6756864305610826	neutral	064	sub-14	1.0	3.0	064_neutral	0.0		134.9201734688736	3.75822753134662
19.0	110.59800185398126	pulse	1.0	t		25.0	female	west_asian	2.6756864305610826	neutral	064	sub-14	1.0	3.0	064_neutral	0.0		135.2619410776938	
19.0	111.29799983156636	pulse	1.0	t		25.0	female	west_asian	2.6756864305610826	neutral	064	sub-14	1.0	3.0	064_neutral	0.0		135.9619390552789	
19.0	111.99798362206093	pulse	1.0	t		25.0	female	west_asian	2.6756864305610826	neutral	064	sub-14	1.0	3.0	064_neutral	0.0		136.66192284577346	
19.0	112.69794839581755	pulse	1.0	t		25.0	female	west_asian	2.6756864305610826	neutral	064	sub-14	1.0	3.0	064_neutral	0.0		137.36188761953008	
19.0	113.39793158260636	pulse	1.0	t		25.0	female	west_asian	2.6756864305610826	neutral	064	sub-14	1.0	3.0	064_neutral	0.0		138.0618708063189	
20.0	114.01446177650769	face	0.0		146	26.0	female	white	4.854755272582572	neutral	027	sub-14	1.0	3.0	027_neutral	0.0		138.67840100022022	1.2416414644576435
20.0	114.09791446754207	pulse	0.0	t		26.0	female	white	4.854755272582572	neutral	027	sub-14	1.0	3.0	027_neutral	0.0		138.7618536912546	
20.0	114.7979242173933	pulse	0.0	t		26.0	female	white	4.854755272582572	neutral	027	sub-14	1.0	3.0	027_neutral	0.0		139.46186344110583	
20.0	115.25610324096533	fix	1.0		1185	26.0	female	white	4.854755272582572	neutral	027	sub-14	1.0	3.0	027_neutral	0.0		139.92004246467786	10.016380354079502
20.0	115.49792279868416	pulse	1.0	t		26.0	female	white	4.854755272582572	neutral	027	sub-14	1.0	3.0	027_neutral	0.0		140.1618620223967	
20.0	116.1979204744166	pulse	1.0	t		26.0	female	white	4.854755272582572	neutral	027	sub-14	1.0	3.0	027_neutral	0.0		140.86185969812914	
20.0	116.89783242390058	pulse	1.0	t		26.0	female	white	4.854755272582572	neutral	027	sub-14	1.0	3.0	027_neutral	0.0		141.5617716476131	
20.0	117.59782315701386	pulse	1.0	t		26.0	female	white	4.854755272582572	neutral	027	sub-14	1.0	3.0	027_neutral	0.0		142.2617623807264	
20.0	118.29780211786101	pulse	1.0	t		26.0	female	white	4.854755272582572	neutral	027	sub-14	1.0	3.0	027_neutral	0.0		142.96174134157354	
20.0	118.99777413608945	pulse	1.0	t		26.0	female	white	4.854755272582572	neutral	027	sub-14	1.0	3.0	027_neutral	0.0		143.66171335980198	
20.0	119.69776215252568	pulse	1.0	t		26.0	female	white	4.854755272582572	neutral	027	sub-14	1.0	3.0	027_neutral	0.0		144.36170137623822	
20.0	120.39775379119828	pulse	1.0	t		26.0	female	white	4.854755272582572	neutral	027	sub-14	1.0	3.0	027_neutral	0.0		145.06169301491082	
20.0	121.09772701683823	pulse	1.0	t		26.0	female	white	4.854755272582572	neutral	027	sub-14	1.0	3.0	027_neutral	0.0		145.76166624055077	
20.0	121.79772680554106	pulse	1.0	t		26.0	female	white	4.854755272582572	neutral	027	sub-14	1.0	3.0	027_neutral	0.0		146.4616660292536	
20.0	122.49769489968094	pulse	1.0	t		26.0	female	white	4.854755272582572	neutral	027	sub-14	1.0	3.0	027_neutral	0.0		147.16163412339347	
20.0	123.1976747660865	pulse	1.0	t		26.0	female	white	4.854755272582572	neutral	027	sub-14	1.0	3.0	027_neutral	0.0		147.86161398979903	
20.0	123.89764950099197	pulse	1.0	t		26.0	female	white	4.854755272582572	neutral	027	sub-14	1.0	3.0	027_neutral	0.0		148.5615887247045	
20.0	124.59764476190003	pulse	1.0	t		26.0	female	white	4.854755272582572	neutral	027	sub-14	1.0	3.0	027_neutral	0.0		149.26158398561256	
21.0	125.27248359504483	face	0.0		145	40.0	male	white	1.868682849184242	neutral	172	sub-14	1.0	3.0	172_neutral	1.0	trustworthiness	149.93642281875736	1.233319981369732
21.0	125.29765873769338	pulse	0.0	t		40.0	male	white	1.868682849184242	neutral	172	sub-14	1.0	3.0	172_neutral	1.0	trustworthiness	149.96159796140591	
21.0	125.99760268359387	pulse	0.0	t		40.0	male	white	1.868682849184242	neutral	172	sub-14	1.0	3.0	172_neutral	1.0	trustworthiness	150.6615419073064	
21.0	126.50580357641456	fix	1.0		177	40.0	male	white	1.868682849184242	neutral	172	sub-14	1.0	3.0	172_neutral	1.0	trustworthiness	151.1697428001271	1.4999630230095136
21.0	126.69758828520662	pulse	1.0	t		40.0	male	white	1.868682849184242	neutral	172	sub-14	1.0	3.0	172_neutral	1.0	trustworthiness	151.36152750891915	
21.0	127.39755607749294	pulse	1.0	t		40.0	male	white	1.868682849184242	neutral	172	sub-14	1.0	3.0	172_neutral	1.0	trustworthiness	152.06149530120547	
21.0	128.00576659942408	rating	2.0		294	40.0	male	white	1.868682849184242	neutral	172	sub-14	1.0	3.0	172_neutral	1.0	trustworthiness	152.6697058231366	2.49994340256535
21.0	128.09754318837076	pulse	2.0	t		40.0	male	white	1.868682849184242	neutral	172	sub-14	1.0	3.0	172_neutral	1.0	trustworthiness	152.7614824120833	
21.0	128.79753875113147	pulse	2.0	t		40.0	male	white	1.868682849184242	neutral	172	sub-14	1.0	3.0	172_neutral	1.0	trustworthiness	153.461477974844	
21.0	129.48083610862022	response	2.0	w		40.0	male	white	1.868682849184242	neutral	172	sub-14	1.0	3.0	172_neutral	1.0	trustworthiness	154.14477533233276	
21.0	129.4975192212437	pulse	2.0	t		40.0	male	white	1.868682849184242	neutral	172	sub-14	1.0	3.0	172_neutral	1.0	trustworthiness	154.16145844495622	
21.0	130.19750753953304	pulse	2.0	t		40.0	male	white	1.868682849184242	neutral	172	sub-14	1.0	3.0	172_neutral	1.0	trustworthiness	154.86144676324557	
21.0	130.50571000198943	fix	3.0		444	40.0	male	white	1.868682849184242	neutral	172	sub-14	1.0	3.0	172_neutral	1.0	trustworthiness	155.16964922570196	3.758257414791842
21.0	130.89747382255473	pulse	3.0	t		40.0	male	white	1.868682849184242	neutral	172	sub-14	1.0	3.0	172_neutral	1.0	trustworthiness	155.56141304626726	
21.0	131.59744312410612	pulse	3.0	t		40.0	male	white	1.868682849184242	neutral	172	sub-14	1.0	3.0	172_neutral	1.0	trustworthiness	156.26138234781865	
21.0	132.29744261095584	pulse	3.0	t		40.0	male	white	1.868682849184242	neutral	172	sub-14	1.0	3.0	172_neutral	1.0	trustworthiness	156.96138183466837	
21.0	132.9974384755701	pulse	3.0	t		40.0	male	white	1.868682849184242	neutral	172	sub-14	1.0	3.0	172_neutral	1.0	trustworthiness	157.66137769928264	
21.0	133.69738876038355	pulse	3.0	t		40.0	male	white	1.868682849184242	neutral	172	sub-14	1.0	3.0	172_neutral	1.0	trustworthiness	158.36132798409608	
22.0	134.26396741678127	face	0.0		146	28.0	male	white	3.9076800636689217	smiling	033	sub-14	1.0	3.0	033_smiling	0.0		158.9279066404938	1.241600110598938
22.0	134.39736772123024	pulse	0.0	t		28.0	male	white	3.9076800636689217	smiling	033	sub-14	1.0	3.0	033_smiling	0.0		159.06130694494277	
22.0	135.09735211543102	pulse	0.0	t		28.0	male	white	3.9076800636689217	smiling	033	sub-14	1.0	3.0	033_smiling	0.0		159.76129133914355	
22.0	135.5055675273802	fix	1.0		444	28.0	male	white	3.9076800636689217	smiling	033	sub-14	1.0	3.0	033_smiling	0.0		160.16950675109274	3.758311748329561
22.0	135.7973359059256	pulse	1.0	t		28.0	male	white	3.9076800636689217	smiling	033	sub-14	1.0	3.0	033_smiling	0.0		160.46127512963812	
22.0	136.4973193945675	pulse	1.0	t		28.0	male	white	3.9076800636689217	smiling	033	sub-14	1.0	3.0	033_smiling	0.0		161.16125861828004	
22.0	137.19730952397504	pulse	1.0	t		28.0	male	white	3.9076800636689217	smiling	033	sub-14	1.0	3.0	033_smiling	0.0		161.86124874768757	
22.0	137.89728456073317	pulse	1.0	t		28.0	male	white	3.9076800636689217	smiling	033	sub-14	1.0	3.0	033_smiling	0.0		162.5612237844457	
22.0	138.59727227531675	pulse	1.0	t		28.0	male	white	3.9076800636689217	smiling	033	sub-14	1.0	3.0	033_smiling	0.0		163.2612114990293	
23.0	139.26387927570977	face	0.0		146	24.0	female	east_asian	4.409868682849185	neutral	030	sub-14	1.0	3.0	030_neutral	0.0		163.9278184994223	1.2415539270923546
23.0	139.2972669325186	pulse	0.0	t		24.0	female	east_asian	4.409868682849185	neutral	030	sub-14	1.0	3.0	030_neutral	0.0		163.96120615623113	
23.0	139.9972214432737	pulse	0.0	t		24.0	female	east_asian	4.409868682849185	neutral	030	sub-14	1.0	3.0	030_neutral	0.0		164.66116066698623	
23.0	140.50543320280212	fix	1.0		443	24.0	female	east_asian	4.409868682849185	neutral	030	sub-14	1.0	3.0	030_neutral	0.0		165.16937242651466	3.7583081260936524
23.0	140.69718289664797	pulse	1.0	t		24.0	female	east_asian	4.409868682849185	neutral	030	sub-14	1.0	3.0	030_neutral	0.0		165.3611221203605	
23.0	141.39717845940868	pulse	1.0	t		24.0	female	east_asian	4.409868682849185	neutral	030	sub-14	1.0	3.0	030_neutral	0.0		166.0611176831212	
23.0	142.09715953322666	pulse	1.0	t		24.0	female	east_asian	4.409868682849185	neutral	030	sub-14	1.0	3.0	030_neutral	0.0		166.7610987569392	
23.0	142.79714392742744	pulse	1.0	t		24.0	female	east_asian	4.409868682849185	neutral	030	sub-14	1.0	3.0	030_neutral	0.0		167.46108315113997	
23.0	143.49713224571678	pulse	1.0	t		24.0	female	east_asian	4.409868682849185	neutral	030	sub-14	1.0	3.0	030_neutral	0.0		168.16107146942932	
23.0	144.1971184510353	pulse	1.0	t		24.0	female	east_asian	4.409868682849185	neutral	030	sub-14	1.0	3.0	030_neutral	0.0		168.86105767474783	
24.0	144.26374132889578	face	0.0		147	40.0	female	west_asian	1.5777954635893354	smiling	038	sub-14	1.0	3.0	038_smiling	1.0	attractiveness	168.9276805526083	1.2415602660048535
24.0	144.89710646747199	pulse	0.0	t		40.0	female	west_asian	1.5777954635893354	smiling	038	sub-14	1.0	3.0	038_smiling	1.0	attractiveness	169.56104569118452	
24.0	145.50530159490063	fix	1.0		177	40.0	female	west_asian	1.5777954635893354	smiling	038	sub-14	1.0	3.0	038_smiling	1.0	attractiveness	170.16924081861316	1.5082950709520446
24.0	145.59707818384732	pulse	1.0	t		40.0	female	west_asian	1.5777954635893354	smiling	038	sub-14	1.0	3.0	038_smiling	1.0	attractiveness	170.26101740755985	
24.0	146.29705654098825	pulse	1.0	t		40.0	female	west_asian	1.5777954635893354	smiling	038	sub-14	1.0	3.0	038_smiling	1.0	attractiveness	170.96099576470078	
24.0	146.9970270499516	pulse	1.0	t		40.0	female	west_asian	1.5777954635893354	smiling	038	sub-14	1.0	3.0	038_smiling	1.0	attractiveness	171.66096627366414	
24.0	147.01359666585267	rating	2.0		294	40.0	female	west_asian	1.5777954635893354	smiling	038	sub-14	1.0	3.0	038_smiling	1.0	attractiveness	171.6775358895652	2.4915959601203213
24.0	147.69702351827164	pulse	2.0	t		40.0	female	west_asian	1.5777954635893354	smiling	038	sub-14	1.0	3.0	038_smiling	1.0	attractiveness	172.36096274198417	
24.0	148.3970006680006	pulse	2.0	t		40.0	female	west_asian	1.5777954635893354	smiling	038	sub-14	1.0	3.0	038_smiling	1.0	attractiveness	173.06093989171313	
24.0	148.66670480076073	response	2.0	n		40.0	female	west_asian	1.5777954635893354	smiling	038	sub-14	1.0	3.0	038_smiling	1.0	attractiveness	173.33064402447326	
24.0	149.09698506220138	pulse	2.0	t		40.0	female	west_asian	1.5777954635893354	smiling	038	sub-14	1.0	3.0	038_smiling	1.0	attractiveness	173.76092428591392	
24.0	149.505192625973	fix	3.0		444	40.0	female	west_asian	1.5777954635893354	smiling	038	sub-14	1.0	3.0	038_smiling	1.0	attractiveness	174.16913184968553	3.766564710790135
24.0	149.79697579531467	pulse	3.0	t		40.0	female	west_asian	1.5777954635893354	smiling	038	sub-14	1.0	3.0	038_smiling	1.0	attractiveness	174.4609150190272	
24.0	150.49693724868848	pulse	3.0	t		40.0	female	west_asian	1.5777954635893354	smiling	038	sub-14	1.0	3.0	038_smiling	1.0	attractiveness	175.16087647240101	
24.0	151.19691651138874	pulse	3.0	t		40.0	female	west_asian	1.5777954635893354	smiling	038	sub-14	1.0	3.0	038_smiling	1.0	attractiveness	175.86085573510127	
24.0	151.89690150929528	pulse	3.0	t		40.0	female	west_asian	1.5777954635893354	smiling	038	sub-14	1.0	3.0	038_smiling	1.0	attractiveness	176.5608407330078	
24.0	152.59689556279136	pulse	3.0	t		40.0	female	west_asian	1.5777954635893354	smiling	038	sub-14	1.0	3.0	038_smiling	1.0	attractiveness	177.2608347865039	
25.0	153.27175733676313	face	0.0		145	31.0	female	west_asian	2.364902506963788	smiling	006	sub-14	1.0	3.0	006_smiling	1.0	dominance	177.93569656047566	1.2333036813088256
25.0	153.2968872014635	pulse	0.0	t		31.0	female	west_asian	2.364902506963788	smiling	006	sub-14	1.0	3.0	006_smiling	1.0	dominance	177.96082642517604	
25.0	153.99686072895702	pulse	0.0	t		31.0	female	west_asian	2.364902506963788	smiling	006	sub-14	1.0	3.0	006_smiling	1.0	dominance	178.66079995266955	
25.0	154.50506101807196	fix	1.0		177	31.0	female	west_asian	2.364902506963788	smiling	006	sub-14	1.0	3.0	006_smiling	1.0	dominance	179.1690002417845	1.4999720785986028
25.0	154.69685266948227	pulse	1.0	t		31.0	female	west_asian	2.364902506963788	smiling	006	sub-14	1.0	3.0	006_smiling	1.0	dominance	179.3607918931948	
25.0	155.3968207636217	pulse	1.0	t		31.0	female	west_asian	2.364902506963788	smiling	006	sub-14	1.0	3.0	006_smiling	1.0	dominance	180.06075998733422	
25.0	156.00503309667056	rating	2.0		294	31.0	female	west_asian	2.364902506963788	smiling	006	sub-14	1.0	3.0	006_smiling	1.0	dominance	180.6689723203831	2.499931630298761
25.0	156.09680123373346	pulse	2.0	t		31.0	female	west_asian	2.364902506963788	smiling	006	sub-14	1.0	3.0	006_smiling	1.0	dominance	180.760740457446	
25.0	156.7967801945806	pulse	2.0	t		31.0	female	west_asian	2.364902506963788	smiling	006	sub-14	1.0	3.0	006_smiling	1.0	dominance	181.46071941829314	
25.0	157.4967709276939	pulse	2.0	t		31.0	female	west_asian	2.364902506963788	smiling	006	sub-14	1.0	3.0	006_smiling	1.0	dominance	182.16071015140642	
25.0	157.8050853776076	response	2.0	n		31.0	female	west_asian	2.364902506963788	smiling	006	sub-14	1.0	3.0	006_smiling	1.0	dominance	182.46902460132014	
25.0	158.19673389033278	pulse	2.0	t		31.0	female	west_asian	2.364902506963788	smiling	006	sub-14	1.0	3.0	006_smiling	1.0	dominance	182.8606731140453	
25.0	158.50496472696932	fix	3.0		444	31.0	female	west_asian	2.364902506963788	smiling	006	sub-14	1.0	3.0	006_smiling	1.0	dominance	183.16890395068185	3.75831023906494
25.0	158.8967237178872	pulse	3.0	t		31.0	female	west_asian	2.364902506963788	smiling	006	sub-14	1.0	3.0	006_smiling	1.0	dominance	183.56066294159973	
25.0	159.59669875464533	pulse	3.0	t		31.0	female	west_asian	2.364902506963788	smiling	006	sub-14	1.0	3.0	006_smiling	1.0	dominance	184.26063797835786	
25.0	160.2966943174065	pulse	3.0	t		31.0	female	west_asian	2.364902506963788	smiling	006	sub-14	1.0	3.0	006_smiling	1.0	dominance	184.96063354111902	
25.0	160.99668203199008	pulse	3.0	t		31.0	female	west_asian	2.364902506963788	smiling	006	sub-14	1.0	3.0	006_smiling	1.0	dominance	185.6606212557026	
25.0	161.69665555948313	pulse	3.0	t		31.0	female	west_asian	2.364902506963788	smiling	006	sub-14	1.0	3.0	006_smiling	1.0	dominance	186.36059478319567	
26.0	162.26327496603426	face	0.0		146	26.0	male	white	2.7966573816155993	smiling	117	sub-14	1.0	3.0	117_smiling	0.0		186.9272141897468	1.2415466826205375
26.0	162.39662063509286	pulse	0.0	t		26.0	male	white	2.7966573816155993	smiling	117	sub-14	1.0	3.0	117_smiling	0.0		187.0605598588054	
26.0	163.09658571070258	pulse	0.0	t		26.0	male	white	2.7966573816155993	smiling	117	sub-14	1.0	3.0	117_smiling	0.0		187.76052493441512	
26.0	163.5048216486548	fix	1.0		444	26.0	male	white	2.7966573816155993	smiling	117	sub-14	1.0	3.0	117_smiling	0.0		188.16876087236733	3.766552938523546
26.0	163.79657644381587	pulse	1.0	t		26.0	male	white	2.7966573816155993	smiling	117	sub-14	1.0	3.0	117_smiling	0.0		188.4605156675284	
26.0	164.49659373999157	pulse	1.0	t		26.0	male	white	2.7966573816155993	smiling	117	sub-14	1.0	3.0	117_smiling	0.0		189.1605329637041	
26.0	165.1965506655706	pulse	1.0	t		26.0	male	white	2.7966573816155993	smiling	117	sub-14	1.0	3.0	117_smiling	0.0		189.86048988928314	
26.0	165.8965317393886	pulse	1.0	t		26.0	male	white	2.7966573816155993	smiling	117	sub-14	1.0	3.0	117_smiling	0.0		190.56047096310112	
26.0	166.59652277435498	pulse	1.0	t		26.0	male	white	2.7966573816155993	smiling	117	sub-14	1.0	3.0	117_smiling	0.0		191.2604619980675	
27.0	167.27137458717834	face	0.0		145	22.0	male	black	2.767608436132113	neutral	044	sub-14	1.0	3.0	044_neutral	0.0		191.93531381089088	1.2333148498687478
27.0	167.29655516318053	pulse	0.0	t		22.0	male	black	2.767608436132113	neutral	044	sub-14	1.0	3.0	044_neutral	0.0		191.96049438689306	
27.0	167.99647948863685	pulse	0.0	t		22.0	male	black	2.767608436132113	neutral	044	sub-14	1.0	3.0	044_neutral	0.0		192.66041871234938	
27.0	168.5046894370471	fix	1.0		443	22.0	male	black	2.767608436132113	neutral	044	sub-14	1.0	3.0	044_neutral	0.0		193.16862866075962	3.7582290406116954
27.0	168.6964735421334	pulse	1.0	t		22.0	male	black	2.767608436132113	neutral	044	sub-14	1.0	3.0	044_neutral	0.0		193.36041276584592	
27.0	169.39646427524667	pulse	1.0	t		22.0	male	black	2.767608436132113	neutral	044	sub-14	1.0	3.0	044_neutral	0.0		194.0604034989592	
27.0	170.09643176567988	pulse	1.0	t		22.0	male	black	2.767608436132113	neutral	044	sub-14	1.0	3.0	044_neutral	0.0		194.7603709893924	
27.0	170.79641434876294	pulse	1.0	t		22.0	male	black	2.767608436132113	neutral	044	sub-14	1.0	3.0	044_neutral	0.0		195.46035357247547	
27.0	171.49639723369864	pulse	1.0	t		22.0	male	black	2.767608436132113	neutral	044	sub-14	1.0	3.0	044_neutral	0.0		196.16033645741118	
27.0	172.19636955377973	pulse	1.0	t		22.0	male	black	2.767608436132113	neutral	044	sub-14	1.0	3.0	044_neutral	0.0		196.86030877749226	
28.0	172.2629184776588	face	0.0		147	31.0	male	west_asian	1.9538400318344609	neutral	070	sub-14	1.0	3.0	070_neutral	0.0		196.92685770137132	1.2416393514872652
28.0	172.89636330542317	pulse	0.0	t		31.0	male	west_asian	1.9538400318344609	neutral	070	sub-14	1.0	3.0	070_neutral	0.0		197.5603025291357	
28.0	173.50455782914605	fix	1.0		443	31.0	male	west_asian	1.9538400318344609	neutral	070	sub-14	1.0	3.0	070_neutral	0.0		198.16849705285858	3.7665499199938495
28.0	173.59633622921046	pulse	1.0	t		31.0	male	west_asian	1.9538400318344609	neutral	070	sub-14	1.0	3.0	070_neutral	0.0		198.260275452923	
28.0	174.29633752717837	pulse	1.0	t		31.0	male	west_asian	1.9538400318344609	neutral	070	sub-14	1.0	3.0	070_neutral	0.0		198.9602767508909	
28.0	174.99632675102657	pulse	1.0	t		31.0	male	west_asian	1.9538400318344609	neutral	070	sub-14	1.0	3.0	070_neutral	0.0		199.6602659747391	
28.0	175.6962700932213	pulse	1.0	t		31.0	male	west_asian	1.9538400318344609	neutral	070	sub-14	1.0	3.0	070_neutral	0.0		200.36020931693383	
28.0	176.39625177074504	pulse	1.0	t		31.0	male	west_asian	1.9538400318344609	neutral	070	sub-14	1.0	3.0	070_neutral	0.0		201.06019099445757	
28.0	177.0962256000912	pulse	1.0	t		31.0	male	west_asian	1.9538400318344609	neutral	070	sub-14	1.0	3.0	070_neutral	0.0		201.76016482380373	
29.0	177.2711077491399	face	0.0		146	40.0	male	black	2.408674890569041	smiling	061	sub-14	1.0	3.0	061_smiling	0.0		201.93504697285243	1.24164055889878
29.0	177.79622448323516	pulse	0.0	t		40.0	male	black	2.408674890569041	smiling	061	sub-14	1.0	3.0	061_smiling	0.0		202.4601637069477	
29.0	178.49619831258133	pulse	0.0	t		40.0	male	black	2.408674890569041	smiling	061	sub-14	1.0	3.0	061_smiling	0.0		203.16013753629386	
29.0	178.51274830803868	fix	1.0		443	40.0	male	black	2.408674890569041	smiling	061	sub-14	1.0	3.0	061_smiling	0.0		203.1766875317512	3.749995396742179
29.0	179.1961842160472	pulse	1.0	t		40.0	male	black	2.408674890569041	smiling	061	sub-14	1.0	3.0	061_smiling	0.0		203.86012343975972	
29.0	179.89615925280532	pulse	1.0	t		40.0	male	black	2.408674890569041	smiling	061	sub-14	1.0	3.0	061_smiling	0.0		204.56009847651785	
29.0	180.59615149518368	pulse	1.0	t		40.0	male	black	2.408674890569041	smiling	061	sub-14	1.0	3.0	061_smiling	0.0		205.2600907188962	
29.0	181.29613015417772	pulse	1.0	t		40.0	male	black	2.408674890569041	smiling	061	sub-14	1.0	3.0	061_smiling	0.0		205.96006937789025	
29.0	181.99612269840873	pulse	1.0	t		40.0	male	black	2.408674890569041	smiling	061	sub-14	1.0	3.0	061_smiling	0.0		206.66006192212126	
30.0	182.26274370478086	face	0.0		146	31.0	female	west_asian	2.364902506963788	neutral	006	sub-14	1.0	3.0	006_neutral	0.0		206.9266829284934	1.2415551345038693
30.0	182.6960998481377	pulse	0.0	t		31.0	female	west_asian	2.364902506963788	neutral	006	sub-14	1.0	3.0	006_neutral	0.0		207.36003907185022	
30.0	183.3960664330125	pulse	0.0	t		31.0	female	west_asian	2.364902506963788	neutral	006	sub-14	1.0	3.0	006_neutral	0.0		208.06000565672502	
30.0	183.50429883928473	fix	1.0		444	31.0	female	west_asian	2.364902506963788	neutral	006	sub-14	1.0	3.0	006_neutral	0.0		208.16823806299726	3.758245944378814
30.0	184.09608825698342	pulse	1.0	t		31.0	female	west_asian	2.364902506963788	neutral	006	sub-14	1.0	3.0	006_neutral	0.0		208.76002748069595	
30.0	184.7960500122099	pulse	1.0	t		31.0	female	west_asian	2.364902506963788	neutral	006	sub-14	1.0	3.0	006_neutral	0.0		209.45998923592242	
30.0	185.49601508781961	pulse	1.0	t		31.0	female	west_asian	2.364902506963788	neutral	006	sub-14	1.0	3.0	006_neutral	0.0		210.15995431153215	
30.0	186.19599344496055	pulse	1.0	t		31.0	female	west_asian	2.364902506963788	neutral	006	sub-14	1.0	3.0	006_neutral	0.0		210.85993266867308	
30.0	186.89597150024883	pulse	1.0	t		31.0	female	west_asian	2.364902506963788	neutral	006	sub-14	1.0	3.0	006_neutral	0.0		211.55991072396137	
31.0	187.26254478366354	face	0.0		146	27.0	female	white	4.181058495821727	neutral	039	sub-14	1.0	3.0	039_neutral	0.0		211.92648400737608	1.2416254662498432
31.0	187.59597219451052	pulse	0.0	t		27.0	female	white	4.181058495821727	neutral	039	sub-14	1.0	3.0	039_neutral	0.0		212.25991141822306	
31.0	188.2959568905644	pulse	0.0	t		27.0	female	white	4.181058495821727	neutral	039	sub-14	1.0	3.0	039_neutral	0.0		212.95989611427694	
31.0	188.5041702499134	fix	1.0		444	27.0	female	white	4.181058495821727	neutral	039	sub-14	1.0	3.0	039_neutral	0.0		213.16810947362592	3.766550825552713
31.0	188.99592166432103	pulse	1.0	t		27.0	female	white	4.181058495821727	neutral	039	sub-14	1.0	3.0	039_neutral	0.0		213.65986088803356	
31.0	189.69591451040515	pulse	1.0	t		27.0	female	white	4.181058495821727	neutral	039	sub-14	1.0	3.0	039_neutral	0.0		214.35985373411768	
31.0	190.39588743419245	pulse	1.0	t		27.0	female	white	4.181058495821727	neutral	039	sub-14	1.0	3.0	039_neutral	0.0		215.05982665790498	
31.0	191.09585854686156	pulse	1.0	t		27.0	female	white	4.181058495821727	neutral	039	sub-14	1.0	3.0	039_neutral	0.0		215.7597977705741	
31.0	191.79585984482947	pulse	1.0	t		27.0	female	white	4.181058495821727	neutral	039	sub-14	1.0	3.0	039_neutral	0.0		216.459799068542	
32.0	192.2707210754661	face	0.0		145	19.0	male	white	3.2522881018702745	smiling	018	sub-14	1.0	3.0	018_smiling	0.0		216.93466029917863	1.2333030776026135
32.0	192.49583910752926	pulse	0.0	t		19.0	male	white	3.2522881018702745	smiling	018	sub-14	1.0	3.0	018_smiling	0.0		217.1597783312418	
32.0	193.19580297572702	pulse	0.0	t		19.0	male	white	3.2522881018702745	smiling	018	sub-14	1.0	3.0	018_smiling	0.0		217.85974219943955	
32.0	193.5040241530687	fix	1.0		444	19.0	male	white	3.2522881018702745	smiling	018	sub-14	1.0	3.0	018_smiling	0.0		218.16796337678124	3.766570747849528
32.0	193.89580004775326	pulse	1.0	t		19.0	male	white	3.2522881018702745	smiling	018	sub-14	1.0	3.0	018_smiling	0.0		218.5597392714658	
32.0	194.59591755912015	pulse	1.0	t		19.0	male	white	3.2522881018702745	smiling	018	sub-14	1.0	3.0	018_smiling	0.0		219.25985678283268	
32.0	195.2958500346076	pulse	1.0	t		19.0	male	white	3.2522881018702745	smiling	018	sub-14	1.0	3.0	018_smiling	0.0		219.95978925832014	
32.0	195.99574206179477	pulse	1.0	t		19.0	male	white	3.2522881018702745	smiling	018	sub-14	1.0	3.0	018_smiling	0.0		220.6596812855073	
32.0	196.69571438187631	pulse	1.0	t		19.0	male	white	3.2522881018702745	smiling	018	sub-14	1.0	3.0	018_smiling	0.0		221.35965360558885	
33.0	197.27059490091824	face	0.0		145	27.0	female	white	4.181058495821727	smiling	039	sub-14	1.0	3.0	039_smiling	0.0		221.93453412463077	1.233309114662461
33.0	197.39569122975217	pulse	0.0	t		27.0	female	white	4.181058495821727	smiling	039	sub-14	1.0	3.0	039_smiling	0.0		222.0596304534647	
33.0	198.09566505909834	pulse	0.0	t		27.0	female	white	4.181058495821727	smiling	039	sub-14	1.0	3.0	039_smiling	0.0		222.75960428281087	
33.0	198.5039040155807	fix	1.0		444	27.0	female	white	4.181058495821727	smiling	039	sub-14	1.0	3.0	039_smiling	0.0		223.16784323929323	3.766550523699607
33.0	198.7956772237735	pulse	1.0	t		27.0	female	white	4.181058495821727	smiling	039	sub-14	1.0	3.0	039_smiling	0.0		223.45961644748604	
33.0	199.4956401864124	pulse	1.0	t		27.0	female	white	4.181058495821727	smiling	039	sub-14	1.0	3.0	039_smiling	0.0		224.15957941012493	
33.0	200.19563695658553	pulse	1.0	t		27.0	female	white	4.181058495821727	smiling	039	sub-14	1.0	3.0	039_smiling	0.0		224.85957618029806	
33.0	200.89562316190404	pulse	1.0	t		27.0	female	white	4.181058495821727	smiling	039	sub-14	1.0	3.0	039_smiling	0.0		225.55956238561657	
33.0	201.59563170434376	pulse	1.0	t		27.0	female	white	4.181058495821727	smiling	039	sub-14	1.0	3.0	039_smiling	0.0		226.2595709280563	
34.0	202.2704545392803	face	0.0		145	31.0	female	east_asian	3.395941106247513	neutral	087	sub-14	1.0	3.0	087_neutral	0.0		226.93439376299284	1.2332937201599634
34.0	202.2956130800144	pulse	0.0	t		31.0	female	east_asian	3.395941106247513	neutral	087	sub-14	1.0	3.0	087_neutral	0.0		226.95955230372692	
34.0	202.99555883703306	pulse	0.0	t		31.0	female	east_asian	3.395941106247513	neutral	087	sub-14	1.0	3.0	087_neutral	0.0		227.6594980607456	
34.0	203.50374825944027	fix	1.0		443	31.0	female	east_asian	3.395941106247513	neutral	087	sub-14	1.0	3.0	087_neutral	0.0		228.1676874831528	3.758241114730936
34.0	203.69554474049846	pulse	1.0	t		31.0	female	east_asian	3.395941106247513	neutral	087	sub-14	1.0	3.0	087_neutral	0.0		228.359483964211	
34.0	204.39550921240243	pulse	1.0	t		31.0	female	east_asian	3.395941106247513	neutral	087	sub-14	1.0	3.0	087_neutral	0.0		229.05944843611496	
34.0	205.09550115292768	pulse	1.0	t		31.0	female	east_asian	3.395941106247513	neutral	087	sub-14	1.0	3.0	087_neutral	0.0		229.7594403766402	
34.0	205.79548343415718	pulse	1.0	t		31.0	female	east_asian	3.395941106247513	neutral	087	sub-14	1.0	3.0	087_neutral	0.0		230.4594226578697	
34.0	206.49546782835796	pulse	1.0	t		31.0	female	east_asian	3.395941106247513	neutral	087	sub-14	1.0	3.0	087_neutral	0.0		231.1594070520705	
34.0	207.19542897987867	pulse	1.0	t		31.0	female	east_asian	3.395941106247513	neutral	087	sub-14	1.0	3.0	087_neutral	0.0		231.8593682035912	
35.0	207.2619893741712	face	0.0		147	20.0	male	black	3.1070433744528456	smiling	082	sub-14	1.0	3.0	082_smiling	0.0		231.92592859788374	1.2416381440752957
35.0	207.89543088155278	pulse	0.0	t		20.0	male	black	3.1070433744528456	smiling	082	sub-14	1.0	3.0	082_smiling	0.0		232.55937010526532	
35.0	208.5036275182465	fix	1.0		443	20.0	male	black	3.1070433744528456	smiling	082	sub-14	1.0	3.0	082_smiling	0.0		233.16756674195904	3.7582341721122248
35.0	208.59542161466607	pulse	1.0	t		20.0	male	black	3.1070433744528456	smiling	082	sub-14	1.0	3.0	082_smiling	0.0		233.2593608383786	
35.0	209.2953900106586	pulse	1.0	t		20.0	male	black	3.1070433744528456	smiling	082	sub-14	1.0	3.0	082_smiling	0.0		233.95932923437113	
35.0	209.99537440485938	pulse	1.0	t		20.0	male	black	3.1070433744528456	smiling	082	sub-14	1.0	3.0	082_smiling	0.0		234.6593136285719	
35.0	210.69536272314872	pulse	1.0	t		20.0	male	black	3.1070433744528456	smiling	082	sub-14	1.0	3.0	082_smiling	0.0		235.35930194686125	
35.0	211.3953350432298	pulse	1.0	t		20.0	male	black	3.1070433744528456	smiling	082	sub-14	1.0	3.0	082_smiling	0.0		236.05927426694234	
35.0	212.09531068369415	pulse	1.0	t		20.0	male	black	3.1070433744528456	smiling	082	sub-14	1.0	3.0	082_smiling	0.0		236.75924990740668	
36.0	212.26186169035873	face	0.0		147	31.0	male	west_asian	1.9538400318344609	smiling	070	sub-14	1.0	3.0	070_smiling	0.0		236.92580091407126	1.2499786439011586
36.0	212.7953029260725	pulse	0.0	t		31.0	male	west_asian	1.9538400318344609	smiling	070	sub-14	1.0	3.0	070_smiling	0.0		237.45924214978504	
36.0	213.49528098136034	pulse	0.0	t		31.0	male	west_asian	1.9538400318344609	smiling	070	sub-14	1.0	3.0	070_smiling	0.0		238.15922020507287	
36.0	213.5118403342599	fix	1.0		443	31.0	male	west_asian	1.9538400318344609	smiling	070	sub-14	1.0	3.0	070_smiling	0.0		238.17577955797242	3.758214551668516
36.0	214.1952665829731	pulse	1.0	t		31.0	male	west_asian	1.9538400318344609	smiling	070	sub-14	1.0	3.0	070_smiling	0.0		238.85920580668562	
36.0	214.89522652708183	pulse	1.0	t		31.0	male	west_asian	1.9538400318344609	smiling	070	sub-14	1.0	3.0	070_smiling	0.0		239.55916575079436	
36.0	215.59521152498837	pulse	1.0	t		31.0	male	west_asian	1.9538400318344609	smiling	070	sub-14	1.0	3.0	070_smiling	0.0		240.2591507487009	
36.0	216.29518897657044	pulse	1.0	t		31.0	male	west_asian	1.9538400318344609	smiling	070	sub-14	1.0	3.0	070_smiling	0.0		240.95912820028298	
36.0	216.995181822655	pulse	1.0	t		31.0	male	west_asian	1.9538400318344609	smiling	070	sub-14	1.0	3.0	070_smiling	0.0		241.65912104636755	
37.0	217.2700548859284	face	0.0		145	47.0	male	east_asian	2.171110226820533	neutral	024	sub-14	1.0	3.0	024_neutral	0.0		241.93399410964093	1.2333193776635198
37.0	217.69517195206208	pulse	0.0	t		47.0	male	east_asian	2.171110226820533	neutral	024	sub-14	1.0	3.0	024_neutral	0.0		242.35911117577461	
37.0	218.39514064990772	pulse	0.0	t		47.0	male	east_asian	2.171110226820533	neutral	024	sub-14	1.0	3.0	024_neutral	0.0		243.05907987362025	
37.0	218.50337426359192	fix	1.0		444	47.0	male	east_asian	2.171110226820533	neutral	024	sub-14	1.0	3.0	024_neutral	0.0		243.16731348730445	3.7583579318361444
37.0	219.0951431552876	pulse	1.0	t		47.0	male	east_asian	2.171110226820533	neutral	024	sub-14	1.0	3.0	024_neutral	0.0		243.75908237900012	
37.0	219.79511577722178	pulse	1.0	t		47.0	male	east_asian	2.171110226820533	neutral	024	sub-14	1.0	3.0	024_neutral	0.0		244.4590550009343	
37.0	220.4950953417747	pulse	1.0	t		47.0	male	east_asian	2.171110226820533	neutral	024	sub-14	1.0	3.0	024_neutral	0.0		245.15903456548722	
37.0	221.19507369891562	pulse	1.0	t		47.0	male	east_asian	2.171110226820533	neutral	024	sub-14	1.0	3.0	024_neutral	0.0		245.85901292262815	
37.0	221.89505899867527	pulse	1.0	t		47.0	male	east_asian	2.171110226820533	neutral	024	sub-14	1.0	3.0	024_neutral	0.0		246.5589982223878	
38.0	222.26173219542807	face	0.0		146	21.0	male	black	2.969757262236371	smiling	137	sub-14	1.0	3.0	137_smiling	0.0		246.9256714191406	1.2415056306149381
38.0	222.5950756911452	pulse	0.0	t		21.0	male	black	2.969757262236371	smiling	137	sub-14	1.0	3.0	137_smiling	0.0		247.25901491485774	
38.0	223.2950135999863	pulse	0.0	t		21.0	male	black	2.969757262236371	smiling	137	sub-14	1.0	3.0	137_smiling	0.0		247.95895282369884	
38.0	223.503237826043	fix	1.0		444	21.0	male	black	2.969757262236371	smiling	137	sub-14	1.0	3.0	137_smiling	0.0		248.16717704975554	3.7665559570532423
38.0	223.9950366313692	pulse	1.0	t		21.0	male	black	2.969757262236371	smiling	137	sub-14	1.0	3.0	137_smiling	0.0		248.65897585508174	
38.0	224.6949811809759	pulse	1.0	t		21.0	male	black	2.969757262236371	smiling	137	sub-14	1.0	3.0	137_smiling	0.0		249.35892040468843	
38.0	225.39497281964805	pulse	1.0	t		21.0	male	black	2.969757262236371	smiling	137	sub-14	1.0	3.0	137_smiling	0.0		250.05891204336058	
38.0	226.0949463471411	pulse	1.0	t		21.0	male	black	2.969757262236371	smiling	137	sub-14	1.0	3.0	137_smiling	0.0		250.75888557085364	
38.0	226.79492681725333	pulse	1.0	t		21.0	male	black	2.969757262236371	smiling	137	sub-14	1.0	3.0	137_smiling	0.0		251.45886604096586	
39.0	227.26979378309625	face	0.0		145	22.0	female	west_asian	3.8205332272184642	smiling	066	sub-14	1.0	3.0	066_smiling	0.0		251.93373300680878	1.233306699838522
39.0	227.49491181515987	pulse	0.0	t		22.0	female	west_asian	3.8205332272184642	smiling	066	sub-14	1.0	3.0	066_smiling	0.0		252.1588510388724	
39.0	228.19488775747686	pulse	0.0	t		22.0	female	west_asian	3.8205332272184642	smiling	066	sub-14	1.0	3.0	066_smiling	0.0		252.8588269811894	
39.0	228.50310048293477	fix	1.0		444	22.0	female	west_asian	3.8205332272184642	smiling	066	sub-14	1.0	3.0	066_smiling	0.0		253.1670397066473	3.7499111797592377
39.0	228.8948763776193	pulse	1.0	t		22.0	female	west_asian	3.8205332272184642	smiling	066	sub-14	1.0	3.0	066_smiling	0.0		253.55881560133184	
39.0	229.59485322549563	pulse	1.0	t		22.0	female	west_asian	3.8205332272184642	smiling	066	sub-14	1.0	3.0	066_smiling	0.0		254.25879244920816	
39.0	230.29483611043133	pulse	1.0	t		22.0	female	west_asian	3.8205332272184642	smiling	066	sub-14	1.0	3.0	066_smiling	0.0		254.95877533414387	
39.0	230.99480812865932	pulse	1.0	t		22.0	female	west_asian	3.8205332272184642	smiling	066	sub-14	1.0	3.0	066_smiling	0.0		255.65874735237185	
39.0	231.69478467468252	pulse	1.0	t		22.0	female	west_asian	3.8205332272184642	smiling	066	sub-14	1.0	3.0	066_smiling	0.0		256.35872389839506	
40.0	232.253011662694	fix	0.0		720													256.91695088640654	5.999822510444574
40.0	232.39476091885263	pulse	0.0	t														257.05870014256516	
40.0	233.0947598019966	pulse	0.0	t														257.7586990257091	
40.0	233.79474087581457	pulse	0.0	t														258.4586800995271	
40.0	234.49473462745755	pulse	0.0	t														259.1586738511701	
40.0	235.19470906050992	pulse	0.0	t														259.85864828422245	
40.0	235.89468590838578	pulse	0.0	t														260.5586251320983	
40.0	236.5946543043783	pulse	0.0	t														261.25859352809084	
40.0	237.29463145410728	pulse	0.0	t														261.9585706778198	
40.0	237.99461886683775	pulse	0.0	t														262.6585580905503	
