trial_nr	onset	event_type	phase	response	nr_frames	rating_type	face_id	repetition	session	rating	onset_abs	duration
0.0	0.008277789365820354	cue	0.0		479						26.389052477918085	3.992111000799923
0.0	4.000388790165744	fix	1.0		120						30.38116347871801	1.025147298043521
0.0	5.025536088209265	face	0.0		146	dominance	005	1.0	2		31.40631077676153	1.275381160762663
0.0	6.300917248971928	rating	1.0		97	dominance	005	1.0	2		32.68169193752419	0.8165022106395554
0.0	7.117419459611483	fix	2.0		59	dominance	005	1.0	2	-1.5699999999999998	33.49819414816375	0.5167449931950614
1.0	7.634164452806544	face	0.0		147	dominance	091	1.0	2		34.01493914135881	1.2334672868391863
1.0	8.86763173964573	rating	1.0		123	dominance	091	1.0	2		35.248406428197995	1.033443802464717
1.0	9.901075542110448	fix	2.0		60	dominance	091	1.0	2	-0.6499999999999999	36.28185023066271	0.5167609915479261
2.0	10.417836533658374	face	0.0		147	dominance	006	1.0	2		36.79861122221064	1.2334431383815172
2.0	11.651279672039891	rating	1.0		240	dominance	006	1.0	2		38.032054360592156	2.0085730042583236
2.0	13.659852676298215	fix	2.0		60	dominance	006	1.0	2	1.3099999999999996	40.04062736485048	0.5167510303090239
3.0	14.176603706607239	face	0.0		147	dominance	024	1.0	2		40.5573783951595	1.2334579293119532
3.0	15.410061635919192	rating	1.0		181	dominance	024	1.0	2		41.79083632447146	1.5168452092930238
3.0	16.926906845212216	fix	2.0		60	dominance	024	1.0	2	3.04	43.30768153376448	0.5084792780580756
4.0	17.43538612327029	face	0.0		148	dominance	039	1.0	2		43.816160811822556	1.241718211045736
4.0	18.677104334316027	rating	1.0		53	dominance	039	1.0	2		45.05787902286829	0.4500532926267624
4.0	19.12715762694279	fix	2.0		60	dominance	039	1.0	2	-0.7200000000000002	45.507932315495054	0.5084198124814066
5.0	19.635577439424196	face	0.0		148	dominance	012	1.0	2		46.01635212797646	1.2417909582745779
5.0	20.877368397698774	rating	1.0		83	dominance	012	1.0	2		47.25814308625104	0.7000843083023938
5.0	21.577452706001168	fix	2.0		60	dominance	012	1.0	2	1.8600000000000003	47.95822739455343	0.5168083828948511
6.0	22.09426108889602	face	0.0		147	dominance	009	1.0	2		48.475035777448284	1.233395143322923
6.0	23.327656232218942	rating	1.0		57	dominance	009	1.0	2		49.70843092077121	0.48338691775461484
6.0	23.811043149973557	fix	2.0		60	dominance	009	1.0	2	0.5999999999999996	50.19181783852582	0.5167576711346555
7.0	24.327800821108212	face	0.0		147	dominance	062	1.0	2		50.70857550966048	1.2334485717847201
7.0	25.561249392892933	rating	1.0		415	dominance	062	1.0	2		51.9420240814452	3.467070710607004
7.0	29.028320103499937	fix	2.0		60	dominance	062	1.0	2	0.8499999999999996	55.4090947920522	0.516754652578129
8.0	29.545074756078066	face	0.0		147	dominance	044	1.0	2		55.92584944463033	1.2334476662172165
8.0	30.778522422295282	rating	1.0		49	dominance	044	1.0	2		57.15929711084755	0.41672238420142094
8.0	31.195244806496703	fix	2.0		60	dominance	044	1.0	2	0.21999999999999975	57.57601949504897	0.5167588785579937
9.0	31.712003685054697	face	0.0		147	dominance	087	1.0	2		58.09277837360696	1.233439214257487
9.0	32.945442899312184	rating	1.0		56	dominance	087	1.0	2		59.32621758786445	0.4750783391054938
9.0	33.42052123841768	fix	2.0		60	dominance	087	1.0	2	1.38	59.80129592696994	0.516742578348385
10.0	33.93726381676606	face	0.0		147	dominance	124	1.0	2		60.31803850531833	1.233445251372359
10.0	35.17070906813842	rating	1.0		205	dominance	124	1.0	2		61.551483756690686	1.716859939851929
10.0	36.88756900799035	fix	2.0		60	dominance	124	1.0	2	1.04	63.268343696542615	0.5167612934037606
11.0	37.40433030139411	face	0.0		147	dominance	033	1.0	2		63.785104989946376	1.2334537033320885
11.0	38.6377840047262	rating	1.0		435	dominance	033	1.0	2		65.01855869327846	3.633756042018831
11.0	42.27154004674503	fix	2.0		60	dominance	033	1.0	2	2.0	68.6523147352973	0.5167519358765276
12.0	42.78829198262156	face	0.0		147	dominance	042	1.0	2		69.16906667117382	1.233457023745359
12.0	44.02174900636692	rating	1.0		93	dominance	042	1.0	2		70.40252369491918	0.7834598762810856
12.0	44.805208882648	fix	2.0		60	dominance	042	1.0	2	1.3099999999999996	71.18598357120027	0.51671873174746
13.0	45.32192761439546	face	0.0		147	dominance	099	1.0	2		71.70270230294773	1.2334494773513143
13.0	46.55537709174678	rating	1.0		95	dominance	099	1.0	2		72.93615178029904	0.800084579972463
13.0	47.35546167171924	fix	2.0		60	dominance	099	1.0	2	0.7199999999999998	73.7362363602715	0.5167615952595952
14.0	47.872223266978835	face	0.0		147	dominance	141	1.0	2		74.2529979555311	1.233453703331179
14.0	49.105676970310014	rating	1.0		65	dominance	141	1.0	2		75.48645165886228	0.5500556772876735
14.0	49.65573264759769	fix	2.0		60	dominance	141	1.0	2	-1.3599999999999999	76.03650733614995	0.5167495210307607
15.0	50.17248216862845	face	0.0		147	dominance	144	1.0	2		76.55325685718071	1.233462155291818
15.0	51.40594432392027	rating	1.0		65	dominance	144	1.0	2		77.78671901247253	0.5500650348149065
15.0	51.95600935873517	fix	2.0		60	dominance	144	1.0	2	-0.6000000000000001	78.33678404728744	0.5167525395872872
16.0	52.47276189832246	face	0.0		147	dominance	066	1.0	2		78.85353658687472	1.2334537033320885
16.0	53.70621560165455	rating	1.0		56	dominance	066	1.0	2		80.08699029020681	0.47506445374165196
16.0	54.1812800553962	fix	2.0		60	dominance	066	1.0	2	1.2699999999999996	80.56205474394847	0.5167492191749261
17.0	54.69802927457113	face	0.0		147	dominance	117	1.0	2		81.07880396312339	1.2334491754963892
17.0	55.931478450067516	rating	1.0		51	dominance	117	1.0	2		82.31225313861978	0.43338180130012915
17.0	56.364860251367645	fix	2.0		60	dominance	117	1.0	2	0.2599999999999998	82.74563493991991	0.5167516340197835
18.0	56.88161188538743	face	0.0		147	dominance	043	1.0	2		83.2623865739397	1.2334784555014267
18.0	58.115090340888855	rating	1.0		78	dominance	043	1.0	2		84.49586502944112	0.6583820352379917
18.0	58.77347237612685	fix	2.0		60	dominance	043	1.0	2	0.3600000000000003	85.15424706467911	0.5167769899007908
19.0	59.29024936602764	face	0.0		147	dominance	092	1.0	2		85.6710240545799	1.2334271400286525
19.0	60.52367650605629	rating	1.0		94	dominance	092	1.0	2		86.90445119460855	0.7917702660643045
19.0	61.315446772120595	fix	2.0		60	dominance	092	1.0	2	-1.5099999999999998	87.69622146067286	0.5167471061849938
20.0	61.83219387830559	face	0.0		147	dominance	100	1.0	2		88.21296856685785	1.233462155291818
20.0	63.065656033597406	rating	1.0		79	dominance	100	1.0	2		89.44643072214967	0.6667322699768192
20.0	63.732388303574226	fix	2.0		60	dominance	100	1.0	2	0.71	90.11316299212649	0.5167585767012497
21.0	64.24914688027548	face	0.0		147	dominance	082	1.0	2		90.62992156882774	1.2334555144670958
21.0	65.48260239474257	rating	1.0		81	dominance	082	1.0	2		91.86337708329484	0.6834088928499114
21.0	66.16601128759248	fix	2.0		60	dominance	082	1.0	2	0.4299999999999997	92.54678597614475	0.5167468043291592
22.0	66.68275809192164	face	0.0		147	dominance	061	1.0	2		93.0635327804739	1.2334600423018856
22.0	67.91621813422353	rating	1.0		62	dominance	061	1.0	2		94.29699282277579	0.5250568922565435
22.0	68.44127502648007	fix	2.0		60	dominance	061	1.0	2	1.7800000000000002	94.82204971503234	0.5167507284531894
23.0	68.95802575493326	face	0.0		147	dominance	018	1.0	2		95.33880044348552	1.2334645701384943
23.0	70.19149032507175	rating	1.0		109	dominance	018	1.0	2		96.57226501362402	0.9167635875064661
23.0	71.10825391257822	fix	2.0		60	dominance	018	1.0	2	-1.6400000000000001	97.48902860113049	0.5167501247424298
24.0	71.62500403732065	face	0.0		147	dominance	101	1.0	2		98.00577872587291	1.233462155291818
24.0	72.85846619261247	rating	1.0		95	dominance	101	1.0	2		99.23924088116473	0.8000872966740644
24.0	73.65855348928653	fix	2.0		60	dominance	101	1.0	2	2.6799999999999997	100.0393281778388	0.5167552562888886
25.0	74.17530874557542	face	0.0		147	dominance	038	1.0	2		100.55608343412769	1.2334452513714496
25.0	75.40875399694687	rating	1.0		293	dominance	038	1.0	2		101.78952868549914	2.450294475346709
25.0	77.85904847229358	fix	2.0		60	dominance	038	1.0	2	-0.5800000000000001	104.23982316084584	0.5167495210298512
26.0	78.37579799332343	face	0.0		147	dominance	126	1.0	2		104.7565726818757	1.233447968073051
26.0	79.60924596139648	rating	1.0		84	dominance	126	1.0	2		105.99002064994875	0.708426392936417
26.0	80.3176723543329	fix	2.0		60	dominance	126	1.0	2	0.75	106.69844704288516	0.5167519358756181
27.0	80.83442429020852	face	0.0		147	dominance	011	1.0	2		107.21519897876078	1.2334497792080583
27.0	82.06787406941658	rating	1.0		136	dominance	011	1.0	2		108.44864875796884	1.1417912903152683
27.0	83.20966535973184	fix	2.0		60	dominance	011	1.0	2	0.17999999999999972	109.59044004828411	0.516763406393693
28.0	83.72642876612554	face	0.0		147	dominance	030	1.0	2		110.1072034546778	1.2334461569389532
28.0	84.95987492306449	rating	1.0		54	dominance	030	1.0	2		111.34064961161675	0.4583848123111238
28.0	85.41825973537561	fix	2.0		60	dominance	030	1.0	2	0.5300000000000002	111.79903442392788	0.5167760843332871
29.0	85.9350358197089	face	0.0		147	dominance	136	1.0	2		112.31581050826117	1.233442232814923
29.0	87.16847805252382	rating	1.0		60	dominance	136	1.0	2		113.54925274107609	0.5083793638150382
29.0	87.67685741633886	fix	2.0		60	dominance	136	1.0	2	0.5700000000000003	114.05763210489113	0.5167597841245879
30.0	88.19361720046345	face	0.0		147	dominance	036	1.0	2		114.57439188901571	1.2334558163220208
30.0	89.42707301678547	rating	1.0		82	dominance	036	1.0	2		115.80784770533774	0.6917422236683706
30.0	90.11881524045384	fix	2.0		60	dominance	036	1.0	2	-0.69	116.4995899290061	0.5167763861891217
31.0	90.63559162664296	face	0.0		147	dominance	121	1.0	2		117.01636631519523	1.2334292530185849
31.0	91.86902087966155	rating	1.0		121	dominance	121	1.0	2		118.24979556821381	1.0167822723760764
31.0	92.88580315203762	fix	2.0		60	dominance	121	1.0	2	1.0199999999999996	119.26657784058989	0.5167652175277908
32.0	93.40256836956542	face	0.0		147	dominance	027	1.0	2		119.78334305811768	1.233454005187923
32.0	94.63602237475334	rating	1.0		36	dominance	027	1.0	2		121.0167970633056	0.30835346459389257
32.0	94.94437583934723	fix	2.0		60	dominance	027	1.0	2	0.0	121.3251505278995	0.5167600859813319
33.0	95.46113592532856	face	0.0		147	dominance	064	1.0	2		121.84191061388083	1.2334552126103517
33.0	96.69459113793891	rating	1.0		54	dominance	064	1.0	2		123.07536582649118	0.45838269932028197
33.0	97.1529738372592	fix	2.0		60	dominance	064	1.0	2	-0.5499999999999998	123.53374852581146	0.5167612934037606
34.0	97.66973513066296	face	0.0		147	dominance	102	1.0	2		124.05050981921522	1.2334521940529157
34.0	98.90318732471587	rating	1.0		157	dominance	102	1.0	2		125.28396201326814	1.3168144803812538
34.0	100.22000180509713	fix	2.0		60	dominance	102	1.0	2	-0.9900000000000002	126.60077649364939	0.5167540488664599
35.0	100.73675585396359	face	0.0		147	dominance	172	1.0	2		127.11753054251585	1.233453401476254
35.0	101.97020925543984	rating	1.0		68	dominance	172	1.0	2		128.3509839439921	0.5750656309792248
35.0	102.54527488641907	fix	2.0		60	dominance	172	1.0	2	0.13999999999999968	128.92604957497133	0.5167564637122268
36.0	103.06203135013129	face	0.0		147	dominance	130	1.0	2		129.44280603868356	1.2334546088986826
36.0	104.29548595902997	rating	1.0		63	dominance	130	1.0	2		130.67626064758224	0.5333881100850704
36.0	104.82887406911505	fix	2.0		60	dominance	130	1.0	2	-2.34	131.2096487576673	0.5167531432989563
37.0	105.345627212414	face	0.0		147	dominance	034	1.0	2		131.72640190096627	1.2334561181778554
37.0	106.57908333059186	rating	1.0		95	dominance	034	1.0	2		132.95985801914412	0.8000839762607939
37.0	107.37916730685265	fix	2.0		60	dominance	034	1.0	2	-1.0699999999999998	133.75994199540492	0.5167528414431217
38.0	107.89592014829577	face	0.0		147	dominance	137	1.0	2		134.27669483684804	1.2334615515810583
38.0	109.12938169987683	rating	1.0		63	dominance	137	1.0	2		135.5101563884291	0.5333884119399954
38.0	109.66277011181683	fix	2.0		60	dominance	137	1.0	2	1.3099999999999996	136.0435448003691	0.5167597841245879
39.0	110.17952989594141	face	0.0		147	dominance	070	1.0	2		136.56030458449368	1.2334461569389532
39.0	111.41297605288037	rating	1.0		71	dominance	070	1.0	2		137.79375074143263	0.6000668308561217
39.0	112.01304288373649	fix	2.0		60	dominance	070	1.0	2	1.9100000000000001	138.39381757228875	0.5000617294945187
40.0	112.51310461323101	cue	0.0		480						138.89387930178327	4.000508325029841
40.0	116.51361293826085	fix	1.0		120						142.8943876268131	1.0167792538186404
40.0	117.53039219207949	face	0.0		147	trustworthiness	101	1.0	2		143.91116688063175	1.2334606460135547
40.0	118.76385283809304	rating	1.0		182	trustworthiness	101	1.0	2		145.1446275266453	1.525169484439175
40.0	120.28902232253222	fix	2.0		60	trustworthiness	101	1.0	2	-0.7200000000000002	146.66979701108448	0.5167564637122268
41.0	120.80577878624445	face	0.0		147	trustworthiness	066	1.0	2		147.1865534747967	1.2334506847746525
41.0	122.0392294710191	rating	1.0		102	trustworthiness	066	1.0	2		148.42000415957136	0.8584341959058293
41.0	122.89766366692493	fix	2.0		60	trustworthiness	066	1.0	2	-0.6600000000000001	149.2784383554772	0.5167407672151967
42.0	123.41440443414012	face	0.0		147	trustworthiness	070	1.0	2		149.7951791226924	1.233462759003487
42.0	124.64786719314361	rating	1.0		110	trustworthiness	070	1.0	2		151.02864188169588	0.9250981257473541
42.0	125.57296531889097	fix	2.0		60	trustworthiness	070	1.0	2	-1.52	151.95374000744323	0.5167670286618886
43.0	126.08973234755285	face	0.0		147	trustworthiness	172	1.0	2		152.47050703610512	1.2334512884863216
43.0	127.32318363603918	rating	1.0		72	trustworthiness	172	1.0	2		153.70395832459144	0.6084068025002125
43.0	127.93159043853939	fix	2.0		60	trustworthiness	172	1.0	2	0.7000000000000002	154.31236512709165	0.5167504265973548
44.0	128.44834086513674	face	0.0		147	trustworthiness	141	1.0	2		154.829115553689	1.2334488736405547
44.0	129.6817897387773	rating	1.0		70	trustworthiness	141	1.0	2		156.06256442732956	0.5917377260184367
44.0	130.27352746479573	fix	2.0		60	trustworthiness	141	1.0	2	1.67	156.654302153348	0.5167468043282497
45.0	130.79027426912398	face	0.0		147	trustworthiness	012	1.0	2		157.17104895767625	1.2334618534368929
45.0	132.02373612256088	rating	1.0		409	trustworthiness	012	1.0	2		158.40451081111314	3.417054123635353
45.0	135.44079024619623	fix	2.0		60	trustworthiness	012	1.0	2	0.040000000000000036	161.8215649347485	0.5167618971154297
46.0	135.95755214331166	face	0.0		147	trustworthiness	102	1.0	2		162.33832683186392	1.2334512884863216
46.0	137.19100343179798	rating	1.0		59	trustworthiness	102	1.0	2		163.57177812035025	0.5000958391901804
46.0	137.69109927098816	fix	2.0		60	trustworthiness	102	1.0	2	1.67	164.07187395954043	0.5167214484490614
47.0	138.20782071943722	face	0.0		147	trustworthiness	036	1.0	2		164.5885954079895	1.2334512884863216
47.0	139.44127200792354	rating	1.0		85	trustworthiness	036	1.0	2		165.8220466964758	0.7167398012761623
47.0	140.1580118091997	fix	2.0		60	trustworthiness	036	1.0	2	1.9400000000000004	166.53878649775197	0.5167561618563923
48.0	140.6747679710561	face	0.0		147	trustworthiness	091	1.0	2		167.05554265960836	1.2334645701375848
48.0	141.90823254119368	rating	1.0		82	trustworthiness	091	1.0	2		168.28900722974595	0.6917367902651677
48.0	142.59996933145885	fix	2.0		60	trustworthiness	091	1.0	2	2.5599999999999996	168.98074402001112	0.5167537470106254
49.0	143.11672307846948	face	0.0		147	trustworthiness	034	1.0	2		169.49749776702174	1.2334470625064569
49.0	144.35017014097593	rating	1.0		143	trustworthiness	034	1.0	2		170.7309448295282	1.2001381895479426
49.0	145.55030833052388	fix	2.0		60	trustworthiness	034	1.0	2	0.4900000000000002	171.93108301907614	0.5167501247415203
50.0	146.0670584552654	face	0.0		147	trustworthiness	042	1.0	2		172.44783314381766	1.2334630608593216
50.0	147.30052151612472	rating	1.0		58	trustworthiness	042	1.0	2		173.68129620467698	0.49173020981106674
50.0	147.79225172593578	fix	2.0		60	trustworthiness	042	1.0	2	1.29	174.17302641448805	0.5167437857717232
51.0	148.3089955117075	face	0.0		147	trustworthiness	038	1.0	2		174.68977020025977	1.233450986630487
51.0	149.542446498338	rating	1.0		55	trustworthiness	038	1.0	2		175.92322118689026	0.46672236910853826
51.0	150.00916886744653	fix	2.0		60	trustworthiness	038	1.0	2	0.6200000000000001	176.3899435559988	0.516757369278821
52.0	150.52592623672535	face	0.0		147	trustworthiness	061	1.0	2		176.90670092527762	1.2334458550831187
52.0	151.75937209180847	rating	1.0		114	trustworthiness	061	1.0	2		178.14014678036074	0.9584420139699432
52.0	152.71781410577842	fix	2.0		60	trustworthiness	061	1.0	2	-1.08	179.09858879433068	0.5167625008261894
53.0	153.2345766066046	face	0.0		147	trustworthiness	011	1.0	2		179.61535129515687	1.2334558163220208
53.0	154.46803242292663	rating	1.0		92	trustworthiness	011	1.0	2		180.8488071114789	0.7750848893738294
53.0	155.24311731230046	fix	2.0		60	trustworthiness	011	1.0	2	0.9500000000000002	181.62389200085272	0.5167537470106254
54.0	155.75987105931108	face	0.0		147	trustworthiness	100	1.0	2		182.14064574786335	1.2334555144661863
54.0	156.99332657377727	rating	1.0		42	trustworthiness	100	1.0	2		183.37410126232953	0.358374881257987
54.0	157.35170145503525	fix	2.0		60	trustworthiness	100	1.0	2	0.0	183.73247614358752	0.5167483136074225
55.0	157.86844976864268	face	0.0		147	trustworthiness	027	1.0	2		184.24922445719494	1.2334491754963892
55.0	159.10189894413907	rating	1.0		94	trustworthiness	027	1.0	2		185.48267363269133	0.7917621159604096
55.0	159.89366106009948	fix	2.0		60	trustworthiness	027	1.0	2	0.5099999999999998	186.27443574865174	0.516757369278821
56.0	160.4104184293783	face	0.0		147	trustworthiness	136	1.0	2		186.79119311793056	1.2334530996204194
56.0	161.64387152899872	rating	1.0		121	trustworthiness	136	1.0	2		188.02464621755098	1.016780159386144
56.0	162.66065168838486	fix	2.0		60	trustworthiness	136	1.0	2	0.4900000000000002	189.04142637693712	0.5167612934037606
57.0	163.17741298178862	face	0.0		147	trustworthiness	044	1.0	2		189.55818767034089	1.233447364361382
57.0	164.41086034615	rating	1.0		85	trustworthiness	044	1.0	2		190.79163503470227	0.7167932297388688
57.0	165.12765357588887	fix	2.0		60	trustworthiness	044	1.0	2	1.2400000000000002	191.50842826444114	0.5167120909209189
58.0	165.6443656668098	face	0.0		147	trustworthiness	117	1.0	2		192.02514035536205	1.2334524959096598
58.0	166.87781816271945	rating	1.0		315	trustworthiness	117	1.0	2		193.25859285127171	2.633640733134598
58.0	169.51145889585405	fix	2.0		60	trustworthiness	117	1.0	2	0.2999999999999998	195.8922335844063	0.5167462006174901
59.0	170.02820509647154	face	0.0		147	trustworthiness	005	1.0	2		196.4089797850238	1.233462155291818
59.0	171.26166725176336	rating	1.0		47	trustworthiness	005	1.0	2		197.64244194031562	0.4000379130784495
59.0	171.6617051648418	fix	2.0		60	trustworthiness	005	1.0	2	-0.5499999999999998	198.04247985339407	0.5167999309351217
60.0	172.17850509577693	face	0.0		147	trustworthiness	009	1.0	2		198.5592797843292	1.2334096323975245
60.0	173.41191472817445	rating	1.0		61	trustworthiness	009	1.0	2		199.79268941672672	0.5167217503039865
60.0	173.92863647847844	fix	2.0		60	trustworthiness	009	1.0	2	1.5099999999999998	200.3094111670307	0.5167555581447232
61.0	174.44539203662316	face	0.0		147	trustworthiness	064	1.0	2		200.82616672517543	1.2334703053966223
61.0	175.67886234201978	rating	1.0		64	trustworthiness	064	1.0	2		202.05963703057205	0.5417048388380863
61.0	176.22056718085787	fix	2.0		60	trustworthiness	064	1.0	2	1.9900000000000002	202.60134186941013	0.5167561618563923
62.0	176.73732334271426	face	0.0		147	trustworthiness	121	1.0	2		203.11809803126653	1.2334537033320885
62.0	177.97077704604635	rating	1.0		88	trustworthiness	121	1.0	2		204.35155173459862	0.7417585087841871
62.0	178.71253555483054	fix	2.0		60	trustworthiness	121	1.0	2	-0.31999999999999984	205.0933102433828	0.516786951139693
63.0	179.22932250597023	face	0.0		147	trustworthiness	033	1.0	2		205.6100971945225	1.2334220084812841
63.0	180.46274451445151	rating	1.0		108	trustworthiness	033	1.0	2		206.84351920300378	0.9084326715346833
63.0	181.3711771859862	fix	2.0		60	trustworthiness	033	1.0	2	-0.10999999999999988	207.75195187453846	0.5167625008261894
64.0	181.8879396868124	face	0.0		147	trustworthiness	130	1.0	2		208.26871437536465	1.2334488736405547
64.0	183.12138856045294	rating	1.0		53	trustworthiness	130	1.0	2		209.5021632490052	0.4500409165430028
64.0	183.57142947699595	fix	2.0		60	trustworthiness	130	1.0	2	1.4800000000000004	209.9522041655482	0.5167612934028512
65.0	184.0881907703988	face	0.0		147	trustworthiness	137	1.0	2		210.46896545895106	1.233457023745359
65.0	185.32164779414416	rating	1.0		172	trustworthiness	137	1.0	2		211.70242248269642	1.4418313465694155
65.0	186.76347914071357	fix	2.0		60	trustworthiness	137	1.0	2	0.7000000000000002	213.14425382926584	0.5167558600005577
66.0	187.28023500071413	face	0.0		147	trustworthiness	030	1.0	2		213.6610096892664	1.2334515903421561
66.0	188.51368659105628	rating	1.0		365	trustworthiness	030	1.0	2		214.89446127960855	3.0503594950678234
66.0	191.5640460861241	fix	2.0		61	trustworthiness	030	1.0	2	2.01	217.94482077467637	0.5250867759723405
67.0	192.08913286209645	face	0.0		146	trustworthiness	043	1.0	2		218.4699075506487	1.2251143353996667
67.0	193.31424719749612	rating	1.0		69	trustworthiness	043	1.0	2		219.69502188604838	0.5833998673642782
67.0	193.8976470648604	fix	2.0		60	trustworthiness	043	1.0	2	1.3899999999999997	220.27842175341266	0.5167474080408283
68.0	194.41439447290122	face	0.0		147	trustworthiness	062	1.0	2		220.7951691614535	1.2334570237444495
68.0	195.64785149664567	rating	1.0		150	trustworthiness	062	1.0	2		222.02862618519794	1.2584766368208875
68.0	196.90632813346656	fix	2.0		60	trustworthiness	062	1.0	2	-0.2799999999999998	223.28710282201882	0.5167510303090239
69.0	197.42307916377558	face	0.0		147	trustworthiness	082	1.0	2		223.80385385232785	1.2334579293119532
69.0	198.65653709308754	rating	1.0		11878	trustworthiness	082	1.0	2		225.0373117816398	99.00327000299694
69.0	297.6598070960845	fix	2.0		60	trustworthiness	082	1.0	2	0.0	324.04058178463674	0.5167618971154297
70.0	298.1765689931999	face	0.0		147	trustworthiness	144	1.0	2		324.5573436817522	1.233445553227284
70.0	299.4100145464272	rating	1.0		52	trustworthiness	144	1.0	2		325.79078923497946	0.44172147108747595
70.0	299.85173601751467	fix	2.0		60	trustworthiness	144	1.0	2	0.7800000000000002	326.23251070606693	0.5167543507222945
71.0	300.36849036823696	face	0.0		147	trustworthiness	126	1.0	2		326.7492650567892	1.2334543070437576
71.0	301.6019446752807	rating	1.0		102	trustworthiness	126	1.0	2		327.982719363833	0.8584227253886638
71.0	302.4603674006694	fix	2.0		60	trustworthiness	126	1.0	2	-0.7000000000000002	328.84114208922165	0.5167567655671519
72.0	302.97712416623654	face	0.0		147	trustworthiness	039	1.0	2		329.3578988547888	1.2334582311677877
72.0	304.2105823974043	rating	1.0		64	trustworthiness	039	1.0	2		330.5913570859566	0.5417317039973568
72.0	304.7523141014017	fix	2.0		60	trustworthiness	039	1.0	2	2.3600000000000003	331.13308878995394	0.5167561618554828
73.0	305.26907026325716	face	0.0		147	trustworthiness	006	1.0	2		331.6498449518094	1.2334473643622914
73.0	306.50251762761945	rating	1.0		67	trustworthiness	006	1.0	2		332.8832923161717	0.5667298853159082
73.0	307.06924751293536	fix	2.0		60	trustworthiness	006	1.0	2	1.2599999999999998	333.4500222014876	0.5167540488664599
74.0	307.5860015618018	face	0.0		147	trustworthiness	124	1.0	2		333.9667762503541	1.2334570237444495
74.0	308.8194585855463	rating	1.0		126	trustworthiness	124	1.0	2		335.20023327409854	1.0584588877036367
74.0	309.8779174732499	fix	2.0		60	trustworthiness	124	1.0	2	1.8899999999999997	336.2586921618022	0.5167468043291592
75.0	310.39466427757907	face	0.0		147	trustworthiness	092	1.0	2		336.77543896613133	1.233459438591126
75.0	311.6281237161702	rating	1.0		82	trustworthiness	092	1.0	2		338.00889840472246	0.6917413181008669
75.0	312.31986503427106	fix	2.0		60	trustworthiness	092	1.0	2	-0.6800000000000002	338.7006397228233	0.5167561618563923
76.0	312.83662119612745	face	0.0		147	trustworthiness	099	1.0	2		339.2173958846797	1.2334515903421561
76.0	314.0700727864696	rating	1.0		122	trustworthiness	099	1.0	2		340.4508474750219	1.0251183198952276
76.0	315.09519110636484	fix	2.0		60	trustworthiness	099	1.0	2	-0.69	341.4759657949171	0.5167513321648585
77.0	315.6119424385297	face	0.0		147	trustworthiness	018	1.0	2		341.99271712708196	1.2334494773513143
77.0	316.845391915881	rating	1.0		72	trustworthiness	018	1.0	2		343.2261666044333	0.6084104247684081
77.0	317.4538023406494	fix	2.0		60	trustworthiness	018	1.0	2	2.05	343.8345770292017	0.5167999309360312
78.0	317.97060227158545	face	0.0		147	trustworthiness	087	1.0	2		344.3513769601377	1.2334117453865474
78.0	319.204014016972	rating	1.0		57	trustworthiness	087	1.0	2		345.58478870552426	0.4833808806397428
78.0	319.68739489761174	fix	2.0		60	trustworthiness	087	1.0	2	-0.8999999999999999	346.068169586164	0.5167471061849938
79.0	320.20414200379673	face	0.0		147	trustworthiness	024	1.0	2		346.584916692349	1.233462759003487
79.0	321.4376047628002	rating	1.0		98	trustworthiness	024	1.0	2		347.8183794513525	0.8251186821225929
79.0	322.2627234449228	fix	2.0		60	trustworthiness	024	1.0	2	1.7400000000000002	348.6434981334751	0.5000345624794136
80.0	322.7627580074022	cue	0.0		480						349.1435326959545	4.000466065229375
80.0	326.7632240726316	fix	1.0		120						353.14399876118387	1.0168598492955425
80.0	327.78008392192714	face	0.0		147	attractiveness	130	1.0	2		354.1608586104794	1.2334081231183518
80.0	329.0134920450455	rating	1.0		87	attractiveness	130	1.0	2		355.39426673359776	0.7334097833245323
80.0	329.74690182837	fix	2.0		60	attractiveness	130	1.0	2	-2.29	356.1276765169223	0.5167504265982643
81.0	330.2636522549683	face	0.0		147	attractiveness	136	1.0	2		356.64442694352056	1.2334645701375848
81.0	331.4971168251059	rating	1.0		76	attractiveness	136	1.0	2		357.87789151365814	0.6417437480395165
81.0	332.1388605731454	fix	2.0		61	attractiveness	136	1.0	2	-2.19	358.51963526169766	0.5250740980327464
82.0	332.66393467117814	face	0.0		146	attractiveness	012	1.0	2		359.0447093597304	1.225134257877471
82.0	333.8890689290556	rating	1.0		165	attractiveness	012	1.0	2		360.2698436176079	1.3834841454809066
82.0	335.2725530745365	fix	2.0		60	attractiveness	012	1.0	2	-0.009999999999999787	361.6533277630888	0.5167540488664599
83.0	335.789307123403	face	0.0		147	attractiveness	087	1.0	2		362.17008181195524	1.233447968073051
83.0	337.02275509147603	rating	1.0		77	attractiveness	087	1.0	2		363.4035297800283	0.6500813048378404
83.0	337.67283639631387	fix	2.0		60	attractiveness	087	1.0	2	-0.3900000000000001	364.05361108486613	0.516760387836257
84.0	338.1895967841501	face	0.0		147	attractiveness	018	1.0	2		364.5703714727024	1.2334467606506223
84.0	339.42304354480075	rating	1.0		98	attractiveness	018	1.0	2		365.803818233353	0.8250939299532547
84.0	340.248137474754	fix	2.0		60	attractiveness	018	1.0	2	-0.5	366.62891216330627	0.5167552562888886
85.0	340.7648927310429	face	0.0		147	attractiveness	144	1.0	2		367.14566741959516	1.2334558163220208
85.0	341.9983485473649	rating	1.0		62	attractiveness	144	1.0	2		368.3791232359172	0.525053571843273
85.0	342.5234021192082	fix	2.0		60	attractiveness	144	1.0	2	1.1500000000000004	368.90417680776045	0.5167591804138283
86.0	343.040161299622	face	0.0		142	attractiveness	100	1.0	2		369.4209359881743	1.2334506847746525
86.0	344.27361198439667	rating	1.0		59	attractiveness	100	1.0	2		370.65438667294893	0.5000644461961201
86.0	344.7736764305928	fix	2.0		60	attractiveness	100	1.0	2	0.23000000000000043	371.15445111914505	0.5167510303090239
87.0	345.2904274609018	face	0.0		147	attractiveness	172	1.0	2		371.6712021494541	1.2334515903412466
87.0	346.52387905124306	rating	1.0		78	attractiveness	172	1.0	2		372.9046537397953	0.6584122208105327
87.0	347.1822912720536	fix	2.0		60	attractiveness	172	1.0	2	-0.2200000000000002	373.56306596060585	0.5167495210298512
88.0	347.69904079308344	face	0.0		147	attractiveness	117	1.0	2		374.0798154816357	1.233498679834156
88.0	348.9325394729176	rating	1.0		104	attractiveness	117	1.0	2		375.31331416146986	0.8750537680498383
88.0	349.80759324096744	fix	2.0		60	attractiveness	117	1.0	2	0.11000000000000032	376.1883679295197	0.5167543507222945
89.0	350.32434759168973	face	0.0		147	attractiveness	091	1.0	2		376.705122280242	1.2334546088986826
89.0	351.5578022005884	rating	1.0		51	attractiveness	091	1.0	2		377.9385768891407	0.433374858618663
89.0	351.9911770592071	fix	2.0		60	attractiveness	091	1.0	2	0.7300000000000004	378.37195174775934	0.5167606896920915
90.0	352.50793774889917	face	0.0		147	attractiveness	062	1.0	2		378.88871243745143	1.2334530996204194
90.0	353.7413908485196	rating	1.0		58	attractiveness	062	1.0	2		380.12216553707185	0.49172205970626237
90.0	354.23311290822585	fix	2.0		60	attractiveness	062	1.0	2	-0.48	380.6138875967781	0.5167519358765276
91.0	354.7498648441024	face	0.0		147	attractiveness	070	1.0	2		381.13063953265464	1.2334875111719157
91.0	355.9833523552743	rating	1.0		114	attractiveness	070	1.0	2		382.36412704382656	0.9584100172633043
91.0	356.9417623725376	fix	2.0		60	attractiveness	070	1.0	2	-1.83	383.32253706108986	0.5167522377323621
92.0	357.45851461026996	face	0.0		147	attractiveness	030	1.0	2		383.8392892988222	1.233468494261615
92.0	358.6919831045316	rating	1.0		80	attractiveness	030	1.0	2		385.07275779308384	0.6750643933710307
92.0	359.3670474979026	fix	2.0		59	attractiveness	030	1.0	2	1.5	385.74782218645487	0.5167579729904901
93.0	359.8838054708931	face	0.0		147	attractiveness	064	1.0	2		386.26458015944536	1.2334503829197274
93.0	361.1172558538128	rating	1.0		74	attractiveness	064	1.0	2		387.4980305423651	0.6250719548561392
93.0	361.74232780866896	fix	2.0		60	attractiveness	064	1.0	2	1.2000000000000002	388.1231024972212	0.5167543507222945
94.0	362.25908215939126	face	0.0		147	attractiveness	092	1.0	2		388.6398568479435	1.2334537033320885
94.0	363.49253586272334	rating	1.0		55	attractiveness	092	1.0	2		389.8733105512756	0.4667154264270721
94.0	363.9592512891504	fix	2.0		60	attractiveness	092	1.0	2	-0.94	390.3400259777027	0.5167522377314526
95.0	364.47600352688187	face	0.0		147	attractiveness	141	1.0	2		390.85677821543413	1.2334494773522238
95.0	365.7094530042341	rating	1.0		77	attractiveness	141	1.0	2		392.09022769278636	0.6500885493751412
95.0	366.35954155360923	fix	2.0		60	attractiveness	141	1.0	2	-0.3799999999999999	392.7403162421615	0.5167483136074225
96.0	366.87628986721666	face	0.0		147	attractiveness	099	1.0	2		393.2570645557689	1.2334521940538252
96.0	368.1097420612705	rating	1.0		61	attractiveness	099	1.0	2		394.49051674982275	0.5167187317465505
96.0	368.62646079301703	fix	2.0		60	attractiveness	099	1.0	2	0.4400000000000004	395.0072354815693	0.5167576711346555
97.0	369.1432184641517	face	0.0		147	attractiveness	027	1.0	2		395.52399315270395	1.233447666218126
97.0	370.3766661303698	rating	1.0		71	attractiveness	027	1.0	2		396.7574408189221	0.6000749809600165
97.0	370.97674111132983	fix	2.0		60	attractiveness	027	1.0	2	0.6699999999999999	397.3575157998821	0.5167552562897981
98.0	371.4934963676196	face	0.0		147	attractiveness	124	1.0	2		397.8742710561719	1.2334558163220208
98.0	372.72695218394165	rating	1.0		87	attractiveness	124	1.0	2		399.1077268724939	0.7334128018819683
98.0	373.4603649858236	fix	2.0		60	attractiveness	124	1.0	2	3.08	399.8411396743759	0.5167555581447232
99.0	373.97712054396834	face	0.0		147	attractiveness	005	1.0	2		400.3578952325206	1.2334497792071488
99.0	375.2105703231755	rating	1.0		105	attractiveness	005	1.0	2		401.59134501172775	0.8834375087726585
99.0	376.09400783194815	fix	2.0		60	attractiveness	005	1.0	2	-3.1	402.4747825205004	0.5167519358765276
100.0	376.6107597678247	face	0.0		147	attractiveness	066	1.0	2		402.99153445637694	1.233457325600284
100.0	377.84421709342496	rating	1.0		97	attractiveness	066	1.0	2		404.2249917819772	0.816757580578269
100.0	378.6609746740032	fix	2.0		60	attractiveness	066	1.0	2	1.17	405.0417493625555	0.5167522377323621
101.0	379.1777269117356	face	0.0		147	attractiveness	039	1.0	2		405.55850160028785	1.2334561181778554
101.0	380.41118302991345	rating	1.0		80	attractiveness	039	1.0	2		406.7919577184657	0.6750797880122263
101.0	381.0862628179257	fix	2.0		60	attractiveness	039	1.0	2	1.8499999999999996	407.46703750647794	0.5167480117515879
102.0	381.60301082967726	face	0.0		147	attractiveness	044	1.0	2		407.9837855182295	1.2334579293128627
102.0	382.8364687589901	rating	1.0		92	attractiveness	044	1.0	2		409.2172434475424	0.7750885116429345
102.0	383.61155727063306	fix	2.0		60	attractiveness	044	1.0	2	1.5999999999999996	409.9923319591853	0.5167552562888886
103.0	384.12831252692195	face	0.0		147	attractiveness	061	1.0	2		410.5090872154742	1.233474531376487
103.0	385.36178705829843	rating	1.0		68	attractiveness	061	1.0	2		411.7425617468507	0.57503393612933
103.0	385.93682099442776	fix	2.0		60	attractiveness	061	1.0	2	-0.7000000000000002	412.31759568298	0.5167609915470166
104.0	386.4535819859748	face	0.0		147	attractiveness	024	1.0	2		412.83435667452704	1.233450684775562
104.0	387.68703267075034	rating	1.0		65	attractiveness	024	1.0	2		414.0678073593026	0.5500635255357338
104.0	388.2370961962861	fix	2.0		60	attractiveness	024	1.0	2	-1.69	414.61787088483834	0.5167552562888886
105.0	388.75385145257496	face	0.0		147	attractiveness	034	1.0	2		415.1346261411272	1.2334530996204194
105.0	389.9873045521954	rating	1.0		59	attractiveness	034	1.0	2		416.36807924074765	0.5000493534098496
105.0	390.48735390560523	fix	2.0		60	attractiveness	034	1.0	2	-0.5699999999999998	416.8681285941575	0.5167585767021592
106.0	391.0041124823074	face	0.0		147	attractiveness	043	1.0	2		417.38488717085966	1.2334558163220208
106.0	392.2375682986294	rating	1.0		55	attractiveness	043	1.0	2		418.6183429871817	0.4667115023030419
106.0	392.70427980093245	fix	2.0		60	attractiveness	043	1.0	2	0.5700000000000003	419.0850544894847	0.5167697453634901
107.0	393.22104954629594	face	0.0		147	attractiveness	137	1.0	2		419.6018242348482	1.2334404216799157
107.0	394.45448996797586	rating	1.0		53	attractiveness	137	1.0	2		420.8352646565281	0.4500584241750403
107.0	394.9045483921509	fix	2.0		60	attractiveness	137	1.0	2	0.71	421.28532308070317	0.5167434839158886
108.0	395.4212918760668	face	0.0		147	attractiveness	126	1.0	2		421.80206656461905	1.2334612497243143
108.0	396.6547531257911	rating	1.0		63	attractiveness	126	1.0	2		423.03552781434337	0.5333866008058976
108.0	397.188139726597	fix	2.0		60	attractiveness	126	1.0	2	0.8300000000000001	423.56891441514927	0.5167691416527305
109.0	397.70490886824973	face	0.0		147	attractiveness	038	1.0	2		424.085683556802	1.2334458550831187
109.0	398.93835472333285	rating	1.0		47	attractiveness	038	1.0	2		425.3191294118851	0.4000367056551113
109.0	399.33839142898796	fix	2.0		60	attractiveness	038	1.0	2	-0.7200000000000002	425.7191661175402	0.5167591804138283
110.0	399.8551506094018	face	0.0		147	attractiveness	121	1.0	2		426.23592529795405	1.2334546088986826
110.0	401.0886052183005	rating	1.0		50	attractiveness	121	1.0	2		427.46937990685274	0.425045753780978
110.0	401.51365097208145	fix	2.0		60	attractiveness	121	1.0	2	0.5099999999999998	427.8944256606337	0.5167643119602872
111.0	402.03041528404174	face	0.0		147	attractiveness	036	1.0	2		428.411189972594	1.2334404216808252
111.0	403.26385570572256	rating	1.0		72	attractiveness	036	1.0	2		429.6446303942748	0.6084083117775663
111.0	403.87226401750013	fix	2.0		60	attractiveness	036	1.0	2	3.3899999999999997	430.2530387060524	0.5167618971154297
112.0	404.38902591461556	face	0.0		147	attractiveness	042	1.0	2		430.7698006031678	1.2334374031233892
112.0	405.62246331773895	rating	1.0		75	attractiveness	042	1.0	2		432.0032380062912	0.6334203784599595
112.0	406.2558836961989	fix	2.0		60	attractiveness	042	1.0	2	2.7199999999999998	432.6366583847512	0.516748615463257
113.0	406.77263231166216	face	0.0		147	attractiveness	102	1.0	2		433.15340700021443	1.2334512884863216
113.0	408.0060836001485	rating	1.0		52	attractiveness	102	1.0	2		434.38685828870075	0.44171845253094943
113.0	408.44780205267944	fix	2.0		60	attractiveness	102	1.0	2	0.5700000000000003	434.8285767412317	0.516754350721385
114.0	408.9645564034008	face	0.0		147	attractiveness	006	1.0	2		435.3453310919531	1.233450986630487
114.0	410.1980073900313	rating	1.0		62	attractiveness	006	1.0	2		436.5787820785836	0.5250517607100846
114.0	410.7230591507414	fix	2.0		60	attractiveness	006	1.0	2	-0.20000000000000018	437.10383383929366	0.5168059680490842
115.0	411.2398651187905	face	0.0		147	attractiveness	082	1.0	2		437.62063980734274	1.2334048027059907
115.0	412.47326992149647	rating	1.0		47	attractiveness	082	1.0	2		438.85404461004873	0.4000475724615171
115.0	412.873317493958	fix	2.0		60	attractiveness	082	1.0	2	2.1900000000000004	439.25409218251025	0.5167534451547908
116.0	413.3900709391128	face	0.0		147	attractiveness	033	1.0	2		439.77084562766504	1.2334521940529157
116.0	414.6235231331657	rating	1.0		49	attractiveness	033	1.0	2		441.00429782171796	0.41672298791309004
116.0	415.0402461210788	fix	2.0		60	attractiveness	033	1.0	2	-0.8399999999999999	441.42102080963105	0.5167833288705879
117.0	415.55702944994937	face	0.0		147	attractiveness	011	1.0	2		441.93780413850163	1.2334238196162914
117.0	416.79045326956566	rating	1.0		62	attractiveness	011	1.0	2		443.1712279581179	0.5250442143160399
117.0	417.3154974838817	fix	2.0		60	attractiveness	011	1.0	2	-0.29000000000000004	443.69627217243396	0.5167646138161217
118.0	417.8322620976978	face	0.0		147	attractiveness	101	1.0	2		444.2130367862501	1.2334546088995921
118.0	419.0657167065974	rating	1.0		156	attractiveness	101	1.0	2		445.4464913951497	1.3084823569861328
118.0	420.37419906358355	fix	2.0		60	attractiveness	101	1.0	2	-0.41999999999999993	446.7549737521358	0.516742578348385
119.0	420.89094164193193	face	0.0		147	attractiveness	009	1.0	2		447.2717163304842	1.2334591367352914
119.0	422.1244007786672	rating	1.0		52	attractiveness	009	1.0	2		448.5051754672195	0.4417145284060098
119.0	422.56611530707323	fix	2.0		60	attractiveness	009	1.0	2	1.6500000000000004	448.9468899956255	0.5000614276386841
120.0	423.0661767347119	cue	0.0		3600						449.4469514232642	30.00351329870682
120.0	453.06969003341874	fix	1.0		120						479.450464721971	1.0001252701231351
120.0	454.0698153035419	cue	0.0		480						480.45058999209414	4.000472404199172
120.0	458.07028770774104	fix	1.0		120						484.4510623962933	1.0084643361997223
120.0	459.07875204394077	face	0.0		148	attractiveness	137	2.0	2		485.45952673249303	1.241798202810969
120.0	460.32055024675174	rating	1.0		176	attractiveness	137	2.0	2		486.701324935304	1.4752045147961326
120.0	461.79575476154787	fix	2.0		60	attractiveness	137	2.0	2	0.6699999999999999	488.17652945010013	0.5083805712374669
121.0	462.30413533278534	face	0.0		148	attractiveness	091	2.0	2		488.6849100213376	1.2417924675528411
121.0	463.5459278003382	rating	1.0		55	attractiveness	091	2.0	2		489.92670248889044	0.46672236910853826
121.0	464.0126501694467	fix	2.0		60	attractiveness	091	2.0	2	1.1500000000000004	490.393424857999	0.5167742731991893
122.0	464.5294244426459	face	0.0		147	attractiveness	011	2.0	2		490.91019913119817	1.2334364975558856
122.0	465.7628609402018	rating	1.0		66	attractiveness	011	2.0	2		492.14363562875405	0.5583989693441254
122.0	466.3212599095459	fix	2.0		60	attractiveness	011	2.0	2	0.41999999999999993	492.7020345980982	0.5167335226769865
123.0	466.8379934322229	face	0.0		147	attractiveness	005	2.0	2		493.21876812077517	1.2334642682826598
123.0	468.07145770050556	rating	1.0		70	attractiveness	005	2.0	2		494.4522323890578	0.5917319907593992
123.0	468.66318969126496	fix	2.0		60	attractiveness	005	2.0	2	-3.06	495.0439643798172	0.5167501247415203
124.0	469.1799398160065	face	0.0		147	attractiveness	066	2.0	2		495.56071450455875	1.2334585330236223
124.0	470.4133983490301	rating	1.0		90	attractiveness	066	2.0	2		496.79417303758237	0.7584384520723688
124.0	471.1718368011025	fix	2.0		60	attractiveness	066	2.0	2	1.62	497.55261148965474	0.5167359375227534
125.0	471.6885727386252	face	0.0		147	attractiveness	039	2.0	2		498.0693474271775	1.2334428365265921
125.0	472.9220155751518	rating	1.0		93	attractiveness	039	2.0	2		499.3027902637041	0.7834245591620856
125.0	473.7054401343139	fix	2.0		60	attractiveness	039	2.0	2	1.62	500.08621482286617	0.5167637082486181
126.0	474.2222038425625	face	0.0		147	attractiveness	009	2.0	2		500.6029785311148	1.2334443458048554
126.0	475.4556481883674	rating	1.0		59	attractiveness	009	2.0	2		501.83642287691964	0.5000617294945187
126.0	475.9557099178619	fix	2.0		60	attractiveness	009	2.0	2	1.5700000000000003	502.33648460641416	0.5084243403171058
127.0	476.464134258179	face	0.0		148	attractiveness	030	2.0	2		502.84490894673127	1.2417879397171419
127.0	477.70592219789614	rating	1.0		77	attractiveness	030	2.0	2		504.0866968864484	0.6500707398872692
127.0	478.3559929377834	fix	2.0		60	attractiveness	030	2.0	2	2.0300000000000002	504.7367676263357	0.5167628026820239
128.0	478.87275574046544	face	0.0		147	attractiveness	006	2.0	2		505.2535304290177	1.2334404216808252
128.0	480.10619616214626	rating	1.0		59	attractiveness	006	2.0	2		506.4869708506985	0.5000677666084812
128.0	480.60626392875474	fix	2.0		60	attractiveness	006	2.0	2	-0.7200000000000002	506.987038617307	0.5167495210307607
129.0	481.1230134497855	face	0.0		147	attractiveness	136	2.0	2		507.50378813833777	1.2334464587947878
129.0	482.3564599085803	rating	1.0		118	attractiveness	136	2.0	2		508.73723459713256	0.9917819780666832
129.0	483.348241886647	fix	2.0		60	attractiveness	136	2.0	2	-2.1100000000000003	509.72901657519924	0.5167567655671519
130.0	483.8649986522141	face	0.0		147	attractiveness	087	2.0	2		510.2457733407664	1.233453401476254
130.0	485.0984520536904	rating	1.0		62	attractiveness	087	2.0	2		511.47922674224264	0.5250608163805737
130.0	485.62351287007095	fix	2.0		60	attractiveness	087	2.0	2	-0.20999999999999996	512.0042875586232	0.5167552562897981
131.0	486.14026812636075	face	0.0		147	attractiveness	018	2.0	2		512.521042814913	1.2334404216799157
131.0	487.37370854804067	rating	1.0		127	attractiveness	018	2.0	2		513.7544832365929	1.0668350820342312
131.0	488.4405436300749	fix	2.0		59	attractiveness	018	2.0	2	0.009999999999999787	514.8213183186272	0.5167172224682872
132.0	488.9572608525432	face	0.0		147	attractiveness	012	2.0	2		515.3380355410955	1.2334558163220208
132.0	490.1907166688652	rating	1.0		62	attractiveness	012	2.0	2		516.5714913574175	0.5250617219480773
132.0	490.7157783908133	fix	2.0		60	attractiveness	012	2.0	2	0.40000000000000036	517.0965530793655	0.5167552562888886
133.0	491.2325336471022	face	0.0		147	attractiveness	092	2.0	2		517.6133083356544	1.2334500810638929
133.0	492.46598372816607	rating	1.0		56	attractiveness	092	2.0	2		518.8467584167183	0.4750523795128174
133.0	492.9410361076789	fix	2.0		60	attractiveness	092	2.0	2	-1.2599999999999998	519.3218107962311	0.5167471061849938
134.0	493.4577832138639	face	0.0		147	attractiveness	101	2.0	2		519.8385579024161	1.2334527977645848
134.0	494.69123601162846	rating	1.0		42	attractiveness	101	2.0	2		521.0720107001807	0.3583754849696561
134.0	495.0496114965981	fix	2.0		60	attractiveness	101	2.0	2	-0.009999999999999787	521.4303861851504	0.5167576711346555
135.0	495.5663691677328	face	0.0		147	attractiveness	126	2.0	2		521.947143856285	1.2334576274561186
135.0	496.7998267951889	rating	1.0		48	attractiveness	126	2.0	2		523.1806014837412	0.40837396059760067
135.0	497.2082007557865	fix	2.0		60	attractiveness	126	2.0	2	1.0099999999999998	523.5889754443388	0.5167655193836254
136.0	497.7249662751701	face	0.0		147	attractiveness	102	2.0	2		524.1057409637224	1.233435591988382
136.0	498.9584018671585	rating	1.0		75	attractiveness	102	2.0	2		525.3391765557108	0.6334107190778013
136.0	499.5918125862363	fix	2.0		60	attractiveness	102	2.0	2	0.3099999999999996	525.9725872747886	0.5167600859804224
137.0	500.1085726722167	face	0.0		147	attractiveness	121	2.0	2		526.489347360769	1.2334576274570281
137.0	501.34203029967375	rating	1.0		62	attractiveness	121	2.0	2		527.722804988226	0.5250424031819421
137.0	501.8670727028557	fix	2.0		60	attractiveness	121	2.0	2	-0.25	528.247847391408	0.5167618971145203
138.0	502.3838345999702	face	0.0		147	attractiveness	043	2.0	2		528.7646092885225	1.2334515903421561
138.0	503.61728619031237	rating	1.0		66	attractiveness	043	2.0	2		529.9980608788646	0.5583959507866894
138.0	504.17568214109906	fix	2.0		60	attractiveness	043	2.0	2	0.8099999999999996	530.5564568296513	0.5167600859804224
139.0	504.6924422270795	face	0.0		147	attractiveness	082	2.0	2		531.0732169156317	1.2334521940529157
139.0	505.9258944211324	rating	1.0		59	attractiveness	082	2.0	2		532.3066691096847	0.5000372791819245
139.0	506.4259317003143	fix	2.0		60	attractiveness	082	2.0	2	1.5899999999999999	532.8067063888666	0.5167730657758511
140.0	506.9427047660902	face	0.0		147	attractiveness	034	2.0	2		533.3234794546424	1.2334527977654943
140.0	508.17615756385567	rating	1.0		50	attractiveness	034	2.0	2		534.5569322524079	0.4250388110986023
140.0	508.60119637495427	fix	2.0		60	attractiveness	034	2.0	2	-0.31999999999999984	534.9819710635065	0.5167600859804224
141.0	509.1179564609347	face	0.0		147	attractiveness	100	2.0	2		535.498731149487	1.2334588348794568
141.0	510.35141529581415	rating	1.0		43	attractiveness	100	2.0	2		536.7321899843664	0.366700967538236
141.0	510.7181162633524	fix	2.0		60	attractiveness	100	2.0	2	0.08000000000000007	537.0988909519047	0.5167522377314526
142.0	511.23486850108384	face	0.0		147	attractiveness	033	2.0	2		537.6156431896361	1.2334530996204194
142.0	512.4683216007043	rating	1.0		54	attractiveness	033	2.0	2		538.8490962892565	0.4583857178786275
142.0	512.9267073185829	fix	2.0		60	attractiveness	033	2.0	2	-0.7400000000000002	539.3074820071351	0.5167570674229864
143.0	513.4434643860059	face	0.0		147	attractiveness	027	2.0	2		539.8242390745581	1.2334642682817503
143.0	514.6769286542876	rating	1.0		82	attractiveness	027	2.0	2		541.0577033428399	0.6917376958326713
143.0	515.3686663501203	fix	2.0		61	attractiveness	027	2.0	2	1.08	541.7494410386726	0.5250931149430471
144.0	515.8937594650633	face	0.0		146	attractiveness	130	2.0	2		542.2745341536156	1.2251107131314711
144.0	517.1188701781948	rating	1.0		72	attractiveness	130	2.0	2		543.4996448667471	0.6083998598178368
144.0	517.7272700380126	fix	2.0		60	attractiveness	130	2.0	2	-1.5	544.1080447265649	0.5167612934037606
145.0	518.2440313314164	face	0.0		147	attractiveness	044	2.0	2		544.6248060199687	1.2334485717847201
145.0	519.4774799032011	rating	1.0		56	attractiveness	044	2.0	2		545.8582545917534	0.47504996466796
145.0	519.9525298678691	fix	2.0		60	attractiveness	044	2.0	2	1.7999999999999998	546.3333045564214	0.5167540488655504
146.0	520.4692839167346	face	0.0		147	attractiveness	099	2.0	2		546.8500586052869	1.2334558163220208
146.0	521.7027397330567	rating	1.0		69	attractiveness	099	2.0	2		548.0835144216089	0.5833983580860149
146.0	522.2861380911427	fix	2.0		60	attractiveness	099	2.0	2	0.0	548.6669127796949	0.5167564637122268
147.0	522.8028945548549	face	0.0		147	attractiveness	036	2.0	2		549.1836692434072	1.233445553227284
147.0	524.0363401080822	rating	1.0		119	attractiveness	036	2.0	2		550.4171147966345	1.0001128940393755
147.0	525.0364530021216	fix	2.0		60	attractiveness	036	2.0	2	3.37	551.4172276906738	0.5167658212385504
148.0	525.5532188233601	face	0.0		147	attractiveness	024	2.0	2		551.9339935119124	1.2334497792080583
148.0	526.7866686025682	rating	1.0		146	attractiveness	024	2.0	2		553.1674432911204	1.2251701787072307
148.0	528.0118387812754	fix	2.0		60	attractiveness	024	2.0	2	-2.24	554.3926134698277	0.5167238632948283
149.0	528.5285626445702	face	0.0		147	attractiveness	038	2.0	2		554.9093373331225	1.2334570237444495
149.0	529.7620196683147	rating	1.0		74	attractiveness	038	2.0	2		556.142794356867	0.6251196480607177
149.0	530.3871393163754	fix	2.0		59	attractiveness	038	2.0	2	-1.2000000000000002	556.7679140049277	0.51669518700146
150.0	530.9038345033769	face	0.0		147	attractiveness	117	2.0	2		557.2846091919291	1.2334687961174495
150.0	532.1373032994943	rating	1.0		57	attractiveness	117	2.0	2		558.5180779880466	0.48337876764981047
150.0	532.6206820671441	fix	2.0		60	attractiveness	117	2.0	2	0.9000000000000004	559.0014567556964	0.5167519358765276
151.0	533.1374340030206	face	0.0		147	attractiveness	064	2.0	2		559.5182086915729	1.2334512884863216
151.0	534.370885291507	rating	1.0		72	attractiveness	064	2.0	2		560.7516599800592	0.6084016709519346
151.0	534.9792869624589	fix	2.0		60	attractiveness	064	2.0	2	1.4900000000000002	561.3600616510112	0.516763406393693
152.0	535.4960503688526	face	0.0		147	attractiveness	144	2.0	2		561.8768250574049	1.2334527977645848
152.0	536.7295031666172	rating	1.0		61	attractiveness	144	2.0	2		563.1102778551694	0.5167262781405952
152.0	537.2462294447578	fix	2.0		60	attractiveness	144	2.0	2	1.6900000000000004	563.62700413331	0.5167419746376254
153.0	537.7629714193954	face	0.0		147	attractiveness	061	2.0	2		564.1437461079477	1.2335026039581862
153.0	538.9964740233536	rating	1.0		68	attractiveness	061	2.0	2		565.3772487119058	0.5750212581888263
153.0	539.5714952815424	fix	2.0		60	attractiveness	061	2.0	2	-0.8500000000000001	565.9522699700947	0.5167492191749261
154.0	540.0882445007173	face	0.0		147	attractiveness	042	2.0	2		566.4690191892696	1.2334814740579532
154.0	541.3217259747753	rating	1.0		51	attractiveness	042	2.0	2		567.7025006633276	0.43339900707542256
154.0	541.7551249818507	fix	2.0		60	attractiveness	042	2.0	2	2.42	568.135899670403	0.5167105816426556
155.0	542.2718355634934	face	0.0		147	attractiveness	141	2.0	2		568.6526102520456	1.2334573256011936
155.0	543.5052928890946	rating	1.0		72	attractiveness	141	2.0	2		569.8860675776468	0.6084031802311074
155.0	544.1136960693257	fix	2.0		60	attractiveness	141	2.0	2	-1.19	570.4944707578779	0.5167546525772195
156.0	544.6304507219029	face	0.0		147	attractiveness	062	2.0	2		571.0112254104552	1.233453401476254
156.0	545.8639041233791	rating	1.0		358	attractiveness	062	2.0	2		572.2446788119314	2.9920083698552844
156.0	548.8559124932344	fix	2.0		61	attractiveness	062	2.0	2	0.5599999999999996	575.2366871817867	0.525089190819017
157.0	549.3810016840534	face	0.0		146	attractiveness	172	2.0	2		575.7617763726057	1.2251258059168322
157.0	550.6061274899703	rating	1.0		48	attractiveness	172	2.0	2		576.9869021785225	0.40837335688593157
157.0	551.0145008468562	fix	2.0		60	attractiveness	172	2.0	2	-1.1600000000000001	577.3952755354085	0.5167561618563923
158.0	551.5312570087126	face	0.0		147	attractiveness	124	2.0	2		577.9120316972649	1.2334567218895245
158.0	552.7647137306021	rating	1.0		56	attractiveness	124	2.0	2		579.1454884191544	0.4750457386871858
158.0	553.2397594692893	fix	2.0		60	attractiveness	124	2.0	2	2.88	579.6205341578416	0.516754652578129
159.0	553.7565141218674	face	0.0		147	attractiveness	070	2.0	2		580.1372888104197	1.233462155291818
159.0	554.9899762771593	rating	1.0		44	attractiveness	070	2.0	2		581.3707509657115	0.3750454670171166
159.0	555.3650217441764	fix	2.0		59	attractiveness	070	2.0	2	-1.9900000000000002	581.7457964327286	0.5000565979471503
160.0	555.8650783421235	cue	0.0		480						582.2458530306758	4.000463046672849
160.0	559.8655413887964	fix	1.0		120						586.2463160773486	1.0168130616584676
160.0	560.8823544504548	face	0.0		147	dominance	034	2.0	2		587.2631291390071	1.2334887185952539
160.0	562.1158431690501	rating	1.0		76	dominance	034	2.0	2		588.4966178576024	0.6417032993740577
160.0	562.7575464684242	fix	2.0		60	dominance	034	2.0	2	-1.52	589.1383211569764	0.5167540488664599
161.0	563.2743005172906	face	0.0		147	dominance	117	2.0	2		589.6550752058429	1.233447968073051
161.0	564.5077484853637	rating	1.0		47	dominance	117	2.0	2		590.8885231739159	0.4000463650381789
161.0	564.9077948504018	fix	2.0		60	dominance	117	2.0	2	1.58	591.2885695389541	0.5167528414431217
162.0	565.424547691845	face	0.0		147	dominance	044	2.0	2		591.8053223803972	1.2334585330236223
162.0	566.6580062248686	rating	1.0		58	dominance	044	2.0	2		593.0387809134209	0.49172417269619473
162.0	567.1497303975648	fix	2.0		60	dominance	044	2.0	2	1.0499999999999998	593.530505086117	0.516751634020693
163.0	567.6664820315855	face	0.0		147	dominance	136	2.0	2		594.0472567201377	1.2334624571476525
163.0	568.8999444887331	rating	1.0		50	dominance	136	2.0	2		595.2807191772854	0.42504726305924123
163.0	569.3249917517924	fix	2.0		60	dominance	136	2.0	2	0.5999999999999996	595.7057664403446	0.5167449931950614
164.0	569.8417367449874	face	0.0		147	dominance	039	2.0	2		596.2225114335397	1.233462155291818
164.0	571.0751989002792	rating	1.0		50	dominance	039	2.0	2		597.4559735888315	0.4250394148102714
164.0	571.5002383150895	fix	2.0		60	dominance	039	2.0	2	-0.9900000000000002	597.8810130036418	0.5167682360852268
165.0	572.0170065511747	face	0.0		147	dominance	038	2.0	2		598.397781239727	1.2334395161133216
165.0	573.2504460672881	rating	1.0		51	dominance	038	2.0	2		599.6312207558403	0.43338542356832477
165.0	573.6838314908564	fix	2.0		60	dominance	038	2.0	2	-0.7400000000000002	600.0646061794087	0.5167492191749261
166.0	574.2005807100313	face	0.0		147	dominance	042	2.0	2		600.5813553985836	1.2334612497243143
166.0	575.4340419597556	rating	1.0		57	dominance	042	2.0	2		601.8148166483079	0.48338057878481777
166.0	575.9174225385404	fix	2.0		60	dominance	042	2.0	2	0.6900000000000004	602.2981972270927	0.5167558600005577
167.0	576.434178398541	face	0.0		147	dominance	099	2.0	2		602.8149530870933	1.2334464587947878
167.0	577.6676248573358	rating	1.0		54	dominance	099	2.0	2		604.0483995458881	0.4583989995289812
167.0	578.1260238568648	fix	2.0		60	dominance	099	2.0	2	1.13	604.506798545417	0.5167416727817908
168.0	578.6427655296466	face	0.0		147	dominance	070	2.0	2		605.0235402181988	1.2334576274561186
168.0	579.8762231571027	rating	1.0		58	dominance	070	2.0	2		606.256997845655	0.4917145133140366
168.0	580.3679376704167	fix	2.0		60	dominance	070	2.0	2	2.08	606.748712358969	0.5167621989703548
169.0	580.8846998693871	face	0.0		147	dominance	066	2.0	2		607.2654745579393	1.2334983779783215
169.0	582.1181982473654	rating	1.0		68	dominance	066	2.0	2		608.4989729359177	0.5750194470547285
169.0	582.6932176944201	fix	2.0		59	dominance	066	2.0	2	1.7800000000000002	609.0739923829724	0.5167522377314526
170.0	583.2099699321516	face	0.0		147	dominance	064	2.0	2		609.5907446207038	1.2334763425114943
170.0	584.4434462746631	rating	1.0		54	dominance	064	2.0	2		610.8242209632153	0.45836307869831217
170.0	584.9018093533614	fix	2.0		60	dominance	064	2.0	2	-0.77	611.2825840419137	0.5167522377323621
171.0	585.4185615910937	face	0.0		147	dominance	137	2.0	2		611.799336279646	1.2334552126103517
171.0	586.6520168037041	rating	1.0		44	dominance	137	2.0	2		613.0327914922564	0.3750406373264923
171.0	587.0270574410306	fix	2.0		59	dominance	137	2.0	2	1.13	613.4078321295829	0.516754350721385
172.0	587.543811791752	face	0.0		147	dominance	030	2.0	2		613.9245864803042	1.23345642003369
172.0	588.7772682117857	rating	1.0		54	dominance	030	2.0	2		615.1580429003379	0.4583811900420187
172.0	589.2356494018277	fix	2.0		60	dominance	030	2.0	2	0.7999999999999998	615.61642409038	0.5167618971145203
173.0	589.7524112989422	face	0.0		147	dominance	101	2.0	2		616.1331859874945	1.233454005187923
173.0	590.9858653041301	rating	1.0		52	dominance	101	2.0	2		617.3666399926824	0.44170486902385164
173.0	591.427570173154	fix	2.0		59	dominance	101	2.0	2	1.3099999999999996	617.8083448617062	0.516751332163949
174.0	591.9443215053179	face	0.0		147	dominance	100	2.0	2		618.3250961938702	1.233454005187923
174.0	593.1777755105059	rating	1.0		42	dominance	100	2.0	2		619.5585501990581	0.3583920870332804
174.0	593.5361675975391	fix	2.0		60	dominance	100	2.0	2	0.7800000000000002	619.9169422860914	0.5167401635035276
175.0	594.0529077610427	face	0.0		147	dominance	018	2.0	2		620.4336824495949	1.2334618534359834
175.0	595.2863696144786	rating	1.0		49	dominance	018	2.0	2		621.6671443030309	0.4167072914160599
175.0	595.7030769058947	fix	2.0		60	dominance	018	2.0	2	-1.6600000000000001	622.083851594447	0.5167905734078886
176.0	596.2198674793026	face	0.0		147	dominance	061	2.0	2		622.6006421678549	1.2334132546657202
176.0	597.4532807339683	rating	1.0		44	dominance	061	2.0	2		623.8340554225206	0.3750342983557857
176.0	597.8283150323241	fix	2.0		60	dominance	061	2.0	2	1.9299999999999997	624.2090897208764	0.5167573692797305
177.0	598.3450724016038	face	0.0		147	dominance	141	2.0	2		624.7258470901561	1.2334497792071488
177.0	599.578522180811	rating	1.0		47	dominance	141	2.0	2		625.9592968693632	0.4000508928738782
177.0	599.9785730736849	fix	2.0		60	dominance	141	2.0	2	-1.4100000000000001	626.3593477622371	0.5167555581447232
178.0	600.4953286318296	face	0.0		147	dominance	062	2.0	2		626.8761033203818	1.2334503829197274
178.0	601.7287790147493	rating	1.0		42	dominance	062	2.0	2		628.1095537033016	0.3583700515655437
178.0	602.0871490663149	fix	2.0		60	dominance	062	2.0	2	1.8099999999999996	628.4679237548671	0.5167582748463246
179.0	602.6039073411612	face	0.0		147	dominance	121	2.0	2		628.9846820297134	1.2334537033320885
179.0	603.8373610444933	rating	1.0		148	dominance	121	2.0	2		630.2181357330455	1.2418117863189764
179.0	605.0791728308122	fix	2.0		60	dominance	121	2.0	2	0.9500000000000002	631.4599475193645	0.516769141651821
180.0	605.5959419724641	face	0.0		147	dominance	124	2.0	2		631.9767166610163	1.2334380068350583
180.0	606.8293799792991	rating	1.0		64	dominance	124	2.0	2		633.2101546678514	0.5417220446133797
180.0	607.3711020239125	fix	2.0		60	dominance	124	2.0	2	0.9400000000000004	633.7518767124648	0.5167606896920915
181.0	607.8878627136046	face	0.0		147	dominance	012	2.0	2		634.2686374021569	1.2334618534359834
181.0	609.1213245670406	rating	1.0		105	dominance	012	2.0	2		635.5020992555928	0.8834236234097261
181.0	610.0047481904503	fix	2.0		60	dominance	012	2.0	2	1.71	636.3855228790026	0.5167540488664599
182.0	610.5215022393168	face	0.0		147	dominance	027	2.0	2		636.902276927869	1.2334470625064569
182.0	611.7549493018232	rating	1.0		137	dominance	027	2.0	2		638.1357239903755	1.1501376009291562
182.0	612.9050869027524	fix	2.0		60	dominance	027	2.0	2	0.6399999999999997	639.2858615913046	0.5167640101044526
183.0	613.4218509128568	face	0.0		147	dominance	024	2.0	2		639.8026256014091	1.2334401198249907
183.0	614.6552910326818	rating	1.0		79	dominance	024	2.0	2		641.0360657212341	0.6667479664729399
183.0	615.3220389991548	fix	2.0		60	dominance	024	2.0	2	3.1500000000000004	641.702813687707	0.5167480117524974
184.0	615.8387870109073	face	0.0		147	dominance	009	2.0	2		642.2195616994595	1.2334609478693892
184.0	617.0722479587766	rating	1.0		57	dominance	009	2.0	2		643.4530226473289	0.483384804763773
184.0	617.5556327635404	fix	2.0		60	dominance	009	2.0	2	0.009999999999999787	643.9364074520927	0.5167597841245879
185.0	618.072392547665	face	0.0		147	dominance	033	2.0	2		644.4531672362173	1.233445251372359
185.0	619.3058377990374	rating	1.0		39	dominance	033	2.0	2		645.6866124875896	0.3333658331321203
185.0	619.6392036321695	fix	2.0		60	dominance	033	2.0	2	0.6900000000000004	646.0199783207217	0.5167606896920915
186.0	620.1559643218616	face	0.0		147	dominance	005	2.0	2		646.5367390104138	1.2334521940529157
186.0	621.3894165159145	rating	1.0		76	dominance	005	2.0	2		647.7701912044668	0.6417422387612532
186.0	622.0311587546757	fix	2.0		60	dominance	005	2.0	2	-3.2	648.411933443228	0.5167549544339636
187.0	622.5479137091097	face	0.0		147	dominance	130	2.0	2		648.928688397662	1.2334537033320885
187.0	623.7813674124418	rating	1.0		172	dominance	130	2.0	2		650.1621421009941	1.4418274224444758
187.0	625.2231948348863	fix	2.0		60	dominance	130	2.0	2	-2.8	651.6039695234385	0.516760387836257
188.0	625.7399552227225	face	0.0		147	dominance	172	2.0	2		652.1207299112748	1.233447666218126
188.0	626.9734028889407	rating	1.0		146	dominance	172	2.0	2		653.3541775774929	1.2251378801456667
188.0	628.1985407690863	fix	2.0		60	dominance	172	2.0	2	-0.3500000000000001	654.5793154576386	0.5167757824774526
189.0	628.7153165515638	face	0.0		147	dominance	011	2.0	2		655.096091240116	1.2334407235366598
189.0	629.9487572751004	rating	1.0		72	dominance	011	2.0	2		656.3295319636527	0.6083929171363707
189.0	630.5571501922368	fix	2.0		60	dominance	011	2.0	2	0.5999999999999996	656.9379248807891	0.5167597841245879
190.0	631.0739099763614	face	0.0		147	dominance	102	2.0	2		657.4546846649137	1.2334488736405547
190.0	632.307358850002	rating	1.0		56	dominance	102	2.0	2		658.6881335385542	0.4750547943594938
190.0	632.7824136443614	fix	2.0		60	dominance	102	2.0	2	-1.06	659.1631883329137	0.5167561618563923
191.0	633.2991698062178	face	0.0		147	dominance	091	2.0	2		659.6799444947701	1.233456721888615
191.0	634.5326265281064	rating	1.0		78	dominance	091	2.0	2		660.9134012166587	0.6584067874073298
191.0	635.1910333155138	fix	2.0		60	dominance	091	2.0	2	-1.35	661.571808004066	0.5167579729904901
192.0	635.7077912885043	face	0.0		147	dominance	006	2.0	2		662.0885659770565	1.2334579293119532
192.0	636.9412492178162	rating	1.0		49	dominance	006	2.0	2		663.3220239063685	0.4167133285300224
192.0	637.3579625463462	fix	2.0		60	dominance	006	2.0	2	1.96	663.7387372348985	0.5167401635035276
193.0	637.8747027098498	face	0.0		147	dominance	092	2.0	2		664.255477398402	1.2334618534359834
193.0	639.1081645632858	rating	1.0		60	dominance	092	2.0	2		665.488939251838	0.5083875139189331
193.0	639.6165520772047	fix	2.0		60	dominance	092	2.0	2	0.16999999999999993	665.997326765757	0.5167525395881967
194.0	640.1333046167929	face	0.0		147	dominance	126	2.0	2		666.5140793053451	1.2334579293119532
194.0	641.3667625461048	rating	1.0		80	dominance	126	2.0	2		667.7475372346571	0.6750649970826998
194.0	642.0418275431875	fix	2.0		60	dominance	126	2.0	2	0.8200000000000003	668.4226022317398	0.5167703490751592
195.0	642.5585978922627	face	0.0		147	dominance	087	2.0	2		668.939372580815	1.233453401476254
195.0	643.792051293739	rating	1.0		62	dominance	087	2.0	2		670.1728259822912	0.5250502514300024
195.0	644.317101545169	fix	2.0		60	dominance	087	2.0	2	0.8499999999999996	670.6978762337212	0.5168150237213922
196.0	644.8339165688903	face	0.0		147	dominance	036	2.0	2		671.2146912574426	1.2334020860043893
196.0	646.0673186548947	rating	1.0		95	dominance	036	2.0	2		672.448093343447	0.8000894096639968
196.0	646.8674080645587	fix	2.0		59	dominance	036	2.0	2	0.45999999999999996	673.248182753111	0.516748615463257
197.0	647.384156680022	face	0.0		147	dominance	144	2.0	2		673.7649313685743	1.2334527977645848
197.0	648.6176094777866	rating	1.0		98	dominance	144	2.0	2		674.9983841663388	0.8250978540772849
197.0	649.4427073318639	fix	2.0		60	dominance	144	2.0	2	0.4900000000000002	675.8234820204161	0.5167455969067305
198.0	649.9594529287706	face	0.0		147	dominance	043	2.0	2		676.3402276173229	1.2334585330227128
198.0	651.1929114617933	rating	1.0		63	dominance	043	2.0	2		677.5736861503456	0.533391732353266
198.0	651.7263031941466	fix	2.0		60	dominance	043	2.0	2	0.6399999999999997	678.1070778826988	0.5167760843341966
199.0	652.2430792784808	face	0.0		147	dominance	082	2.0	2		678.623853967033	1.233427743739412
199.0	653.4765070222202	rating	1.0		83	dominance	082	2.0	2		679.8572817107724	0.7000936658296268
199.0	654.1766006880498	fix	2.0		60	dominance	082	2.0	2	0.5599999999999996	680.5573753766021	0.500052070111451
200.0	654.6766527581613	cue	0.0		480						681.0574274467135	4.000458820692074
200.0	658.6771115788533	fix	1.0		120						685.0578862674056	1.0168260414548058
200.0	659.6939376203081	face	0.0		147	trustworthiness	064	2.0	2		686.0747123088604	1.2334461569389532
200.0	660.9273837772471	rating	1.0		72	trustworthiness	064	2.0	2		687.3081584657994	0.6084031802311074
200.0	661.5357869574782	fix	2.0		60	trustworthiness	064	2.0	2	1.67	687.9165616460305	0.5167848381497606
201.0	662.052571795628	face	0.0		147	trustworthiness	070	2.0	2		688.4333464841802	1.2334229140487878
201.0	663.2859947096767	rating	1.0		88	trustworthiness	070	2.0	2		689.666769398229	0.7417500568244577
201.0	664.0277447665012	fix	2.0		61	trustworthiness	070	2.0	2	-1.8399999999999999	690.4085194550535	0.5250867759723405
202.0	664.5528315424735	face	0.0		146	trustworthiness	066	2.0	2		690.9336062310258	1.2251176558129373
202.0	665.7779491982865	rating	1.0		125	trustworthiness	066	2.0	2		692.1587238868387	1.050125556886087
202.0	666.8280747551726	fix	2.0		60	trustworthiness	066	2.0	2	1.1399999999999997	693.2088494437248	0.5167555581447232
203.0	667.3448303133173	face	0.0		147	trustworthiness	101	2.0	2		693.7256050018696	1.2334434402373518
203.0	668.5782737535546	rating	1.0		71	trustworthiness	101	2.0	2		694.9590484421069	0.6000755846716856
203.0	669.1783493382263	fix	2.0		60	trustworthiness	101	2.0	2	-1.29	695.5591240267786	0.5167621989712643
204.0	669.6951115371976	face	0.0		147	trustworthiness	027	2.0	2		696.0758862257499	1.233524941280848
204.0	670.9286364784784	rating	1.0		61	trustworthiness	027	2.0	2		697.3094111670307	0.5166429659620917
204.0	671.4452794444405	fix	2.0		60	trustworthiness	027	2.0	2	0.9299999999999997	697.8260541329928	0.5167540488664599
205.0	671.962033493307	face	0.0		147	trustworthiness	144	2.0	2		698.3428081818593	1.233462155291818
205.0	673.1954956485988	rating	1.0		92	trustworthiness	144	2.0	2		699.5762703371511	0.7750818708173028
205.0	673.9705775194161	fix	2.0		60	trustworthiness	144	2.0	2	0.9000000000000004	700.3513522079684	0.5167537470106254
206.0	674.4873312664267	face	0.0		147	trustworthiness	044	2.0	2		700.868105954979	1.2334582311677877
206.0	675.7207894975945	rating	1.0		54	trustworthiness	044	2.0	2		702.1015641861468	0.4584231479866503
206.0	676.1792126455812	fix	2.0		60	trustworthiness	044	2.0	2	1.7199999999999998	702.5599873341334	0.5167259762847607
207.0	676.6959386218659	face	0.0		147	trustworthiness	011	2.0	2		703.0767133104182	1.2334374031233892
207.0	677.9293760249893	rating	1.0		68	trustworthiness	011	2.0	2		704.3101507135416	0.5751006462423902
207.0	678.5044766712317	fix	2.0		60	trustworthiness	011	2.0	2	0.4900000000000002	704.885251359784	0.5167362393785879
208.0	679.0212129106103	face	0.0		147	trustworthiness	172	2.0	2		705.4019875991626	1.2334313660094267
208.0	680.2546442766197	rating	1.0		52	trustworthiness	172	2.0	2		706.635418965172	0.4417290174806112
208.0	680.6963732941003	fix	2.0		60	trustworthiness	172	2.0	2	0.46999999999999975	707.0771479826526	0.5167594822687533
209.0	681.2131327763691	face	0.0		147	trustworthiness	036	2.0	2		707.5939074649214	1.2334340827101187
209.0	682.4465668590792	rating	1.0		56	trustworthiness	036	2.0	2		708.8273415476315	0.4750599259068622
209.0	682.9216267849861	fix	2.0		60	trustworthiness	036	2.0	2	2.9699999999999998	709.3024014735383	0.5167567655680614
210.0	683.4383835505541	face	0.0		147	trustworthiness	121	2.0	2		709.8191582391064	1.2334422328140136
210.0	684.6718257833681	rating	1.0		83	trustworthiness	121	2.0	2		711.0526004719204	0.7000785730442658
210.0	685.3719043564124	fix	2.0		60	trustworthiness	121	2.0	2	0.41999999999999993	711.7526790449647	0.5167540488655504
211.0	685.888658405278	face	0.0		147	trustworthiness	038	2.0	2		712.2694330938302	1.2334582311677877
211.0	687.1221166364458	rating	1.0		61	trustworthiness	038	2.0	2		713.502891324998	0.5167295985529563
211.0	687.6388462349987	fix	2.0		60	trustworthiness	038	2.0	2	-0.54	714.019620923551	0.5167567655680614
212.0	688.1556030005668	face	0.0		147	trustworthiness	034	2.0	2		714.536377689119	1.2334497792071488
212.0	689.3890527797739	rating	1.0		99	trustworthiness	034	2.0	2		715.7698274683262	0.8334339015973455
212.0	690.2224866813713	fix	2.0		60	trustworthiness	034	2.0	2	-0.4700000000000002	716.6032613699235	0.5084189069139029
213.0	690.7309055882852	face	0.0		148	trustworthiness	099	2.0	2		717.1116802768374	1.241786430437969
213.0	691.9726920187231	rating	1.0		78	trustworthiness	099	2.0	2		718.3534667072754	0.6584408971039011
213.0	692.631132915827	fix	2.0		60	trustworthiness	099	2.0	2	0.7400000000000002	719.0119076043793	0.5083817786598956
214.0	693.1395146944869	face	0.0		148	trustworthiness	012	2.0	2		719.5202893830392	1.2417951842544426
214.0	694.3813098787414	rating	1.0		74	trustworthiness	012	2.0	2		720.7620845672936	0.6250635028973193
214.0	695.0063733816387	fix	2.0		60	trustworthiness	012	2.0	2	-1.12	721.387148070191	0.5167748769108584
215.0	695.5231482585496	face	0.0		147	trustworthiness	061	2.0	2		721.9039229471018	1.2334340827101187
215.0	696.7565823412597	rating	1.0		67	trustworthiness	061	2.0	2		723.1373570298119	0.5667283760367354
215.0	697.3233107172964	fix	2.0		60	trustworthiness	061	2.0	2	-0.9500000000000002	723.7040854058487	0.516783932582257
216.0	697.8400946498787	face	0.0		147	trustworthiness	006	2.0	2		724.2208693384309	1.2334262344620583
216.0	699.0735208843407	rating	1.0		58	trustworthiness	006	2.0	2		725.454295572893	0.4917217578504278
216.0	699.5652426421912	fix	2.0		60	trustworthiness	006	2.0	2	1.1500000000000004	725.9460173307434	0.516772160209257
217.0	700.0820148024004	face	0.0		147	trustworthiness	136	2.0	2		726.4627894909527	1.2334355919892914
217.0	701.3154503943897	rating	1.0		76	trustworthiness	136	2.0	2		727.696225082942	0.6417371072138849
217.0	701.9571875016036	fix	2.0		60	trustworthiness	136	2.0	2	0.5999999999999996	728.3379621901558	0.5167706509309937
218.0	702.4739581525346	face	0.0		147	trustworthiness	009	2.0	2		728.8547328410868	1.233439214257487
218.0	703.7073973667921	rating	1.0		71	trustworthiness	009	2.0	2		730.0881720553443	0.6000674345668813
218.0	704.307464801359	fix	2.0		60	trustworthiness	009	2.0	2	1.4900000000000002	730.6882394899112	0.5167628026820239
219.0	704.824227604041	face	0.0		147	trustworthiness	005	2.0	2		731.2050022925932	1.2334386105467274
219.0	706.0576662145877	rating	1.0		111	trustworthiness	005	2.0	2		732.43844090314	0.9334577180125052
219.0	706.9911239326002	fix	2.0		60	trustworthiness	005	2.0	2	-0.41999999999999993	733.3718986211525	0.5167501247424298
220.0	707.5078740573426	face	0.0		147	trustworthiness	039	2.0	2		733.8886487458949	1.2334452513714496
220.0	708.7413193087141	rating	1.0		46	trustworthiness	039	2.0	2		735.1220939972663	0.39171695834465936
220.0	709.1330362670587	fix	2.0		60	trustworthiness	039	2.0	2	1.8899999999999997	735.513810955611	0.5167498228865952
221.0	709.6497860899453	face	0.0		147	trustworthiness	030	2.0	2		736.0305607784976	1.2334579293119532
221.0	710.8832440192573	rating	1.0		64	trustworthiness	030	2.0	2		737.2640187078096	0.5417184223451841
221.0	711.4249624416025	fix	2.0		60	trustworthiness	030	2.0	2	1.88	737.8057371301547	0.516754350721385
222.0	711.9417167923239	face	0.0		147	trustworthiness	043	2.0	2		738.3224914808761	1.2334552126112612
222.0	713.1751720049351	rating	1.0		50	trustworthiness	043	2.0	2		739.5559466934874	0.42504726305833174
222.0	713.6002192679935	fix	2.0		60	trustworthiness	043	2.0	2	1.12	739.9809939565457	0.5167510303090239
223.0	714.1169702983025	face	0.0		147	trustworthiness	091	2.0	2		740.4977449868547	1.2334721165316296
223.0	715.3504424148341	rating	1.0		104	trustworthiness	091	2.0	2		741.7312171033864	0.8750872740338309
223.0	716.2255296888679	fix	2.0		60	trustworthiness	091	2.0	2	2.25	742.6063043774202	0.5167501247424298
224.0	716.7422798136104	face	0.0		147	trustworthiness	100	2.0	2		743.1230545021626	1.233459740446051
224.0	717.9757395540564	rating	1.0		58	trustworthiness	100	2.0	2		744.3565142426087	0.49171481516896165
224.0	718.4674543692254	fix	2.0		60	trustworthiness	100	2.0	2	1.42	744.8482290577776	0.5167585767021592
225.0	718.9842129459275	face	0.0		147	trustworthiness	117	2.0	2		745.3649876344798	1.2334455532281936
225.0	720.2176584991557	rating	1.0		52	trustworthiness	117	2.0	2		746.598433187708	0.4417148302618443
225.0	720.6593733294176	fix	2.0		60	trustworthiness	117	2.0	2	0.5300000000000002	747.0401480179698	0.5167585767021592
226.0	721.1761319061197	face	0.0		147	trustworthiness	137	2.0	2		747.556906594672	1.2334540051870135
226.0	722.4095859113067	rating	1.0		61	trustworthiness	137	2.0	2		748.790360599859	0.5167256744289261
226.0	722.9263115857357	fix	2.0		60	trustworthiness	137	2.0	2	1.08	749.3070862742879	0.5167528414431217
227.0	723.4430644271788	face	0.0		147	trustworthiness	102	2.0	2		749.8238391157311	1.233465173849254
227.0	724.676529601028	rating	1.0		181	trustworthiness	102	2.0	2		751.0573042895803	1.5168337387758584
227.0	726.1933633398039	fix	2.0		60	trustworthiness	102	2.0	2	1.62	752.5741380283562	0.5167866492838584
228.0	726.7101499890878	face	0.0		147	trustworthiness	024	2.0	2		753.09092467764	1.2334259326062238
228.0	727.943575921694	rating	1.0		114	trustworthiness	024	2.0	2		754.3243506102463	0.9584386935566727
228.0	728.9020146152507	fix	2.0		60	trustworthiness	024	2.0	2	2.45	755.2827893038029	0.5167585767012497
229.0	729.4187731919519	face	0.0		147	trustworthiness	124	2.0	2		755.7995478805042	1.2334546088995921
229.0	730.6522278008515	rating	1.0		154	trustworthiness	124	2.0	2		757.0330024894038	1.291804526688793
229.0	731.9440323275403	fix	2.0		60	trustworthiness	124	2.0	2	1.8499999999999996	758.3248070160926	0.5167458987616556
230.0	732.460778226302	face	0.0		147	trustworthiness	018	2.0	2		758.8415529148542	1.2334675886950208
230.0	733.694245814997	rating	1.0		240	trustworthiness	018	2.0	2		760.0750205035492	2.0085724005466545
230.0	735.7028182155436	fix	2.0		60	trustworthiness	018	2.0	2	-0.2799999999999998	762.0835929040959	0.5167443894833923
231.0	736.219562605027	face	0.0		147	trustworthiness	141	2.0	2		762.6003372935793	1.2334561181778554
231.0	737.4530187232049	rating	1.0		101	trustworthiness	141	2.0	2		763.8337934117571	0.8500945261184825
231.0	738.3031132493234	fix	2.0		59	trustworthiness	141	2.0	2	0.7800000000000002	764.6838879378756	0.5167549544330541
232.0	738.8198682037564	face	0.0		147	trustworthiness	087	2.0	2		765.2006428923087	1.2334561181778554
232.0	740.0533243219343	rating	1.0		81	trustworthiness	087	2.0	2		766.4340990104865	0.6834091947057459
232.0	740.73673351664	fix	2.0		60	trustworthiness	087	2.0	2	1.1900000000000004	767.1175082051923	0.5167573692797305
233.0	741.2534908859197	face	0.0		147	trustworthiness	082	2.0	2		767.634265574472	1.233447968073051
233.0	742.4869388539928	rating	1.0		83	trustworthiness	082	2.0	2		768.8677135425451	0.7001205309879879
233.0	743.1870593849808	fix	2.0		60	trustworthiness	082	2.0	2	1.92	769.567834073533	0.5167148076234298
234.0	743.7037741926042	face	0.0		147	trustworthiness	033	2.0	2		770.0845488811565	1.2334600423018856
234.0	744.9372342349061	rating	1.0		83	trustworthiness	033	2.0	2		771.3180089234584	0.7000713285060556
234.0	745.6373055634122	fix	2.0		60	trustworthiness	033	2.0	2	-1.13	772.0180802519644	0.5167489173190916
235.0	746.1540544807312	face	0.0		147	trustworthiness	062	2.0	2		772.5348291692835	1.233457325600284
235.0	747.3875118063315	rating	1.0		56	trustworthiness	062	2.0	2		773.7682864948838	0.4750741131256291
235.0	747.8625859194572	fix	2.0		60	trustworthiness	062	2.0	2	-0.3799999999999999	774.2433606080094	0.5167410690701217
236.0	748.3793269885273	face	0.0		147	trustworthiness	126	2.0	2		774.7601016770795	1.2334419309590885
236.0	749.6127689194864	rating	1.0		40	trustworthiness	126	2.0	2		775.9935436080386	0.3417130493135119
236.0	749.9544819687999	fix	2.0		60	trustworthiness	126	2.0	2	0.8300000000000001	776.3352566573521	0.516763406393693
237.0	750.4712453751936	face	0.0		147	trustworthiness	130	2.0	2		776.8520200637458	1.2334337808542841
237.0	751.7046791560479	rating	1.0		63	trustworthiness	130	2.0	2		778.0854538446001	0.5333998824571609
237.0	752.238079038505	fix	2.0		60	trustworthiness	130	2.0	2	1.6799999999999997	778.6188537270573	0.5167492191749261
238.0	752.75482825768	face	0.0		147	trustworthiness	042	2.0	2		779.1356029462322	1.2334515903421561
238.0	753.9882798480221	rating	1.0		74	trustworthiness	042	2.0	2		780.3690545365744	0.6250782938268458
238.0	754.613358141849	fix	2.0		60	trustworthiness	042	2.0	2	1.62	780.9941328304012	0.516745596905821
239.0	755.1301037387548	face	0.0		147	trustworthiness	092	2.0	2		781.510878427307	1.2334618534359834
239.0	756.3635655921908	rating	1.0		106	trustworthiness	092	2.0	2		782.744340280743	0.8917675191778471
239.0	757.2553331113686	fix	2.0		60	trustworthiness	092	2.0	2	-0.9900000000000002	783.6361077999209	0.5000587109370827
