trial_nr	onset	event_type	phase	response	nr_frames	face_age	face_sex	face_eth	attractiveness	expression	face_id	sub_id	ses	run	trial_type	catch	rating_type	onset_abs	duration
-1.0	0.05474951937139849	fix	0.0		714													30.943027319972316	5.966016280239273
-1.0	0.7043163124471903	pulse	0.0	t														31.592594113048108	
-1.0	1.4042913490520732	pulse	0.0	t														32.29256914965299	
-1.0	2.1042832895291212	pulse	0.0	t														32.99256109013004	
-1.0	2.8042649669441744	pulse	0.0	t														33.69254276754509	
-1.0	3.5042602278226695	pulse	0.0	t														34.39253802842359	
-1.0	4.204240999672038	pulse	0.0	t														35.092518800272956	
-1.0	4.904229317889985	pulse	0.0	t														35.7925071184909	
-1.0	5.604217937965586	pulse	0.0	t														36.492495738566504	
0.0	6.020765799610672	face	0.0		144	21.0	male	black	2.969757262236371	neutral	137	sub-06	1.0	3.0	137_neutral	0.0		36.90904360021159	1.2332975434146647
0.0	6.304202935782087	pulse	0.0	t		21.0	male	black	2.969757262236371	neutral	137	sub-06	1.0	3.0	137_neutral	0.0		37.192480736383004	
0.0	7.004176764967269	pulse	0.0	t		21.0	male	black	2.969757262236371	neutral	137	sub-06	1.0	3.0	137_neutral	0.0		37.89245456556819	
0.0	7.2540633430253365	fix	1.0		445	21.0	male	black	2.969757262236371	neutral	137	sub-06	1.0	3.0	137_neutral	0.0		38.142341143626254	3.758228486582084
0.0	7.704168403590302	pulse	1.0	t		21.0	male	black	2.969757262236371	neutral	137	sub-06	1.0	3.0	137_neutral	0.0		38.59244620419122	
0.0	8.40415038285937	pulse	1.0	t		21.0	male	black	2.969757262236371	neutral	137	sub-06	1.0	3.0	137_neutral	0.0		39.29242818346029	
0.0	9.10414413446415	pulse	1.0	t		21.0	male	black	2.969757262236371	neutral	137	sub-06	1.0	3.0	137_neutral	0.0		39.99242193506507	
0.0	9.80411917107267	pulse	1.0	t		21.0	male	black	2.969757262236371	neutral	137	sub-06	1.0	3.0	137_neutral	0.0		40.69239697167359	
0.0	10.504101150338101	pulse	1.0	t		21.0	male	black	2.969757262236371	neutral	137	sub-06	1.0	3.0	137_neutral	0.0		41.39237895093902	
1.0	11.01229182960742	face	0.0		146	24.0	male	white	3.1153999204138483	smiling	012	sub-06	1.0	3.0	012_smiling	0.0		41.90056963020834	1.2416664679440146
1.0	11.204103052026767	pulse	0.0	t		24.0	male	white	3.1153999204138483	smiling	012	sub-06	1.0	3.0	012_smiling	0.0		42.092380852627684	
1.0	11.904078390485665	pulse	0.0	t		24.0	male	white	3.1153999204138483	smiling	012	sub-06	1.0	3.0	012_smiling	0.0		42.79235619108658	
1.0	12.253958297551435	fix	1.0		445	24.0	male	white	3.1153999204138483	smiling	012	sub-06	1.0	3.0	012_smiling	0.0		43.14223609815235	3.758256860935944
1.0	12.604079688462662	pulse	1.0	t		24.0	male	white	3.1153999204138483	smiling	012	sub-06	1.0	3.0	012_smiling	0.0		43.49235748906358	
1.0	13.304058347326645	pulse	1.0	t		24.0	male	white	3.1153999204138483	smiling	012	sub-06	1.0	3.0	012_smiling	0.0		44.19233614792756	
1.0	14.004030969095766	pulse	1.0	t		24.0	male	white	3.1153999204138483	smiling	012	sub-06	1.0	3.0	012_smiling	0.0		44.89230876969668	
1.0	14.704020796591067	pulse	1.0	t		24.0	male	white	3.1153999204138483	smiling	012	sub-06	1.0	3.0	012_smiling	0.0		45.592298597191984	
1.0	15.404010925936745	pulse	1.0	t		24.0	male	white	3.1153999204138483	smiling	012	sub-06	1.0	3.0	012_smiling	0.0		46.29228872653766	
2.0	16.01221515848738	face	0.0		146	54.0	female	white	2.286908077994429	smiling	136	sub-06	1.0	3.0	136_smiling	0.0		46.9004929590883	1.2416386973018234
2.0	16.103990188512398	pulse	0.0	t		54.0	female	white	2.286908077994429	smiling	136	sub-06	1.0	3.0	136_smiling	0.0		46.992267989113316	
2.0	16.803973073343514	pulse	0.0	t		54.0	female	white	2.286908077994429	smiling	136	sub-06	1.0	3.0	136_smiling	0.0		47.69225087394443	
2.0	17.253853855789202	fix	1.0		445	54.0	female	white	2.286908077994429	smiling	136	sub-06	1.0	3.0	136_smiling	0.0		48.14213165639012	3.758260483191407
2.0	17.503966221240262	pulse	1.0	t		54.0	female	white	2.286908077994429	smiling	136	sub-06	1.0	3.0	136_smiling	0.0		48.39224402184118	
2.0	18.203958463571325	pulse	1.0	t		54.0	female	white	2.286908077994429	smiling	136	sub-06	1.0	3.0	136_smiling	0.0		49.09223626417224	
2.0	18.90393440574553	pulse	1.0	t		54.0	female	white	2.286908077994429	smiling	136	sub-06	1.0	3.0	136_smiling	0.0		49.79221220634645	
2.0	19.603922422109463	pulse	1.0	t		54.0	female	white	2.286908077994429	smiling	136	sub-06	1.0	3.0	136_smiling	0.0		50.49220022271038	
2.0	20.303916777422273	pulse	1.0	t		54.0	female	white	2.286908077994429	smiling	136	sub-06	1.0	3.0	136_smiling	0.0		51.19219457802319	
3.0	21.01211433898061	face	0.0		147	24.0	female	east_asian	4.409868682849185	smiling	030	sub-06	1.0	3.0	030_smiling	0.0		51.90039213958153	1.2416353769003763
3.0	21.00302277404262	pulse	0.0	t		24.0	female	east_asian	4.409868682849185	smiling	030	sub-06	1.0	3.0	030_smiling	0.0		51.89130057464354	
3.0	21.703876811847294	pulse	0.0	t		24.0	female	east_asian	4.409868682849185	smiling	030	sub-06	1.0	3.0	030_smiling	0.0		52.59215461244821	
3.0	22.253749715880986	fix	1.0		443	24.0	female	east_asian	4.409868682849185	smiling	030	sub-06	1.0	3.0	030_smiling	0.0		53.1420275164819	3.7582613887534535
3.0	22.403864224503195	pulse	1.0	t		24.0	female	east_asian	4.409868682849185	smiling	030	sub-06	1.0	3.0	030_smiling	0.0		53.29214202510411	
3.0	23.103843788932863	pulse	1.0	t		24.0	female	east_asian	4.409868682849185	smiling	030	sub-06	1.0	3.0	030_smiling	0.0		53.99212158953378	
3.0	23.803823957070563	pulse	1.0	t		24.0	female	east_asian	4.409868682849185	smiling	030	sub-06	1.0	3.0	030_smiling	0.0		54.69210175767148	
3.0	24.503814991981926	pulse	1.0	t		24.0	female	east_asian	4.409868682849185	smiling	030	sub-06	1.0	3.0	030_smiling	0.0		55.392092792582844	
3.0	25.203798178670695	pulse	1.0	t		24.0	female	east_asian	4.409868682849185	smiling	030	sub-06	1.0	3.0	030_smiling	0.0		56.09207597927161	
3.0	25.903786195034627	pulse	1.0	t		24.0	female	east_asian	4.409868682849185	smiling	030	sub-06	1.0	3.0	030_smiling	0.0		56.792063995635544	
4.0	26.01201110463444	face	0.0		147	54.0	female	white	2.286908077994429	neutral	136	sub-06	1.0	3.0	136_neutral	1.0	attractiveness	56.90028890523536	1.2416393010134925
4.0	26.60377481510659	pulse	0.0	t		54.0	female	white	2.286908077994429	neutral	136	sub-06	1.0	3.0	136_neutral	1.0	attractiveness	57.49205261570751	
4.0	27.25365040564793	fix	1.0		176	54.0	female	white	2.286908077994429	neutral	136	sub-06	1.0	3.0	136_neutral	1.0	attractiveness	58.14192820624885	1.5083265139328432
4.0	27.303798450338945	pulse	1.0	t		54.0	female	white	2.286908077994429	neutral	136	sub-06	1.0	3.0	136_neutral	1.0	attractiveness	58.19207625093986	
4.0	28.00374722557899	pulse	1.0	t		54.0	female	white	2.286908077994429	neutral	136	sub-06	1.0	3.0	136_neutral	1.0	attractiveness	58.89202502617991	
4.0	28.703718941782427	pulse	1.0	t		54.0	female	white	2.286908077994429	neutral	136	sub-06	1.0	3.0	136_neutral	1.0	attractiveness	59.591996742383344	
4.0	28.761976919580775	rating	2.0		294	54.0	female	white	2.286908077994429	neutral	136	sub-06	1.0	3.0	136_neutral	1.0	attractiveness	59.65025472018169	2.491585042607767
4.0	29.403718126774038	pulse	2.0	t		54.0	female	white	2.286908077994429	neutral	136	sub-06	1.0	3.0	136_neutral	1.0	attractiveness	60.291995927374955	
4.0	30.103709463543055	pulse	2.0	t		54.0	female	white	2.286908077994429	neutral	136	sub-06	1.0	3.0	136_neutral	1.0	attractiveness	60.99198726414397	
4.0	30.206804954403196	response	2.0	w		54.0	female	white	2.286908077994429	neutral	136	sub-06	1.0	3.0	136_neutral	1.0	attractiveness	61.095082755004114	
4.0	30.80367121853851	pulse	2.0	t		54.0	female	white	2.286908077994429	neutral	136	sub-06	1.0	3.0	136_neutral	1.0	attractiveness	61.69194901913943	
4.0	31.25356196218854	fix	3.0		444	54.0	female	white	2.286908077994429	neutral	136	sub-06	1.0	3.0	136_neutral	1.0	attractiveness	62.14183976278946	3.758257766497991
4.0	31.50367251651187	pulse	3.0	t		54.0	female	white	2.286908077994429	neutral	136	sub-06	1.0	3.0	136_neutral	1.0	attractiveness	62.39195031711279	
4.0	32.20365147723351	pulse	3.0	t		54.0	female	white	2.286908077994429	neutral	136	sub-06	1.0	3.0	136_neutral	1.0	attractiveness	63.091929277834424	
4.0	32.90362953238946	pulse	3.0	t		54.0	female	white	2.286908077994429	neutral	136	sub-06	1.0	3.0	136_neutral	1.0	attractiveness	63.79190733299038	
4.0	33.60361694504172	pulse	3.0	t		54.0	female	white	2.286908077994429	neutral	136	sub-06	1.0	3.0	136_neutral	1.0	attractiveness	64.49189474564264	
4.0	34.303614017051586	pulse	3.0	t		54.0	female	white	2.286908077994429	neutral	136	sub-06	1.0	3.0	136_neutral	1.0	attractiveness	65.1918918176525	
5.0	35.01181972868653	face	0.0		147	22.0	female	west_asian	3.8205332272184642	smiling	066	sub-06	1.0	3.0	066_smiling	0.0		65.90009752928745	1.2416426214185776
5.0	35.00325157998304	pulse	0.0	t		22.0	female	west_asian	3.8205332272184642	smiling	066	sub-06	1.0	3.0	066_smiling	0.0		65.89152938058396	
5.0	35.70358522010429	pulse	0.0	t		22.0	female	west_asian	3.8205332272184642	smiling	066	sub-06	1.0	3.0	066_smiling	0.0		66.5918630207052	
5.0	36.25346235010511	fix	1.0		443	22.0	female	west_asian	3.8205332272184642	smiling	066	sub-06	1.0	3.0	066_smiling	0.0		67.14174015070603	3.7665859406297386
5.0	36.403572330902534	pulse	1.0	t		22.0	female	west_asian	3.8205332272184642	smiling	066	sub-06	1.0	3.0	066_smiling	0.0		67.29185013150345	
5.0	37.10370523757592	pulse	1.0	t		22.0	female	west_asian	3.8205332272184642	smiling	066	sub-06	1.0	3.0	066_smiling	0.0		67.99198303817684	
5.0	37.80354142096985	pulse	1.0	t		22.0	female	west_asian	3.8205332272184642	smiling	066	sub-06	1.0	3.0	066_smiling	0.0		68.69181922157077	
5.0	38.5035206835455	pulse	1.0	t		22.0	female	west_asian	3.8205332272184642	smiling	066	sub-06	1.0	3.0	066_smiling	0.0		69.39179848414642	
5.0	39.2035080962014	pulse	1.0	t		22.0	female	west_asian	3.8205332272184642	smiling	066	sub-06	1.0	3.0	066_smiling	0.0		70.09178589680232	
5.0	39.90349399957995	pulse	1.0	t		22.0	female	west_asian	3.8205332272184642	smiling	066	sub-06	1.0	3.0	066_smiling	0.0		70.79177180018087	
6.0	40.02004829073485	face	0.0		146	25.0	female	west_asian	2.6756864305610826	smiling	064	sub-06	1.0	3.0	064_smiling	0.0		70.90832609133577	1.2333038823635434
6.0	40.60348141223585	pulse	0.0	t		25.0	female	west_asian	2.6756864305610826	smiling	064	sub-06	1.0	3.0	064_smiling	0.0		71.49175921283677	
6.0	41.25335217309839	fix	1.0		445	25.0	female	west_asian	2.6756864305610826	smiling	064	sub-06	1.0	3.0	064_smiling	0.0		72.14162997369931	3.7582544460965437
6.0	41.303461882227566	pulse	1.0	t		25.0	female	west_asian	2.6756864305610826	smiling	064	sub-06	1.0	3.0	064_smiling	0.0		72.19173968282848	
6.0	42.00346589689798	pulse	1.0	t		25.0	female	west_asian	2.6756864305610826	smiling	064	sub-06	1.0	3.0	064_smiling	0.0		72.8917436974989	
6.0	42.70343550011967	pulse	1.0	t		25.0	female	west_asian	2.6756864305610826	smiling	064	sub-06	1.0	3.0	064_smiling	0.0		73.59171330072058	
6.0	43.40342321462958	pulse	1.0	t		25.0	female	west_asian	2.6756864305610826	smiling	064	sub-06	1.0	3.0	064_smiling	0.0		74.2917010152305	
6.0	44.103407608734415	pulse	1.0	t		25.0	female	west_asian	2.6756864305610826	smiling	064	sub-06	1.0	3.0	064_smiling	0.0		74.99168540933533	
6.0	44.80339803993775	pulse	1.0	t		25.0	female	west_asian	2.6756864305610826	smiling	064	sub-06	1.0	3.0	064_smiling	0.0		75.69167584053866	
7.0	45.011606619194936	face	0.0		146	19.0	male	white	3.2522881018702745	smiling	018	sub-06	1.0	3.0	018_smiling	0.0		75.89988441979585	1.2416435269806243
7.0	45.503377604367415	pulse	0.0	t		19.0	male	white	3.2522881018702745	smiling	018	sub-06	1.0	3.0	018_smiling	0.0		76.39165540496833	
7.0	46.203361998472246	pulse	0.0	t		19.0	male	white	3.2522881018702745	smiling	018	sub-06	1.0	3.0	018_smiling	0.0		77.09163979907316	
7.0	46.25325014617556	fix	1.0		445	19.0	male	white	3.2522881018702745	smiling	018	sub-06	1.0	3.0	018_smiling	0.0		77.14152794677648	3.7582333162572468
7.0	46.903355750077026	pulse	1.0	t		19.0	male	white	3.2522881018702745	smiling	018	sub-06	1.0	3.0	018_smiling	0.0		77.79163355067794	
7.0	47.603339540473826	pulse	1.0	t		19.0	male	white	3.2522881018702745	smiling	018	sub-06	1.0	3.0	018_smiling	0.0		78.49161734107474	
7.0	48.30332212345456	pulse	1.0	t		19.0	male	white	3.2522881018702745	smiling	018	sub-06	1.0	3.0	018_smiling	0.0		79.19159992405548	
7.0	49.0032974619171	pulse	1.0	t		19.0	male	white	3.2522881018702745	smiling	018	sub-06	1.0	3.0	018_smiling	0.0		79.89157526251802	
7.0	49.70329453392333	pulse	1.0	t		19.0	male	white	3.2522881018702745	smiling	018	sub-06	1.0	3.0	018_smiling	0.0		80.59157233452424	
8.0	50.01148346243281	face	0.0		146	34.0	male	white	2.651014723438122	neutral	121	sub-06	1.0	3.0	121_neutral	1.0	attractiveness	80.89976126303372	1.2416604308491515
8.0	50.40330518940027	pulse	0.0	t		34.0	male	white	2.651014723438122	neutral	121	sub-06	1.0	3.0	121_neutral	1.0	attractiveness	81.29158299000119	
8.0	51.10327418891029	pulse	0.0	t		34.0	male	white	2.651014723438122	neutral	121	sub-06	1.0	3.0	121_neutral	1.0	attractiveness	81.99155198951121	
8.0	51.25314389328196	fix	1.0		177	34.0	male	white	2.651014723438122	neutral	121	sub-06	1.0	3.0	121_neutral	1.0	attractiveness	82.14142169388288	1.4999690598815505
8.0	51.80324892366116	pulse	1.0	t		34.0	male	white	2.651014723438122	neutral	121	sub-06	1.0	3.0	121_neutral	1.0	attractiveness	82.69152672426208	
8.0	52.503231506641896	pulse	1.0	t		34.0	male	white	2.651014723438122	neutral	121	sub-06	1.0	3.0	121_neutral	1.0	attractiveness	83.39150930724281	
8.0	52.75311295316351	rating	2.0		295	34.0	male	white	2.651014723438122	neutral	121	sub-06	1.0	3.0	121_neutral	1.0	attractiveness	83.64139075376443	2.4999467226261913
8.0	53.203220428567874	pulse	2.0	t		34.0	male	white	2.651014723438122	neutral	121	sub-06	1.0	3.0	121_neutral	1.0	attractiveness	84.09149822916879	
8.0	53.90321116162522	pulse	2.0	t		34.0	male	white	2.651014723438122	neutral	121	sub-06	1.0	3.0	121_neutral	1.0	attractiveness	84.79148896222614	
8.0	54.28652209230131	response	2.0	n		34.0	male	white	2.651014723438122	neutral	121	sub-06	1.0	3.0	121_neutral	1.0	attractiveness	85.17479989290223	
8.0	54.60317291662068	pulse	2.0	t		34.0	male	white	2.651014723438122	neutral	121	sub-06	1.0	3.0	121_neutral	1.0	attractiveness	85.4914507172216	
8.0	55.2530596757897	fix	3.0		443	34.0	male	white	2.651014723438122	neutral	121	sub-06	1.0	3.0	121_neutral	1.0	attractiveness	86.14133747639062	3.758221543921536
8.0	55.30317210161229	pulse	3.0	t		34.0	male	white	2.651014723438122	neutral	121	sub-06	1.0	3.0	121_neutral	1.0	attractiveness	86.19144990221321	
8.0	56.003157401286444	pulse	3.0	t		34.0	male	white	2.651014723438122	neutral	121	sub-06	1.0	3.0	121_neutral	1.0	attractiveness	86.89143520188736	
8.0	56.703130626763596	pulse	3.0	t		34.0	male	white	2.651014723438122	neutral	121	sub-06	1.0	3.0	121_neutral	1.0	attractiveness	87.59140842736451	
8.0	57.403129208047176	pulse	3.0	t		34.0	male	white	2.651014723438122	neutral	121	sub-06	1.0	3.0	121_neutral	1.0	attractiveness	88.2914070086481	
8.0	58.103112998443976	pulse	3.0	t		34.0	male	white	2.651014723438122	neutral	121	sub-06	1.0	3.0	121_neutral	1.0	attractiveness	88.9913907990449	
8.0	58.80308833690651	pulse	3.0	t		34.0	male	white	2.651014723438122	neutral	121	sub-06	1.0	3.0	121_neutral	1.0	attractiveness	89.69136613750743	
9.0	59.011281219711236	face	0.0		146	47.0	male	east_asian	2.171110226820533	neutral	024	sub-06	1.0	3.0	024_neutral	0.0		89.89955902031215	1.2416746180279006
9.0	59.503087521898124	pulse	0.0	t		47.0	male	east_asian	2.171110226820533	neutral	024	sub-06	1.0	3.0	024_neutral	0.0		90.39136532249904	
9.0	60.20306919930954	pulse	0.0	t		47.0	male	east_asian	2.171110226820533	neutral	024	sub-06	1.0	3.0	024_neutral	0.0		91.09134699991046	
9.0	60.25295583773914	fix	1.0		445	47.0	male	east_asian	2.171110226820533	neutral	024	sub-06	1.0	3.0	024_neutral	0.0		91.14123363834005	3.758328400519531
9.0	60.90305721567347	pulse	1.0	t		47.0	male	east_asian	2.171110226820533	neutral	024	sub-06	1.0	3.0	024_neutral	0.0		91.79133501627439	
9.0	61.60303647824912	pulse	1.0	t		47.0	male	east_asian	2.171110226820533	neutral	024	sub-06	1.0	3.0	024_neutral	0.0		92.49131427885004	
9.0	62.30302540017874	pulse	1.0	t		47.0	male	east_asian	2.171110226820533	neutral	024	sub-06	1.0	3.0	024_neutral	0.0		93.19130320077966	
9.0	63.00301130355729	pulse	1.0	t		47.0	male	east_asian	2.171110226820533	neutral	024	sub-06	1.0	3.0	024_neutral	0.0		93.8912891041582	
9.0	63.702991471698624	pulse	1.0	t		47.0	male	east_asian	2.171110226820533	neutral	024	sub-06	1.0	3.0	024_neutral	0.0		94.59126927229954	
10.0	64.01128423825867	face	0.0		146	20.0	female	white	3.9502586549940313	neutral	091	sub-06	1.0	3.0	091_neutral	0.0		94.89956203885959	1.2415680632802832
10.0	64.40299699563911	pulse	0.0	t		20.0	female	white	3.9502586549940313	neutral	091	sub-06	1.0	3.0	091_neutral	0.0		95.29127479624003	
10.0	65.10296267474769	pulse	0.0	t		20.0	female	white	3.9502586549940313	neutral	091	sub-06	1.0	3.0	091_neutral	0.0		95.9912404753486	
10.0	65.25285230153895	fix	1.0		445	20.0	female	white	3.9502586549940313	neutral	091	sub-06	1.0	3.0	091_neutral	0.0		96.14113010213987	3.7582505219834275
10.0	65.80295672821012	pulse	1.0	t		20.0	female	white	3.9502586549940313	neutral	091	sub-06	1.0	3.0	091_neutral	0.0		96.69123452881104	
10.0	66.50293146296099	pulse	1.0	t		20.0	female	white	3.9502586549940313	neutral	091	sub-06	1.0	3.0	091_neutral	0.0		97.3912092635619	
10.0	67.20291857376287	pulse	1.0	t		20.0	female	white	3.9502586549940313	neutral	091	sub-06	1.0	3.0	091_neutral	0.0		98.09119637436379	
10.0	67.90291141980197	pulse	1.0	t		20.0	female	white	3.9502586549940313	neutral	091	sub-06	1.0	3.0	091_neutral	0.0		98.79118922040288	
10.0	68.60288706011852	pulse	1.0	t		20.0	female	white	3.9502586549940313	neutral	091	sub-06	1.0	3.0	091_neutral	0.0		99.49116486071944	
11.0	69.01110282352238	face	0.0		146	24.0	female	black	3.0955033824114606	neutral	099	sub-06	1.0	3.0	099_neutral	0.0		99.8993806241233	1.24164503625434
11.0	69.30290103599691	pulse	0.0	t		24.0	female	black	3.0955033824114606	neutral	099	sub-06	1.0	3.0	099_neutral	0.0		100.19117883659783	
11.0	70.00286279099237	pulse	0.0	t		24.0	female	black	3.0955033824114606	neutral	099	sub-06	1.0	3.0	099_neutral	0.0		100.89114059159328	
11.0	70.25274785977672	fix	1.0		444	24.0	female	black	3.0955033824114606	neutral	099	sub-06	1.0	3.0	099_neutral	0.0		101.14102566037764	3.758242673757195
11.0	70.70285261848767	pulse	1.0	t		24.0	female	black	3.0955033824114606	neutral	099	sub-06	1.0	3.0	099_neutral	0.0		101.59113041908859	
11.0	71.40285934984786	pulse	1.0	t		24.0	female	black	3.0955033824114606	neutral	099	sub-06	1.0	3.0	099_neutral	0.0		102.29113715044878	
11.0	72.10282382153673	pulse	1.0	t		24.0	female	black	3.0955033824114606	neutral	099	sub-06	1.0	3.0	099_neutral	0.0		102.99110162213765	
11.0	72.80280549895178	pulse	1.0	t		24.0	female	black	3.0955033824114606	neutral	099	sub-06	1.0	3.0	099_neutral	0.0		103.6910832995527	
11.0	73.50278144112235	pulse	1.0	t		24.0	female	black	3.0955033824114606	neutral	099	sub-06	1.0	3.0	099_neutral	0.0		104.39105924172327	
12.0	74.01099053353391	face	0.0		146	25.0	female	black	3.858336649423	neutral	126	sub-06	1.0	3.0	126_neutral	0.0		104.89926833413483	1.2416516770572343
12.0	74.20278062611396	pulse	0.0	t		25.0	female	black	3.858336649423	neutral	126	sub-06	1.0	3.0	126_neutral	0.0		105.09105842671488	
12.0	74.9027607942553	pulse	0.0	t		25.0	female	black	3.858336649423	neutral	126	sub-06	1.0	3.0	126_neutral	0.0		105.79103859485622	
12.0	75.25264221059115	fix	1.0		445	25.0	female	black	3.858336649423	neutral	126	sub-06	1.0	3.0	126_neutral	0.0		106.14092001119207	3.758227581020037
12.0	75.60276329964836	pulse	1.0	t		25.0	female	black	3.858336649423	neutral	126	sub-06	1.0	3.0	126_neutral	0.0		106.49104110024928	
12.0	76.30273139359633	pulse	1.0	t		25.0	female	black	3.858336649423	neutral	126	sub-06	1.0	3.0	126_neutral	0.0		107.19100919419725	
12.0	77.00271518399313	pulse	1.0	t		25.0	female	black	3.858336649423	neutral	126	sub-06	1.0	3.0	126_neutral	0.0		107.89099298459405	
12.0	77.70270531333881	pulse	1.0	t		25.0	female	black	3.858336649423	neutral	126	sub-06	1.0	3.0	126_neutral	0.0		108.59098311393973	
12.0	78.4027180817975	pulse	1.0	t		25.0	female	black	3.858336649423	neutral	126	sub-06	1.0	3.0	126_neutral	0.0		109.29099588239842	
13.0	79.01086979161119	face	0.0		146	20.0	male	black	2.609629924393156	neutral	043	sub-06	1.0	3.0	043_neutral	0.0		109.8991475922121	1.2416703920571308
13.0	79.10268044050463	pulse	0.0	t		20.0	male	black	2.609629924393156	neutral	043	sub-06	1.0	3.0	043_neutral	0.0		109.99095824110555	
13.0	79.8026624197737	pulse	0.0	t		20.0	male	black	2.609629924393156	neutral	043	sub-06	1.0	3.0	043_neutral	0.0		110.69094022037461	
13.0	80.25254018366832	fix	1.0		444	20.0	male	black	2.609629924393156	neutral	043	sub-06	1.0	3.0	043_neutral	0.0		111.14081798426923	3.758290366815345
13.0	80.50264983242596	pulse	1.0	t		20.0	male	black	2.609629924393156	neutral	043	sub-06	1.0	3.0	043_neutral	0.0		111.39092763302688	
13.0	81.20262668016221	pulse	1.0	t		20.0	male	black	2.609629924393156	neutral	043	sub-06	1.0	3.0	043_neutral	0.0		112.09090448076313	
13.0	81.90261741321956	pulse	1.0	t		20.0	male	black	2.609629924393156	neutral	043	sub-06	1.0	3.0	043_neutral	0.0		112.79089521382048	
13.0	82.60260663700319	pulse	1.0	t		20.0	male	black	2.609629924393156	neutral	043	sub-06	1.0	3.0	043_neutral	0.0		113.49088443760411	
13.0	83.30258106990004	pulse	1.0	t		20.0	male	black	2.609629924393156	neutral	043	sub-06	1.0	3.0	043_neutral	0.0		114.19085887050096	
14.0	84.01083055048366	face	0.0		147	24.0	female	east_asian	2.9076800636689217	neutral	034	sub-06	1.0	3.0	034_neutral	0.0		114.89910835108458	1.2416045877107535
14.0	84.00498513214188	pulse	0.0	t		24.0	female	east_asian	2.9076800636689217	neutral	034	sub-06	1.0	3.0	034_neutral	0.0		114.8932629327428	
14.0	84.70257551577379	pulse	0.0	t		24.0	female	east_asian	2.9076800636689217	neutral	034	sub-06	1.0	3.0	034_neutral	0.0		115.5908533163747	
14.0	85.25243513819441	fix	1.0		443	24.0	female	east_asian	2.9076800636689217	neutral	034	sub-06	1.0	3.0	034_neutral	0.0		116.14071293879533	3.7582333162572468
14.0	85.40254934496261	pulse	1.0	t		24.0	female	east_asian	2.9076800636689217	neutral	034	sub-06	1.0	3.0	034_neutral	0.0		116.29082714556353	
14.0	86.10253856874624	pulse	1.0	t		24.0	female	east_asian	2.9076800636689217	neutral	034	sub-06	1.0	3.0	034_neutral	0.0		116.99081636934716	
14.0	86.80250575712853	pulse	1.0	t		24.0	female	east_asian	2.9076800636689217	neutral	034	sub-06	1.0	3.0	034_neutral	0.0		117.69078355772945	
14.0	87.50250614953984	pulse	1.0	t		24.0	female	east_asian	2.9076800636689217	neutral	034	sub-06	1.0	3.0	034_neutral	0.0		118.39078395014076	
14.0	88.20249627888552	pulse	1.0	t		24.0	female	east_asian	2.9076800636689217	neutral	034	sub-06	1.0	3.0	034_neutral	0.0		119.09077407948644	
14.0	88.90246980622032	pulse	1.0	t		24.0	female	east_asian	2.9076800636689217	neutral	034	sub-06	1.0	3.0	034_neutral	0.0		119.79074760682124	
15.0	89.01066845445166	face	0.0		147	27.0	male	black	3.5523278949462798	neutral	042	sub-06	1.0	3.0	042_neutral	0.0		119.89894625505258	1.2416610345608206
15.0	89.60246204855139	pulse	0.0	t		27.0	male	black	3.5523278949462798	neutral	042	sub-06	1.0	3.0	042_neutral	0.0		120.4907398491523	
15.0	90.25232948901248	fix	1.0		443	27.0	male	black	3.5523278949462798	neutral	042	sub-06	1.0	3.0	042_neutral	0.0		121.1406072896134	3.7582260717426834
15.0	90.30244432967447	pulse	1.0	t		27.0	male	black	3.5523278949462798	neutral	042	sub-06	1.0	3.0	042_neutral	0.0		121.19072213027539	
15.0	91.00242540337786	pulse	1.0	t		27.0	male	black	3.5523278949462798	neutral	042	sub-06	1.0	3.0	042_neutral	0.0		121.89070320397877	
15.0	91.70241341974179	pulse	1.0	t		27.0	male	black	3.5523278949462798	neutral	042	sub-06	1.0	3.0	042_neutral	0.0		122.5906912203427	
15.0	92.40239902126632	pulse	1.0	t		27.0	male	black	3.5523278949462798	neutral	042	sub-06	1.0	3.0	042_neutral	0.0		123.29067682186724	
15.0	93.1024078656119	pulse	1.0	t		27.0	male	black	3.5523278949462798	neutral	042	sub-06	1.0	3.0	042_neutral	0.0		123.99068566621281	
15.0	93.8023638853665	pulse	1.0	t		27.0	male	black	3.5523278949462798	neutral	042	sub-06	1.0	3.0	042_neutral	0.0		124.69064168596742	
16.0	94.01055556075517	face	0.0		146	22.0	female	white	4.614007162753682	neutral	009	sub-06	1.0	3.0	009_neutral	0.0		124.89883336135608	1.2416685809293995
16.0	94.50238661503317	pulse	0.0	t		22.0	female	white	4.614007162753682	neutral	009	sub-06	1.0	3.0	009_neutral	0.0		125.39066441563409	
16.0	95.20233478656519	pulse	0.0	t		22.0	female	white	4.614007162753682	neutral	009	sub-06	1.0	3.0	009_neutral	0.0		126.0906125871661	
16.0	95.25222414168456	fix	1.0		445	22.0	female	white	4.614007162753682	neutral	009	sub-06	1.0	3.0	009_neutral	0.0		126.14050194228548	3.758255653512606
16.0	95.90234091421735	pulse	1.0	t		22.0	female	white	4.614007162753682	neutral	009	sub-06	1.0	3.0	009_neutral	0.0		126.79061871481827	
16.0	96.60230085808507	pulse	1.0	t		22.0	female	white	4.614007162753682	neutral	009	sub-06	1.0	3.0	009_neutral	0.0		127.49057865868599	
16.0	97.3022900818687	pulse	1.0	t		22.0	female	white	4.614007162753682	neutral	009	sub-06	1.0	3.0	009_neutral	0.0		128.19056788246962	
16.0	98.00228624831288	pulse	1.0	t		22.0	female	white	4.614007162753682	neutral	009	sub-06	1.0	3.0	009_neutral	0.0		128.8905640489138	
16.0	98.70226309604914	pulse	1.0	t		22.0	female	white	4.614007162753682	neutral	009	sub-06	1.0	3.0	009_neutral	0.0		129.59054089665005	
17.0	99.01047979519717	face	0.0		146	27.0	female	white	4.181058495821727	neutral	039	sub-06	1.0	3.0	039_neutral	0.0		129.8987575957981	1.2416411121448618
17.0	99.40225382910648	pulse	0.0	t		27.0	female	white	4.181058495821727	neutral	039	sub-06	1.0	3.0	039_neutral	0.0		130.2905316297074	
17.0	100.10223882691935	pulse	0.0	t		27.0	female	white	4.181058495821727	neutral	039	sub-06	1.0	3.0	039_neutral	0.0		130.99051662752026	
17.0	100.25212090734203	fix	1.0		445	27.0	female	white	4.181058495821727	neutral	039	sub-06	1.0	3.0	039_neutral	0.0		131.14039870794295	3.758251427545474
17.0	100.80222382473585	pulse	1.0	t		27.0	female	white	4.181058495821727	neutral	039	sub-06	1.0	3.0	039_neutral	0.0		131.69050162533676	
17.0	101.50221787819828	pulse	1.0	t		27.0	female	white	4.181058495821727	neutral	039	sub-06	1.0	3.0	039_neutral	0.0		132.3904956787992	
17.0	102.2021892925477	pulse	1.0	t		27.0	female	white	4.181058495821727	neutral	039	sub-06	1.0	3.0	039_neutral	0.0		133.09046709314862	
17.0	102.90218394971816	pulse	1.0	t		27.0	female	white	4.181058495821727	neutral	039	sub-06	1.0	3.0	039_neutral	0.0		133.79046175031908	
17.0	103.60216200487412	pulse	1.0	t		27.0	female	white	4.181058495821727	neutral	039	sub-06	1.0	3.0	039_neutral	0.0		134.49043980547503	
18.0	104.0103723348875	face	0.0		146	30.0	female	black	2.7345801830481498	smiling	062	sub-06	1.0	3.0	062_smiling	0.0		134.89865013548842	1.2416435269806243
18.0	104.3021533416395	pulse	0.0	t		30.0	female	black	2.7345801830481498	smiling	062	sub-06	1.0	3.0	062_smiling	0.0		135.1904311422404	
18.0	105.00213411348886	pulse	0.0	t		30.0	female	black	2.7345801830481498	smiling	062	sub-06	1.0	3.0	062_smiling	0.0		135.89041191408978	
18.0	105.25201586186813	fix	1.0		445	30.0	female	black	2.7345801830481498	smiling	062	sub-06	1.0	3.0	062_smiling	0.0		136.14029366246905	3.7582251661769988
18.0	105.70212514840023	pulse	1.0	t		30.0	female	black	2.7345801830481498	smiling	062	sub-06	1.0	3.0	062_smiling	0.0		136.59040294900115	
18.0	106.40210561839558	pulse	1.0	t		30.0	female	black	2.7345801830481498	smiling	062	sub-06	1.0	3.0	062_smiling	0.0		137.2903834189965	
18.0	107.10210631266091	pulse	1.0	t		30.0	female	black	2.7345801830481498	smiling	062	sub-06	1.0	3.0	062_smiling	0.0		137.99038411326183	
18.0	107.80207501031691	pulse	1.0	t		30.0	female	black	2.7345801830481498	smiling	062	sub-06	1.0	3.0	062_smiling	0.0		138.69035281091783	
18.0	108.50205668773197	pulse	1.0	t		30.0	female	black	2.7345801830481498	smiling	062	sub-06	1.0	3.0	062_smiling	0.0		139.39033448833288	
19.0	109.01024102804513	face	0.0		146	32.0	male	white	2.389176283326701	neutral	092	sub-06	1.0	3.0	092_neutral	0.0		139.89851882864605	1.2416755235899473
19.0	109.20204862820538	pulse	0.0	t		32.0	male	white	2.389176283326701	neutral	092	sub-06	1.0	3.0	092_neutral	0.0		140.0903264288063	
19.0	109.90203272045983	pulse	0.0	t		32.0	male	white	2.389176283326701	neutral	092	sub-06	1.0	3.0	092_neutral	0.0		140.79031052106075	
19.0	110.25191655163508	fix	1.0		444	32.0	male	white	2.389176283326701	neutral	092	sub-06	1.0	3.0	092_neutral	0.0		141.140194352236	3.758215506826673
19.0	110.60203371657917	pulse	1.0	t		32.0	male	white	2.389176283326701	neutral	092	sub-06	1.0	3.0	092_neutral	0.0		141.4903115171801	
19.0	111.30200060310744	pulse	1.0	t		32.0	male	white	2.389176283326701	neutral	092	sub-06	1.0	3.0	092_neutral	0.0		142.19027840370836	
19.0	112.00199948624504	pulse	1.0	t		32.0	male	white	2.389176283326701	neutral	092	sub-06	1.0	3.0	092_neutral	0.0		142.89027728684596	
19.0	112.70197723954334	pulse	1.0	t		32.0	male	white	2.389176283326701	neutral	092	sub-06	1.0	3.0	092_neutral	0.0		143.59025504014426	
19.0	113.40195499284528	pulse	1.0	t		32.0	male	white	2.389176283326701	neutral	092	sub-06	1.0	3.0	092_neutral	0.0		144.2902327934462	
20.0	114.01013205846175	face	0.0		146	20.0	male	black	3.1070433744528456	smiling	082	sub-06	1.0	3.0	082_smiling	0.0		144.89840985906267	1.2416761272979784
20.0	114.10194783888801	pulse	0.0	t		20.0	male	black	3.1070433744528456	smiling	082	sub-06	1.0	3.0	082_smiling	0.0		144.99022563948893	
20.0	114.80193404412057	pulse	0.0	t		20.0	male	black	3.1070433744528456	smiling	082	sub-06	1.0	3.0	082_smiling	0.0		145.6902118447215	
20.0	115.25180818575973	fix	1.0		1185	20.0	male	black	3.1070433744528456	smiling	082	sub-06	1.0	3.0	082_smiling	0.0		146.14008598636065	10.00812381842843
20.0	115.50191843822904	pulse	1.0	t		20.0	male	black	3.1070433744528456	smiling	082	sub-06	1.0	3.0	082_smiling	0.0		146.39019623882996	
20.0	116.20189739894704	pulse	1.0	t		20.0	male	black	3.1070433744528456	smiling	082	sub-06	1.0	3.0	082_smiling	0.0		147.09017519954796	
20.0	116.90188511345696	pulse	1.0	t		20.0	male	black	3.1070433744528456	smiling	082	sub-06	1.0	3.0	082_smiling	0.0		147.79016291405787	
20.0	117.60188248732084	pulse	1.0	t		20.0	male	black	3.1070433744528456	smiling	082	sub-06	1.0	3.0	082_smiling	0.0		148.49016028792175	
20.0	118.30186235360452	pulse	1.0	t		20.0	male	black	3.1070433744528456	smiling	082	sub-06	1.0	3.0	082_smiling	0.0		149.19014015420544	
20.0	119.00186033118007	pulse	1.0	t		20.0	male	black	3.1070433744528456	smiling	082	sub-06	1.0	3.0	082_smiling	0.0		149.890138131781	
20.0	119.70182389730326	pulse	1.0	t		20.0	male	black	3.1070433744528456	smiling	082	sub-06	1.0	3.0	082_smiling	0.0		150.59010169790417	
20.0	120.4018146303606	pulse	1.0	t		20.0	male	black	3.1070433744528456	smiling	082	sub-06	1.0	3.0	082_smiling	0.0		151.29009243096152	
20.0	121.10179177995087	pulse	1.0	t		20.0	male	black	3.1070433744528456	smiling	082	sub-06	1.0	3.0	082_smiling	0.0		151.9900695805518	
20.0	121.80179187050817	pulse	1.0	t		20.0	male	black	3.1070433744528456	smiling	082	sub-06	1.0	3.0	082_smiling	0.0		152.6900696711091	
20.0	122.50176902009844	pulse	1.0	t		20.0	male	black	3.1070433744528456	smiling	082	sub-06	1.0	3.0	082_smiling	0.0		153.39004682069935	
20.0	123.20174949009379	pulse	1.0	t		20.0	male	black	3.1070433744528456	smiling	082	sub-06	1.0	3.0	082_smiling	0.0		154.0900272906947	
20.0	123.90173871387742	pulse	1.0	t		20.0	male	black	3.1070433744528456	smiling	082	sub-06	1.0	3.0	082_smiling	0.0		154.79001651447834	
20.0	124.6017222024202	pulse	1.0	t		20.0	male	black	3.1070433744528456	smiling	082	sub-06	1.0	3.0	082_smiling	0.0		155.49000000302112	
21.0	125.25993200418816	face	0.0		146	40.0	male	black	2.408674890569041	smiling	061	sub-06	1.0	3.0	061_smiling	0.0		156.14820980478908	1.2416399047215236
21.0	125.30173980055406	pulse	0.0	t		40.0	male	black	2.408674890569041	smiling	061	sub-06	1.0	3.0	061_smiling	0.0		156.19001760115498	
21.0	126.00169551845465	pulse	0.0	t		40.0	male	black	2.408674890569041	smiling	061	sub-06	1.0	3.0	061_smiling	0.0		156.88997331905557	
21.0	126.50157190890968	fix	1.0		443	40.0	male	black	2.408674890569041	smiling	061	sub-06	1.0	3.0	061_smiling	0.0		157.3898497095106	3.7582538423848746
21.0	126.70168474223829	pulse	1.0	t		40.0	male	black	2.408674890569041	smiling	061	sub-06	1.0	3.0	061_smiling	0.0		157.5899625428392	
21.0	127.40166823077743	pulse	1.0	t		40.0	male	black	2.408674890569041	smiling	061	sub-06	1.0	3.0	061_smiling	0.0		158.28994603137835	
21.0	128.10165081375817	pulse	1.0	t		40.0	male	black	2.408674890569041	smiling	061	sub-06	1.0	3.0	061_smiling	0.0		158.9899286143591	
21.0	128.80163943383013	pulse	1.0	t		40.0	male	black	2.408674890569041	smiling	061	sub-06	1.0	3.0	061_smiling	0.0		159.68991723443105	
21.0	129.50163741140204	pulse	1.0	t		40.0	male	black	2.408674890569041	smiling	061	sub-06	1.0	3.0	061_smiling	0.0		160.38991521200296	
21.0	130.20160792018942	pulse	1.0	t		40.0	male	black	2.408674890569041	smiling	061	sub-06	1.0	3.0	061_smiling	0.0		161.08988572079033	
22.0	130.25982575129456	face	0.0		147	19.0	male	white	2.243931555909272	smiling	130	sub-06	1.0	3.0	130_smiling	0.0		161.14810355189547	1.2416414139988774
22.0	130.9015980495351	pulse	0.0	t		19.0	male	white	2.243931555909272	smiling	130	sub-06	1.0	3.0	130_smiling	0.0		161.789875850136	
22.0	131.50146716529343	fix	1.0		443	19.0	male	white	2.243931555909272	smiling	130	sub-06	1.0	3.0	130_smiling	0.0		162.38974496589435	3.7582547479469213
22.0	131.60158153807788	pulse	1.0	t		19.0	male	white	2.243931555909272	smiling	130	sub-06	1.0	3.0	130_smiling	0.0		162.4898593386788	
22.0	132.30156774331408	pulse	1.0	t		19.0	male	white	2.243931555909272	smiling	130	sub-06	1.0	3.0	130_smiling	0.0		163.189845543915	
22.0	133.00154881701746	pulse	1.0	t		19.0	male	white	2.243931555909272	smiling	130	sub-06	1.0	3.0	130_smiling	0.0		163.88982661761838	
22.0	133.70152717402743	pulse	1.0	t		19.0	male	white	2.243931555909272	smiling	130	sub-06	1.0	3.0	130_smiling	0.0		164.58980497462835	
22.0	134.4015182089388	pulse	1.0	t		19.0	male	white	2.243931555909272	smiling	130	sub-06	1.0	3.0	130_smiling	0.0		165.2897960095397	
22.0	135.10150109377355	pulse	1.0	t		19.0	male	white	2.243931555909272	smiling	130	sub-06	1.0	3.0	130_smiling	0.0		165.98977889437447	
23.0	135.25972191324036	face	0.0		147	22.0	female	west_asian	3.8205332272184642	neutral	066	sub-06	1.0	3.0	066_neutral	0.0		166.14799971384127	1.24164503625434
23.0	135.80149363795863	pulse	0.0	t		22.0	female	west_asian	3.8205332272184642	neutral	066	sub-06	1.0	3.0	066_neutral	0.0		166.68977143855955	
23.0	136.5013669494947	fix	1.0		444	22.0	female	west_asian	3.8205332272184642	neutral	066	sub-06	1.0	3.0	066_neutral	0.0		167.3896447500956	3.7582505219834275
23.0	136.50871168066442	pulse	1.0	t		22.0	female	west_asian	3.8205332272184642	neutral	066	sub-06	1.0	3.0	066_neutral	0.0		167.39698948126534	
23.0	137.20146514286535	pulse	1.0	t		22.0	female	west_asian	3.8205332272184642	neutral	066	sub-06	1.0	3.0	066_neutral	0.0		168.08974294346626	
23.0	137.9014510462439	pulse	1.0	t		22.0	female	west_asian	3.8205332272184642	neutral	066	sub-06	1.0	3.0	066_neutral	0.0		168.7897288468448	
23.0	138.6014257809984	pulse	1.0	t		22.0	female	west_asian	3.8205332272184642	neutral	066	sub-06	1.0	3.0	066_neutral	0.0		169.48970358159931	
23.0	139.30143341792427	pulse	1.0	t		22.0	female	west_asian	3.8205332272184642	neutral	066	sub-06	1.0	3.0	066_neutral	0.0		170.1897112185252	
23.0	140.00140302114596	pulse	1.0	t		22.0	female	west_asian	3.8205332272184642	neutral	066	sub-06	1.0	3.0	066_neutral	0.0		170.88968082174688	
24.0	140.25961747147812	face	0.0		146	21.0	male	east_asian/white	3.501790688420215	smiling	036	sub-06	1.0	3.0	036_smiling	0.0		171.14789527207904	1.2416429232689552
24.0	140.70138832081648	pulse	0.0	t		21.0	male	east_asian/white	3.501790688420215	smiling	036	sub-06	1.0	3.0	036_smiling	0.0		171.5896661214174	
24.0	141.40137422419502	pulse	0.0	t		21.0	male	east_asian/white	3.501790688420215	smiling	036	sub-06	1.0	3.0	036_smiling	0.0		172.28965202479594	
24.0	141.50126039474708	fix	1.0		444	21.0	male	east_asian/white	3.501790688420215	smiling	036	sub-06	1.0	3.0	036_smiling	0.0		172.389538195348	3.758253540530859
24.0	142.10136405169033	pulse	1.0	t		21.0	male	east_asian/white	3.501790688420215	smiling	036	sub-06	1.0	3.0	036_smiling	0.0		172.98964185229124	
24.0	142.8013448235397	pulse	1.0	t		21.0	male	east_asian/white	3.501790688420215	smiling	036	sub-06	1.0	3.0	036_smiling	0.0		173.6896226241406	
24.0	143.50132559538906	pulse	1.0	t		21.0	male	east_asian/white	3.501790688420215	smiling	036	sub-06	1.0	3.0	036_smiling	0.0		174.38960339598998	
24.0	144.20131723400846	pulse	1.0	t		21.0	male	east_asian/white	3.501790688420215	smiling	036	sub-06	1.0	3.0	036_smiling	0.0		175.08959503460937	
24.0	144.90129679843812	pulse	1.0	t		21.0	male	east_asian/white	3.501790688420215	smiling	036	sub-06	1.0	3.0	036_smiling	0.0		175.78957459903904	
25.0	145.25951393527794	face	0.0		146	27.0	female	white	3.504576203740549	smiling	144	sub-06	1.0	3.0	144_smiling	0.0		176.14779173587885	1.2416414139988774
25.0	145.60128843706116	pulse	0.0	t		27.0	female	white	3.504576203740549	smiling	144	sub-06	1.0	3.0	144_smiling	0.0		176.48956623766207	
25.0	146.3012604551186	pulse	0.0	t		27.0	female	white	3.504576203740549	smiling	144	sub-06	1.0	3.0	144_smiling	0.0		177.18953825571953	
25.0	146.50115534927681	fix	1.0		445	27.0	female	white	3.504576203740549	smiling	144	sub-06	1.0	3.0	144_smiling	0.0		177.38943314987773	3.7582532386732055
25.0	147.0012605456759	pulse	1.0	t		27.0	female	white	3.504576203740549	smiling	144	sub-06	1.0	3.0	144_smiling	0.0		177.88953834627682	
25.0	147.70125973066752	pulse	1.0	t		27.0	female	white	3.504576203740549	smiling	144	sub-06	1.0	3.0	144_smiling	0.0		178.58953753126843	
25.0	148.4012266171958	pulse	1.0	t		27.0	female	white	3.504576203740549	smiling	144	sub-06	1.0	3.0	144_smiling	0.0		179.2895044177967	
25.0	149.1012167465451	pulse	1.0	t		27.0	female	white	3.504576203740549	smiling	144	sub-06	1.0	3.0	144_smiling	0.0		179.98949454714602	
25.0	149.8011990276682	pulse	1.0	t		27.0	female	white	3.504576203740549	smiling	144	sub-06	1.0	3.0	144_smiling	0.0		180.6894768282691	
26.0	150.25940858795002	face	0.0		146	22.0	male	black	2.767608436132113	neutral	044	sub-06	1.0	3.0	044_neutral	0.0		181.14768638855094	1.2416408102872083
26.0	150.50118644032045	pulse	0.0	t		22.0	male	black	2.767608436132113	neutral	044	sub-06	1.0	3.0	044_neutral	0.0		181.38946424092137	
26.0	151.20118441789236	pulse	0.0	t		22.0	male	black	2.767608436132113	neutral	044	sub-06	1.0	3.0	044_neutral	0.0		182.08946221849328	
26.0	151.50104939823723	fix	1.0		444	22.0	male	black	2.767608436132113	neutral	044	sub-06	1.0	3.0	044_neutral	0.0		182.38932719883815	3.758254144242528
26.0	151.9011772639351	pulse	1.0	t		22.0	male	black	2.767608436132113	neutral	044	sub-06	1.0	3.0	044_neutral	0.0		182.789455064536	
26.0	152.60114505602542	pulse	1.0	t		22.0	male	black	2.767608436132113	neutral	044	sub-06	1.0	3.0	044_neutral	0.0		183.48942285662633	
26.0	153.30112582787478	pulse	1.0	t		22.0	male	black	2.767608436132113	neutral	044	sub-06	1.0	3.0	044_neutral	0.0		184.1894036284757	
26.0	154.00111052383727	pulse	1.0	t		22.0	male	black	2.767608436132113	neutral	044	sub-06	1.0	3.0	044_neutral	0.0		184.8893883244382	
26.0	154.70109703092749	pulse	1.0	t		22.0	male	black	2.767608436132113	neutral	044	sub-06	1.0	3.0	044_neutral	0.0		185.5893748315284	
27.0	155.25930354247976	face	0.0		146	31.0	male	west_asian	1.9538400318344609	neutral	070	sub-06	1.0	3.0	070_neutral	0.0		186.14758134308067	1.2416429232689552
27.0	155.4010847454374	pulse	0.0	t		31.0	male	west_asian	1.9538400318344609	neutral	070	sub-06	1.0	3.0	070_neutral	0.0		186.28936254603832	
27.0	156.10106642284882	pulse	0.0	t		31.0	male	west_asian	1.9538400318344609	neutral	070	sub-06	1.0	3.0	070_neutral	0.0		186.98934422344973	
27.0	156.5009464657487	fix	1.0		444	31.0	male	west_asian	1.9538400318344609	neutral	070	sub-06	1.0	3.0	070_neutral	0.0		187.38922426634963	3.7582538423848746
27.0	156.80105292993903	pulse	1.0	t		31.0	male	west_asian	1.9538400318344609	neutral	070	sub-06	1.0	3.0	070_neutral	0.0		187.68933073053995	
27.0	157.50103702218985	pulse	1.0	t		31.0	male	west_asian	1.9538400318344609	neutral	070	sub-06	1.0	3.0	070_neutral	0.0		188.38931482279077	
27.0	158.20102202000635	pulse	1.0	t		31.0	male	west_asian	1.9538400318344609	neutral	070	sub-06	1.0	3.0	070_neutral	0.0		189.08929982060727	
27.0	158.90100550854913	pulse	1.0	t		31.0	male	west_asian	1.9538400318344609	neutral	070	sub-06	1.0	3.0	070_neutral	0.0		189.78928330915005	
27.0	159.60099503418678	pulse	1.0	t		31.0	male	west_asian	1.9538400318344609	neutral	070	sub-06	1.0	3.0	070_neutral	0.0		190.4892728347877	
28.0	160.2592003081336	face	0.0		146	36.0	female	white	2.7548746518105847	neutral	011	sub-06	1.0	3.0	011_neutral	0.0		191.1474781087345	1.2416408102872083
28.0	160.30099331361635	pulse	0.0	t		36.0	female	white	2.7548746518105847	neutral	011	sub-06	1.0	3.0	011_neutral	0.0		191.18927111421726	
28.0	161.00096985949858	pulse	0.0	t		36.0	female	white	2.7548746518105847	neutral	011	sub-06	1.0	3.0	011_neutral	0.0		191.8892476600995	
28.0	161.5008411184208	fix	1.0		443	36.0	female	white	2.7548746518105847	neutral	011	sub-06	1.0	3.0	011_neutral	0.0		192.3891189190217	3.758254144242528
28.0	161.7009539517494	pulse	1.0	t		36.0	female	white	2.7548746518105847	neutral	011	sub-06	1.0	3.0	011_neutral	0.0		192.58923175235032	
28.0	162.40093502545278	pulse	1.0	t		36.0	female	white	2.7548746518105847	neutral	011	sub-06	1.0	3.0	011_neutral	0.0		193.2892128260537	
28.0	163.10091700472185	pulse	1.0	t		36.0	female	white	2.7548746518105847	neutral	011	sub-06	1.0	3.0	011_neutral	0.0		193.98919480532277	
28.0	163.80089807842523	pulse	1.0	t		36.0	female	white	2.7548746518105847	neutral	011	sub-06	1.0	3.0	011_neutral	0.0		194.68917587902615	
28.0	164.5008906226103	pulse	1.0	t		36.0	female	white	2.7548746518105847	neutral	011	sub-06	1.0	3.0	011_neutral	0.0		195.38916842321123	
28.0	165.2008741111531	pulse	1.0	t		36.0	female	white	2.7548746518105847	neutral	011	sub-06	1.0	3.0	011_neutral	0.0		196.08915191175402	
29.0	165.25909526266332	face	0.0		147	26.0	male	white	2.7966573816155993	smiling	117	sub-06	1.0	3.0	117_smiling	0.0		196.14737306326424	1.2416414139952394
29.0	165.90086424049878	pulse	0.0	t		26.0	male	white	2.7966573816155993	smiling	117	sub-06	1.0	3.0	117_smiling	0.0		196.7891420410997	
29.0	166.50073667665856	fix	1.0		443	26.0	male	white	2.7966573816155993	smiling	117	sub-06	1.0	3.0	117_smiling	0.0		197.38901447725948	3.758253540530859
29.0	166.600873386702	pulse	1.0	t		26.0	male	white	2.7966573816155993	smiling	117	sub-06	1.0	3.0	117_smiling	0.0		197.48915118730292	
29.0	167.30083242500405	pulse	1.0	t		26.0	male	white	2.7966573816155993	smiling	117	sub-06	1.0	3.0	117_smiling	0.0		198.18911022560496	
29.0	168.00082919515626	pulse	1.0	t		26.0	male	white	2.7966573816155993	smiling	117	sub-06	1.0	3.0	117_smiling	0.0		198.88910699575717	
29.0	168.70080302434508	pulse	1.0	t		26.0	male	white	2.7966573816155993	smiling	117	sub-06	1.0	3.0	117_smiling	0.0		199.589080824946	
29.0	169.400791040709	pulse	1.0	t		26.0	male	white	2.7966573816155993	smiling	117	sub-06	1.0	3.0	117_smiling	0.0		200.28906884130993	
29.0	170.10079777207284	pulse	1.0	t		26.0	male	white	2.7966573816155993	smiling	117	sub-06	1.0	3.0	117_smiling	0.0		200.98907557267376	
30.0	170.25899021718942	face	0.0		147	22.0	female	white	4.614007162753682	smiling	009	sub-06	1.0	3.0	009_smiling	0.0		201.14726801779034	1.2416468473820714
30.0	170.800760734488	pulse	0.0	t		22.0	female	white	4.614007162753682	smiling	009	sub-06	1.0	3.0	009_smiling	0.0		201.6890385350889	
30.0	171.5006370645715	fix	1.0		444	22.0	female	white	4.614007162753682	smiling	009	sub-06	1.0	3.0	009_smiling	0.0		202.3889148651724	3.7582478052900115
30.0	171.5081864533022	pulse	1.0	t		22.0	female	white	4.614007162753682	smiling	009	sub-06	1.0	3.0	009_smiling	0.0		202.3964642539031	
30.0	172.20073314495676	pulse	1.0	t		22.0	female	white	4.614007162753682	smiling	009	sub-06	1.0	3.0	009_smiling	0.0		203.08901094555767	
30.0	172.90071753906523	pulse	1.0	t		22.0	female	white	4.614007162753682	smiling	009	sub-06	1.0	3.0	009_smiling	0.0		203.78899533966614	
30.0	173.60069559421754	pulse	1.0	t		22.0	female	white	4.614007162753682	smiling	009	sub-06	1.0	3.0	009_smiling	0.0		204.48897339481846	
30.0	174.3006875346946	pulse	1.0	t		22.0	female	white	4.614007162753682	smiling	009	sub-06	1.0	3.0	009_smiling	0.0		205.1889653352955	
30.0	175.0006725325111	pulse	1.0	t		22.0	female	white	4.614007162753682	smiling	009	sub-06	1.0	3.0	009_smiling	0.0		205.888950333112	
31.0	175.2588848698615	face	0.0		146	24.0	female	black	3.0955033824114606	smiling	099	sub-06	1.0	3.0	099_smiling	0.0		206.14716267046242	1.2416426214149396
31.0	175.70065813403926	pulse	0.0	t		24.0	female	black	3.0955033824114606	smiling	099	sub-06	1.0	3.0	099_smiling	0.0		206.58893593464018	
31.0	176.40065007451267	pulse	0.0	t		24.0	female	black	3.0955033824114606	smiling	099	sub-06	1.0	3.0	099_smiling	0.0		207.2889278751136	
31.0	176.50052749127644	fix	1.0		444	24.0	female	black	3.0955033824114606	smiling	099	sub-06	1.0	3.0	099_smiling	0.0		207.38880529187736	3.7582538423848746
31.0	177.1006290352343	pulse	1.0	t		24.0	female	black	3.0955033824114606	smiling	099	sub-06	1.0	3.0	099_smiling	0.0		207.98890683583522	
31.0	177.80061192006542	pulse	1.0	t		24.0	female	black	3.0955033824114606	smiling	099	sub-06	1.0	3.0	099_smiling	0.0		208.68888972066634	
31.0	178.50060084199504	pulse	1.0	t		24.0	female	black	3.0955033824114606	smiling	099	sub-06	1.0	3.0	099_smiling	0.0		209.38887864259596	
31.0	179.20058101013274	pulse	1.0	t		24.0	female	black	3.0955033824114606	smiling	099	sub-06	1.0	3.0	099_smiling	0.0		210.08885881073365	
31.0	179.90056963020834	pulse	1.0	t		24.0	female	black	3.0955033824114606	smiling	099	sub-06	1.0	3.0	099_smiling	0.0		210.78884743080926	
32.0	180.25878133366132	face	0.0		146	40.0	male	white	1.868682849184242	smiling	172	sub-06	1.0	3.0	172_smiling	0.0		211.14705913426224	1.2416408102872083
32.0	180.60055704286424	pulse	0.0	t		40.0	male	white	1.868682849184242	smiling	172	sub-06	1.0	3.0	172_smiling	0.0		211.48883484346516	
32.0	181.30053509801655	pulse	0.0	t		40.0	male	white	1.868682849184242	smiling	172	sub-06	1.0	3.0	172_smiling	0.0		212.18881289861747	
32.0	181.50042214394853	fix	1.0		444	40.0	male	white	1.868682849184242	smiling	172	sub-06	1.0	3.0	172_smiling	0.0		212.38869994454944	3.7582580683520064
32.0	182.0005270384936	pulse	1.0	t		40.0	male	white	1.868682849184242	smiling	172	sub-06	1.0	3.0	172_smiling	0.0		212.88880483909452	
32.0	182.7005096214707	pulse	1.0	t		40.0	male	white	1.868682849184242	smiling	172	sub-06	1.0	3.0	172_smiling	0.0		213.58878742207162	
32.0	183.40049401557917	pulse	1.0	t		40.0	male	white	1.868682849184242	smiling	172	sub-06	1.0	3.0	172_smiling	0.0		214.2887718161801	
32.0	184.10048263565113	pulse	1.0	t		40.0	male	white	1.868682849184242	smiling	172	sub-06	1.0	3.0	172_smiling	0.0		214.98876043625205	
32.0	184.8004643130662	pulse	1.0	t		40.0	male	white	1.868682849184242	smiling	172	sub-06	1.0	3.0	172_smiling	0.0		215.6887421136671	
33.0	185.25868021230053	face	0.0		146	28.0	female	white	5.676880222841227	smiling	124	sub-06	1.0	3.0	124_smiling	1.0	dominance	216.14695801290145	1.2416353769003763
33.0	185.50046681845924	pulse	0.0	t		28.0	female	white	5.676880222841227	smiling	124	sub-06	1.0	3.0	124_smiling	1.0	dominance	216.38874461906016	
33.0	186.20043249756782	pulse	0.0	t		28.0	female	white	5.676880222841227	smiling	124	sub-06	1.0	3.0	124_smiling	1.0	dominance	217.08871029816873	
33.0	186.5003155892009	fix	1.0		177	28.0	female	white	5.676880222841227	smiling	124	sub-06	1.0	3.0	124_smiling	1.0	dominance	217.38859338980183	1.4999757006880827
33.0	186.90043409739883	pulse	1.0	t		28.0	female	white	5.676880222841227	smiling	124	sub-06	1.0	3.0	124_smiling	1.0	dominance	217.78871189799975	
33.0	187.60042332118246	pulse	1.0	t		28.0	female	white	5.676880222841227	smiling	124	sub-06	1.0	3.0	124_smiling	1.0	dominance	218.48870112178338	
33.0	188.000291289889	rating	2.0		294	28.0	female	white	5.676880222841227	smiling	124	sub-06	1.0	3.0	124_smiling	1.0	dominance	218.8885690904899	2.499945515210129
33.0	188.29518864567217	pulse	2.0	t		28.0	female	white	5.676880222841227	smiling	124	sub-06	1.0	3.0	124_smiling	1.0	dominance	219.1834664462731	
33.0	188.99516217300697	pulse	2.0	t		28.0	female	white	5.676880222841227	smiling	124	sub-06	1.0	3.0	124_smiling	1.0	dominance	219.8834399736079	
33.0	189.69515260420667	pulse	2.0	t		28.0	female	white	5.676880222841227	smiling	124	sub-06	1.0	3.0	124_smiling	1.0	dominance	220.5834304048076	
33.0	189.91180074202202	response	2.0	b		28.0	female	white	5.676880222841227	smiling	124	sub-06	1.0	3.0	124_smiling	1.0	dominance	220.80007854262294	
33.0	190.40034520116023	pulse	2.0	t		28.0	female	white	5.676880222841227	smiling	124	sub-06	1.0	3.0	124_smiling	1.0	dominance	221.28862300176115	
33.0	190.50023680509912	fix	3.0		444	28.0	female	white	5.676880222841227	smiling	124	sub-06	1.0	3.0	124_smiling	1.0	dominance	221.38851460570004	3.7582538423848746
33.0	191.10033925461903	pulse	3.0	t		28.0	female	white	5.676880222841227	smiling	124	sub-06	1.0	3.0	124_smiling	1.0	dominance	221.98861705521995	
33.0	191.80032063017643	pulse	3.0	t		28.0	female	white	5.676880222841227	smiling	124	sub-06	1.0	3.0	124_smiling	1.0	dominance	222.68859843077735	
33.0	192.5003038168652	pulse	3.0	t		28.0	female	white	5.676880222841227	smiling	124	sub-06	1.0	3.0	124_smiling	1.0	dominance	223.38858161746612	
33.0	193.20028700355033	pulse	3.0	t		28.0	female	white	5.676880222841227	smiling	124	sub-06	1.0	3.0	124_smiling	1.0	dominance	224.08856480415125	
33.0	193.90027200136683	pulse	3.0	t		28.0	female	white	5.676880222841227	smiling	124	sub-06	1.0	3.0	124_smiling	1.0	dominance	224.78854980196775	
34.0	194.258490647484	face	0.0		146	23.0	male	white	2.6275368085953046	smiling	141	sub-06	1.0	3.0	141_smiling	0.0		225.1467684480849	1.2416420177032705
34.0	194.60026635668328	pulse	0.0	t		23.0	male	white	2.6275368085953046	smiling	141	sub-06	1.0	3.0	141_smiling	0.0		225.4885441572842	
34.0	195.30024592111295	pulse	0.0	t		23.0	male	white	2.6275368085953046	smiling	141	sub-06	1.0	3.0	141_smiling	0.0		226.18852372171386	
34.0	195.50013266518727	fix	1.0		444	23.0	male	white	2.6275368085953046	smiling	141	sub-06	1.0	3.0	141_smiling	0.0		226.38841046578818	3.758252936822828
34.0	196.00023242820316	pulse	1.0	t		23.0	male	white	2.6275368085953046	smiling	141	sub-06	1.0	3.0	141_smiling	0.0		226.88851022880408	
34.0	196.70020716295403	pulse	1.0	t		23.0	male	white	2.6275368085953046	smiling	141	sub-06	1.0	3.0	141_smiling	0.0		227.58848496355495	
34.0	197.40020604609163	pulse	1.0	t		23.0	male	white	2.6275368085953046	smiling	141	sub-06	1.0	3.0	141_smiling	0.0		228.28848384669254	
34.0	198.10019496802124	pulse	1.0	t		23.0	male	white	2.6275368085953046	smiling	141	sub-06	1.0	3.0	141_smiling	0.0		228.98847276862216	
34.0	198.80017604172463	pulse	1.0	t		23.0	male	white	2.6275368085953046	smiling	141	sub-06	1.0	3.0	141_smiling	0.0		229.68845384232554	
35.0	199.2583856020101	face	0.0		146	20.0	male	black	2.609629924393156	smiling	043	sub-06	1.0	3.0	043_smiling	0.0		230.146663402611	1.241638999159477
35.0	199.50017613228192	pulse	0.0	t		20.0	male	black	2.609629924393156	smiling	043	sub-06	1.0	3.0	043_smiling	0.0		230.38845393288284	
35.0	200.2001445280839	pulse	0.0	t		20.0	male	black	2.609629924393156	smiling	043	sub-06	1.0	3.0	043_smiling	0.0		231.08842232868483	
35.0	200.50002460116957	fix	1.0		444	20.0	male	black	2.609629924393156	smiling	043	sub-06	1.0	3.0	043_smiling	0.0		231.3883024017705	3.758256860932306
35.0	200.9001346574296	pulse	1.0	t		20.0	male	black	2.609629924393156	smiling	043	sub-06	1.0	3.0	043_smiling	0.0		231.7884124580305	
35.0	201.60011422185926	pulse	1.0	t		20.0	male	black	2.609629924393156	smiling	043	sub-06	1.0	3.0	043_smiling	0.0		232.48839202246018	
35.0	202.30009680483636	pulse	1.0	t		20.0	male	black	2.609629924393156	smiling	043	sub-06	1.0	3.0	043_smiling	0.0		233.18837460543728	
35.0	203.0000872360397	pulse	1.0	t		20.0	male	black	2.609629924393156	smiling	043	sub-06	1.0	3.0	043_smiling	0.0		233.8883650366406	
35.0	203.7000646874876	pulse	1.0	t		20.0	male	black	2.609629924393156	smiling	043	sub-06	1.0	3.0	043_smiling	0.0		234.58834248808853	
36.0	204.25828146210188	face	0.0		146	21.0	male	east_asian/white	3.501790688420215	neutral	036	sub-06	1.0	3.0	036_neutral	0.0		235.1465592627028	1.2416393010134925
36.0	204.40008741715428	pulse	0.0	t		21.0	male	east_asian/white	3.501790688420215	neutral	036	sub-06	1.0	3.0	036_neutral	0.0		235.2883652177552	
36.0	205.10005219069717	pulse	0.0	t		21.0	male	east_asian/white	3.501790688420215	neutral	036	sub-06	1.0	3.0	036_neutral	0.0		235.9883299912981	
36.0	205.49992076311537	fix	1.0		444	21.0	male	east_asian/white	3.501790688420215	neutral	036	sub-06	1.0	3.0	036_neutral	0.0		236.3881985637163	3.758255653512606
36.0	205.80014706366273	pulse	1.0	t		21.0	male	east_asian/white	3.501790688420215	neutral	036	sub-06	1.0	3.0	036_neutral	0.0		236.68842486426365	
36.0	206.50000920657112	pulse	1.0	t		21.0	male	east_asian/white	3.501790688420215	neutral	036	sub-06	1.0	3.0	036_neutral	0.0		237.38828700717204	
36.0	207.1999975247927	pulse	1.0	t		21.0	male	east_asian/white	3.501790688420215	neutral	036	sub-06	1.0	3.0	036_neutral	0.0		238.08827532539362	
36.0	207.89998403188292	pulse	1.0	t		21.0	male	east_asian/white	3.501790688420215	neutral	036	sub-06	1.0	3.0	036_neutral	0.0		238.78826183248384	
36.0	208.5999626907469	pulse	1.0	t		21.0	male	east_asian/white	3.501790688420215	neutral	036	sub-06	1.0	3.0	036_neutral	0.0		239.48824049134782	
37.0	209.25817641662798	face	0.0		146	26.0	female	white	4.854755272582572	neutral	027	sub-06	1.0	3.0	027_neutral	1.0	trustworthiness	240.1464542172289	1.2416432251266087
37.0	209.29996912025308	pulse	0.0	t		26.0	female	white	4.854755272582572	neutral	027	sub-06	1.0	3.0	027_neutral	1.0	trustworthiness	240.188246920854	
37.0	209.9999438550076	pulse	0.0	t		26.0	female	white	4.854755272582572	neutral	027	sub-06	1.0	3.0	027_neutral	1.0	trustworthiness	240.8882216556085	
37.0	210.49981964175458	fix	1.0		177	26.0	female	white	4.854755272582572	neutral	027	sub-06	1.0	3.0	027_neutral	1.0	trustworthiness	241.3880974423555	1.4999672487538191
37.0	210.69993066395182	pulse	1.0	t		26.0	female	white	4.854755272582572	neutral	027	sub-06	1.0	3.0	027_neutral	1.0	trustworthiness	241.58820846455274	
37.0	211.39990811539974	pulse	1.0	t		26.0	female	white	4.854755272582572	neutral	027	sub-06	1.0	3.0	027_neutral	1.0	trustworthiness	242.28818591600066	
37.0	211.9997868905084	rating	2.0		294	26.0	female	white	4.854755272582572	neutral	027	sub-06	1.0	3.0	027_neutral	1.0	trustworthiness	242.88806469110932	2.4999488356079382
37.0	212.09990367813225	pulse	2.0	t		26.0	female	white	4.854755272582572	neutral	027	sub-06	1.0	3.0	027_neutral	1.0	trustworthiness	242.98818147873317	
37.0	212.79988384626995	pulse	2.0	t		26.0	female	white	4.854755272582572	neutral	027	sub-06	1.0	3.0	027_neutral	1.0	trustworthiness	243.68816164687087	
37.0	213.42486848940825	response	2.0	y		26.0	female	white	4.854755272582572	neutral	027	sub-06	1.0	3.0	027_neutral	1.0	trustworthiness	244.31314629000917	
37.0	213.499865221831	pulse	2.0	t		26.0	female	white	4.854755272582572	neutral	027	sub-06	1.0	3.0	027_neutral	1.0	trustworthiness	244.3881430224319	
37.0	214.19985263448325	pulse	2.0	t		26.0	female	white	4.854755272582572	neutral	027	sub-06	1.0	3.0	027_neutral	1.0	trustworthiness	245.08813043508417	
37.0	214.49973572611634	fix	3.0		444	26.0	female	white	4.854755272582572	neutral	027	sub-06	1.0	3.0	027_neutral	1.0	trustworthiness	245.38801352671726	3.7582505219834275
37.0	214.89983944343112	pulse	3.0	t		26.0	female	white	4.854755272582572	neutral	027	sub-06	1.0	3.0	027_neutral	1.0	trustworthiness	245.78811724403204	
37.0	215.59981749858343	pulse	3.0	t		26.0	female	white	4.854755272582572	neutral	027	sub-06	1.0	3.0	027_neutral	1.0	trustworthiness	246.48809529918435	
37.0	216.29980521309335	pulse	3.0	t		26.0	female	white	4.854755272582572	neutral	027	sub-06	1.0	3.0	027_neutral	1.0	trustworthiness	247.18808301369427	
37.0	216.99979232389524	pulse	3.0	t		26.0	female	white	4.854755272582572	neutral	027	sub-06	1.0	3.0	027_neutral	1.0	trustworthiness	247.88807012449615	
37.0	217.6997939237226	pulse	3.0	t		26.0	female	white	4.854755272582572	neutral	027	sub-06	1.0	3.0	027_neutral	1.0	trustworthiness	248.58807172432353	
38.0	218.25798624809977	face	0.0		146	19.0	male	white	3.2522881018702745	neutral	018	sub-06	1.0	3.0	018_neutral	1.0	dominance	249.1462640487007	1.24164503625434
38.0	218.39976745105741	pulse	0.0	t		19.0	male	white	3.2522881018702745	neutral	018	sub-06	1.0	3.0	018_neutral	1.0	dominance	249.28804525165833	
38.0	219.09975365629361	pulse	0.0	t		19.0	male	white	3.2522881018702745	neutral	018	sub-06	1.0	3.0	018_neutral	1.0	dominance	249.98803145689453	
38.0	219.4996312843541	fix	1.0		177	19.0	male	white	3.2522881018702745	neutral	018	sub-06	1.0	3.0	018_neutral	1.0	dominance	250.38790908495503	1.499988378589478
38.0	219.79974438935096	pulse	1.0	t		19.0	male	white	3.2522881018702745	neutral	018	sub-06	1.0	3.0	018_neutral	1.0	dominance	250.68802218995188	
38.0	220.49970855918582	pulse	1.0	t		19.0	male	white	3.2522881018702745	neutral	018	sub-06	1.0	3.0	018_neutral	1.0	dominance	251.38798635978674	
38.0	220.9996196629436	rating	2.0		294	19.0	male	white	3.2522881018702745	neutral	018	sub-06	1.0	3.0	018_neutral	1.0	dominance	251.8878974635445	2.4999268002102326
38.0	221.19971166829055	pulse	2.0	t		19.0	male	white	3.2522881018702745	neutral	018	sub-06	1.0	3.0	018_neutral	1.0	dominance	252.08798946889146	
38.0	221.8996951568297	pulse	2.0	t		19.0	male	white	3.2522881018702745	neutral	018	sub-06	1.0	3.0	018_neutral	1.0	dominance	252.7879729574306	
38.0	222.59967592867906	pulse	2.0	t		19.0	male	white	3.2522881018702745	neutral	018	sub-06	1.0	3.0	018_neutral	1.0	dominance	253.48795372927998	
38.0	223.03303076413795	response	2.0	n		19.0	male	white	3.2522881018702745	neutral	018	sub-06	1.0	3.0	018_neutral	1.0	dominance	253.92130856473887	
38.0	223.29964311706135	pulse	2.0	t		19.0	male	white	3.2522881018702745	neutral	018	sub-06	1.0	3.0	018_neutral	1.0	dominance	254.18792091766227	
38.0	223.49954646315382	fix	3.0		444	19.0	male	white	3.2522881018702745	neutral	018	sub-06	1.0	3.0	018_neutral	1.0	dominance	254.38782426375474	3.7582505219834275
38.0	223.9996504521332	pulse	3.0	t		19.0	male	white	3.2522881018702745	neutral	018	sub-06	1.0	3.0	018_neutral	1.0	dominance	254.88792825273413	
38.0	224.6996315258366	pulse	3.0	t		19.0	male	white	3.2522881018702745	neutral	018	sub-06	1.0	3.0	018_neutral	1.0	dominance	255.5879093264375	
38.0	225.39961561809105	pulse	3.0	t		19.0	male	white	3.2522881018702745	neutral	018	sub-06	1.0	3.0	018_neutral	1.0	dominance	256.28789341869197	
38.0	226.0996003140499	pulse	3.0	t		19.0	male	white	3.2522881018702745	neutral	018	sub-06	1.0	3.0	018_neutral	1.0	dominance	256.9878781146508	
38.0	226.79957927477153	pulse	3.0	t		19.0	male	white	3.2522881018702745	neutral	018	sub-06	1.0	3.0	018_neutral	1.0	dominance	257.68785707537245	
39.0	227.25779698513725	face	0.0		146	27.0	female	white	4.181058495821727	smiling	039	sub-06	1.0	3.0	039_smiling	0.0		258.14607478573816	1.241644432542671
39.0	227.4995917413762	pulse	0.0	t		27.0	female	white	4.181058495821727	smiling	039	sub-06	1.0	3.0	039_smiling	0.0		258.3878695419771	
39.0	228.1995719095139	pulse	0.0	t		27.0	female	white	4.181058495821727	smiling	039	sub-06	1.0	3.0	039_smiling	0.0		259.0878497101148	
39.0	228.49944141767992	fix	1.0		444	27.0	female	white	4.181058495821727	smiling	039	sub-06	1.0	3.0	039_smiling	0.0		259.38771921828084	3.7499498166398553
39.0	228.89954754983046	pulse	1.0	t		27.0	female	white	4.181058495821727	smiling	039	sub-06	1.0	3.0	039_smiling	0.0		259.7878253504314	
39.0	229.59954281070895	pulse	1.0	t		27.0	female	white	4.181058495821727	smiling	039	sub-06	1.0	3.0	039_smiling	0.0		260.48782061130987	
39.0	230.2996802452035	pulse	1.0	t		27.0	female	white	4.181058495821727	smiling	039	sub-06	1.0	3.0	039_smiling	0.0		261.1879580458044	
39.0	230.99959370342913	pulse	1.0	t		27.0	female	white	4.181058495821727	smiling	039	sub-06	1.0	3.0	039_smiling	0.0		261.88787150403004	
39.0	231.699580512377	pulse	1.0	t		27.0	female	white	4.181058495821727	smiling	039	sub-06	1.0	3.0	039_smiling	0.0		262.5878583129779	
40.0	232.24939123431977	fix	0.0		720													263.1376690349207	5.999848770741664
40.0	232.39955766196726	pulse	0.0	t														263.2878354625682	
40.0	233.09946146083894	pulse	0.0	t														263.98773926143986	
40.0	233.7994470623671	pulse	0.0	t														264.687724862968	
40.0	234.4994284379245	pulse	0.0	t														265.3877062385254	
40.0	235.19940649308046	pulse	0.0	t														266.0876842936814	
40.0	235.8993948112984	pulse	0.0	t														266.7876726118993	
40.0	236.59937286645436	pulse	0.0	t														267.4876506670553	
40.0	237.2993711458803	pulse	0.0	t														268.1876489464812	
40.0	237.9993549362771	pulse	0.0	t														268.887632736878	
