trial_nr	onset	event_type	phase	response	nr_frames	face_age	face_sex	face_eth	attractiveness	expression	face_id	sub_id	ses	run	trial_type	catch	rating_type	onset_abs	duration
-1.0	0.05607975680277377	fix	0.0		714													30.112967875899358	5.966302340175844
-1.0	0.7059855333936866	pulse	0.0	t														30.76287365249027	
-1.0	1.4059672109174244	pulse	0.0	t														31.46285533001401	
-1.0	2.1059428513817693	pulse	0.0	t														32.16283097047835	
-1.0	2.805947167879367	pulse	0.0	t														32.86283528697595	
-1.0	3.5059095268120473	pulse	0.0	t														33.56279764590863	
-1.0	4.205900259925329	pulse	0.0	t														34.26278837902191	
-1.0	4.905875900389674	pulse	0.0	t														34.96276401948626	
-1.0	5.6058367500572786	pulse	0.0	t														35.66272486915386	
0.0	6.0223820969786175	face	0.0		144	25.0	female	west_asian	2.6756864305610826	neutral	064	sub-12	1.0	3.0	064_neutral	0.0		36.0792702160752	1.2333248110171553
0.0	6.305868233323508	pulse	0.0	t		25.0	female	west_asian	2.6756864305610826	neutral	064	sub-12	1.0	3.0	064_neutral	0.0		36.36275635242009	
0.0	7.005826064461871	pulse	0.0	t		25.0	female	west_asian	2.6756864305610826	neutral	064	sub-12	1.0	3.0	064_neutral	0.0		37.062714183558455	
0.0	7.255706907995773	fix	1.0		445	25.0	female	west_asian	2.6756864305610826	neutral	064	sub-12	1.0	3.0	064_neutral	0.0		37.31259502709236	3.7581888941645047
0.0	7.705796271572126	pulse	1.0	t		25.0	female	west_asian	2.6756864305610826	neutral	064	sub-12	1.0	3.0	064_neutral	0.0		37.76268439066871	
0.0	8.40580360659942	pulse	1.0	t		25.0	female	west_asian	2.6756864305610826	neutral	064	sub-12	1.0	3.0	064_neutral	0.0		38.462691725696004	
0.0	9.105776228534069	pulse	1.0	t		25.0	female	west_asian	2.6756864305610826	neutral	064	sub-12	1.0	3.0	064_neutral	0.0		39.16266434763065	
0.0	9.80574432267349	pulse	1.0	t		25.0	female	west_asian	2.6756864305610826	neutral	064	sub-12	1.0	3.0	064_neutral	0.0		39.862632441770074	
0.0	10.505725396491016	pulse	1.0	t		25.0	female	west_asian	2.6756864305610826	neutral	064	sub-12	1.0	3.0	064_neutral	0.0		40.5626135155876	
1.0	11.013895802160278	face	0.0		146	31.0	female	west_asian	2.364902506963788	neutral	006	sub-12	1.0	3.0	006_neutral	0.0		41.07078392125686	1.2416628960199887
1.0	11.20573665560778	pulse	0.0	t		31.0	female	west_asian	2.364902506963788	neutral	006	sub-12	1.0	3.0	006_neutral	0.0		41.26262477470436	
1.0	11.905685129303038	pulse	0.0	t		31.0	female	west_asian	2.364902506963788	neutral	006	sub-12	1.0	3.0	006_neutral	0.0		41.96257324839962	
1.0	12.255558698180266	fix	1.0		445	31.0	female	west_asian	2.364902506963788	neutral	006	sub-12	1.0	3.0	006_neutral	0.0		42.31244681727685	3.758239001760103
1.0	12.605674353151244	pulse	1.0	t		31.0	female	west_asian	2.364902506963788	neutral	006	sub-12	1.0	3.0	006_neutral	0.0		42.66256247224783	
1.0	13.305648182497862	pulse	1.0	t		31.0	female	west_asian	2.364902506963788	neutral	006	sub-12	1.0	3.0	006_neutral	0.0		43.362536301594446	
1.0	14.005636500787205	pulse	1.0	t		31.0	female	west_asian	2.364902506963788	neutral	006	sub-12	1.0	3.0	006_neutral	0.0		44.06252461988379	
1.0	14.705608217162535	pulse	1.0	t		31.0	female	west_asian	2.364902506963788	neutral	006	sub-12	1.0	3.0	006_neutral	0.0		44.76249633625912	
1.0	15.405606496600285	pulse	1.0	t		31.0	female	west_asian	2.364902506963788	neutral	006	sub-12	1.0	3.0	006_neutral	0.0		45.46249461569687	
2.0	16.01379769994037	face	0.0		146	47.0	male	east_asian	2.171110226820533	neutral	024	sub-12	1.0	3.0	024_neutral	0.0		46.07068581903695	1.241638144074841
2.0	16.10558213706463	pulse	0.0	t		47.0	male	east_asian	2.171110226820533	neutral	024	sub-12	1.0	3.0	024_neutral	0.0		46.162470256161214	
2.0	16.805554758998824	pulse	0.0	t		47.0	male	east_asian	2.171110226820533	neutral	024	sub-12	1.0	3.0	024_neutral	0.0		46.86244287809541	
2.0	17.25543584401521	fix	1.0		444	47.0	male	east_asian	2.171110226820533	neutral	024	sub-12	1.0	3.0	024_neutral	0.0		47.312323963111794	3.7582245128169234
2.0	17.50552828649188	pulse	1.0	t		47.0	male	east_asian	2.171110226820533	neutral	024	sub-12	1.0	3.0	024_neutral	0.0		47.562416405588465	
2.0	18.205522038135314	pulse	1.0	t		47.0	male	east_asian	2.171110226820533	neutral	024	sub-12	1.0	3.0	024_neutral	0.0		48.2624101572319	
2.0	18.905498886011173	pulse	1.0	t		47.0	male	east_asian	2.171110226820533	neutral	024	sub-12	1.0	3.0	024_neutral	0.0		48.96238700510776	
2.0	19.605483582065062	pulse	1.0	t		47.0	male	east_asian	2.171110226820533	neutral	024	sub-12	1.0	3.0	024_neutral	0.0		49.662371701161646	
2.0	20.305456505852362	pulse	1.0	t		47.0	male	east_asian	2.171110226820533	neutral	024	sub-12	1.0	3.0	024_neutral	0.0		50.362344624948946	
3.0	21.013660356832133	face	0.0		147	28.0	male	east_asian	1.5563072025467568	neutral	005	sub-12	1.0	3.0	005_neutral	0.0		51.07054847592872	1.2416357292513567
3.0	21.006340120095047	pulse	0.0	t		28.0	male	east_asian	1.5563072025467568	neutral	005	sub-12	1.0	3.0	005_neutral	0.0		51.06322823919163	
3.0	21.70543253872529	pulse	0.0	t		28.0	male	east_asian	1.5563072025467568	neutral	005	sub-12	1.0	3.0	005_neutral	0.0		51.762320657821874	
3.0	22.25529608608349	fix	1.0		443	28.0	male	east_asian	1.5563072025467568	neutral	005	sub-12	1.0	3.0	005_neutral	0.0		52.312184205180074	3.7582175701982123
3.0	22.40541481995524	pulse	1.0	t		28.0	male	east_asian	1.5563072025467568	neutral	005	sub-12	1.0	3.0	005_neutral	0.0		52.462302939051824	
3.0	23.1053916678311	pulse	1.0	t		28.0	male	east_asian	1.5563072025467568	neutral	005	sub-12	1.0	3.0	005_neutral	0.0		53.162279786927684	
3.0	23.805367912001202	pulse	1.0	t		28.0	male	east_asian	1.5563072025467568	neutral	005	sub-12	1.0	3.0	005_neutral	0.0		53.862256031097786	
3.0	24.505352608054636	pulse	1.0	t		28.0	male	east_asian	1.5563072025467568	neutral	005	sub-12	1.0	3.0	005_neutral	0.0		54.56224072715122	
3.0	25.205366281994884	pulse	1.0	t		28.0	male	east_asian	1.5563072025467568	neutral	005	sub-12	1.0	3.0	005_neutral	0.0		55.26225440109147	
3.0	25.905335281693624	pulse	1.0	t		28.0	male	east_asian	1.5563072025467568	neutral	005	sub-12	1.0	3.0	005_neutral	0.0		55.96222340079021	
4.0	26.013513656281702	face	0.0		147	22.0	female	west_asian	3.8205332272184642	neutral	066	sub-12	1.0	3.0	066_neutral	0.0		56.070401775378286	1.241674064579911
4.0	26.605297036920092	pulse	0.0	t		22.0	female	west_asian	3.8205332272184642	neutral	066	sub-12	1.0	3.0	066_neutral	0.0		56.662185156016676	
4.0	27.255187720861613	fix	1.0		443	22.0	female	west_asian	3.8205332272184642	neutral	066	sub-12	1.0	3.0	066_neutral	0.0		57.3120758399582	3.76653543105067
4.0	27.305280827415118	pulse	1.0	t		22.0	female	west_asian	3.8205332272184642	neutral	066	sub-12	1.0	3.0	066_neutral	0.0		57.3621689465117	
4.0	28.005256166026356	pulse	1.0	t		22.0	female	west_asian	3.8205332272184642	neutral	066	sub-12	1.0	3.0	066_neutral	0.0		58.06214428512294	
4.0	28.705252030640168	pulse	1.0	t		22.0	female	west_asian	3.8205332272184642	neutral	066	sub-12	1.0	3.0	066_neutral	0.0		58.76214014973675	
4.0	29.40521499327906	pulse	1.0	t		22.0	female	west_asian	3.8205332272184642	neutral	066	sub-12	1.0	3.0	066_neutral	0.0		59.462103112375644	
4.0	30.10520180230378	pulse	1.0	t		22.0	female	west_asian	3.8205332272184642	neutral	066	sub-12	1.0	3.0	066_neutral	0.0		60.162089921400366	
4.0	30.805175027943733	pulse	1.0	t		22.0	female	west_asian	3.8205332272184642	neutral	066	sub-12	1.0	3.0	066_neutral	0.0		60.86206314704032	
5.0	31.021723151912283	face	0.0		145	22.0	male	black	2.767608436132113	smiling	044	sub-12	1.0	3.0	044_smiling	0.0		61.07861127100887	1.2333076053973855
5.0	31.505168779587166	pulse	0.0	t		22.0	male	black	2.767608436132113	smiling	044	sub-12	1.0	3.0	044_smiling	0.0		61.56205689868375	
5.0	32.205161323818174	pulse	0.0	t		22.0	male	black	2.767608436132113	smiling	044	sub-12	1.0	3.0	044_smiling	0.0		62.26204944291476	
5.0	32.25503075730967	fix	1.0		445	22.0	male	black	2.767608436132113	smiling	044	sub-12	1.0	3.0	044_smiling	0.0		62.31191887640625	3.7582024775488208
5.0	32.90512821054563	pulse	1.0	t		22.0	male	black	2.767608436132113	smiling	044	sub-12	1.0	3.0	044_smiling	0.0		62.96201632964221	
5.0	33.605104756568835	pulse	1.0	t		22.0	male	black	2.767608436132113	smiling	044	sub-12	1.0	3.0	044_smiling	0.0		63.66199287566542	
5.0	34.30508552853371	pulse	1.0	t		22.0	male	black	2.767608436132113	smiling	044	sub-12	1.0	3.0	044_smiling	0.0		64.3619736476303	
5.0	35.0050702245876	pulse	1.0	t		22.0	male	black	2.767608436132113	smiling	044	sub-12	1.0	3.0	044_smiling	0.0		65.06195834368418	
5.0	35.7050811818508	pulse	1.0	t		22.0	male	black	2.767608436132113	smiling	044	sub-12	1.0	3.0	044_smiling	0.0		65.76196930094738	
6.0	36.01323323485849	face	0.0		146	27.0	female	white	3.504576203740549	neutral	144	sub-12	1.0	3.0	144_neutral	1.0	attractiveness	66.07012135395507	1.2416704423444571
6.0	36.40503961669492	pulse	0.0	t		27.0	female	white	3.504576203740549	neutral	144	sub-12	1.0	3.0	144_neutral	1.0	attractiveness	66.4619277357915	
6.0	37.105014955305705	pulse	0.0	t		27.0	female	white	3.504576203740549	neutral	144	sub-12	1.0	3.0	144_neutral	1.0	attractiveness	67.16190307440229	
6.0	37.25490367720295	fix	1.0		177	27.0	female	white	3.504576203740549	neutral	144	sub-12	1.0	3.0	144_neutral	1.0	attractiveness	67.31179179629953	1.5083228414268888
6.0	37.80501323474391	pulse	1.0	t		27.0	female	white	3.504576203740549	neutral	144	sub-12	1.0	3.0	144_neutral	1.0	attractiveness	67.8619013538405	
6.0	38.50498283814841	pulse	1.0	t		27.0	female	white	3.504576203740549	neutral	144	sub-12	1.0	3.0	144_neutral	1.0	attractiveness	68.56187095724499	
6.0	38.763226518629835	rating	2.0		294	27.0	female	white	3.504576203740549	neutral	144	sub-12	1.0	3.0	144_neutral	1.0	attractiveness	68.82011463772642	2.4915576247913123
6.0	39.19975755168207	pulse	2.0	t		27.0	female	white	3.504576203740549	neutral	144	sub-12	1.0	3.0	144_neutral	1.0	attractiveness	69.25664567077865	
6.0	39.89972504211573	pulse	2.0	t		27.0	female	white	3.504576203740549	neutral	144	sub-12	1.0	3.0	144_neutral	1.0	attractiveness	69.95661316121232	
6.0	40.59986670172157	pulse	2.0	t		27.0	female	white	3.504576203740549	neutral	144	sub-12	1.0	3.0	144_neutral	1.0	attractiveness	70.65675482081815	
6.0	41.113246788057495	response	2.0	e		27.0	female	white	3.504576203740549	neutral	144	sub-12	1.0	3.0	144_neutral	1.0	attractiveness	71.17013490715408	
6.0	41.25478414342115	fix	3.0		443	27.0	female	white	3.504576203740549	neutral	144	sub-12	1.0	3.0	144_neutral	1.0	attractiveness	71.31167226251773	3.766572860820361
6.0	41.304908642684495	pulse	3.0	t		27.0	female	white	3.504576203740549	neutral	144	sub-12	1.0	3.0	144_neutral	1.0	attractiveness	71.36179676178108	
6.0	42.00488549056081	pulse	3.0	t		27.0	female	white	3.504576203740549	neutral	144	sub-12	1.0	3.0	144_neutral	1.0	attractiveness	72.0617736096574	
6.0	42.704878336644924	pulse	3.0	t		27.0	female	white	3.504576203740549	neutral	144	sub-12	1.0	3.0	144_neutral	1.0	attractiveness	72.76176645574151	
6.0	43.40484794004942	pulse	3.0	t		27.0	female	white	3.504576203740549	neutral	144	sub-12	1.0	3.0	144_neutral	1.0	attractiveness	73.461736059146	
6.0	44.104835050926795	pulse	3.0	t		27.0	female	white	3.504576203740549	neutral	144	sub-12	1.0	3.0	144_neutral	1.0	attractiveness	74.16172317002338	
6.0	44.80480646544902	pulse	3.0	t		27.0	female	white	3.504576203740549	neutral	144	sub-12	1.0	3.0	144_neutral	1.0	attractiveness	74.8616945845456	
7.0	45.02135700424151	face	0.0		145	22.0	female	white	4.614007162753682	smiling	009	sub-12	1.0	3.0	009_smiling	0.0		75.07824512333809	1.233307001691628
7.0	45.50479931153359	pulse	0.0	t		22.0	female	white	4.614007162753682	smiling	009	sub-12	1.0	3.0	009_smiling	0.0		75.56168743063017	
7.0	46.20477736682142	pulse	0.0	t		22.0	female	white	4.614007162753682	smiling	009	sub-12	1.0	3.0	009_smiling	0.0		76.261665485918	
7.0	46.25466400593314	fix	1.0		445	22.0	female	white	4.614007162753682	smiling	009	sub-12	1.0	3.0	009_smiling	0.0		76.31155212502972	3.7582263239346503
7.0	46.90475693137432	pulse	1.0	t		22.0	female	white	4.614007162753682	smiling	009	sub-12	1.0	3.0	009_smiling	0.0		76.9616450504709	
7.0	47.60473649592723	pulse	1.0	t		22.0	female	white	4.614007162753682	smiling	009	sub-12	1.0	3.0	009_smiling	0.0		77.66162461502381	
7.0	48.30472209753998	pulse	1.0	t		22.0	female	white	4.614007162753682	smiling	009	sub-12	1.0	3.0	009_smiling	0.0		78.36161021663656	
7.0	49.004695323180385	pulse	1.0	t		22.0	female	white	4.614007162753682	smiling	009	sub-12	1.0	3.0	009_smiling	0.0		79.06158344227697	
7.0	49.70467488773329	pulse	1.0	t		22.0	female	white	4.614007162753682	smiling	009	sub-12	1.0	3.0	009_smiling	0.0		79.76156300682987	
8.0	50.01289032986779	face	0.0		146	25.0	female	west_asian	2.6756864305610826	smiling	064	sub-12	1.0	3.0	064_smiling	1.0	attractiveness	80.06977844896437	1.241638747781053
8.0	50.40465988563983	pulse	0.0	t		25.0	female	west_asian	2.6756864305610826	smiling	064	sub-12	1.0	3.0	064_smiling	1.0	attractiveness	80.46154800473641	
8.0	51.10464729837031	pulse	0.0	t		25.0	female	west_asian	2.6756864305610826	smiling	064	sub-12	1.0	3.0	064_smiling	1.0	attractiveness	81.1615354174669	
8.0	51.25452907764884	fix	1.0		177	25.0	female	west_asian	2.6756864305610826	smiling	064	sub-12	1.0	3.0	064_smiling	1.0	attractiveness	81.31141719674542	1.4999627211564075
8.0	51.80465342598609	pulse	1.0	t		25.0	female	west_asian	2.6756864305610826	smiling	064	sub-12	1.0	3.0	064_smiling	1.0	attractiveness	81.86154154508267	
8.0	52.50459767373968	pulse	1.0	t		25.0	female	west_asian	2.6756864305610826	smiling	064	sub-12	1.0	3.0	064_smiling	1.0	attractiveness	82.56148579283627	
8.0	52.75449179880525	rating	2.0		295	25.0	female	west_asian	2.6756864305610826	smiling	064	sub-12	1.0	3.0	064_smiling	1.0	attractiveness	82.81137991790183	2.4999289136217158
8.0	53.19936967059675	pulse	2.0	t		25.0	female	west_asian	2.6756864305610826	smiling	064	sub-12	1.0	3.0	064_smiling	1.0	attractiveness	83.25625778969334	
8.0	53.89945246887055	pulse	2.0	t		25.0	female	west_asian	2.6756864305610826	smiling	064	sub-12	1.0	3.0	064_smiling	1.0	attractiveness	83.95634058796713	
8.0	54.599328497849456	pulse	2.0	t		25.0	female	west_asian	2.6756864305610826	smiling	064	sub-12	1.0	3.0	064_smiling	1.0	attractiveness	84.65621661694604	
8.0	54.682701197843016	response	2.0	b		25.0	female	west_asian	2.6756864305610826	smiling	064	sub-12	1.0	3.0	064_smiling	1.0	attractiveness	84.7395893169396	
8.0	55.25442071242696	fix	3.0		443	25.0	female	west_asian	2.6756864305610826	smiling	064	sub-12	1.0	3.0	064_smiling	1.0	attractiveness	85.31130883152355	3.766563201525514
8.0	55.30453162830645	pulse	3.0	t		25.0	female	west_asian	2.6756864305610826	smiling	064	sub-12	1.0	3.0	064_smiling	1.0	attractiveness	85.36141974740303	
8.0	56.004511796565566	pulse	3.0	t		25.0	female	west_asian	2.6756864305610826	smiling	064	sub-12	1.0	3.0	064_smiling	1.0	attractiveness	86.06139991566215	
8.0	56.70447868329302	pulse	3.0	t		25.0	female	west_asian	2.6756864305610826	smiling	064	sub-12	1.0	3.0	064_smiling	1.0	attractiveness	86.7613668023896	
8.0	57.404483603496374	pulse	3.0	t		25.0	female	west_asian	2.6756864305610826	smiling	064	sub-12	1.0	3.0	064_smiling	1.0	attractiveness	87.46137172259296	
8.0	58.10446950696223	pulse	3.0	t		25.0	female	west_asian	2.6756864305610826	smiling	064	sub-12	1.0	3.0	064_smiling	1.0	attractiveness	88.16135762605882	
8.0	58.804436393689684	pulse	3.0	t		25.0	female	west_asian	2.6756864305610826	smiling	064	sub-12	1.0	3.0	064_smiling	1.0	attractiveness	88.86132451278627	
9.0	59.02098391395248	face	0.0		145	40.0	male	black	2.408674890569041	neutral	061	sub-12	1.0	3.0	061_neutral	0.0		89.07787203304906	1.2333042850141283
9.0	59.5044262212441	pulse	0.0	t		40.0	male	black	2.408674890569041	neutral	061	sub-12	1.0	3.0	061_neutral	0.0		89.56131434034069	
9.0	60.2043928061189	pulse	0.0	t		40.0	male	black	2.408674890569041	neutral	061	sub-12	1.0	3.0	061_neutral	0.0		90.26128092521549	
9.0	60.254288198966606	fix	1.0		445	40.0	male	black	2.408674890569041	neutral	061	sub-12	1.0	3.0	061_neutral	0.0		90.31117631806319	3.7665438829344566
9.0	60.90438202996711	pulse	1.0	t		40.0	male	black	2.408674890569041	neutral	061	sub-12	1.0	3.0	061_neutral	0.0		90.9612701490637	
9.0	61.60436431119706	pulse	1.0	t		40.0	male	black	2.408674890569041	neutral	061	sub-12	1.0	3.0	061_neutral	0.0		91.66125243029364	
9.0	62.30433783869012	pulse	1.0	t		40.0	male	black	2.408674890569041	neutral	061	sub-12	1.0	3.0	061_neutral	0.0		92.3612259577867	
9.0	63.004325251420596	pulse	1.0	t		40.0	male	black	2.408674890569041	neutral	061	sub-12	1.0	3.0	061_neutral	0.0		93.06121337051718	
9.0	63.70430511782661	pulse	1.0	t		40.0	male	black	2.408674890569041	neutral	061	sub-12	1.0	3.0	061_neutral	0.0		93.76119323692319	
10.0	64.02083208190106	face	0.0		145	24.0	female	east_asian	2.9076800636689217	smiling	034	sub-12	1.0	3.0	034_smiling	0.0		94.07772020099765	1.2333248110171553
10.0	64.40429132314512	pulse	0.0	t		24.0	female	east_asian	2.9076800636689217	smiling	034	sub-12	1.0	3.0	034_smiling	0.0		94.4611794422417	
10.0	65.10426394507931	pulse	0.0	t		24.0	female	east_asian	2.9076800636689217	smiling	034	sub-12	1.0	3.0	034_smiling	0.0		95.1611520641759	
10.0	65.25415689291822	fix	1.0		444	24.0	female	east_asian	2.9076800636689217	smiling	034	sub-12	1.0	3.0	034_smiling	0.0		95.3110450120148	3.7665459959052896
10.0	65.80426826157691	pulse	1.0	t		24.0	female	east_asian	2.9076800636689217	smiling	034	sub-12	1.0	3.0	034_smiling	0.0		95.86115638067349	
10.0	66.504227903833	pulse	1.0	t		24.0	female	east_asian	2.9076800636689217	smiling	034	sub-12	1.0	3.0	034_smiling	0.0		96.56111602292958	
10.0	67.2042074683859	pulse	1.0	t		24.0	female	east_asian	2.9076800636689217	smiling	034	sub-12	1.0	3.0	034_smiling	0.0		97.26109558748249	
10.0	67.90419669223456	pulse	1.0	t		24.0	female	east_asian	2.9076800636689217	smiling	034	sub-12	1.0	3.0	034_smiling	0.0		97.96108481133115	
10.0	68.60417203084535	pulse	1.0	t		24.0	female	east_asian	2.9076800636689217	smiling	034	sub-12	1.0	3.0	034_smiling	0.0		98.66106014994193	
11.0	69.02070288882351	face	0.0		145	37.0	male	white	3.898925586947871	smiling	101	sub-12	1.0	3.0	101_smiling	0.0		99.07759100792009	1.2333094165151124
11.0	69.30415914172318	pulse	0.0	t		37.0	male	white	3.898925586947871	smiling	101	sub-12	1.0	3.0	101_smiling	0.0		99.36104726081976	
11.0	70.00413508404017	pulse	0.0	t		37.0	male	white	3.898925586947871	smiling	101	sub-12	1.0	3.0	101_smiling	0.0		100.06102320313676	
11.0	70.25401230533862	fix	1.0		444	37.0	male	white	3.898925586947871	smiling	101	sub-12	1.0	3.0	101_smiling	0.0		100.3109004244352	3.76655807002453
11.0	70.70413758942004	pulse	1.0	t		37.0	male	white	3.898925586947871	smiling	101	sub-12	1.0	3.0	101_smiling	0.0		100.76102570851663	
11.0	71.40410055205848	pulse	1.0	t		37.0	male	white	3.898925586947871	smiling	101	sub-12	1.0	3.0	101_smiling	0.0		101.46098867115506	
11.0	72.10407981475873	pulse	1.0	t		37.0	male	white	3.898925586947871	smiling	101	sub-12	1.0	3.0	101_smiling	0.0		102.16096793385532	
11.0	72.80406269969444	pulse	1.0	t		37.0	male	white	3.898925586947871	smiling	101	sub-12	1.0	3.0	101_smiling	0.0		102.86095081879103	
11.0	73.50404498092439	pulse	1.0	t		37.0	male	white	3.898925586947871	smiling	101	sub-12	1.0	3.0	101_smiling	0.0		103.56093310002097	
12.0	74.02057037536315	face	0.0		145	24.0	female	black	3.0955033824114606	neutral	099	sub-12	1.0	3.0	099_neutral	0.0		104.07745849445973	1.233319679516626
12.0	74.2040308843898	pulse	0.0	t		24.0	female	black	3.0955033824114606	neutral	099	sub-12	1.0	3.0	099_neutral	0.0		104.26091900348638	
12.0	74.90400501558906	pulse	0.0	t		24.0	female	black	3.0955033824114606	neutral	099	sub-12	1.0	3.0	099_neutral	0.0		104.96089313468565	
12.0	75.25389005487978	fix	1.0		444	24.0	female	black	3.0955033824114606	neutral	099	sub-12	1.0	3.0	099_neutral	0.0		105.31077817397636	3.7665607867011204
12.0	75.60400118205598	pulse	1.0	t		24.0	female	black	3.0955033824114606	neutral	099	sub-12	1.0	3.0	099_neutral	0.0		105.66088930115257	
12.0	76.30396957804851	pulse	1.0	t		24.0	female	black	3.0955033824114606	neutral	099	sub-12	1.0	3.0	099_neutral	0.0		106.3608576971451	
12.0	77.00395125557225	pulse	1.0	t		24.0	female	black	3.0955033824114606	neutral	099	sub-12	1.0	3.0	099_neutral	0.0		107.06083937466883	
12.0	77.70392780159546	pulse	1.0	t		24.0	female	black	3.0955033824114606	neutral	099	sub-12	1.0	3.0	099_neutral	0.0		107.76081592069204	
12.0	78.40391129023737	pulse	1.0	t		24.0	female	black	3.0955033824114606	neutral	099	sub-12	1.0	3.0	099_neutral	0.0		108.46079940933396	
13.0	79.0204508415809	face	0.0		145	31.0	female	east_asian	3.395941106247513	smiling	087	sub-12	1.0	3.0	087_smiling	0.0		109.07733896067748	1.2333057942796586
13.0	79.10390715485119	pulse	0.0	t		31.0	female	east_asian	3.395941106247513	smiling	087	sub-12	1.0	3.0	087_smiling	0.0		109.16079527394777	
13.0	79.80387464528485	pulse	0.0	t		31.0	female	east_asian	3.395941106247513	smiling	087	sub-12	1.0	3.0	087_smiling	0.0		109.86076276438143	
13.0	80.25375663586055	fix	1.0		444	31.0	female	east_asian	3.395941106247513	smiling	087	sub-12	1.0	3.0	087_smiling	0.0		110.31064475495714	3.758354611452887
13.0	80.50385903948563	pulse	1.0	t		31.0	female	east_asian	3.395941106247513	smiling	087	sub-12	1.0	3.0	087_smiling	0.0		110.56074715858222	
13.0	81.20383981145051	pulse	1.0	t		31.0	female	east_asian	3.395941106247513	smiling	087	sub-12	1.0	3.0	087_smiling	0.0		111.26072793054709	
13.0	81.90382179082735	pulse	1.0	t		31.0	female	east_asian	3.395941106247513	smiling	087	sub-12	1.0	3.0	087_smiling	0.0		111.96070990992393	
13.0	82.60380890170472	pulse	1.0	t		31.0	female	east_asian	3.395941106247513	smiling	087	sub-12	1.0	3.0	087_smiling	0.0		112.66069702080131	
13.0	83.30379239034619	pulse	1.0	t		31.0	female	east_asian	3.395941106247513	smiling	087	sub-12	1.0	3.0	087_smiling	0.0		113.36068050944277	
14.0	84.01211124731344	face	0.0		146	22.0	female	white	4.614007162753682	neutral	009	sub-12	1.0	3.0	009_neutral	0.0		114.06899936641003	1.241509554703498
14.0	84.00615991386303	pulse	0.0	t		22.0	female	white	4.614007162753682	neutral	009	sub-12	1.0	3.0	009_neutral	0.0		114.06304803295961	
14.0	84.70374789721654	pulse	0.0	t		22.0	female	white	4.614007162753682	neutral	009	sub-12	1.0	3.0	009_neutral	0.0		114.76063601631313	
14.0	85.25362080201694	fix	1.0		443	22.0	female	white	4.614007162753682	neutral	009	sub-12	1.0	3.0	009_neutral	0.0		115.31050892111352	3.7665619941135446
14.0	85.40373078215225	pulse	1.0	t		22.0	female	white	4.614007162753682	neutral	009	sub-12	1.0	3.0	009_neutral	0.0		115.46061890124884	
14.0	86.1037160819119	pulse	1.0	t		22.0	female	white	4.614007162753682	neutral	009	sub-12	1.0	3.0	009_neutral	0.0		116.16060420100848	
14.0	86.80368930755185	pulse	1.0	t		22.0	female	white	4.614007162753682	neutral	009	sub-12	1.0	3.0	009_neutral	0.0		116.86057742664843	
14.0	87.50367068322294	pulse	1.0	t		22.0	female	white	4.614007162753682	neutral	009	sub-12	1.0	3.0	009_neutral	0.0		117.56055880231952	
14.0	88.20365658668834	pulse	1.0	t		22.0	female	white	4.614007162753682	neutral	009	sub-12	1.0	3.0	009_neutral	0.0		118.26054470578492	
14.0	88.90363252900579	pulse	1.0	t		22.0	female	white	4.614007162753682	neutral	009	sub-12	1.0	3.0	009_neutral	0.0		118.96052064810237	
15.0	89.02018279613048	face	0.0		146	28.0	male	white	3.9076800636689217	neutral	033	sub-12	1.0	3.0	033_neutral	0.0		119.07707091522707	1.2333054924260978
15.0	89.6036154139415	pulse	0.0	t		28.0	male	white	3.9076800636689217	neutral	033	sub-12	1.0	3.0	033_neutral	0.0		119.66050353303808	
15.0	90.25348828855658	fix	1.0		443	28.0	male	white	3.9076800636689217	neutral	033	sub-12	1.0	3.0	033_neutral	0.0		120.31037640765317	3.758241416584042
15.0	90.30359558220016	pulse	1.0	t		28.0	male	white	3.9076800636689217	neutral	033	sub-12	1.0	3.0	033_neutral	0.0		120.36048370129674	
15.0	91.00356548745776	pulse	1.0	t		28.0	male	white	3.9076800636689217	neutral	033	sub-12	1.0	3.0	033_neutral	0.0		121.06045360655435	
15.0	91.70357704842718	pulse	1.0	t		28.0	male	white	3.9076800636689217	neutral	033	sub-12	1.0	3.0	033_neutral	0.0		121.76046516752376	
15.0	92.40353337030001	pulse	1.0	t		28.0	male	white	3.9076800636689217	neutral	033	sub-12	1.0	3.0	033_neutral	0.0		122.4604214893966	
15.0	93.1035180663539	pulse	1.0	t		28.0	male	white	3.9076800636689217	neutral	033	sub-12	1.0	3.0	033_neutral	0.0		123.16040618545048	
15.0	93.80350185684847	pulse	1.0	t		28.0	male	white	3.9076800636689217	neutral	033	sub-12	1.0	3.0	033_neutral	0.0		123.86038997594505	
16.0	94.01172970514062	face	0.0		146	21.0	male	east_asian/white	3.501790688420215	smiling	036	sub-12	1.0	3.0	036_smiling	0.0		124.06861782423721	1.2416233532790102
16.0	94.50349711775652	pulse	0.0	t		21.0	male	east_asian/white	3.501790688420215	smiling	036	sub-12	1.0	3.0	036_smiling	0.0		124.56038523685311	
16.0	95.20346521189595	pulse	0.0	t		21.0	male	east_asian/white	3.501790688420215	smiling	036	sub-12	1.0	3.0	036_smiling	0.0		125.26035333099253	
16.0	95.25335305841963	fix	1.0		445	21.0	male	east_asian/white	3.501790688420215	smiling	036	sub-12	1.0	3.0	036_smiling	0.0		125.31024117751622	3.758313559447288
16.0	95.9034511153618	pulse	1.0	t		21.0	male	east_asian/white	3.501790688420215	smiling	036	sub-12	1.0	3.0	036_smiling	0.0		125.96033923445839	
16.0	96.60344275403395	pulse	1.0	t		21.0	male	east_asian/white	3.501790688420215	smiling	036	sub-12	1.0	3.0	036_smiling	0.0		126.66033087313053	
16.0	97.3034029999958	pulse	1.0	t		21.0	male	east_asian/white	3.501790688420215	smiling	036	sub-12	1.0	3.0	036_smiling	0.0		127.36029111909238	
16.0	98.00338799790234	pulse	1.0	t		21.0	male	east_asian/white	3.501790688420215	smiling	036	sub-12	1.0	3.0	036_smiling	0.0		128.06027611699892	
16.0	98.70337269395623	pulse	1.0	t		21.0	male	east_asian/white	3.501790688420215	smiling	036	sub-12	1.0	3.0	036_smiling	0.0		128.7602608130528	
17.0	99.01166661786692	face	0.0		146	21.0	male	black	2.969757262236371	neutral	137	sub-12	1.0	3.0	137_neutral	0.0		129.0685547369635	1.241554832651218
17.0	99.40335588074504	pulse	0.0	t		21.0	male	black	2.969757262236371	neutral	137	sub-12	1.0	3.0	137_neutral	0.0		129.46024399984162	
17.0	100.10333121935582	pulse	0.0	t		21.0	male	black	2.969757262236371	neutral	137	sub-12	1.0	3.0	137_neutral	0.0		130.1602193384524	
17.0	100.25322145051814	fix	1.0		444	21.0	male	black	2.969757262236371	neutral	137	sub-12	1.0	3.0	137_neutral	0.0		130.31010956961472	3.758363968895992
17.0	100.80332134876335	pulse	1.0	t		21.0	male	black	2.969757262236371	neutral	137	sub-12	1.0	3.0	137_neutral	0.0		130.86020946785993	
17.0	101.50329578181572	pulse	1.0	t		21.0	male	black	2.969757262236371	neutral	137	sub-12	1.0	3.0	137_neutral	0.0		131.5601839009123	
17.0	102.20330311684302	pulse	1.0	t		21.0	male	black	2.969757262236371	neutral	137	sub-12	1.0	3.0	137_neutral	0.0		132.2601912359396	
17.0	102.9032657776288	pulse	1.0	t		21.0	male	black	2.969757262236371	neutral	137	sub-12	1.0	3.0	137_neutral	0.0		132.9601538967254	
17.0	103.60324141809315	pulse	1.0	t		21.0	male	black	2.969757262236371	neutral	137	sub-12	1.0	3.0	137_neutral	0.0		133.66012953718973	
18.0	104.01158541941413	face	0.0		146	40.0	male	black	2.408674890569041	smiling	061	sub-12	1.0	3.0	061_smiling	0.0		134.06847353851072	1.2415029139374383
18.0	104.30322822711742	pulse	0.0	t		40.0	male	black	2.408674890569041	smiling	061	sub-12	1.0	3.0	061_smiling	0.0		134.360116346214	
18.0	105.00322499729054	pulse	0.0	t		40.0	male	black	2.408674890569041	smiling	061	sub-12	1.0	3.0	061_smiling	0.0		135.06011311638713	
18.0	105.25308833335157	fix	1.0		444	40.0	male	black	2.408674890569041	smiling	061	sub-12	1.0	3.0	061_smiling	0.0		135.30997645244815	3.7665635033781655
18.0	105.70320335443148	pulse	1.0	t		40.0	male	black	2.408674890569041	smiling	061	sub-12	1.0	3.0	061_smiling	0.0		135.76009147352806	
18.0	106.4031681281881	pulse	1.0	t		40.0	male	black	2.408674890569041	smiling	061	sub-12	1.0	3.0	061_smiling	0.0		136.46005624728468	
18.0	107.10314618347638	pulse	1.0	t		40.0	male	black	2.408674890569041	smiling	061	sub-12	1.0	3.0	061_smiling	0.0		137.16003430257297	
18.0	107.80313419991262	pulse	1.0	t		40.0	male	black	2.408674890569041	smiling	061	sub-12	1.0	3.0	061_smiling	0.0		137.8600223190092	
18.0	108.50310984037696	pulse	1.0	t		40.0	male	black	2.408674890569041	smiling	061	sub-12	1.0	3.0	061_smiling	0.0		138.55999795947355	
19.0	109.01965183672974	face	0.0		145	24.0	female	east_asian	4.409868682849185	neutral	030	sub-12	1.0	3.0	030_neutral	0.0		139.07653995582632	1.233303983161477
19.0	109.20309664940123	pulse	0.0	t		24.0	female	east_asian	4.409868682849185	neutral	030	sub-12	1.0	3.0	030_neutral	0.0		139.25998476849782	
19.0	109.90308496769103	pulse	0.0	t		24.0	female	east_asian	4.409868682849185	neutral	030	sub-12	1.0	3.0	030_neutral	0.0		139.9599730867876	
19.0	110.25295581989121	fix	1.0		444	24.0	female	east_asian	4.409868682849185	neutral	030	sub-12	1.0	3.0	030_neutral	0.0		140.3098439389878	3.758380268957353
19.0	110.60305426924242	pulse	1.0	t		24.0	female	east_asian	4.409868682849185	neutral	030	sub-12	1.0	3.0	030_neutral	0.0		140.659942388339	
19.0	111.3030383615901	pulse	1.0	t		24.0	female	east_asian	4.409868682849185	neutral	030	sub-12	1.0	3.0	030_neutral	0.0		141.35992648068668	
19.0	112.00301370020134	pulse	1.0	t		24.0	female	east_asian	4.409868682849185	neutral	030	sub-12	1.0	3.0	030_neutral	0.0		142.05990181929792	
19.0	112.70303733528999	pulse	1.0	t		24.0	female	east_asian	4.409868682849185	neutral	030	sub-12	1.0	3.0	030_neutral	0.0		142.75992545438658	
19.0	113.40297645154305	pulse	1.0	t		24.0	female	east_asian	4.409868682849185	neutral	030	sub-12	1.0	3.0	030_neutral	0.0		143.45986457063964	
20.0	114.01133608884857	face	0.0		146	34.0	male	white	2.651014723438122	smiling	121	sub-12	1.0	3.0	121_smiling	1.0	dominance	144.06822420794515	1.2414872175822893
20.0	114.10297925877558	pulse	0.0	t		34.0	male	white	2.651014723438122	smiling	121	sub-12	1.0	3.0	121_smiling	1.0	dominance	144.15986737787216	
20.0	114.80294584365038	pulse	0.0	t		34.0	male	white	2.651014723438122	smiling	121	sub-12	1.0	3.0	121_smiling	1.0	dominance	144.85983396274696	
20.0	115.25282330643086	fix	1.0		177	34.0	male	white	2.651014723438122	smiling	121	sub-12	1.0	3.0	121_smiling	1.0	dominance	145.30971142552744	1.4999584952147416
20.0	115.50292571005593	pulse	1.0	t		34.0	male	white	2.651014723438122	smiling	121	sub-12	1.0	3.0	121_smiling	1.0	dominance	145.55981382915252	
20.0	116.20290980240361	pulse	1.0	t		34.0	male	white	2.651014723438122	smiling	121	sub-12	1.0	3.0	121_smiling	1.0	dominance	146.2597979215002	
20.0	116.7527818016456	rating	2.0		294	34.0	male	white	2.651014723438122	smiling	121	sub-12	1.0	3.0	121_smiling	1.0	dominance	146.80966992074218	2.4999415914471683
20.0	116.89783453687141	pulse	2.0	t		34.0	male	white	2.651014723438122	smiling	121	sub-12	1.0	3.0	121_smiling	1.0	dominance	146.954722655968	
20.0	117.59776399382872	pulse	2.0	t		34.0	male	white	2.651014723438122	smiling	121	sub-12	1.0	3.0	121_smiling	1.0	dominance	147.6546521129253	
20.0	118.297638513543	pulse	2.0	t		34.0	male	white	2.651014723438122	smiling	121	sub-12	1.0	3.0	121_smiling	1.0	dominance	148.3545266326396	
20.0	118.64775296110201	response	2.0	e		34.0	male	white	2.651014723438122	smiling	121	sub-12	1.0	3.0	121_smiling	1.0	dominance	148.7046410801986	
20.0	119.00281689205485	pulse	2.0	t		34.0	male	white	2.651014723438122	smiling	121	sub-12	1.0	3.0	121_smiling	1.0	dominance	149.05970501115144	
20.0	119.25272339309277	fix	3.0		1185	34.0	male	white	2.651014723438122	smiling	121	sub-12	1.0	3.0	121_smiling	1.0	dominance	149.30961151218935	10.016368279960261
20.0	119.70281456778685	pulse	3.0	t		34.0	male	white	2.651014723438122	smiling	121	sub-12	1.0	3.0	121_smiling	1.0	dominance	149.75970268688343	
20.0	120.40278779342725	pulse	3.0	t		34.0	male	white	2.651014723438122	smiling	121	sub-12	1.0	3.0	121_smiling	1.0	dominance	150.45967591252383	
20.0	121.10279573216076	pulse	3.0	t		34.0	male	white	2.651014723438122	smiling	121	sub-12	1.0	3.0	121_smiling	1.0	dominance	151.15968385125734	
20.0	121.80275537441685	pulse	3.0	t		34.0	male	white	2.651014723438122	smiling	121	sub-12	1.0	3.0	121_smiling	1.0	dominance	151.85964349351343	
20.0	122.50273101488074	pulse	3.0	t		34.0	male	white	2.651014723438122	smiling	121	sub-12	1.0	3.0	121_smiling	1.0	dominance	152.55961913397732	
20.0	123.20273291655485	pulse	3.0	t		34.0	male	white	2.651014723438122	smiling	121	sub-12	1.0	3.0	121_smiling	1.0	dominance	153.25962103565143	
20.0	123.90269889772344	pulse	3.0	t		34.0	male	white	2.651014723438122	smiling	121	sub-12	1.0	3.0	121_smiling	1.0	dominance	153.95958701682002	
20.0	124.60270140310286	pulse	3.0	t		34.0	male	white	2.651014723438122	smiling	121	sub-12	1.0	3.0	121_smiling	1.0	dominance	154.65958952219944	
20.0	125.3026583286819	pulse	3.0	t		34.0	male	white	2.651014723438122	smiling	121	sub-12	1.0	3.0	121_smiling	1.0	dominance	155.35954644777848	
20.0	126.00264875994253	pulse	3.0	t		34.0	male	white	2.651014723438122	smiling	121	sub-12	1.0	3.0	121_smiling	1.0	dominance	156.05953687903911	
20.0	126.7026289282012	pulse	3.0	t		34.0	male	white	2.651014723438122	smiling	121	sub-12	1.0	3.0	121_smiling	1.0	dominance	156.75951704729778	
20.0	127.40262207613841	pulse	3.0	t		34.0	male	white	2.651014723438122	smiling	121	sub-12	1.0	3.0	121_smiling	1.0	dominance	157.459510195235	
20.0	128.10259741474965	pulse	3.0	t		34.0	male	white	2.651014723438122	smiling	121	sub-12	1.0	3.0	121_smiling	1.0	dominance	158.15948553384624	
20.0	128.80257003668385	pulse	3.0	t		34.0	male	white	2.651014723438122	smiling	121	sub-12	1.0	3.0	121_smiling	1.0	dominance	158.85945815578043	
21.0	129.26909167305303	face	0.0		145	40.0	female	west_asian	1.5777954635893354	smiling	038	sub-12	1.0	3.0	038_smiling	0.0		159.3259797921496	1.23331545357496
21.0	129.5025589586794	pulse	0.0	t		40.0	female	west_asian	1.5777954635893354	smiling	038	sub-12	1.0	3.0	038_smiling	0.0		159.55944707777599	
21.0	130.2025382213792	pulse	0.0	t		40.0	female	west_asian	1.5777954635893354	smiling	038	sub-12	1.0	3.0	038_smiling	0.0		160.25942634047578	
21.0	130.502407126628	fix	1.0		444	40.0	female	west_asian	1.5777954635893354	smiling	038	sub-12	1.0	3.0	038_smiling	0.0		160.55929524572457	3.758283977854717
21.0	130.90251748407945	pulse	1.0	t		40.0	female	west_asian	1.5777954635893354	smiling	038	sub-12	1.0	3.0	038_smiling	0.0		160.95940560317604	
21.0	131.60249614307304	pulse	1.0	t		40.0	female	west_asian	1.5777954635893354	smiling	038	sub-12	1.0	3.0	038_smiling	0.0		161.65938426216962	
21.0	132.30246997241966	pulse	1.0	t		40.0	female	west_asian	1.5777954635893354	smiling	038	sub-12	1.0	3.0	038_smiling	0.0		162.35935809151624	
21.0	133.00245617773817	pulse	1.0	t		40.0	female	west_asian	1.5777954635893354	smiling	038	sub-12	1.0	3.0	038_smiling	0.0		163.05934429683475	
21.0	133.70244389232175	pulse	1.0	t		40.0	female	west_asian	1.5777954635893354	smiling	038	sub-12	1.0	3.0	038_smiling	0.0		163.75933201141834	
22.0	134.2606911044827	face	0.0		146	40.0	female	west_asian	1.5777954635893354	neutral	038	sub-12	1.0	3.0	038_neutral	0.0		164.3175792235793	1.2415853198026525
22.0	134.4024355309939	pulse	0.0	t		40.0	female	west_asian	1.5777954635893354	neutral	038	sub-12	1.0	3.0	038_neutral	0.0		164.45932365009048	
22.0	135.10239094730787	pulse	0.0	t		40.0	female	west_asian	1.5777954635893354	neutral	038	sub-12	1.0	3.0	038_neutral	0.0		165.15927906640445	
22.0	135.50227642428536	fix	1.0		444	40.0	female	west_asian	1.5777954635893354	neutral	038	sub-12	1.0	3.0	038_neutral	0.0		165.55916454338194	3.766567125614074
22.0	135.80238922674607	pulse	1.0	t		40.0	female	west_asian	1.5777954635893354	neutral	038	sub-12	1.0	3.0	038_neutral	0.0		165.85927734584266	
22.0	136.5023678857401	pulse	1.0	t		40.0	female	west_asian	1.5777954635893354	neutral	038	sub-12	1.0	3.0	038_neutral	0.0		166.5592560048367	
22.0	137.20234563917484	pulse	1.0	t		40.0	female	west_asian	1.5777954635893354	neutral	038	sub-12	1.0	3.0	038_neutral	0.0		167.25923375827142	
22.0	137.90232671299282	pulse	1.0	t		40.0	female	west_asian	1.5777954635893354	neutral	038	sub-12	1.0	3.0	038_neutral	0.0		167.9592148320894	
22.0	138.60230808866345	pulse	1.0	t		40.0	female	west_asian	1.5777954635893354	neutral	038	sub-12	1.0	3.0	038_neutral	0.0		168.65919620776003	
23.0	139.26884354989943	face	0.0		145	22.0	male	black	2.767608436132113	neutral	044	sub-12	1.0	3.0	044_neutral	0.0		169.325731668996	1.233308510956249
23.0	139.30230516068968	pulse	0.0	t		22.0	male	black	2.767608436132113	neutral	044	sub-12	1.0	3.0	044_neutral	0.0		169.35919327978627	
23.0	140.00229347897903	pulse	0.0	t		22.0	male	black	2.767608436132113	neutral	044	sub-12	1.0	3.0	044_neutral	0.0		170.0591815980756	
23.0	140.50215206085568	fix	1.0		443	22.0	male	black	2.767608436132113	neutral	044	sub-12	1.0	3.0	044_neutral	0.0		170.55904017995226	3.75826888520578
23.0	140.70227394909125	pulse	1.0	t		22.0	male	black	2.767608436132113	neutral	044	sub-12	1.0	3.0	044_neutral	0.0		170.75916206818783	
23.0	141.40223842099476	pulse	1.0	t		22.0	male	black	2.767608436132113	neutral	044	sub-12	1.0	3.0	044_neutral	0.0		171.45912654009135	
23.0	142.10221074107585	pulse	1.0	t		22.0	male	black	2.767608436132113	neutral	044	sub-12	1.0	3.0	044_neutral	0.0		172.15909886017243	
23.0	142.80221656683852	pulse	1.0	t		22.0	male	black	2.767608436132113	neutral	044	sub-12	1.0	3.0	044_neutral	0.0		172.8591046859351	
23.0	143.50219009433204	pulse	1.0	t		22.0	male	black	2.767608436132113	neutral	044	sub-12	1.0	3.0	044_neutral	0.0		173.55907821342862	
23.0	144.20215999958918	pulse	1.0	t		22.0	male	black	2.767608436132113	neutral	044	sub-12	1.0	3.0	044_neutral	0.0		174.25904811868577	
24.0	144.26042094606146	face	0.0		147	27.0	female	white	4.181058495821727	neutral	039	sub-12	1.0	3.0	039_neutral	0.0		174.31730906515804	1.2415916587151514
24.0	144.9021434882311	pulse	0.0	t		27.0	female	white	4.181058495821727	neutral	039	sub-12	1.0	3.0	039_neutral	0.0		174.9590316073277	
24.0	145.5020126047766	fix	1.0		443	27.0	female	white	4.181058495821727	neutral	039	sub-12	1.0	3.0	039_neutral	0.0		175.5589007238732	3.7583141631535
24.0	145.602144786199	pulse	1.0	t		27.0	female	white	4.181058495821727	neutral	039	sub-12	1.0	3.0	039_neutral	0.0		175.6590329052956	
24.0	146.30211016366138	pulse	1.0	t		27.0	female	white	4.181058495821727	neutral	039	sub-12	1.0	3.0	039_neutral	0.0		176.35899828275797	
24.0	147.00209425600906	pulse	1.0	t		27.0	female	white	4.181058495821727	neutral	039	sub-12	1.0	3.0	039_neutral	0.0		177.05898237510564	
24.0	147.7020629538547	pulse	1.0	t		27.0	female	white	4.181058495821727	neutral	039	sub-12	1.0	3.0	039_neutral	0.0		177.75895107295128	
24.0	148.4020455369373	pulse	1.0	t		27.0	female	white	4.181058495821727	neutral	039	sub-12	1.0	3.0	039_neutral	0.0		178.45893365603388	
24.0	149.1020371756099	pulse	1.0	t		27.0	female	white	4.181058495821727	neutral	039	sub-12	1.0	3.0	039_neutral	0.0		179.15892529470648	
25.0	149.2603267679301	face	0.0		147	31.0	male	west_asian	1.9538400318344609	smiling	070	sub-12	1.0	3.0	070_smiling	0.0		179.3172148870267	1.241557247475157
25.0	149.8020131179269	pulse	0.0	t		31.0	male	west_asian	1.9538400318344609	smiling	070	sub-12	1.0	3.0	070_smiling	0.0		179.85890123702347	
25.0	150.50188401540527	fix	1.0		444	31.0	male	west_asian	1.9538400318344609	smiling	070	sub-12	1.0	3.0	070_smiling	0.0		180.55877213450185	3.7582577166449482
25.0	150.50945358270792	pulse	1.0	t		31.0	male	west_asian	1.9538400318344609	smiling	070	sub-12	1.0	3.0	070_smiling	0.0		180.5663417018045	
25.0	151.2019755674155	pulse	1.0	t		31.0	male	west_asian	1.9538400318344609	smiling	070	sub-12	1.0	3.0	070_smiling	0.0		181.2588636865121	
25.0	151.9019478874966	pulse	1.0	t		31.0	male	west_asian	1.9538400318344609	smiling	070	sub-12	1.0	3.0	070_smiling	0.0		181.95883600659317	
25.0	152.60193167799162	pulse	1.0	t		31.0	male	west_asian	1.9538400318344609	smiling	070	sub-12	1.0	3.0	070_smiling	0.0		182.6588197970882	
25.0	153.30191305366225	pulse	1.0	t		31.0	male	west_asian	1.9538400318344609	smiling	070	sub-12	1.0	3.0	070_smiling	0.0		183.35880117275883	
25.0	154.00189322192136	pulse	1.0	t		31.0	male	west_asian	1.9538400318344609	smiling	070	sub-12	1.0	3.0	070_smiling	0.0		184.05878134101795	
26.0	154.26014173205022	face	0.0		146	28.0	female	white	5.676880222841227	neutral	124	sub-12	1.0	3.0	124_neutral	0.0		184.3170298511468	1.2415995068931807
26.0	154.70188425688775	pulse	0.0	t		28.0	female	white	5.676880222841227	neutral	124	sub-12	1.0	3.0	124_neutral	0.0		184.75877237598434	
26.0	155.4018574825277	pulse	0.0	t		28.0	female	white	5.676880222841227	neutral	124	sub-12	1.0	3.0	124_neutral	0.0		185.4587456016243	
26.0	155.5017412389434	fix	1.0		444	28.0	female	white	5.676880222841227	neutral	124	sub-12	1.0	3.0	124_neutral	0.0		185.55862935803998	3.7665674274667253
26.0	156.10186964720288	pulse	1.0	t		28.0	female	white	5.676880222841227	neutral	124	sub-12	1.0	3.0	124_neutral	0.0		186.15875776629946	
26.0	156.80184589137298	pulse	1.0	t		28.0	female	white	5.676880222841227	neutral	124	sub-12	1.0	3.0	124_neutral	0.0		186.85873401046956	
26.0	157.5018076465999	pulse	1.0	t		28.0	female	white	5.676880222841227	neutral	124	sub-12	1.0	3.0	124_neutral	0.0		187.55869576569648	
26.0	158.20178238150493	pulse	1.0	t		28.0	female	white	5.676880222841227	neutral	124	sub-12	1.0	3.0	124_neutral	0.0		188.2586705006015	
26.0	158.9017749257364	pulse	1.0	t		28.0	female	white	5.676880222841227	neutral	124	sub-12	1.0	3.0	124_neutral	0.0		188.95866304483297	
27.0	159.26830866641012	face	0.0		145	19.0	male	white	3.2522881018702745	neutral	018	sub-12	1.0	3.0	018_neutral	0.0		189.3251967855067	1.2333073035442794
27.0	159.6017710922033	pulse	0.0	t		19.0	male	white	3.2522881018702745	neutral	018	sub-12	1.0	3.0	018_neutral	0.0		189.6586592112999	
27.0	160.3017237918407	pulse	0.0	t		19.0	male	white	3.2522881018702745	neutral	018	sub-12	1.0	3.0	018_neutral	0.0		190.35861191093727	
27.0	160.5016159699544	fix	1.0		444	19.0	male	white	3.2522881018702745	neutral	018	sub-12	1.0	3.0	018_neutral	0.0		190.55850408905098	3.766560786701575
27.0	161.0017139212482	pulse	1.0	t		19.0	male	white	3.2522881018702745	neutral	018	sub-12	1.0	3.0	018_neutral	0.0		191.0586020403448	
27.0	161.70170706918543	pulse	1.0	t		19.0	male	white	3.2522881018702745	neutral	018	sub-12	1.0	3.0	018_neutral	0.0		191.75859518828202	
27.0	162.40167305035402	pulse	1.0	t		19.0	male	white	3.2522881018702745	neutral	018	sub-12	1.0	3.0	018_neutral	0.0		192.4585611694506	
27.0	163.1016604630845	pulse	1.0	t		19.0	male	white	3.2522881018702745	neutral	018	sub-12	1.0	3.0	018_neutral	0.0		193.15854858218108	
27.0	163.80163580169574	pulse	1.0	t		19.0	male	white	3.2522881018702745	neutral	018	sub-12	1.0	3.0	018_neutral	0.0		193.85852392079232	
28.0	164.26817675665598	face	0.0		145	24.0	female	black	3.0955033824114606	smiling	099	sub-12	1.0	3.0	099_smiling	0.0		194.32506487575256	1.2333048887203404
28.0	164.50162411998508	pulse	0.0	t		24.0	female	black	3.0955033824114606	smiling	099	sub-12	1.0	3.0	099_smiling	0.0		194.55851223908167	
28.0	165.20159794933124	pulse	0.0	t		24.0	female	black	3.0955033824114606	smiling	099	sub-12	1.0	3.0	099_smiling	0.0		195.25848606842783	
28.0	165.50148164537632	fix	1.0		444	24.0	female	black	3.0955033824114606	smiling	099	sub-12	1.0	3.0	099_smiling	0.0		195.5583697644729	3.766551429258925
28.0	165.90158143797316	pulse	1.0	t		24.0	female	black	3.0955033824114606	smiling	099	sub-12	1.0	3.0	099_smiling	0.0		195.95846955706975	
28.0	166.60155888955524	pulse	1.0	t		24.0	female	black	3.0955033824114606	smiling	099	sub-12	1.0	3.0	099_smiling	0.0		196.65844700865182	
28.0	167.30154177449094	pulse	1.0	t		24.0	female	black	3.0955033824114606	smiling	099	sub-12	1.0	3.0	099_smiling	0.0		197.35842989358753	
28.0	168.00152133904385	pulse	1.0	t		24.0	female	black	3.0955033824114606	smiling	099	sub-12	1.0	3.0	099_smiling	0.0		198.05840945814043	
28.0	168.70150543139152	pulse	1.0	t		24.0	female	black	3.0955033824114606	smiling	099	sub-12	1.0	3.0	099_smiling	0.0		198.7583935504881	
29.0	169.26803307463524	face	0.0		145	27.0	female	white	3.504576203740549	smiling	144	sub-12	1.0	3.0	144_smiling	0.0		199.32492119373183	1.2333136424567783
29.0	169.40149737191678	pulse	0.0	t		27.0	female	white	3.504576203740549	smiling	144	sub-12	1.0	3.0	144_smiling	0.0		199.45838549101336	
29.0	170.10146667346817	pulse	0.0	t		27.0	female	white	3.504576203740549	smiling	144	sub-12	1.0	3.0	144_smiling	0.0		200.15835479256475	
29.0	170.50134671709202	fix	1.0		444	27.0	female	white	3.504576203740549	smiling	144	sub-12	1.0	3.0	144_smiling	0.0		200.5582348361886	3.7583512910705394
29.0	170.80145861399342	pulse	1.0	t		27.0	female	white	3.504576203740549	smiling	144	sub-12	1.0	3.0	144_smiling	0.0		200.85834673309	
29.0	171.50143395260466	pulse	1.0	t		27.0	female	white	3.504576203740549	smiling	144	sub-12	1.0	3.0	144_smiling	0.0		201.55832207170124	
29.0	172.20143585427832	pulse	1.0	t		27.0	female	white	3.504576203740549	smiling	144	sub-12	1.0	3.0	144_smiling	0.0		202.2583239733749	
29.0	172.90139459097554	pulse	1.0	t		27.0	female	white	3.504576203740549	smiling	144	sub-12	1.0	3.0	144_smiling	0.0		202.95828271007213	
29.0	173.60140252970905	pulse	1.0	t		27.0	female	white	3.504576203740549	smiling	144	sub-12	1.0	3.0	144_smiling	0.0		203.65829064880563	
30.0	174.25969800816256	face	0.0		146	27.0	male	black	3.5523278949462798	neutral	042	sub-12	1.0	3.0	042_neutral	0.0		204.31658612725914	1.2415216288227384
30.0	174.30139507394006	pulse	0.0	t		27.0	male	black	3.5523278949462798	neutral	042	sub-12	1.0	3.0	042_neutral	0.0		204.35828319303664	
30.0	175.0013356994582	pulse	0.0	t		27.0	male	black	3.5523278949462798	neutral	042	sub-12	1.0	3.0	042_neutral	0.0		205.05822381855478	
30.0	175.5012196369853	fix	1.0		443	27.0	male	black	3.5523278949462798	neutral	042	sub-12	1.0	3.0	042_neutral	0.0		205.55810775608188	3.7665571644656666
30.0	175.70132643257148	pulse	1.0	t		27.0	male	black	3.5523278949462798	neutral	042	sub-12	1.0	3.0	042_neutral	0.0		205.75821455166806	
30.0	176.40128064147348	pulse	1.0	t		27.0	male	black	3.5523278949462798	neutral	042	sub-12	1.0	3.0	042_neutral	0.0		206.45816876057006	
30.0	177.10131484141675	pulse	1.0	t		27.0	male	black	3.5523278949462798	neutral	042	sub-12	1.0	3.0	042_neutral	0.0		207.15820296051334	
30.0	177.80126240955315	pulse	1.0	t		27.0	male	black	3.5523278949462798	neutral	042	sub-12	1.0	3.0	042_neutral	0.0		207.85815052864973	
30.0	178.50124348337113	pulse	1.0	t		27.0	male	black	3.5523278949462798	neutral	042	sub-12	1.0	3.0	042_neutral	0.0		208.5581316024677	
30.0	179.20122667015994	pulse	1.0	t		27.0	male	black	3.5523278949462798	neutral	042	sub-12	1.0	3.0	042_neutral	0.0		209.25811478925652	
31.0	179.26777680145096	face	0.0		146	19.0	male	white	2.243931555909272	neutral	130	sub-12	1.0	3.0	130_neutral	1.0	trustworthiness	209.32466492054755	1.2333091146620063
31.0	179.9012137810373	pulse	0.0	t		19.0	male	white	2.243931555909272	neutral	130	sub-12	1.0	3.0	130_neutral	1.0	trustworthiness	209.9581019001339	
31.0	180.50108591611297	fix	1.0		177	19.0	male	white	2.243931555909272	neutral	130	sub-12	1.0	3.0	130_neutral	1.0	trustworthiness	210.55797403520955	1.4999584952147416
31.0	180.6012011937678	pulse	1.0	t		19.0	male	white	2.243931555909272	neutral	130	sub-12	1.0	3.0	130_neutral	1.0	trustworthiness	210.65808931286438	
31.0	181.301199473206	pulse	1.0	t		19.0	male	white	2.243931555909272	neutral	130	sub-12	1.0	3.0	130_neutral	1.0	trustworthiness	211.35808759230258	
31.0	182.0010444113277	rating	2.0		295	19.0	male	white	2.243931555909272	neutral	130	sub-12	1.0	3.0	130_neutral	1.0	trustworthiness	212.0579325304243	2.499945817389289
31.0	181.997274569399	pulse	2.0	t		19.0	male	white	2.243931555909272	neutral	130	sub-12	1.0	3.0	130_neutral	1.0	trustworthiness	212.05416268849558	
31.0	182.69591028446303	pulse	2.0	t		19.0	male	white	2.243931555909272	neutral	130	sub-12	1.0	3.0	130_neutral	1.0	trustworthiness	212.7527984035596	
31.0	183.39600515685606	pulse	2.0	t		19.0	male	white	2.243931555909272	neutral	130	sub-12	1.0	3.0	130_neutral	1.0	trustworthiness	213.45289327595265	
31.0	184.095883902512	pulse	2.0	t		19.0	male	white	2.243931555909272	neutral	130	sub-12	1.0	3.0	130_neutral	1.0	trustworthiness	214.1527720216086	
31.0	184.500990228717	fix	3.0		443	19.0	male	white	2.243931555909272	neutral	130	sub-12	1.0	3.0	130_neutral	1.0	trustworthiness	214.55787834781358	3.7582951464150938
31.0	184.80108190146848	pulse	3.0	t		19.0	male	white	2.243931555909272	neutral	130	sub-12	1.0	3.0	130_neutral	1.0	trustworthiness	214.85797002056506	
31.0	184.93439255558087	response	3.0	b		19.0	male	white	2.243931555909272	neutral	130	sub-12	1.0	3.0	130_neutral	1.0	trustworthiness	214.99128067467745	
31.0	185.50105935305055	pulse	3.0	t		19.0	male	white	2.243931555909272	neutral	130	sub-12	1.0	3.0	130_neutral	1.0	trustworthiness	215.55794747214713	
31.0	186.2010358990733	pulse	3.0	t		19.0	male	white	2.243931555909272	neutral	130	sub-12	1.0	3.0	130_neutral	1.0	trustworthiness	216.2579240181699	
31.0	186.90101968956833	pulse	3.0	t		19.0	male	white	2.243931555909272	neutral	130	sub-12	1.0	3.0	130_neutral	1.0	trustworthiness	216.9579078086649	
31.0	187.6010004615332	pulse	3.0	t		19.0	male	white	2.243931555909272	neutral	130	sub-12	1.0	3.0	130_neutral	1.0	trustworthiness	217.6578885806298	
32.0	188.2592853751321	face	0.0		146	20.0	male	black	3.1070433744528456	smiling	082	sub-12	1.0	3.0	082_smiling	0.0		218.31617349422868	1.2415605678579595
32.0	188.3010259077396	pulse	0.0	t		20.0	male	black	3.1070433744528456	smiling	082	sub-12	1.0	3.0	082_smiling	0.0		218.35791402683617	
32.0	189.000972268464	pulse	0.0	t		20.0	male	black	3.1070433744528456	smiling	082	sub-12	1.0	3.0	082_smiling	0.0		219.0578603875606	
32.0	189.50084594299005	fix	1.0		443	20.0	male	black	3.1070433744528456	smiling	082	sub-12	1.0	3.0	082_smiling	0.0		219.55773406208664	3.758248057349647
32.0	189.70096934049025	pulse	1.0	t		20.0	male	black	3.1070433744528456	smiling	082	sub-12	1.0	3.0	082_smiling	0.0		219.75785745958683	
32.0	190.40092596421619	pulse	1.0	t		20.0	male	black	3.1070433744528456	smiling	082	sub-12	1.0	3.0	082_smiling	0.0		220.45781408331277	
32.0	191.1009278658903	pulse	1.0	t		20.0	male	black	3.1070433744528456	smiling	082	sub-12	1.0	3.0	082_smiling	0.0		221.15781598498688	
32.0	191.80089354520578	pulse	1.0	t		20.0	male	black	3.1070433744528456	smiling	082	sub-12	1.0	3.0	082_smiling	0.0		221.85778166430237	
32.0	192.50086767640505	pulse	1.0	t		20.0	male	black	3.1070433744528456	smiling	082	sub-12	1.0	3.0	082_smiling	0.0		222.55775579550163	
32.0	193.20083667610334	pulse	1.0	t		20.0	male	black	3.1070433744528456	smiling	082	sub-12	1.0	3.0	082_smiling	0.0		223.25772479519992	
33.0	193.2590940003397	face	0.0		147	31.0	male	west_asian	1.9538400318344609	neutral	070	sub-12	1.0	3.0	070_neutral	0.0		223.31598211943628	1.241618221778026
33.0	193.90083706851237	pulse	0.0	t		31.0	male	west_asian	1.9538400318344609	neutral	070	sub-12	1.0	3.0	070_neutral	0.0		223.95772518760896	
33.0	194.50071222211773	fix	1.0		443	31.0	male	west_asian	1.9538400318344609	neutral	070	sub-12	1.0	3.0	070_neutral	0.0		224.5576003412143	3.7665592774364995
33.0	194.60082327383088	pulse	1.0	t		31.0	male	west_asian	1.9538400318344609	neutral	070	sub-12	1.0	3.0	070_neutral	0.0		224.65771139292747	
33.0	195.3008031402369	pulse	1.0	t		31.0	male	west_asian	1.9538400318344609	neutral	070	sub-12	1.0	3.0	070_neutral	0.0		225.35769125933348	
33.0	196.00078179923094	pulse	1.0	t		31.0	male	west_asian	1.9538400318344609	neutral	070	sub-12	1.0	3.0	070_neutral	0.0		226.05766991832752	
33.0	196.70076317490157	pulse	1.0	t		31.0	male	west_asian	1.9538400318344609	neutral	070	sub-12	1.0	3.0	070_neutral	0.0		226.75765129399815	
33.0	197.40074213574871	pulse	1.0	t		31.0	male	west_asian	1.9538400318344609	neutral	070	sub-12	1.0	3.0	070_neutral	0.0		227.4576302548453	
33.0	198.10072019103654	pulse	1.0	t		31.0	male	west_asian	1.9538400318344609	neutral	070	sub-12	1.0	3.0	070_neutral	0.0		228.15760831013313	
34.0	198.26727149955423	face	0.0		146	31.0	female	west_asian	2.364902506963788	smiling	006	sub-12	1.0	3.0	006_smiling	0.0		228.3241596186508	1.2333066998380673
34.0	198.80070669820816	pulse	0.0	t		31.0	female	west_asian	2.364902506963788	smiling	006	sub-12	1.0	3.0	006_smiling	0.0		228.85759481730474	
34.0	199.5005781993923	fix	1.0		444	31.0	female	west_asian	2.364902506963788	smiling	006	sub-12	1.0	3.0	006_smiling	0.0		229.55746631848888	3.766541769963169
34.0	199.50821206138107	pulse	1.0	t		31.0	female	west_asian	2.364902506963788	smiling	006	sub-12	1.0	3.0	006_smiling	0.0		229.56510018047766	
34.0	200.2006616013723	pulse	1.0	t		31.0	female	west_asian	2.364902506963788	smiling	006	sub-12	1.0	3.0	006_smiling	0.0		230.2575497204689	
34.0	200.90064961780854	pulse	1.0	t		31.0	female	west_asian	2.364902506963788	smiling	006	sub-12	1.0	3.0	006_smiling	0.0		230.95753773690512	
34.0	201.60062797494948	pulse	1.0	t		31.0	female	west_asian	2.364902506963788	smiling	006	sub-12	1.0	3.0	006_smiling	0.0		231.65751609404606	
34.0	202.30061387841533	pulse	1.0	t		31.0	female	west_asian	2.364902506963788	smiling	006	sub-12	1.0	3.0	006_smiling	0.0		232.35750199751192	
34.0	203.00059676335104	pulse	1.0	t		31.0	female	west_asian	2.364902506963788	smiling	006	sub-12	1.0	3.0	006_smiling	0.0		233.05748488244762	
35.0	203.26711996935546	face	0.0		145	19.0	male	white	2.243931555909272	smiling	130	sub-12	1.0	3.0	130_smiling	0.0		233.32400808845205	1.2333239054587466
35.0	203.7005884020232	pulse	0.0	t		19.0	male	white	2.243931555909272	smiling	130	sub-12	1.0	3.0	130_smiling	0.0		233.75747652111977	
35.0	204.400554986898	pulse	0.0	t		19.0	male	white	2.243931555909272	smiling	130	sub-12	1.0	3.0	130_smiling	0.0		234.45744310599457	
35.0	204.5004438748142	fix	1.0		444	19.0	male	white	2.243931555909272	smiling	130	sub-12	1.0	3.0	130_smiling	0.0		234.5573319939108	3.7582377943481333
35.0	205.1005596052487	pulse	1.0	t		19.0	male	white	2.243931555909272	smiling	130	sub-12	1.0	3.0	130_smiling	0.0		235.15744772434527	
35.0	205.8005461124203	pulse	1.0	t		19.0	male	white	2.243931555909272	smiling	130	sub-12	1.0	3.0	130_smiling	0.0		235.8574342315169	
35.0	206.50050303799935	pulse	1.0	t		19.0	male	white	2.243931555909272	smiling	130	sub-12	1.0	3.0	130_smiling	0.0		236.55739115709594	
35.0	207.20047565993355	pulse	1.0	t		19.0	male	white	2.243931555909272	smiling	130	sub-12	1.0	3.0	130_smiling	0.0		237.25736377903013	
35.0	207.90045884672236	pulse	1.0	t		19.0	male	white	2.243931555909272	smiling	130	sub-12	1.0	3.0	130_smiling	0.0		237.95734696581894	
36.0	208.25868166916234	face	0.0		146	40.0	male	white	1.868682849184242	smiling	172	sub-12	1.0	3.0	172_smiling	1.0	trustworthiness	238.31556978825893	1.2416236551316615
36.0	208.60044837242367	pulse	0.0	t		40.0	male	white	1.868682849184242	smiling	172	sub-12	1.0	3.0	172_smiling	1.0	trustworthiness	238.65733649152025	
36.0	209.30042129621097	pulse	0.0	t		40.0	male	white	1.868682849184242	smiling	172	sub-12	1.0	3.0	172_smiling	1.0	trustworthiness	239.35730941530755	
36.0	209.500305324294	fix	1.0		177	40.0	male	white	1.868682849184242	smiling	172	sub-12	1.0	3.0	172_smiling	1.0	trustworthiness	239.5571934433906	1.499963626715271
36.0	210.00040719967637	pulse	1.0	t		40.0	male	white	1.868682849184242	smiling	172	sub-12	1.0	3.0	172_smiling	1.0	trustworthiness	240.05729531877296	
36.0	210.7003752938158	pulse	1.0	t		40.0	male	white	1.868682849184242	smiling	172	sub-12	1.0	3.0	172_smiling	1.0	trustworthiness	240.75726341291238	
36.0	211.00026895100928	rating	2.0		295	40.0	male	white	1.868682849184242	smiling	172	sub-12	1.0	3.0	172_smiling	1.0	trustworthiness	241.05715707010586	2.4999328377107304
36.0	211.3951765704128	pulse	2.0	t		40.0	male	white	1.868682849184242	smiling	172	sub-12	1.0	3.0	172_smiling	1.0	trustworthiness	241.45206468950937	
36.0	212.09528864842605	pulse	2.0	t		40.0	male	white	1.868682849184242	smiling	172	sub-12	1.0	3.0	172_smiling	1.0	trustworthiness	242.15217676752263	
36.0	212.7951052123667	pulse	2.0	t		40.0	male	white	1.868682849184242	smiling	172	sub-12	1.0	3.0	172_smiling	1.0	trustworthiness	242.8519933314633	
36.0	212.82842495225395	response	2.0	b		40.0	male	white	1.868682849184242	smiling	172	sub-12	1.0	3.0	172_smiling	1.0	trustworthiness	242.88531307135054	
36.0	213.50020178872	fix	3.0		443	40.0	male	white	1.868682849184242	smiling	172	sub-12	1.0	3.0	172_smiling	1.0	trustworthiness	243.5570899078166	3.7665638052312715
36.0	213.50821809844047	pulse	3.0	t		40.0	male	white	1.868682849184242	smiling	172	sub-12	1.0	3.0	172_smiling	1.0	trustworthiness	243.56510621753705	
36.0	214.20029786852547	pulse	3.0	t		40.0	male	white	1.868682849184242	smiling	172	sub-12	1.0	3.0	172_smiling	1.0	trustworthiness	244.25718598762205	
36.0	214.90027532010754	pulse	3.0	t		40.0	male	white	1.868682849184242	smiling	172	sub-12	1.0	3.0	172_smiling	1.0	trustworthiness	244.95716343920412	
36.0	215.60026635507347	pulse	3.0	t		40.0	male	white	1.868682849184242	smiling	172	sub-12	1.0	3.0	172_smiling	1.0	trustworthiness	245.65715447417006	
36.0	216.30023656218418	pulse	3.0	t		40.0	male	white	1.868682849184242	smiling	172	sub-12	1.0	3.0	172_smiling	1.0	trustworthiness	246.35712468128077	
36.0	217.00021491932512	pulse	3.0	t		40.0	male	white	1.868682849184242	smiling	172	sub-12	1.0	3.0	172_smiling	1.0	trustworthiness	247.0571030384217	
37.0	217.26676559395128	face	0.0		145	19.0	female	white	4.298846000795861	smiling	100	sub-12	1.0	3.0	100_smiling	0.0		247.32365371304786	1.2333036813083709
37.0	217.7002095765274	pulse	0.0	t		19.0	female	white	4.298846000795861	smiling	100	sub-12	1.0	3.0	100_smiling	0.0		247.757097695624	
37.0	218.4001782743726	pulse	0.0	t		19.0	female	white	4.298846000795861	smiling	100	sub-12	1.0	3.0	100_smiling	0.0		248.45706639346918	
37.0	218.50006927525965	fix	1.0		444	19.0	female	white	4.298846000795861	smiling	100	sub-12	1.0	3.0	100_smiling	0.0		248.55695739435623	3.7583156724185756
37.0	219.10016568710307	pulse	1.0	t		19.0	female	white	4.298846000795861	smiling	100	sub-12	1.0	3.0	100_smiling	0.0		249.15705380619966	
37.0	219.80017151286575	pulse	1.0	t		19.0	female	white	4.298846000795861	smiling	100	sub-12	1.0	3.0	100_smiling	0.0		249.85705963196233	
37.0	220.5001383995932	pulse	1.0	t		19.0	female	white	4.298846000795861	smiling	100	sub-12	1.0	3.0	100_smiling	0.0		250.55702651868978	
37.0	221.20011585117527	pulse	1.0	t		19.0	female	white	4.298846000795861	smiling	100	sub-12	1.0	3.0	100_smiling	0.0		251.25700397027185	
37.0	221.9000872656975	pulse	1.0	t		19.0	female	white	4.298846000795861	smiling	100	sub-12	1.0	3.0	100_smiling	0.0		251.95697538479408	
38.0	222.25838494767822	face	0.0		146	26.0	female	white	4.854755272582572	smiling	027	sub-12	1.0	3.0	027_smiling	0.0		252.3152730667748	1.2415515122684155
38.0	222.6000888655185	pulse	0.0	t		26.0	female	white	4.854755272582572	smiling	027	sub-12	1.0	3.0	027_smiling	0.0		252.65697698461508	
38.0	223.30005605409906	pulse	0.0	t		26.0	female	white	4.854755272582572	smiling	027	sub-12	1.0	3.0	027_smiling	0.0		253.35694417319564	
38.0	223.49993645994664	fix	1.0		444	26.0	female	white	4.854755272582572	smiling	027	sub-12	1.0	3.0	027_smiling	0.0		253.55682457904322	3.7582631499985837
38.0	224.0000313927103	pulse	1.0	t		26.0	female	white	4.854755272582572	smiling	027	sub-12	1.0	3.0	027_smiling	0.0		254.05691951180688	
38.0	224.7000172961757	pulse	1.0	t		26.0	female	white	4.854755272582572	smiling	027	sub-12	1.0	3.0	027_smiling	0.0		254.75690541527229	
38.0	225.39999112552186	pulse	1.0	t		26.0	female	white	4.854755272582572	smiling	027	sub-12	1.0	3.0	027_smiling	0.0		255.45687924461845	
38.0	226.0999951401668	pulse	1.0	t		26.0	female	white	4.854755272582572	smiling	027	sub-12	1.0	3.0	027_smiling	0.0		256.1568832592634	
38.0	226.79997470471972	pulse	1.0	t		26.0	female	white	4.854755272582572	smiling	027	sub-12	1.0	3.0	027_smiling	0.0		256.8568628238163	
39.0	227.25819960994522	face	0.0		146	27.0	male	black	3.5523278949462798	smiling	042	sub-12	1.0	3.0	042_smiling	0.0		257.3150877290418	1.24160463839371
39.0	227.49992649879778	pulse	0.0	t		27.0	male	black	3.5523278949462798	smiling	042	sub-12	1.0	3.0	042_smiling	0.0		257.55681461789436	
39.0	228.19991391152826	pulse	0.0	t		27.0	male	black	3.5523278949462798	smiling	042	sub-12	1.0	3.0	042_smiling	0.0		258.25680203062484	
39.0	228.49980424833893	fix	1.0		444	27.0	male	black	3.5523278949462798	smiling	042	sub-12	1.0	3.0	042_smiling	0.0		258.5566923674355	3.749898803786891
39.0	228.89990162611184	pulse	1.0	t		27.0	male	black	3.5523278949462798	smiling	042	sub-12	1.0	3.0	042_smiling	0.0		258.9567897452084	
39.0	229.59987696472308	pulse	1.0	t		27.0	male	black	3.5523278949462798	smiling	042	sub-12	1.0	3.0	042_smiling	0.0		259.65676508381966	
39.0	230.29986135892386	pulse	1.0	t		27.0	male	black	3.5523278949462798	smiling	042	sub-12	1.0	3.0	042_smiling	0.0		260.35674947802045	
39.0	230.9998496772132	pulse	1.0	t		27.0	male	black	3.5523278949462798	smiling	042	sub-12	1.0	3.0	042_smiling	0.0		261.0567377963098	
39.0	231.69982652508952	pulse	1.0	t		27.0	male	black	3.5523278949462798	smiling	042	sub-12	1.0	3.0	042_smiling	0.0		261.7567146441861	
40.0	232.24970305212582	fix	0.0		720													262.3065911712224	5.999839414212147
40.0	232.39981182484917	pulse	0.0	t														262.45669994394575	
40.0	233.09979108754897	pulse	0.0	t														263.15667920664555	
40.0	233.79976733171907	pulse	0.0	t														263.85665545081565	
40.0	234.49975806483235	pulse	0.0	t														264.55664618392893	
40.0	235.19973310159048	pulse	0.0	t														265.25662122068707	
40.0	235.89971477911422	pulse	0.0	t														265.9566028982108	
40.0	236.59969494737334	pulse	0.0	t														266.6565830664699	
40.0	237.2996787378679	pulse	0.0	t														267.3565668569645	
40.0	237.9996598116859	pulse	0.0	t														268.0565479307825	
