trial_nr	onset	event_type	phase	response	nr_frames	face_age	face_sex	face_eth	attractiveness	expression	face_id	sub_id	ses	run	trial_type	catch	rating_type	onset_abs	duration
-1.0	0.056908409481820854	fix	0.0		714													22.730030982555036	5.966330016130996
-1.0	0.706781690106709	pulse	0.0	t														23.379904263179924	
-1.0	1.4067719099548412	pulse	0.0	t														24.079894483028056	
-1.0	2.106759413094551	pulse	0.0	t														24.779881986167766	
-1.0	2.806767744334593	pulse	0.0	t														25.479890317407808	
-1.0	3.506740758360138	pulse	0.0	t														26.179863331433353	
-1.0	4.206734600486925	pulse	0.0	t														26.87985717356014	
-1.0	4.906713349786514	pulse	0.0	t														27.57983592285973	
-1.0	5.606726812588022	pulse	0.0	t														28.279849385661237	
0.0	6.023238425612817	face	0.0		144	31.0	female	west_asian	2.364902506963788	neutral	006	sub-06	2.0	6.0	006_neutral	0.0		28.696360998686032	1.233326048528852
0.0	6.306700732183344	pulse	0.0	t		31.0	female	west_asian	2.364902506963788	neutral	006	sub-06	2.0	6.0	006_neutral	0.0		28.97982330525656	
0.0	7.0066870278965325	pulse	0.0	t		31.0	female	west_asian	2.364902506963788	neutral	006	sub-06	2.0	6.0	006_neutral	0.0		29.679809600969747	
0.0	7.256564474141669	fix	1.0		445	31.0	female	west_asian	2.364902506963788	neutral	006	sub-06	2.0	6.0	006_neutral	0.0		29.929687047214884	3.7582636245970207
0.0	7.706690831288597	pulse	1.0	t		31.0	female	west_asian	2.364902506963788	neutral	006	sub-06	2.0	6.0	006_neutral	0.0		30.379813404361812	
0.0	8.406656600757287	pulse	1.0	t		31.0	female	west_asian	2.364902506963788	neutral	006	sub-06	2.0	6.0	006_neutral	0.0		31.079779173830502	
0.0	9.106664931997784	pulse	1.0	t		31.0	female	west_asian	2.364902506963788	neutral	006	sub-06	2.0	6.0	006_neutral	0.0		31.779787505071	
0.0	9.806647907289062	pulse	1.0	t		31.0	female	west_asian	2.364902506963788	neutral	006	sub-06	2.0	6.0	006_neutral	0.0		32.479770480362276	
0.0	10.506665294225513	pulse	1.0	t		31.0	female	west_asian	2.364902506963788	neutral	006	sub-06	2.0	6.0	006_neutral	0.0		33.17978786729873	
1.0	11.01482809873869	face	0.0		146	24.0	female	east_asian	2.9076800636689217	neutral	034	sub-06	2.0	6.0	034_neutral	0.0		33.687950671811905	1.241686267217574
1.0	11.206621102428471	pulse	0.0	t		24.0	female	east_asian	2.9076800636689217	neutral	034	sub-06	2.0	6.0	034_neutral	0.0		33.879743675501686	
1.0	11.906624000251213	pulse	0.0	t		24.0	female	east_asian	2.9076800636689217	neutral	034	sub-06	2.0	6.0	034_neutral	0.0		34.57974657332443	
1.0	12.256514365956264	fix	1.0		444	24.0	female	east_asian	2.9076800636689217	neutral	034	sub-06	2.0	6.0	034_neutral	0.0		34.92963693902948	3.7582364575082465
1.0	12.60660727739878	pulse	1.0	t		24.0	female	east_asian	2.9076800636689217	neutral	034	sub-06	2.0	6.0	034_neutral	0.0		35.279729850471995	
1.0	13.306595082394779	pulse	1.0	t		24.0	female	east_asian	2.9076800636689217	neutral	034	sub-06	2.0	6.0	034_neutral	0.0		35.979717655467994	
1.0	14.006567190850546	pulse	1.0	t		24.0	female	east_asian	2.9076800636689217	neutral	034	sub-06	2.0	6.0	034_neutral	0.0		36.67968976392376	
1.0	14.706588501922397	pulse	1.0	t		24.0	female	east_asian	2.9076800636689217	neutral	034	sub-06	2.0	6.0	034_neutral	0.0		37.37971107499561	
1.0	15.406572684639741	pulse	1.0	t		24.0	female	east_asian	2.9076800636689217	neutral	034	sub-06	2.0	6.0	034_neutral	0.0		38.079695257712956	
2.0	16.01475082346451	face	0.0		146	19.0	male	white	2.243931555909272	neutral	130	sub-06	2.0	6.0	130_neutral	0.0		38.687873396537725	1.2416820412263405
2.0	16.10655143393933	pulse	0.0	t		19.0	male	white	2.243931555909272	neutral	130	sub-06	2.0	6.0	130_neutral	0.0		38.779674007012545	
2.0	16.806551313196906	pulse	0.0	t		19.0	male	white	2.243931555909272	neutral	130	sub-06	2.0	6.0	130_neutral	0.0		39.47967388627012	
2.0	17.25643286469085	fix	1.0		444	19.0	male	white	2.243931555909272	neutral	130	sub-06	2.0	6.0	130_neutral	0.0		39.929555437764066	3.758254870757355
2.0	17.50654394789717	pulse	1.0	t		19.0	male	white	2.243931555909272	neutral	130	sub-06	2.0	6.0	130_neutral	0.0		40.179666520970386	
2.0	18.20652239534047	pulse	1.0	t		19.0	male	white	2.243931555909272	neutral	130	sub-06	2.0	6.0	130_neutral	0.0		40.879644968413686	
2.0	18.906509596622982	pulse	1.0	t		19.0	male	white	2.243931555909272	neutral	130	sub-06	2.0	6.0	130_neutral	0.0		41.5796321696962	
2.0	19.606507664741457	pulse	1.0	t		19.0	male	white	2.243931555909272	neutral	130	sub-06	2.0	6.0	130_neutral	0.0		42.27963023781467	
2.0	20.306495469737	pulse	1.0	t		19.0	male	white	2.243931555909272	neutral	130	sub-06	2.0	6.0	130_neutral	0.0		42.979618042810216	
3.0	21.014687735448206	face	0.0		146	22.0	male	black	2.767608436132113	neutral	044	sub-06	2.0	6.0	044_neutral	1.0	trustworthiness	43.68781030852142	1.2416530629984663
3.0	21.006860897262413	pulse	0.0	t		22.0	male	black	2.767608436132113	neutral	044	sub-06	2.0	6.0	044_neutral	1.0	trustworthiness	43.67998347033563	
3.0	21.706480135424954	pulse	0.0	t		22.0	male	black	2.767608436132113	neutral	044	sub-06	2.0	6.0	044_neutral	1.0	trustworthiness	44.37960270849817	
3.0	22.256340798446672	fix	1.0		177	22.0	male	black	2.767608436132113	neutral	044	sub-06	2.0	6.0	044_neutral	1.0	trustworthiness	44.92946337151989	1.508337881305124
3.0	22.406471562699153	pulse	1.0	t		22.0	male	black	2.767608436132113	neutral	044	sub-06	2.0	6.0	044_neutral	1.0	trustworthiness	45.07959413577237	
3.0	23.106439445163687	pulse	1.0	t		22.0	male	black	2.767608436132113	neutral	044	sub-06	2.0	6.0	044_neutral	1.0	trustworthiness	45.7795620182369	
3.0	23.764678679751796	rating	2.0		293	22.0	male	black	2.767608436132113	neutral	044	sub-06	2.0	6.0	044_neutral	1.0	trustworthiness	46.43780125282501	2.491618651353292
3.0	23.80132828951173	pulse	2.0	t		22.0	male	black	2.767608436132113	neutral	044	sub-06	2.0	6.0	044_neutral	1.0	trustworthiness	46.474450862584945	
3.0	24.501306435098286	pulse	2.0	t		22.0	male	black	2.767608436132113	neutral	044	sub-06	2.0	6.0	044_neutral	1.0	trustworthiness	47.1744290081715	
3.0	25.201163536213244	pulse	2.0	t		22.0	male	black	2.767608436132113	neutral	044	sub-06	2.0	6.0	044_neutral	1.0	trustworthiness	47.87428610928646	
3.0	25.242822153372344	response	2.0	e		22.0	male	black	2.767608436132113	neutral	044	sub-06	2.0	6.0	044_neutral	1.0	trustworthiness	47.91594472644556	
3.0	25.90640998396566	pulse	2.0	t		22.0	male	black	2.767608436132113	neutral	044	sub-06	2.0	6.0	044_neutral	1.0	trustworthiness	48.579532557038874	
3.0	26.25629733110509	fix	3.0		444	22.0	male	black	2.767608436132113	neutral	044	sub-06	2.0	6.0	044_neutral	1.0	trustworthiness	48.9294199041783	3.7582597004620766
3.0	26.60639205368716	pulse	3.0	t		22.0	male	black	2.767608436132113	neutral	044	sub-06	2.0	6.0	044_neutral	1.0	trustworthiness	49.279514626760374	
3.0	27.306389518092146	pulse	3.0	t		22.0	male	black	2.767608436132113	neutral	044	sub-06	2.0	6.0	044_neutral	1.0	trustworthiness	49.97951209116536	
3.0	28.006375813805334	pulse	3.0	t		22.0	male	black	2.767608436132113	neutral	044	sub-06	2.0	6.0	044_neutral	1.0	trustworthiness	50.67949838687855	
3.0	28.706353355678857	pulse	3.0	t		22.0	male	black	2.767608436132113	neutral	044	sub-06	2.0	6.0	044_neutral	1.0	trustworthiness	51.37947592875207	
3.0	29.406362290632387	pulse	3.0	t		22.0	male	black	2.767608436132113	neutral	044	sub-06	2.0	6.0	044_neutral	1.0	trustworthiness	52.0794848637056	
4.0	30.014557031567165	face	0.0		146	40.0	male	black	2.408674890569041	neutral	061	sub-06	2.0	6.0	061_neutral	0.0		52.68767960464038	1.2416518555723997
4.0	30.10635764204153	pulse	0.0	t		40.0	male	black	2.408674890569041	neutral	061	sub-06	2.0	6.0	061_neutral	0.0		52.779480215114745	
4.0	30.806308318683477	pulse	0.0	t		40.0	male	black	2.408674890569041	neutral	061	sub-06	2.0	6.0	061_neutral	0.0		53.47943089175669	
4.0	31.256208887139564	fix	1.0		445	40.0	male	black	2.408674890569041	neutral	061	sub-06	2.0	6.0	061_neutral	0.0		53.92933146021278	3.758271171010165
4.0	31.50632600747622	pulse	1.0	t		40.0	male	black	2.408674890569041	neutral	061	sub-06	2.0	6.0	061_neutral	0.0		54.17944858054943	
4.0	32.206316227324805	pulse	1.0	t		40.0	male	black	2.408674890569041	neutral	061	sub-06	2.0	6.0	061_neutral	0.0		54.87943880039802	
4.0	32.90630493789013	pulse	1.0	t		40.0	male	black	2.408674890569041	neutral	061	sub-06	2.0	6.0	061_neutral	0.0		55.57942751096334	
4.0	33.606291535459604	pulse	1.0	t		40.0	male	black	2.408674890569041	neutral	061	sub-06	2.0	6.0	061_neutral	0.0		56.27941410853282	
4.0	34.30627420889459	pulse	1.0	t		40.0	male	black	2.408674890569041	neutral	061	sub-06	2.0	6.0	061_neutral	0.0		56.97939678196781	
5.0	35.01448005814973	face	0.0		147	20.0	male	black	2.609629924393156	neutral	043	sub-06	2.0	6.0	043_neutral	0.0		57.687602631222944	1.2416648354037534
5.0	35.00680535565971	pulse	0.0	t		20.0	male	black	2.609629924393156	neutral	043	sub-06	2.0	6.0	043_neutral	0.0		57.67992792873292	
5.0	35.70625464859086	pulse	0.0	t		20.0	male	black	2.609629924393156	neutral	043	sub-06	2.0	6.0	043_neutral	0.0		58.37937722166407	
5.0	36.25614489355348	fix	1.0		443	20.0	male	black	2.609629924393156	neutral	043	sub-06	2.0	6.0	043_neutral	0.0		58.9292674666267	3.7583747078028864
5.0	36.40625422599169	pulse	1.0	t		20.0	male	black	2.609629924393156	neutral	043	sub-06	2.0	6.0	043_neutral	0.0		59.0793767990649	
5.0	37.1062396161351	pulse	1.0	t		20.0	male	black	2.609629924393156	neutral	043	sub-06	2.0	6.0	043_neutral	0.0		59.779362189208314	
5.0	37.80622500627851	pulse	1.0	t		20.0	male	black	2.609629924393156	neutral	043	sub-06	2.0	6.0	043_neutral	0.0		60.479347579351725	
5.0	38.50622730038822	pulse	1.0	t		20.0	male	black	2.609629924393156	neutral	043	sub-06	2.0	6.0	043_neutral	0.0		61.17934987346143	
5.0	39.206213596101406	pulse	1.0	t		20.0	male	black	2.609629924393156	neutral	043	sub-06	2.0	6.0	043_neutral	0.0		61.87933616917462	
5.0	39.90618993054886	pulse	1.0	t		20.0	male	black	2.609629924393156	neutral	043	sub-06	2.0	6.0	043_neutral	0.0		62.57931250362208	
6.0	40.01451960135637	face	0.0		147	26.0	female	white	4.854755272582572	neutral	027	sub-06	2.0	6.0	027_neutral	1.0	trustworthiness	62.687642174429584	1.2415507336318115
6.0	40.60617954668396	pulse	0.0	t		26.0	female	white	4.854755272582572	neutral	027	sub-06	2.0	6.0	027_neutral	1.0	trustworthiness	63.279302119757176	
6.0	41.25607033498818	fix	1.0		176	26.0	female	white	4.854755272582572	neutral	027	sub-06	2.0	6.0	027_neutral	1.0	trustworthiness	63.929192908061395	1.4999456658233612
6.0	41.30618606678536	pulse	1.0	t		26.0	female	white	4.854755272582572	neutral	027	sub-06	2.0	6.0	027_neutral	1.0	trustworthiness	63.97930863985857	
6.0	42.00615696781506	pulse	1.0	t		26.0	female	white	4.854755272582572	neutral	027	sub-06	2.0	6.0	027_neutral	1.0	trustworthiness	64.67927954088827	
6.0	42.70614265981476	pulse	1.0	t		26.0	female	white	4.854755272582572	neutral	027	sub-06	2.0	6.0	027_neutral	1.0	trustworthiness	65.37926523288797	
6.0	42.75601600081154	rating	2.0		295	26.0	female	white	4.854755272582572	neutral	027	sub-06	2.0	6.0	027_neutral	1.0	trustworthiness	65.42913857388476	2.499983397890446
6.0	43.40100977049269	pulse	2.0	t		26.0	female	white	4.854755272582572	neutral	027	sub-06	2.0	6.0	027_neutral	1.0	trustworthiness	66.0741323435659	
6.0	44.10098369008756	pulse	2.0	t		26.0	female	white	4.854755272582572	neutral	027	sub-06	2.0	6.0	027_neutral	1.0	trustworthiness	66.77410626316077	
6.0	44.41444872544116	response	2.0	e		26.0	female	white	4.854755272582572	neutral	027	sub-06	2.0	6.0	027_neutral	1.0	trustworthiness	67.08757129851438	
6.0	44.806104565519945	pulse	2.0	t		26.0	female	white	4.854755272582572	neutral	027	sub-06	2.0	6.0	027_neutral	1.0	trustworthiness	67.47922713859316	
6.0	45.25599939870199	fix	3.0		444	26.0	female	white	4.854755272582572	neutral	027	sub-06	2.0	6.0	027_neutral	1.0	trustworthiness	67.9291219717752	3.758246720630268
6.0	45.5061237635955	pulse	3.0	t		26.0	female	white	4.854755272582572	neutral	027	sub-06	2.0	6.0	027_neutral	1.0	trustworthiness	68.17924633666871	
6.0	46.20609255162981	pulse	3.0	t		26.0	female	white	4.854755272582572	neutral	027	sub-06	2.0	6.0	027_neutral	1.0	trustworthiness	68.87921512470302	
6.0	46.90608458261704	pulse	3.0	t		26.0	female	white	4.854755272582572	neutral	027	sub-06	2.0	6.0	027_neutral	1.0	trustworthiness	69.57920715569026	
6.0	47.606086574870005	pulse	3.0	t		26.0	female	white	4.854755272582572	neutral	027	sub-06	2.0	6.0	027_neutral	1.0	trustworthiness	70.27920914794322	
6.0	48.30607105944409	pulse	3.0	t		26.0	female	white	4.854755272582572	neutral	027	sub-06	2.0	6.0	027_neutral	1.0	trustworthiness	70.97919363251731	
7.0	49.014246119332256	face	0.0		147	28.0	male	white	3.9076800636689217	smiling	033	sub-06	2.0	6.0	033_smiling	0.0		71.68736869240547	1.2416898894966835
7.0	49.00818725489262	pulse	0.0	t		28.0	male	white	3.9076800636689217	smiling	033	sub-06	2.0	6.0	033_smiling	0.0		71.68130982796583	
7.0	49.706047575005414	pulse	0.0	t		28.0	male	white	3.9076800636689217	smiling	033	sub-06	2.0	6.0	033_smiling	0.0		72.37917014807863	
7.0	50.25593600882894	fix	1.0		443	28.0	male	white	3.9076800636689217	smiling	033	sub-06	2.0	6.0	033_smiling	0.0		72.92905858190215	3.7665927520620244
7.0	50.4060468505495	pulse	1.0	t		28.0	male	white	3.9076800636689217	smiling	033	sub-06	2.0	6.0	033_smiling	0.0		73.07916942362272	
7.0	51.10602077014482	pulse	1.0	t		28.0	male	white	3.9076800636689217	smiling	033	sub-06	2.0	6.0	033_smiling	0.0		73.77914334321804	
7.0	51.80600857514082	pulse	1.0	t		28.0	male	white	3.9076800636689217	smiling	033	sub-06	2.0	6.0	033_smiling	0.0		74.47913114821404	
7.0	52.50600483211974	pulse	1.0	t		28.0	male	white	3.9076800636689217	smiling	033	sub-06	2.0	6.0	033_smiling	0.0		75.17912740519296	
7.0	53.20603006732608	pulse	1.0	t		28.0	male	white	3.9076800636689217	smiling	033	sub-06	2.0	6.0	033_smiling	0.0		75.8791526403993	
7.0	53.90599040337702	pulse	1.0	t		28.0	male	white	3.9076800636689217	smiling	033	sub-06	2.0	6.0	033_smiling	0.0		76.57911297645023	
8.0	54.022528760890964	face	0.0		146	24.0	female	black	3.0955033824114606	neutral	099	sub-06	2.0	6.0	099_neutral	0.0		76.69565133396418	1.2333323875163842
8.0	54.605970360102674	pulse	0.0	t		24.0	female	black	3.0955033824114606	neutral	099	sub-06	2.0	6.0	099_neutral	0.0		77.27909293317589	
8.0	55.25586114840735	fix	1.0		443	24.0	female	black	3.0955033824114606	neutral	099	sub-06	2.0	6.0	099_neutral	0.0		77.92898372148056	3.7665815833702254
8.0	55.305975672778004	pulse	1.0	t		24.0	female	black	3.0955033824114606	neutral	099	sub-06	2.0	6.0	099_neutral	0.0		77.97909824585122	
8.0	56.005965892626136	pulse	1.0	t		24.0	female	black	3.0955033824114606	neutral	099	sub-06	2.0	6.0	099_neutral	0.0		78.67908846569935	
8.0	56.70593468065999	pulse	1.0	t		24.0	female	black	3.0955033824114606	neutral	099	sub-06	2.0	6.0	099_neutral	0.0		79.37905725373321	
8.0	57.4059294283561	pulse	1.0	t		24.0	female	black	3.0955033824114606	neutral	099	sub-06	2.0	6.0	099_neutral	0.0		80.07905200142932	
8.0	58.10590757394266	pulse	1.0	t		24.0	female	black	3.0955033824114606	neutral	099	sub-06	2.0	6.0	099_neutral	0.0		80.77903014701587	
8.0	58.8059068494872	pulse	1.0	t		24.0	female	black	3.0955033824114606	neutral	099	sub-06	2.0	6.0	099_neutral	0.0		81.47902942256042	
9.0	59.02244273177757	face	0.0		145	20.0	female	white	3.9502586549940313	smiling	091	sub-06	2.0	6.0	091_smiling	0.0		81.69556530485079	1.2333257466725627
9.0	59.505897673048366	pulse	0.0	t		20.0	female	white	3.9502586549940313	smiling	091	sub-06	2.0	6.0	091_smiling	0.0		82.17902024612158	
9.0	60.20588004462661	pulse	0.0	t		20.0	female	white	3.9502586549940313	smiling	091	sub-06	2.0	6.0	091_smiling	0.0		82.87900261769983	
9.0	60.255768478450136	fix	1.0		445	20.0	female	white	3.9502586549940313	smiling	091	sub-06	2.0	6.0	091_smiling	0.0		82.92889105152335	3.766610561597645
9.0	60.90588897958014	pulse	1.0	t		20.0	female	white	3.9502586549940313	smiling	091	sub-06	2.0	6.0	091_smiling	0.0		83.57901155265336	
9.0	61.60587919942827	pulse	1.0	t		20.0	female	white	3.9502586549940313	smiling	091	sub-06	2.0	6.0	091_smiling	0.0		84.27900177250149	
9.0	62.30585764687157	pulse	1.0	t		20.0	female	white	3.9502586549940313	smiling	091	sub-06	2.0	6.0	091_smiling	0.0		84.97898021994479	
9.0	63.00583579245813	pulse	1.0	t		20.0	female	white	3.9502586549940313	smiling	091	sub-06	2.0	6.0	091_smiling	0.0		85.67895836553134	
9.0	63.70584472741166	pulse	1.0	t		20.0	female	white	3.9502586549940313	smiling	091	sub-06	2.0	6.0	091_smiling	0.0		86.37896730048487	
10.0	64.02237904004778	face	0.0		145	37.0	male	white	3.898925586947871	neutral	101	sub-06	2.0	6.0	101_neutral	0.0		86.695501613121	1.2333178984026745
10.0	64.40584792709069	pulse	0.0	t		37.0	male	white	3.898925586947871	neutral	101	sub-06	2.0	6.0	101_neutral	0.0		87.0789705001639	
10.0	65.10579256660185	pulse	0.0	t		37.0	male	white	3.898925586947871	neutral	101	sub-06	2.0	6.0	101_neutral	0.0		87.77891513967506	
10.0	65.25569693845046	fix	1.0		445	37.0	male	white	3.898925586947871	neutral	101	sub-06	2.0	6.0	101_neutral	0.0		87.92881951152367	3.766592450205735
10.0	65.80582414079572	pulse	1.0	t		37.0	male	white	3.898925586947871	neutral	101	sub-06	2.0	6.0	101_neutral	0.0		88.47894671386894	
10.0	66.50579624925149	pulse	1.0	t		37.0	male	white	3.898925586947871	neutral	101	sub-06	2.0	6.0	101_neutral	0.0		89.1789188223247	
10.0	67.20578073382558	pulse	1.0	t		37.0	male	white	3.898925586947871	neutral	101	sub-06	2.0	6.0	101_neutral	0.0		89.87890330689879	
10.0	67.90577638709101	pulse	1.0	t		37.0	male	white	3.898925586947871	neutral	101	sub-06	2.0	6.0	101_neutral	0.0		90.57889896016422	
10.0	68.60579105731904	pulse	1.0	t		37.0	male	white	3.898925586947871	neutral	101	sub-06	2.0	6.0	101_neutral	0.0		91.27891363039225	
11.0	69.02228938865619	face	0.0		145	31.0	male	west_asian	1.9538400318344609	neutral	070	sub-06	2.0	6.0	070_neutral	0.0		91.6954119617294	1.2333465747733499
11.0	69.30576346763155	pulse	0.0	t		31.0	male	west_asian	1.9538400318344609	neutral	070	sub-06	2.0	6.0	070_neutral	0.0		91.97888604070477	
11.0	70.00574553735305	pulse	0.0	t		31.0	male	west_asian	1.9538400318344609	neutral	070	sub-06	2.0	6.0	070_neutral	0.0		92.67886811042627	
11.0	70.25563596342954	fix	1.0		444	31.0	male	west_asian	1.9538400318344609	neutral	070	sub-06	2.0	6.0	070_neutral	0.0		92.92875853650276	3.7665767536659587
11.0	70.70572821078758	pulse	1.0	t		31.0	male	west_asian	1.9538400318344609	neutral	070	sub-06	2.0	6.0	070_neutral	0.0		93.3788507838608	
11.0	71.40571269536167	pulse	1.0	t		31.0	male	west_asian	1.9538400318344609	neutral	070	sub-06	2.0	6.0	070_neutral	0.0		94.07883526843489	
11.0	72.1057032170661	pulse	1.0	t		31.0	male	west_asian	1.9538400318344609	neutral	070	sub-06	2.0	6.0	070_neutral	0.0		94.77882579013931	
11.0	72.80570671860232	pulse	1.0	t		31.0	male	west_asian	1.9538400318344609	neutral	070	sub-06	2.0	6.0	070_neutral	0.0		95.47882929167554	
11.0	73.50568003448416	pulse	1.0	t		31.0	male	west_asian	1.9538400318344609	neutral	070	sub-06	2.0	6.0	070_neutral	0.0		96.17880260755737	
12.0	74.0222127170955	face	0.0		145	26.0	female	white	4.854755272582572	smiling	027	sub-06	2.0	6.0	027_smiling	0.0		96.69533529016871	1.2333492914822273
12.0	74.20566844319319	pulse	0.0	t		26.0	female	white	4.854755272582572	smiling	027	sub-06	2.0	6.0	027_smiling	0.0		96.8787910162664	
12.0	74.90567768000301	pulse	0.0	t		26.0	female	white	4.854755272582572	smiling	027	sub-06	2.0	6.0	027_smiling	0.0		97.57880025307622	
12.0	75.25556200857773	fix	1.0		444	26.0	female	white	4.854755272582572	smiling	027	sub-06	2.0	6.0	027_smiling	0.0		97.92868458165094	3.7665927520620244
12.0	75.60567031470373	pulse	1.0	t		26.0	female	white	4.854755272582572	smiling	027	sub-06	2.0	6.0	027_smiling	0.0		98.27879288777694	
12.0	76.30565117699916	pulse	1.0	t		26.0	female	white	4.854755272582572	smiling	027	sub-06	2.0	6.0	027_smiling	0.0		98.97877375007238	
12.0	77.00564018942123	pulse	1.0	t		26.0	female	white	4.854755272582572	smiling	027	sub-06	2.0	6.0	027_smiling	0.0		99.67876276249444	
12.0	77.70563131483868	pulse	1.0	t		26.0	female	white	4.854755272582572	smiling	027	sub-06	2.0	6.0	027_smiling	0.0		100.3787538879119	
12.0	78.40560976228198	pulse	1.0	t		26.0	female	white	4.854755272582572	smiling	027	sub-06	2.0	6.0	027_smiling	0.0		101.0787323353552	
13.0	79.02215476063975	face	0.0		145	24.0	female	east_asian	2.9076800636689217	smiling	034	sub-06	2.0	6.0	034_smiling	0.0		101.69527733371297	1.2333293689507627
13.0	79.10561779166574	pulse	0.0	t		24.0	female	east_asian	2.9076800636689217	smiling	034	sub-06	2.0	6.0	034_smiling	0.0		101.77874036473895	
13.0	79.80560287995286	pulse	0.0	t		24.0	female	east_asian	2.9076800636689217	smiling	034	sub-06	2.0	6.0	034_smiling	0.0		102.47872545302607	
13.0	80.25548412959051	fix	1.0		444	24.0	female	east_asian	2.9076800636689217	smiling	034	sub-06	2.0	6.0	034_smiling	0.0		102.92860670266373	3.766590639066635
13.0	80.50562751144662	pulse	1.0	t		24.0	female	east_asian	2.9076800636689217	smiling	034	sub-06	2.0	6.0	034_smiling	0.0		103.17875008451983	
13.0	81.20557999922721	pulse	1.0	t		24.0	female	east_asian	2.9076800636689217	smiling	034	sub-06	2.0	6.0	034_smiling	0.0		103.87870257230043	
13.0	81.90558078405411	pulse	1.0	t		24.0	female	east_asian	2.9076800636689217	smiling	034	sub-06	2.0	6.0	034_smiling	0.0		104.57870335712732	
13.0	82.60555077951449	pulse	1.0	t		24.0	female	east_asian	2.9076800636689217	smiling	034	sub-06	2.0	6.0	034_smiling	0.0		105.2786733525877	
13.0	83.30553707522768	pulse	1.0	t		24.0	female	east_asian	2.9076800636689217	smiling	034	sub-06	2.0	6.0	034_smiling	0.0		105.97865964830089	
14.0	84.02207476865715	face	0.0		145	20.0	male	black	3.1070433744528456	smiling	082	sub-06	2.0	6.0	082_smiling	1.0	dominance	106.69519734173036	1.2333366135076176
14.0	84.00834663514479	pulse	0.0	t		20.0	male	black	3.1070433744528456	smiling	082	sub-06	2.0	6.0	082_smiling	1.0	dominance	106.681469208218	
14.0	84.7055265706199	pulse	0.0	t		20.0	male	black	3.1070433744528456	smiling	082	sub-06	2.0	6.0	082_smiling	1.0	dominance	107.37864914369311	
14.0	85.25541138216477	fix	1.0		177	20.0	male	black	3.1070433744528456	smiling	082	sub-06	2.0	6.0	082_smiling	1.0	dominance	107.92853395523798	1.4999791718992128
14.0	85.40557112464512	pulse	1.0	t		20.0	male	black	3.1070433744528456	smiling	082	sub-06	2.0	6.0	082_smiling	1.0	dominance	108.07869369771834	
14.0	86.10550640660313	pulse	1.0	t		20.0	male	black	3.1070433744528456	smiling	082	sub-06	2.0	6.0	082_smiling	1.0	dominance	108.77862897967634	
14.0	86.75539055406398	rating	2.0		294	20.0	male	black	3.1070433744528456	smiling	082	sub-06	2.0	6.0	082_smiling	1.0	dominance	109.4285131271372	2.4999574382277387
14.0	86.80025337837833	pulse	2.0	t		20.0	male	black	3.1070433744528456	smiling	082	sub-06	2.0	6.0	082_smiling	1.0	dominance	109.47337595145154	
14.0	87.50024933350096	pulse	2.0	t		20.0	male	black	3.1070433744528456	smiling	082	sub-06	2.0	6.0	082_smiling	1.0	dominance	110.17337190657418	
14.0	88.2002132918301	pulse	2.0	t		20.0	male	black	3.1070433744528456	smiling	082	sub-06	2.0	6.0	082_smiling	1.0	dominance	110.87333586490331	
14.0	88.30870264474652	response	2.0	y		20.0	male	black	3.1070433744528456	smiling	082	sub-06	2.0	6.0	082_smiling	1.0	dominance	110.98182521781973	
14.0	88.90545581544757	pulse	2.0	t		20.0	male	black	3.1070433744528456	smiling	082	sub-06	2.0	6.0	082_smiling	1.0	dominance	111.57857838852078	
14.0	89.25534799229172	fix	3.0		444	20.0	male	black	3.1070433744528456	smiling	082	sub-06	2.0	6.0	082_smiling	1.0	dominance	111.92847056536493	3.76659607248439
14.0	89.60545780770053	pulse	3.0	t		20.0	male	black	3.1070433744528456	smiling	082	sub-06	2.0	6.0	082_smiling	1.0	dominance	112.27858038077375	
14.0	90.30544561269653	pulse	3.0	t		20.0	male	black	3.1070433744528456	smiling	082	sub-06	2.0	6.0	082_smiling	1.0	dominance	112.97856818576975	
14.0	91.00541983414814	pulse	3.0	t		20.0	male	black	3.1070433744528456	smiling	082	sub-06	2.0	6.0	082_smiling	1.0	dominance	113.67854240722136	
14.0	91.70542907095796	pulse	3.0	t		20.0	male	black	3.1070433744528456	smiling	082	sub-06	2.0	6.0	082_smiling	1.0	dominance	114.37855164403118	
14.0	92.40538608658699	pulse	3.0	t		20.0	male	black	3.1070433744528456	smiling	082	sub-06	2.0	6.0	082_smiling	1.0	dominance	115.0785086596602	
15.0	93.02194406477611	face	0.0		145	28.0	female	white	5.676880222841227	neutral	124	sub-06	2.0	6.0	124_neutral	0.0		115.69506663784932	1.2333118612714316
15.0	93.105405284663	pulse	0.0	t		28.0	female	white	5.676880222841227	neutral	124	sub-06	2.0	6.0	124_neutral	0.0		115.77852785773621	
15.0	93.80539339151528	pulse	0.0	t		28.0	female	white	5.676880222841227	neutral	124	sub-06	2.0	6.0	124_neutral	0.0		116.4785159645885	
15.0	94.25525592604754	fix	1.0		444	28.0	female	white	5.676880222841227	neutral	124	sub-06	2.0	6.0	124_neutral	0.0		116.92837849912075	3.766607844889222
15.0	94.50538844106813	pulse	1.0	t		28.0	female	white	5.676880222841227	neutral	124	sub-06	2.0	6.0	124_neutral	0.0		117.17851101414135	
15.0	95.20537896277256	pulse	1.0	t		28.0	female	white	5.676880222841227	neutral	124	sub-06	2.0	6.0	124_neutral	0.0		117.87850153584577	
15.0	95.9053519767981	pulse	1.0	t		28.0	female	white	5.676880222841227	neutral	124	sub-06	2.0	6.0	124_neutral	0.0		118.57847454987132	
15.0	96.60536181732141	pulse	1.0	t		28.0	female	white	5.676880222841227	neutral	124	sub-06	2.0	6.0	124_neutral	0.0		119.27848439039462	
15.0	97.30532305894167	pulse	1.0	t		28.0	female	white	5.676880222841227	neutral	124	sub-06	2.0	6.0	124_neutral	0.0		119.97844563201488	
16.0	98.02186377093676	face	0.0		146	21.0	male	east_asian/white	3.501790688420215	smiling	036	sub-06	2.0	6.0	036_smiling	0.0		120.69498634400998	1.2333317838033508
16.0	98.00806258814237	pulse	0.0	t		21.0	male	east_asian/white	3.501790688420215	smiling	036	sub-06	2.0	6.0	036_smiling	0.0		120.68118516121558	
16.0	98.70531436547344	pulse	0.0	t		21.0	male	east_asian/white	3.501790688420215	smiling	036	sub-06	2.0	6.0	036_smiling	0.0		121.37843693854666	
16.0	99.25519555474011	fix	1.0		443	21.0	male	east_asian/white	3.501790688420215	smiling	036	sub-06	2.0	6.0	036_smiling	0.0		121.92831812781333	3.766598185479779
16.0	99.40530096304337	pulse	1.0	t		21.0	male	east_asian/white	3.501790688420215	smiling	036	sub-06	2.0	6.0	036_smiling	0.0		122.07842353611659	
16.0	100.10529389960038	pulse	1.0	t		21.0	male	east_asian/white	3.501790688420215	smiling	036	sub-06	2.0	6.0	036_smiling	0.0		122.7784164726736	
16.0	100.80528864729649	pulse	1.0	t		21.0	male	east_asian/white	3.501790688420215	smiling	036	sub-06	2.0	6.0	036_smiling	0.0		123.47841122036971	
16.0	101.50528973398013	pulse	1.0	t		21.0	male	east_asian/white	3.501790688420215	smiling	036	sub-06	2.0	6.0	036_smiling	0.0		124.17841230705335	
16.0	102.20526878513601	pulse	1.0	t		21.0	male	east_asian/white	3.501790688420215	smiling	036	sub-06	2.0	6.0	036_smiling	0.0		124.87839135820923	
16.0	102.90524330844437	pulse	1.0	t		21.0	male	east_asian/white	3.501790688420215	smiling	036	sub-06	2.0	6.0	036_smiling	0.0		125.57836588151758	
17.0	103.02179374021989	face	0.0		146	47.0	male	east_asian	2.171110226820533	neutral	024	sub-06	2.0	6.0	024_neutral	0.0		125.6949163132931	1.2333302745205401
17.0	103.60524680998014	pulse	0.0	t		47.0	male	east_asian	2.171110226820533	neutral	024	sub-06	2.0	6.0	024_neutral	0.0		126.27836938305336	
17.0	104.25512401474043	fix	1.0		443	47.0	male	east_asian	2.171110226820533	neutral	024	sub-06	2.0	6.0	024_neutral	0.0		126.92824658781365	3.766573433243593
17.0	104.30533151092504	pulse	1.0	t		47.0	male	east_asian	2.171110226820533	neutral	024	sub-06	2.0	6.0	024_neutral	0.0		126.97845408399826	
17.0	105.00521849583674	pulse	1.0	t		47.0	male	east_asian	2.171110226820533	neutral	024	sub-06	2.0	6.0	024_neutral	0.0		127.67834106890996	
17.0	105.70521445095937	pulse	1.0	t		47.0	male	east_asian	2.171110226820533	neutral	024	sub-06	2.0	6.0	024_neutral	0.0		128.3783370240326	
17.0	106.40520044481582	pulse	1.0	t		47.0	male	east_asian	2.171110226820533	neutral	024	sub-06	2.0	6.0	024_neutral	0.0		129.07832301788903	
17.0	107.10518915538114	pulse	1.0	t		47.0	male	east_asian	2.171110226820533	neutral	024	sub-06	2.0	6.0	024_neutral	0.0		129.77831172845436	
17.0	107.80516609354163	pulse	1.0	t		47.0	male	east_asian	2.171110226820533	neutral	024	sub-06	2.0	6.0	024_neutral	0.0		130.47828866661484	
18.0	108.02169744798402	face	0.0		145	34.0	male	white	2.651014723438122	smiling	121	sub-06	2.0	6.0	121_smiling	0.0		130.69482002105724	1.2333523100478487
18.0	108.50517291549977	pulse	0.0	t		34.0	male	white	2.651014723438122	smiling	121	sub-06	2.0	6.0	121_smiling	0.0		131.17829548857299	
18.0	109.20515679636037	pulse	0.0	t		34.0	male	white	2.651014723438122	smiling	121	sub-06	2.0	6.0	121_smiling	0.0		131.87827936943359	
18.0	109.25504975803187	fix	1.0		445	34.0	male	white	2.651014723438122	smiling	121	sub-06	2.0	6.0	121_smiling	0.0		131.9281723311051	3.76657101839146
18.0	109.90515305333929	pulse	1.0	t		34.0	male	white	2.651014723438122	smiling	121	sub-06	2.0	6.0	121_smiling	0.0		132.5782756264125	
18.0	110.60514206576136	pulse	1.0	t		34.0	male	white	2.651014723438122	smiling	121	sub-06	2.0	6.0	121_smiling	0.0		133.27826463883457	
18.0	111.30512715404848	pulse	1.0	t		34.0	male	white	2.651014723438122	smiling	121	sub-06	2.0	6.0	121_smiling	0.0		133.9782497271217	
18.0	112.00510197921312	pulse	1.0	t		34.0	male	white	2.651014723438122	smiling	121	sub-06	2.0	6.0	121_smiling	0.0		134.67822455228634	
18.0	112.70510004733114	pulse	1.0	t		34.0	male	white	2.651014723438122	smiling	121	sub-06	2.0	6.0	121_smiling	0.0		135.37822262040436	
19.0	113.02162077642333	face	0.0		145	25.0	female	black	3.858336649423	neutral	126	sub-06	2.0	6.0	126_neutral	0.0		135.69474334949655	1.2333381227904283
19.0	113.40510415257995	pulse	0.0	t		25.0	female	black	3.858336649423	neutral	126	sub-06	2.0	6.0	126_neutral	0.0		136.07822672565317	
19.0	114.10508531673213	pulse	0.0	t		25.0	female	black	3.858336649423	neutral	126	sub-06	2.0	6.0	126_neutral	0.0		136.77820788980534	
19.0	114.25495889921376	fix	1.0		445	25.0	female	black	3.858336649423	neutral	126	sub-06	2.0	6.0	126_neutral	0.0		136.92808147228698	3.766609354172033
19.0	114.8050812718543	pulse	1.0	t		25.0	female	black	3.858336649423	neutral	126	sub-06	2.0	6.0	126_neutral	0.0		137.47820384492752	
19.0	115.50505519144963	pulse	1.0	t		25.0	female	black	3.858336649423	neutral	126	sub-06	2.0	6.0	126_neutral	0.0		138.17817776452284	
19.0	116.20503424260596	pulse	1.0	t		25.0	female	black	3.858336649423	neutral	126	sub-06	2.0	6.0	126_neutral	0.0		138.87815681567918	
19.0	116.90505374253826	pulse	1.0	t		25.0	female	black	3.858336649423	neutral	126	sub-06	2.0	6.0	126_neutral	0.0		139.57817631561147	
19.0	117.60503581225976	pulse	1.0	t		25.0	female	black	3.858336649423	neutral	126	sub-06	2.0	6.0	126_neutral	0.0		140.27815838533297	
20.0	118.0215682533858	face	0.0		145	26.0	male	white	2.7966573816155993	neutral	117	sub-06	2.0	6.0	117_neutral	0.0		140.694690826459	1.2333290670940187
20.0	118.30501788198126	pulse	0.0	t		26.0	male	white	2.7966573816155993	neutral	117	sub-06	2.0	6.0	117_neutral	0.0		140.97814045505447	
20.0	119.00500176284231	pulse	0.0	t		26.0	male	white	2.7966573816155993	neutral	117	sub-06	2.0	6.0	117_neutral	0.0		141.67812433591553	
20.0	119.25489732047981	fix	1.0		1185	26.0	male	white	2.7966573816155993	neutral	117	sub-06	2.0	6.0	117_neutral	0.0		141.92801989355303	10.016479857717059
20.0	119.70504269458888	pulse	1.0	t		26.0	male	white	2.7966573816155993	neutral	117	sub-06	2.0	6.0	117_neutral	0.0		142.3781652676621	
20.0	120.40502355688432	pulse	1.0	t		26.0	male	white	2.7966573816155993	neutral	117	sub-06	2.0	6.0	117_neutral	0.0		143.07814612995753	
20.0	121.1049860059311	pulse	1.0	t		26.0	male	white	2.7966573816155993	neutral	117	sub-06	2.0	6.0	117_neutral	0.0		143.7781085790043	
20.0	121.80495932181293	pulse	1.0	t		26.0	male	white	2.7966573816155993	neutral	117	sub-06	2.0	6.0	117_neutral	0.0		144.47808189488615	
20.0	122.50495799364398	pulse	1.0	t		26.0	male	white	2.7966573816155993	neutral	117	sub-06	2.0	6.0	117_neutral	0.0		145.1780805667172	
20.0	123.20496149518021	pulse	1.0	t		26.0	male	white	2.7966573816155993	neutral	117	sub-06	2.0	6.0	117_neutral	0.0		145.87808406825343	
20.0	123.90492998135733	pulse	1.0	t		26.0	male	white	2.7966573816155993	neutral	117	sub-06	2.0	6.0	117_neutral	0.0		146.57805255443054	
20.0	124.60493770888479	pulse	1.0	t		26.0	male	white	2.7966573816155993	neutral	117	sub-06	2.0	6.0	117_neutral	0.0		147.278060281958	
20.0	125.30491796746719	pulse	1.0	t		26.0	male	white	2.7966573816155993	neutral	117	sub-06	2.0	6.0	117_neutral	0.0		147.9780405405404	
20.0	126.00490969659813	pulse	1.0	t		26.0	male	white	2.7966573816155993	neutral	117	sub-06	2.0	6.0	117_neutral	0.0		148.67803226967135	
20.0	126.7048929737457	pulse	1.0	t		26.0	male	white	2.7966573816155993	neutral	117	sub-06	2.0	6.0	117_neutral	0.0		149.37801554681892	
20.0	127.40487051561922	pulse	1.0	t		26.0	male	white	2.7966573816155993	neutral	117	sub-06	2.0	6.0	117_neutral	0.0		150.07799308869244	
20.0	128.10487884685972	pulse	1.0	t		26.0	male	white	2.7966573816155993	neutral	117	sub-06	2.0	6.0	117_neutral	0.0		150.77800141993293	
20.0	128.8048542757374	pulse	1.0	t		26.0	male	white	2.7966573816155993	neutral	117	sub-06	2.0	6.0	117_neutral	0.0		151.4779768488106	
21.0	129.27137717819687	face	0.0		145	24.0	male	white	3.1153999204138483	neutral	012	sub-06	2.0	6.0	012_neutral	0.0		151.9444997512701	1.233348989625938
21.0	129.50485355128194	pulse	0.0	t		24.0	male	white	3.1153999204138483	neutral	012	sub-06	2.0	6.0	012_neutral	0.0		152.17797612435515	
21.0	130.20484316741704	pulse	0.0	t		24.0	male	white	3.1153999204138483	neutral	012	sub-06	2.0	6.0	012_neutral	0.0		152.87796574049025	
21.0	130.5047261678228	fix	1.0		444	24.0	male	white	3.1153999204138483	neutral	012	sub-06	2.0	6.0	012_neutral	0.0		153.17784874089602	3.7583424091531015
21.0	130.9048376132564	pulse	1.0	t		24.0	male	white	3.1153999204138483	neutral	012	sub-06	2.0	6.0	012_neutral	0.0		153.57796018632962	
21.0	131.6048184755523	pulse	1.0	t		24.0	male	white	3.1153999204138483	neutral	012	sub-06	2.0	6.0	012_neutral	0.0		154.2779410486255	
21.0	132.30481020468278	pulse	1.0	t		24.0	male	white	3.1153999204138483	neutral	012	sub-06	2.0	6.0	012_neutral	0.0		154.977932777756	
21.0	133.00480585794867	pulse	1.0	t		24.0	male	white	3.1153999204138483	neutral	012	sub-06	2.0	6.0	012_neutral	0.0		155.67792843102188	
21.0	133.7047833998222	pulse	1.0	t		24.0	male	white	3.1153999204138483	neutral	012	sub-06	2.0	6.0	012_neutral	0.0		156.3779059728954	
22.0	134.2630685769759	face	0.0		146	37.0	male	white	3.898925586947871	smiling	101	sub-06	2.0	6.0	101_smiling	0.0		156.93619115004913	1.2415866545602512
22.0	134.4047856939319	pulse	0.0	t		37.0	male	white	3.898925586947871	smiling	101	sub-06	2.0	6.0	101_smiling	0.0		157.0779082670051	
22.0	135.1047562931053	pulse	0.0	t		37.0	male	white	3.898925586947871	smiling	101	sub-06	2.0	6.0	101_smiling	0.0		157.77787886617853	
22.0	135.50465523153616	fix	1.0		444	37.0	male	white	3.898925586947871	smiling	101	sub-06	2.0	6.0	101_smiling	0.0		158.17777780460938	3.766592450205735
22.0	135.804763115063	pulse	1.0	t		37.0	male	white	3.898925586947871	smiling	101	sub-06	2.0	6.0	101_smiling	0.0		158.4778856881362	
22.0	136.5047503163455	pulse	1.0	t		37.0	male	white	3.898925586947871	smiling	101	sub-06	2.0	6.0	101_smiling	0.0		159.17787288941872	
22.0	137.204727254506	pulse	1.0	t		37.0	male	white	3.898925586947871	smiling	101	sub-06	2.0	6.0	101_smiling	0.0		159.8778498275792	
22.0	137.90472653005054	pulse	1.0	t		37.0	male	white	3.898925586947871	smiling	101	sub-06	2.0	6.0	101_smiling	0.0		160.57784910312375	
22.0	138.604702864498	pulse	1.0	t		37.0	male	white	3.898925586947871	smiling	101	sub-06	2.0	6.0	101_smiling	0.0		161.2778254375712	
23.0	139.2712476817419	face	0.0		145	31.0	female	west_asian	2.364902506963788	smiling	006	sub-06	2.0	6.0	006_smiling	0.0		161.9443702548151	1.2333175965459304
23.0	139.30471240316456	pulse	0.0	t		31.0	female	west_asian	2.364902506963788	smiling	006	sub-06	2.0	6.0	006_smiling	0.0		161.97783497623777	
23.0	140.00470292486898	pulse	0.0	t		31.0	female	west_asian	2.364902506963788	smiling	006	sub-06	2.0	6.0	006_smiling	0.0		162.6778254979422	
23.0	140.50456527828783	fix	1.0		443	31.0	female	west_asian	2.364902506963788	smiling	006	sub-06	2.0	6.0	006_smiling	0.0		163.17768785136104	3.766616900585177
23.0	140.70467805189037	pulse	1.0	t		31.0	female	west_asian	2.364902506963788	smiling	006	sub-06	2.0	6.0	006_smiling	0.0		163.37780062496358	
23.0	141.40467974228704	pulse	1.0	t		31.0	female	west_asian	2.364902506963788	smiling	006	sub-06	2.0	6.0	006_smiling	0.0		164.07780231536026	
23.0	142.1046560767345	pulse	1.0	t		31.0	female	west_asian	2.364902506963788	smiling	006	sub-06	2.0	6.0	006_smiling	0.0		164.77777864980771	
23.0	142.80465444670926	pulse	1.0	t		31.0	female	west_asian	2.364902506963788	smiling	006	sub-06	2.0	6.0	006_smiling	0.0		165.47777701978248	
23.0	143.50462866816088	pulse	1.0	t		31.0	female	west_asian	2.364902506963788	smiling	006	sub-06	2.0	6.0	006_smiling	0.0		166.1777512412341	
23.0	144.20463549011856	pulse	1.0	t		31.0	female	west_asian	2.364902506963788	smiling	006	sub-06	2.0	6.0	006_smiling	0.0		166.87775806319178	
24.0	144.271182178873	face	0.0		146	27.0	female	white	4.181058495821727	smiling	039	sub-06	2.0	6.0	039_smiling	0.0		166.94430475194622	1.2333064278536767
24.0	144.90462661553647	pulse	0.0	t		27.0	female	white	4.181058495821727	smiling	039	sub-06	2.0	6.0	039_smiling	0.0		167.5777491886097	
24.0	145.50448860672668	fix	1.0		443	27.0	female	white	4.181058495821727	smiling	039	sub-06	2.0	6.0	039_smiling	0.0		168.1776111797999	3.7666117690241663
24.0	145.60460838340123	pulse	1.0	t		27.0	female	white	4.181058495821727	smiling	039	sub-06	2.0	6.0	039_smiling	0.0		168.27773095647444	
24.0	146.30459498097116	pulse	1.0	t		27.0	female	white	4.181058495821727	smiling	039	sub-06	2.0	6.0	039_smiling	0.0		168.97771755404437	
24.0	147.00457282470097	pulse	1.0	t		27.0	female	white	4.181058495821727	smiling	039	sub-06	2.0	6.0	039_smiling	0.0		169.6776953977742	
24.0	147.70456334640585	pulse	1.0	t		27.0	female	white	4.181058495821727	smiling	039	sub-06	2.0	6.0	039_smiling	0.0		170.37768591947906	
24.0	148.40456986650725	pulse	1.0	t		27.0	female	white	4.181058495821727	smiling	039	sub-06	2.0	6.0	039_smiling	0.0		171.07769243958046	
24.0	149.1045652179164	pulse	1.0	t		27.0	female	white	4.181058495821727	smiling	039	sub-06	2.0	6.0	039_smiling	0.0		171.7776877909896	
25.0	149.27110037575085	face	0.0		146	24.0	female	black	3.0955033824114606	smiling	099	sub-06	2.0	6.0	099_smiling	0.0		171.94422294882406	1.2333203132548078
25.0	149.80455875818643	pulse	0.0	t		24.0	female	black	3.0955033824114606	smiling	099	sub-06	2.0	6.0	099_smiling	0.0		172.47768133125965	
25.0	150.50442068900566	fix	1.0		444	24.0	female	black	3.0955033824114606	smiling	099	sub-06	2.0	6.0	099_smiling	0.0		173.17754326207887	3.7666027133282114
25.0	150.51179444052696	pulse	1.0	t		24.0	female	black	3.0955033824114606	smiling	099	sub-06	2.0	6.0	099_smiling	0.0		173.18491701360017	
25.0	151.2045189734945	pulse	1.0	t		24.0	female	black	3.0955033824114606	smiling	099	sub-06	2.0	6.0	099_smiling	0.0		173.8776415465677	
25.0	151.90451855089532	pulse	1.0	t		24.0	female	black	3.0955033824114606	smiling	099	sub-06	2.0	6.0	099_smiling	0.0		174.57764112396853	
25.0	152.60450454475222	pulse	1.0	t		24.0	female	black	3.0955033824114606	smiling	099	sub-06	2.0	6.0	099_smiling	0.0		175.27762711782543	
25.0	153.30449717945248	pulse	1.0	t		24.0	female	black	3.0955033824114606	smiling	099	sub-06	2.0	6.0	099_smiling	0.0		175.9776197525257	
25.0	154.00447683432185	pulse	1.0	t		24.0	female	black	3.0955033824114606	smiling	099	sub-06	2.0	6.0	099_smiling	0.0		176.67759940739506	
26.0	154.27102340233387	face	0.0		145	28.0	female	white	5.676880222841227	smiling	124	sub-06	2.0	6.0	124_smiling	0.0		176.94414597540708	1.2333323875159294
26.0	154.7044755061529	pulse	0.0	t		28.0	female	white	5.676880222841227	smiling	124	sub-06	2.0	6.0	124_smiling	0.0		177.37759807922612	
26.0	155.4044633111489	pulse	0.0	t		28.0	female	white	5.676880222841227	smiling	124	sub-06	2.0	6.0	124_smiling	0.0		178.07758588422212	
26.0	155.5043557898498	fix	1.0		444	28.0	female	white	5.676880222841227	smiling	124	sub-06	2.0	6.0	124_smiling	0.0		178.177478362923	3.7665761499529253
26.0	156.10445836070176	pulse	1.0	t		28.0	female	white	5.676880222841227	smiling	124	sub-06	2.0	6.0	124_smiling	0.0		178.77758093377497	
26.0	156.8044440527019	pulse	1.0	t		28.0	female	white	5.676880222841227	smiling	124	sub-06	2.0	6.0	124_smiling	0.0		179.47756662577513	
26.0	157.50443125398442	pulse	1.0	t		28.0	female	white	5.676880222841227	smiling	124	sub-06	2.0	6.0	124_smiling	0.0		180.17755382705764	
26.0	158.20442056826323	pulse	1.0	t		28.0	female	white	5.676880222841227	smiling	124	sub-06	2.0	6.0	124_smiling	0.0		180.87754314133645	
26.0	158.9044002231326	pulse	1.0	t		28.0	female	white	5.676880222841227	smiling	124	sub-06	2.0	6.0	124_smiling	0.0		181.5775227962058	
27.0	159.27093193980272	face	0.0		145	19.0	female	white	4.298846000795861	smiling	100	sub-06	2.0	6.0	100_smiling	0.0		181.94405451287594	1.233346876630094
27.0	159.60440825251635	pulse	0.0	t		19.0	female	white	4.298846000795861	smiling	100	sub-06	2.0	6.0	100_smiling	0.0		182.27753082558957	
27.0	160.30439273709044	pulse	0.0	t		19.0	female	white	4.298846000795861	smiling	100	sub-06	2.0	6.0	100_smiling	0.0		182.97751531016365	
27.0	160.50427881643282	fix	1.0		444	19.0	female	white	4.298846000795861	smiling	100	sub-06	2.0	6.0	100_smiling	0.0		183.17740138950603	3.766595468770902
27.0	161.00438627736048	pulse	1.0	t		19.0	female	white	4.298846000795861	smiling	100	sub-06	2.0	6.0	100_smiling	0.0		183.6775088504337	
27.0	161.70436955450805	pulse	1.0	t		19.0	female	white	4.298846000795861	smiling	100	sub-06	2.0	6.0	100_smiling	0.0		184.37749212758126	
27.0	162.4043443796727	pulse	1.0	t		19.0	female	white	4.298846000795861	smiling	100	sub-06	2.0	6.0	100_smiling	0.0		185.0774669527459	
27.0	163.1043358069469	pulse	1.0	t		19.0	female	white	4.298846000795861	smiling	100	sub-06	2.0	6.0	100_smiling	0.0		185.7774583800201	
27.0	163.8043453456139	pulse	1.0	t		19.0	female	white	4.298846000795861	smiling	100	sub-06	2.0	6.0	100_smiling	0.0		186.47746791868713	
28.0	164.27087428520372	face	0.0		145	30.0	female	black	2.7345801830481498	smiling	062	sub-06	2.0	6.0	062_smiling	0.0		186.94399685827693	1.2333345005122283
28.0	164.50433435803552	pulse	0.0	t		30.0	female	black	2.7345801830481498	smiling	062	sub-06	2.0	6.0	062_smiling	0.0		187.17745693110874	
28.0	165.20431672961377	pulse	0.0	t		30.0	female	black	2.7345801830481498	smiling	062	sub-06	2.0	6.0	062_smiling	0.0		187.87743930268698	
28.0	165.50420878571595	fix	1.0		444	30.0	female	black	2.7345801830481498	smiling	062	sub-06	2.0	6.0	062_smiling	0.0		188.17733135878916	3.7665915446359577
28.0	165.90431177916662	pulse	1.0	t		30.0	female	black	2.7345801830481498	smiling	062	sub-06	2.0	6.0	062_smiling	0.0		188.57743435223983	
28.0	166.60429837673655	pulse	1.0	t		30.0	female	black	2.7345801830481498	smiling	062	sub-06	2.0	6.0	062_smiling	0.0		189.27742094980977	
28.0	167.30427440932726	pulse	1.0	t		30.0	female	black	2.7345801830481498	smiling	062	sub-06	2.0	6.0	062_smiling	0.0		189.97739698240048	
28.0	168.00427459044113	pulse	1.0	t		30.0	female	black	2.7345801830481498	smiling	062	sub-06	2.0	6.0	062_smiling	0.0		190.67739716351434	
28.0	168.7042518304579	pulse	1.0	t		30.0	female	black	2.7345801830481498	smiling	062	sub-06	2.0	6.0	062_smiling	0.0		191.37737440353112	
29.0	169.2708003303519	face	0.0		145	22.0	female	west_asian	3.8205332272184642	neutral	066	sub-06	2.0	6.0	066_neutral	0.0		191.94392290342512	1.2333293689507627
29.0	169.40424929486335	pulse	0.0	t		22.0	female	west_asian	3.8205332272184642	neutral	066	sub-06	2.0	6.0	066_neutral	0.0		192.07737186793656	
29.0	170.10423408129373	pulse	0.0	t		22.0	female	west_asian	3.8205332272184642	neutral	066	sub-06	2.0	6.0	066_neutral	0.0		192.77735665436694	
29.0	170.50412969930267	fix	1.0		444	22.0	female	west_asian	3.8205332272184642	neutral	066	sub-06	2.0	6.0	066_neutral	0.0		193.17725227237588	3.7665948650578684
29.0	170.80481412881772	pulse	1.0	t		22.0	female	west_asian	3.8205332272184642	neutral	066	sub-06	2.0	6.0	066_neutral	0.0		193.47793670189094	
29.0	171.5042229729729	pulse	1.0	t		22.0	female	west_asian	3.8205332272184642	neutral	066	sub-06	2.0	6.0	066_neutral	0.0		194.17734554604613	
29.0	172.20420866497307	pulse	1.0	t		22.0	female	west_asian	3.8205332272184642	neutral	066	sub-06	2.0	6.0	066_neutral	0.0		194.87733123804628	
29.0	172.90418862169918	pulse	1.0	t		22.0	female	west_asian	3.8205332272184642	neutral	066	sub-06	2.0	6.0	066_neutral	0.0		195.5773111947724	
29.0	173.60417461555562	pulse	1.0	t		22.0	female	west_asian	3.8205332272184642	neutral	066	sub-06	2.0	6.0	066_neutral	0.0		196.27729718862884	
30.0	174.27072456436053	face	0.0		145	24.0	male	white	3.1153999204138483	smiling	012	sub-06	2.0	6.0	012_smiling	0.0		196.94384713743375	1.2333139742672756
30.0	174.3042786353185	pulse	0.0	t		24.0	male	white	3.1153999204138483	smiling	012	sub-06	2.0	6.0	012_smiling	0.0		196.9774012083917	
30.0	175.00417044993537	pulse	0.0	t		24.0	male	white	3.1153999204138483	smiling	012	sub-06	2.0	6.0	012_smiling	0.0		197.6772930230086	
30.0	175.5040385386278	fix	1.0		443	24.0	male	white	3.1153999204138483	smiling	012	sub-06	2.0	6.0	012_smiling	0.0		198.17716111170103	3.7666217302903533
30.0	175.70415976421373	pulse	1.0	t		24.0	male	white	3.1153999204138483	smiling	012	sub-06	2.0	6.0	012_smiling	0.0		198.37728233728694	
30.0	176.40413881537006	pulse	1.0	t		24.0	male	white	3.1153999204138483	smiling	012	sub-06	2.0	6.0	012_smiling	0.0		199.07726138844328	
30.0	177.10412058323527	pulse	1.0	t		24.0	male	white	3.1153999204138483	smiling	012	sub-06	2.0	6.0	012_smiling	0.0		199.7772431563085	
30.0	177.80411201050947	pulse	1.0	t		24.0	male	white	3.1153999204138483	smiling	012	sub-06	2.0	6.0	012_smiling	0.0		200.47723458358269	
30.0	178.5041149083322	pulse	1.0	t		24.0	male	white	3.1153999204138483	smiling	012	sub-06	2.0	6.0	012_smiling	0.0		201.17723748140543	
30.0	179.20410150590214	pulse	1.0	t		24.0	male	white	3.1153999204138483	smiling	012	sub-06	2.0	6.0	012_smiling	0.0		201.87722407897536	
31.0	179.27066026891816	face	0.0		146	20.0	male	black	2.609629924393156	smiling	043	sub-06	2.0	6.0	043_smiling	0.0		201.94378284199138	1.2332967684446885
31.0	179.9040908201805	pulse	0.0	t		20.0	male	black	2.609629924393156	smiling	043	sub-06	2.0	6.0	043_smiling	0.0		202.57721339325371	
31.0	180.50395703736285	fix	1.0		443	20.0	male	black	2.609629924393156	smiling	043	sub-06	2.0	6.0	043_smiling	0.0		203.17707961043607	3.766616598728433
31.0	180.60409552914234	pulse	1.0	t		20.0	male	black	2.609629924393156	smiling	043	sub-06	2.0	6.0	043_smiling	0.0		203.27721810221556	
31.0	181.30406341160688	pulse	1.0	t		20.0	male	black	2.609629924393156	smiling	043	sub-06	2.0	6.0	043_smiling	0.0		203.9771859846801	
31.0	182.00406540385984	pulse	1.0	t		20.0	male	black	2.609629924393156	smiling	043	sub-06	2.0	6.0	043_smiling	0.0		204.67718797693306	
31.0	182.70403962531145	pulse	1.0	t		20.0	male	black	2.609629924393156	smiling	043	sub-06	2.0	6.0	043_smiling	0.0		205.37716219838467	
31.0	183.40405218254364	pulse	1.0	t		20.0	male	black	2.609629924393156	smiling	043	sub-06	2.0	6.0	043_smiling	0.0		206.07717475561685	
31.0	184.10403274298233	pulse	1.0	t		20.0	male	black	2.609629924393156	smiling	043	sub-06	2.0	6.0	043_smiling	0.0		206.77715531605554	
32.0	184.27057363609129	face	0.0		146	27.0	female	white	4.181058495821727	neutral	039	sub-06	2.0	6.0	039_neutral	0.0		206.9436962091645	1.2333157854068304
32.0	184.80401360527776	pulse	0.0	t		27.0	female	white	4.181058495821727	neutral	039	sub-06	2.0	6.0	039_neutral	0.0		207.47713617835097	
32.0	185.50388942149812	fix	1.0		444	27.0	female	white	4.181058495821727	neutral	039	sub-06	2.0	6.0	039_neutral	0.0		208.17701199457133	3.7666099578850663
32.0	185.51137274694293	pulse	1.0	t		27.0	female	white	4.181058495821727	neutral	039	sub-06	2.0	6.0	039_neutral	0.0		208.18449532001614	
32.0	186.2039913282656	pulse	1.0	t		27.0	female	white	4.181058495821727	neutral	039	sub-06	2.0	6.0	039_neutral	0.0		208.87711390133882	
32.0	186.90399150937947	pulse	1.0	t		27.0	female	white	4.181058495821727	neutral	039	sub-06	2.0	6.0	039_neutral	0.0		209.57711408245268	
32.0	187.60397871066198	pulse	1.0	t		27.0	female	white	4.181058495821727	neutral	039	sub-06	2.0	6.0	039_neutral	0.0		210.2771012837352	
32.0	188.3039656100882	pulse	1.0	t		27.0	female	white	4.181058495821727	neutral	039	sub-06	2.0	6.0	039_neutral	0.0		210.9770881831614	
32.0	189.0039491890925	pulse	1.0	t		27.0	female	white	4.181058495821727	neutral	039	sub-06	2.0	6.0	039_neutral	0.0		211.67707176216572	
33.0	189.27049937938318	face	0.0		145	31.0	male	west_asian	1.9538400318344609	smiling	070	sub-06	2.0	6.0	070_smiling	0.0		211.9436219524564	1.2333079371364875
33.0	189.70394061636716	pulse	0.0	t		31.0	male	west_asian	1.9538400318344609	smiling	070	sub-06	2.0	6.0	070_smiling	0.0		212.37706318944038	
33.0	190.40392932693248	pulse	0.0	t		31.0	male	west_asian	1.9538400318344609	smiling	070	sub-06	2.0	6.0	070_smiling	0.0		213.0770519000057	
33.0	190.50380731651967	fix	1.0		444	31.0	male	west_asian	1.9538400318344609	smiling	070	sub-06	2.0	6.0	070_smiling	0.0		213.17692988959288	3.766617202441921
33.0	191.10391864121084	pulse	1.0	t		31.0	male	west_asian	1.9538400318344609	smiling	070	sub-06	2.0	6.0	070_smiling	0.0		213.77704121428405	
33.0	191.80390795548965	pulse	1.0	t		31.0	male	west_asian	1.9538400318344609	smiling	070	sub-06	2.0	6.0	070_smiling	0.0		214.47703052856286	
33.0	192.50390602360767	pulse	1.0	t		31.0	male	west_asian	1.9538400318344609	smiling	070	sub-06	2.0	6.0	070_smiling	0.0		215.17702859668088	
33.0	193.20388265991141	pulse	1.0	t		31.0	male	west_asian	1.9538400318344609	smiling	070	sub-06	2.0	6.0	070_smiling	0.0		215.87700523298463	
33.0	193.90387891689033	pulse	1.0	t		31.0	male	west_asian	1.9538400318344609	smiling	070	sub-06	2.0	6.0	070_smiling	0.0		216.57700148996355	
34.0	194.2704245189616	face	0.0		145	27.0	female	white	3.504576203740549	neutral	144	sub-06	2.0	6.0	144_neutral	0.0		216.9435470920348	1.2333308782335735
34.0	194.60388181471308	pulse	0.0	t		27.0	female	white	3.504576203740549	neutral	144	sub-06	2.0	6.0	144_neutral	0.0		217.2770043877863	
34.0	195.303863280722	pulse	0.0	t		27.0	female	white	3.504576203740549	neutral	144	sub-06	2.0	6.0	144_neutral	0.0		217.9769858537952	
34.0	195.50375539719516	fix	1.0		444	27.0	female	white	3.504576203740549	neutral	144	sub-06	2.0	6.0	144_neutral	0.0		218.17687797026838	3.76657464066966
34.0	196.00385742470507	pulse	1.0	t		27.0	female	white	3.504576203740549	neutral	144	sub-06	2.0	6.0	144_neutral	0.0		218.6769799977783	
34.0	196.70384160742242	pulse	1.0	t		27.0	female	white	3.504576203740549	neutral	144	sub-06	2.0	6.0	144_neutral	0.0		219.37696418049563	
34.0	197.40381945115223	pulse	1.0	t		27.0	female	white	3.504576203740549	neutral	144	sub-06	2.0	6.0	144_neutral	0.0		220.07694202422545	
34.0	198.10382385825778	pulse	1.0	t		27.0	female	white	3.504576203740549	neutral	144	sub-06	2.0	6.0	144_neutral	0.0		220.776946431331	
34.0	198.80381619110176	pulse	1.0	t		27.0	female	white	3.504576203740549	neutral	144	sub-06	2.0	6.0	144_neutral	0.0		221.47693876417497	
35.0	199.27033003786482	face	0.0		145	25.0	female	west_asian	2.6756864305610826	smiling	064	sub-06	2.0	6.0	064_smiling	1.0	attractiveness	221.94345261093804	1.2333501970520047
35.0	199.50379433668832	pulse	0.0	t		25.0	female	west_asian	2.6756864305610826	smiling	064	sub-06	2.0	6.0	064_smiling	1.0	attractiveness	222.17691690976153	
35.0	200.20379300851982	pulse	0.0	t		25.0	female	west_asian	2.6756864305610826	smiling	064	sub-06	2.0	6.0	064_smiling	1.0	attractiveness	222.87691558159304	
35.0	200.50368023491683	fix	1.0		177	25.0	female	west_asian	2.6756864305610826	smiling	064	sub-06	2.0	6.0	064_smiling	1.0	attractiveness	223.17680280799004	1.4999655883548257
35.0	200.9037814172284	pulse	1.0	t		25.0	female	west_asian	2.6756864305610826	smiling	064	sub-06	2.0	6.0	064_smiling	1.0	attractiveness	223.57690399030162	
35.0	201.60376258138058	pulse	1.0	t		25.0	female	west_asian	2.6756864305610826	smiling	064	sub-06	2.0	6.0	064_smiling	1.0	attractiveness	224.2768851544538	
35.0	202.00364582327165	rating	2.0		294	25.0	female	west_asian	2.6756864305610826	smiling	064	sub-06	2.0	6.0	064_smiling	1.0	attractiveness	224.67676839634487	2.4999740403377473
35.0	202.2986275790622	pulse	2.0	t		25.0	female	west_asian	2.6756864305610826	smiling	064	sub-06	2.0	6.0	064_smiling	1.0	attractiveness	224.97175015213543	
35.0	202.9985073194175	pulse	2.0	t		25.0	female	west_asian	2.6756864305610826	smiling	064	sub-06	2.0	6.0	064_smiling	1.0	attractiveness	225.67162989249073	
35.0	203.44539415219378	response	2.0	w		25.0	female	west_asian	2.6756864305610826	smiling	064	sub-06	2.0	6.0	064_smiling	1.0	attractiveness	226.118516725267	
35.0	203.69856666441274	pulse	2.0	t		25.0	female	west_asian	2.6756864305610826	smiling	064	sub-06	2.0	6.0	064_smiling	1.0	attractiveness	226.37168923748595	
35.0	204.4037291960476	pulse	2.0	t		25.0	female	west_asian	2.6756864305610826	smiling	064	sub-06	2.0	6.0	064_smiling	1.0	attractiveness	227.07685176912082	
35.0	204.5036198636094	fix	3.0		444	25.0	female	west_asian	2.6756864305610826	smiling	064	sub-06	2.0	6.0	064_smiling	1.0	attractiveness	227.17674243668262	3.7665776592352813
35.0	205.1037206233218	pulse	3.0	t		25.0	female	west_asian	2.6756864305610826	smiling	064	sub-06	2.0	6.0	064_smiling	1.0	attractiveness	227.77684319639502	
35.0	205.80370058004746	pulse	3.0	t		25.0	female	west_asian	2.6756864305610826	smiling	064	sub-06	2.0	6.0	064_smiling	1.0	attractiveness	228.47682315312068	
35.0	206.50369472403054	pulse	3.0	t		25.0	female	west_asian	2.6756864305610826	smiling	064	sub-06	2.0	6.0	064_smiling	1.0	attractiveness	229.17681729710375	
35.0	207.20367800117856	pulse	3.0	t		25.0	female	west_asian	2.6756864305610826	smiling	064	sub-06	2.0	6.0	064_smiling	1.0	attractiveness	229.87680057425177	
35.0	207.90370655680726	pulse	3.0	t		25.0	female	west_asian	2.6756864305610826	smiling	064	sub-06	2.0	6.0	064_smiling	1.0	attractiveness	230.57682912988048	
36.0	208.27019752284468	face	0.0		145	23.0	male	white	2.6275368085953046	neutral	141	sub-06	2.0	6.0	141_neutral	1.0	dominance	230.9433200959179	1.2333444617775058
36.0	208.60365995015763	pulse	0.0	t		23.0	male	white	2.6275368085953046	neutral	141	sub-06	2.0	6.0	141_neutral	1.0	dominance	231.27678252323085	
36.0	209.30364262359217	pulse	0.0	t		23.0	male	white	2.6275368085953046	neutral	141	sub-06	2.0	6.0	141_neutral	1.0	dominance	231.97676519666538	
36.0	209.5035419846222	fix	1.0		177	23.0	male	white	2.6275368085953046	neutral	141	sub-06	2.0	6.0	141_neutral	1.0	dominance	232.1766645576954	1.4999803793252795
36.0	210.00364461584513	pulse	1.0	t		23.0	male	white	2.6275368085953046	neutral	141	sub-06	2.0	6.0	141_neutral	1.0	dominance	232.67676718891835	
36.0	210.70364057096776	pulse	1.0	t		23.0	male	white	2.6275368085953046	neutral	141	sub-06	2.0	6.0	141_neutral	1.0	dominance	233.37676314404098	
36.0	211.00352236394747	rating	2.0		295	23.0	male	white	2.6275368085953046	neutral	141	sub-06	2.0	6.0	141_neutral	1.0	dominance	233.67664493702068	2.499960154936616
36.0	211.39848957025288	pulse	2.0	t		23.0	male	white	2.6275368085953046	neutral	141	sub-06	2.0	6.0	141_neutral	1.0	dominance	234.0716121433261	
36.0	212.09836599018627	pulse	2.0	t		23.0	male	white	2.6275368085953046	neutral	141	sub-06	2.0	6.0	141_neutral	1.0	dominance	234.77148856325948	
36.0	212.32027703185668	response	2.0	n		23.0	male	white	2.6275368085953046	neutral	141	sub-06	2.0	6.0	141_neutral	1.0	dominance	234.9933996049299	
36.0	212.80359553397238	pulse	2.0	t		23.0	male	white	2.6275368085953046	neutral	141	sub-06	2.0	6.0	141_neutral	1.0	dominance	235.4767181070456	
36.0	213.50348251888408	fix	3.0		444	23.0	male	white	2.6275368085953046	neutral	141	sub-06	2.0	6.0	141_neutral	1.0	dominance	236.1766050919573	3.766593959488546
36.0	213.51135584297663	pulse	3.0	t		23.0	male	white	2.6275368085953046	neutral	141	sub-06	2.0	6.0	141_neutral	1.0	dominance	236.18447841604984	
36.0	214.20358653864741	pulse	3.0	t		23.0	male	white	2.6275368085953046	neutral	141	sub-06	2.0	6.0	141_neutral	1.0	dominance	236.87670911172063	
36.0	214.9035577415334	pulse	3.0	t		23.0	male	white	2.6275368085953046	neutral	141	sub-06	2.0	6.0	141_neutral	1.0	dominance	237.57668031460662	
36.0	215.60355007437738	pulse	3.0	t		23.0	male	white	2.6275368085953046	neutral	141	sub-06	2.0	6.0	141_neutral	1.0	dominance	238.2766726474506	
36.0	216.30353969051248	pulse	3.0	t		23.0	male	white	2.6275368085953046	neutral	141	sub-06	2.0	6.0	141_neutral	1.0	dominance	238.9766622635857	
36.0	217.0035232695168	pulse	3.0	t		23.0	male	white	2.6275368085953046	neutral	141	sub-06	2.0	6.0	141_neutral	1.0	dominance	239.67664584259	
37.0	217.27007647837263	face	0.0		145	32.0	male	white	2.389176283326701	smiling	092	sub-06	2.0	6.0	092_smiling	0.0		239.94319905144584	1.2333302745205401
37.0	217.70353884531414	pulse	0.0	t		32.0	male	white	2.389176283326701	smiling	092	sub-06	2.0	6.0	092_smiling	0.0		240.37666141838736	
37.0	218.40349103123845	pulse	0.0	t		32.0	male	white	2.389176283326701	smiling	092	sub-06	2.0	6.0	092_smiling	0.0		241.07661360431166	
37.0	218.50340675289317	fix	1.0		444	32.0	male	white	2.389176283326701	smiling	092	sub-06	2.0	6.0	092_smiling	0.0		241.17652932596638	3.766596374340679
37.0	219.10350177733153	pulse	1.0	t		32.0	male	white	2.389176283326701	smiling	092	sub-06	2.0	6.0	092_smiling	0.0		241.77662435040475	
37.0	219.80349893987977	pulse	1.0	t		32.0	male	white	2.389176283326701	smiling	092	sub-06	2.0	6.0	092_smiling	0.0		242.476621512953	
37.0	220.50349097086746	pulse	1.0	t		32.0	male	white	2.389176283326701	smiling	092	sub-06	2.0	6.0	092_smiling	0.0		243.17661354394068	
37.0	221.20346307932323	pulse	1.0	t		32.0	male	white	2.389176283326701	smiling	092	sub-06	2.0	6.0	092_smiling	0.0		243.87658565239644	
37.0	221.90346869385485	pulse	1.0	t		32.0	male	white	2.389176283326701	smiling	092	sub-06	2.0	6.0	092_smiling	0.0		244.57659126692806	
38.0	222.27000312723385	face	0.0		145	23.0	male	white	2.6275368085953046	smiling	141	sub-06	2.0	6.0	141_smiling	0.0		244.94312570030706	1.233307333423454
38.0	222.60345891370298	pulse	0.0	t		23.0	male	white	2.6275368085953046	smiling	141	sub-06	2.0	6.0	141_smiling	0.0		245.2765814867762	
38.0	223.30343555000672	pulse	0.0	t		23.0	male	white	2.6275368085953046	smiling	141	sub-06	2.0	6.0	141_smiling	0.0		245.97655812307994	
38.0	223.5033104606573	fix	1.0		444	23.0	male	white	2.6275368085953046	smiling	141	sub-06	2.0	6.0	141_smiling	0.0		246.17643303373052	3.7583864802077187
38.0	224.00343844782947	pulse	1.0	t		23.0	male	white	2.6275368085953046	smiling	141	sub-06	2.0	6.0	141_smiling	0.0		246.67656102090268	
38.0	224.7034208194077	pulse	1.0	t		23.0	male	white	2.6275368085953046	smiling	141	sub-06	2.0	6.0	141_smiling	0.0		247.37654339248093	
38.0	225.40339866313798	pulse	1.0	t		23.0	male	white	2.6275368085953046	smiling	141	sub-06	2.0	6.0	141_smiling	0.0		248.0765212362112	
38.0	226.10339009041218	pulse	1.0	t		23.0	male	white	2.6275368085953046	smiling	141	sub-06	2.0	6.0	141_smiling	0.0		248.7765126634854	
38.0	226.80338393253896	pulse	1.0	t		23.0	male	white	2.6275368085953046	smiling	141	sub-06	2.0	6.0	141_smiling	0.0		249.47650650561218	
39.0	227.26169694086502	face	0.0		146	31.0	female	east_asian	3.395941106247513	neutral	087	sub-06	2.0	6.0	087_neutral	0.0		249.93481951393824	1.2415456020712554
39.0	227.50338411365283	pulse	0.0	t		31.0	female	east_asian	3.395941106247513	neutral	087	sub-06	2.0	6.0	087_neutral	0.0		250.17650668672604	
39.0	228.20337191864837	pulse	0.0	t		31.0	female	east_asian	3.395941106247513	neutral	087	sub-06	2.0	6.0	087_neutral	0.0		250.8764944917216	
39.0	228.50324254293628	fix	1.0		444	31.0	female	east_asian	3.395941106247513	neutral	087	sub-06	2.0	6.0	087_neutral	0.0		251.1763651160095	3.74996045679336
39.0	228.90335368651358	pulse	1.0	t		31.0	female	east_asian	3.395941106247513	neutral	087	sub-06	2.0	6.0	087_neutral	0.0		251.5764762595868	
39.0	229.60334541564453	pulse	1.0	t		31.0	female	east_asian	3.395941106247513	neutral	087	sub-06	2.0	6.0	087_neutral	0.0		252.27646798871774	
39.0	230.30334257819277	pulse	1.0	t		31.0	female	east_asian	3.395941106247513	neutral	087	sub-06	2.0	6.0	087_neutral	0.0		252.97646515126598	
39.0	231.00333008133248	pulse	1.0	t		31.0	female	east_asian	3.395941106247513	neutral	087	sub-06	2.0	6.0	087_neutral	0.0		253.6764526544057	
39.0	231.7033187918978	pulse	1.0	t		31.0	female	east_asian	3.395941106247513	neutral	087	sub-06	2.0	6.0	087_neutral	0.0		254.37644136497101	
40.0	232.25320299972964	fix	0.0		720													254.92632557280285	5.99989042607649
40.0	232.4033023709021	pulse	0.0	t														255.07642494397533	
40.0	233.10328383691058	pulse	0.0	t														255.7764064099838	
40.0	233.80327737718062	pulse	0.0	t														256.47639995025384	
40.0	234.50327393601629	pulse	0.0	t														257.1763965090895	
40.0	235.20327079670824	pulse	0.0	t														257.87639336978145	
40.0	235.90325769613446	pulse	0.0	t														258.5763802692077	
40.0	236.60322859716416	pulse	0.0	t														259.2763511702374	
40.0	237.30323783397398	pulse	0.0	t														259.9763604070472	
40.0	238.00320662200784	pulse	0.0	t														260.67632919508105	
