trial_nr	onset	event_type	phase	response	nr_frames	face_age	face_sex	face_eth	attractiveness	expression	face_id	sub_id	ses	run	trial_type	catch	rating_type	onset_abs	duration
-1.0	0.05627792132600007	fix	0.0		714													27.18796002270028	5.966273453912436
-1.0	0.7061777064072885	pulse	0.0	t														27.83785980778157	
-1.0	1.4061330322865615	pulse	0.0	t														28.537815133660843	
-1.0	2.1061257878345714	pulse	0.0	t														29.237807889208852	
-1.0	2.806108582261004	pulse	0.0	t														29.937790683635285	
-1.0	3.506089565574257	pulse	0.0	t														30.637771666948538	
-1.0	4.206062700732218	pulse	0.0	t														31.3377448021065	
-1.0	4.90604911738501	pulse	0.0	t														32.03773121875929	
-1.0	5.606028289585083	pulse	0.0	t														32.737710390959364	
0.0	6.022551375238436	face	0.0		144	27.0	male	black	3.5523278949462798	neutral	042	sub-07	2.0	3.0	042_neutral	0.0		33.15423347661272	1.233327195673155
0.0	6.306011084011516	pulse	0.0	t		27.0	male	black	3.5523278949462798	neutral	042	sub-07	2.0	3.0	042_neutral	0.0		33.4376931853858	
0.0	7.005986935838337	pulse	0.0	t		27.0	male	black	3.5523278949462798	neutral	042	sub-07	2.0	3.0	042_neutral	0.0		34.13766903721262	
0.0	7.255878570911591	fix	1.0		445	27.0	male	black	3.5523278949462798	neutral	042	sub-07	2.0	3.0	042_neutral	0.0		34.38756067228587	3.75818924923351
0.0	7.7059691265612855	pulse	1.0	t		27.0	male	black	3.5523278949462798	neutral	042	sub-07	2.0	3.0	042_neutral	0.0		34.83765122793557	
0.0	8.405951317283325	pulse	1.0	t		27.0	male	black	3.5523278949462798	neutral	042	sub-07	2.0	3.0	042_neutral	0.0		35.537633418657606	
0.0	9.105922037622804	pulse	1.0	t		27.0	male	black	3.5523278949462798	neutral	042	sub-07	2.0	3.0	042_neutral	0.0		36.237604138997085	
0.0	9.805887928328957	pulse	1.0	t		27.0	male	black	3.5523278949462798	neutral	042	sub-07	2.0	3.0	042_neutral	0.0		36.93757002970324	
0.0	10.505885513511203	pulse	1.0	t		27.0	male	black	3.5523278949462798	neutral	042	sub-07	2.0	3.0	042_neutral	0.0		37.637567614885484	
1.0	11.014067820145101	face	0.0		146	24.0	female	east_asian	4.409868682849185	neutral	030	sub-07	2.0	3.0	030_neutral	1.0	attractiveness	38.14574992151938	1.241663748762221
1.0	11.205865893120972	pulse	0.0	t		24.0	female	east_asian	4.409868682849185	neutral	030	sub-07	2.0	3.0	030_neutral	1.0	attractiveness	38.33754799449525	
1.0	11.905840537539007	pulse	0.0	t		24.0	female	east_asian	4.409868682849185	neutral	030	sub-07	2.0	3.0	030_neutral	1.0	attractiveness	39.03752263891329	
1.0	12.255731568907322	fix	1.0		177	24.0	female	east_asian	4.409868682849185	neutral	030	sub-07	2.0	3.0	030_neutral	1.0	attractiveness	39.3874136702816	1.5083096882472091
1.0	12.605823633817636	pulse	1.0	t		24.0	female	east_asian	4.409868682849185	neutral	030	sub-07	2.0	3.0	030_neutral	1.0	attractiveness	39.73750573519192	
1.0	13.305795259713705	pulse	1.0	t		24.0	female	east_asian	4.409868682849185	neutral	030	sub-07	2.0	3.0	030_neutral	1.0	attractiveness	40.437477361087986	
1.0	13.764041257154531	rating	2.0		293	24.0	female	east_asian	4.409868682849185	neutral	030	sub-07	2.0	3.0	030_neutral	1.0	attractiveness	40.89572335852881	2.491535763444517
1.0	14.000534580184649	pulse	2.0	t		24.0	female	east_asian	4.409868682849185	neutral	030	sub-07	2.0	3.0	030_neutral	1.0	attractiveness	41.13221668155893	
1.0	14.700518280167671	pulse	2.0	t		24.0	female	east_asian	4.409868682849185	neutral	030	sub-07	2.0	3.0	030_neutral	1.0	attractiveness	41.83220038154195	
1.0	15.400497150515548	pulse	2.0	t		24.0	female	east_asian	4.409868682849185	neutral	030	sub-07	2.0	3.0	030_neutral	1.0	attractiveness	42.53217925188983	
1.0	15.847393506556728	response	2.0	y		24.0	female	east_asian	4.409868682849185	neutral	030	sub-07	2.0	3.0	030_neutral	1.0	attractiveness	42.97907560793101	
1.0	16.100466361594954	pulse	2.0	t		24.0	female	east_asian	4.409868682849185	neutral	030	sub-07	2.0	3.0	030_neutral	1.0	attractiveness	43.232148462969235	
1.0	16.25557702059905	fix	3.0		444	24.0	female	east_asian	4.409868682849185	neutral	030	sub-07	2.0	3.0	030_neutral	1.0	attractiveness	43.38725912197333	3.758246601144492
1.0	16.80570017628179	pulse	3.0	t		24.0	female	east_asian	4.409868682849185	neutral	030	sub-07	2.0	3.0	030_neutral	1.0	attractiveness	43.93738227765607	
1.0	17.505675726256413	pulse	3.0	t		24.0	female	east_asian	4.409868682849185	neutral	030	sub-07	2.0	3.0	030_neutral	1.0	attractiveness	44.637357827630694	
1.0	18.205646748449	pulse	3.0	t		24.0	female	east_asian	4.409868682849185	neutral	030	sub-07	2.0	3.0	030_neutral	1.0	attractiveness	45.33732884982328	
1.0	18.905638296588222	pulse	3.0	t		24.0	female	east_asian	4.409868682849185	neutral	030	sub-07	2.0	3.0	030_neutral	1.0	attractiveness	46.0373203979625	
1.0	19.60560720581543	pulse	3.0	t		24.0	female	east_asian	4.409868682849185	neutral	030	sub-07	2.0	3.0	030_neutral	1.0	attractiveness	46.73728930718971	
2.0	20.01382362174354	face	0.0		146	37.0	male	white	3.898925586947871	neutral	101	sub-07	2.0	3.0	101_neutral	0.0		47.14550572311782	1.2416405061458136
2.0	20.305606602110856	pulse	0.0	t		37.0	male	white	3.898925586947871	neutral	101	sub-07	2.0	3.0	101_neutral	0.0		47.43728870348514	
2.0	21.005574907633672	pulse	0.0	t		37.0	male	white	3.898925586947871	neutral	101	sub-07	2.0	3.0	101_neutral	0.0		48.13725700900795	
2.0	21.255464127889354	fix	1.0		444	37.0	male	white	3.898925586947871	neutral	101	sub-07	2.0	3.0	101_neutral	0.0		48.387146229263635	3.7582070585103793
2.0	21.705553174278066	pulse	1.0	t		37.0	male	white	3.898925586947871	neutral	101	sub-07	2.0	3.0	101_neutral	0.0		48.83723527565235	
2.0	22.40552419646974	pulse	1.0	t		37.0	male	white	3.898925586947871	neutral	101	sub-07	2.0	3.0	101_neutral	0.0		49.53720629784402	
2.0	23.1055054816361	pulse	1.0	t		37.0	male	white	3.898925586947871	neutral	101	sub-07	2.0	3.0	101_neutral	0.0		50.23718758301038	
2.0	23.80549491680995	pulse	1.0	t		37.0	male	white	3.898925586947871	neutral	101	sub-07	2.0	3.0	101_neutral	0.0		50.93717701818423	
2.0	24.505465637150337	pulse	1.0	t		37.0	male	white	3.898925586947871	neutral	101	sub-07	2.0	3.0	101_neutral	0.0		51.63714773852462	
3.0	25.013671186399733	face	0.0		146	25.0	female	west_asian	2.6756864305610826	neutral	064	sub-07	2.0	3.0	064_neutral	0.0		52.145353287774014	1.2416453357809587
3.0	25.205449035281163	pulse	0.0	t		25.0	female	west_asian	2.6756864305610826	neutral	064	sub-07	2.0	3.0	064_neutral	0.0		52.337131136655444	
3.0	25.90542066117723	pulse	0.0	t		25.0	female	west_asian	2.6756864305610826	neutral	064	sub-07	2.0	3.0	064_neutral	0.0		53.03710276255151	
3.0	26.255316522180692	fix	1.0		444	25.0	female	west_asian	2.6756864305610826	neutral	064	sub-07	2.0	3.0	064_neutral	0.0		53.38699862355497	3.758290067856251
3.0	26.605388966700048	pulse	1.0	t		25.0	female	west_asian	2.6756864305610826	neutral	064	sub-07	2.0	3.0	064_neutral	0.0		53.73707106807433	
3.0	27.30539289077842	pulse	1.0	t		25.0	female	west_asian	2.6756864305610826	neutral	064	sub-07	2.0	3.0	064_neutral	0.0		54.4370749921527	
3.0	28.005355461109502	pulse	1.0	t		25.0	female	west_asian	2.6756864305610826	neutral	064	sub-07	2.0	3.0	064_neutral	0.0		55.13703756248378	
3.0	28.705339764796918	pulse	1.0	t		25.0	female	west_asian	2.6756864305610826	neutral	064	sub-07	2.0	3.0	064_neutral	0.0		55.8370218661712	
3.0	29.405327690710692	pulse	1.0	t		25.0	female	west_asian	2.6756864305610826	neutral	064	sub-07	2.0	3.0	064_neutral	0.0		56.53700979208497	
4.0	30.013606590036943	face	0.0		146	27.0	female	white	4.181058495821727	neutral	039	sub-07	2.0	3.0	039_neutral	0.0		57.145288691411224	1.2415593079131213
4.0	30.10530293883312	pulse	0.0	t		27.0	female	white	4.181058495821727	neutral	039	sub-07	2.0	3.0	039_neutral	0.0		57.2369850402074	
4.0	30.805283620294176	pulse	0.0	t		27.0	female	white	4.181058495821727	neutral	039	sub-07	2.0	3.0	039_neutral	0.0		57.93696572166846	
4.0	31.255165897950064	fix	1.0		444	27.0	female	white	4.181058495821727	neutral	039	sub-07	2.0	3.0	039_neutral	0.0		58.386847999324345	3.766537574557333
4.0	31.505261585086373	pulse	1.0	t		27.0	female	white	4.181058495821727	neutral	039	sub-07	2.0	3.0	039_neutral	0.0		58.636943686460654	
4.0	32.205229286904796	pulse	1.0	t		27.0	female	white	4.181058495821727	neutral	039	sub-07	2.0	3.0	039_neutral	0.0		59.33691138827908	
4.0	32.90521902393084	pulse	1.0	t		27.0	female	white	4.181058495821727	neutral	039	sub-07	2.0	3.0	039_neutral	0.0		60.03690112530512	
4.0	33.60520121465379	pulse	1.0	t		27.0	female	white	4.181058495821727	neutral	039	sub-07	2.0	3.0	039_neutral	0.0		60.73688331602807	
4.0	34.30517072758448	pulse	1.0	t		27.0	female	white	4.181058495821727	neutral	039	sub-07	2.0	3.0	039_neutral	0.0		61.43685282895876	
5.0	35.0217034725074	face	0.0		146	31.0	female	white	2.1822522881018704	smiling	102	sub-07	2.0	3.0	102_smiling	0.0		62.15338557388168	1.2333139141774154
5.0	35.008058849098234	pulse	0.0	t		31.0	female	white	2.1822522881018704	smiling	102	sub-07	2.0	3.0	102_smiling	0.0		62.139740950472515	
5.0	35.70512907198645	pulse	0.0	t		31.0	female	white	2.1822522881018704	smiling	102	sub-07	2.0	3.0	102_smiling	0.0		62.83681117336073	
5.0	36.25501738668481	fix	1.0		443	31.0	female	white	2.1822522881018704	smiling	102	sub-07	2.0	3.0	102_smiling	0.0		63.386699488059094	3.766543913453461
5.0	36.405116696047116	pulse	1.0	t		31.0	female	white	2.1822522881018704	smiling	102	sub-07	2.0	3.0	102_smiling	0.0		63.5367987974214	
5.0	37.10509315157833	pulse	1.0	t		31.0	female	white	2.1822522881018704	smiling	102	sub-07	2.0	3.0	102_smiling	0.0		64.23677525295261	
5.0	37.805066890439775	pulse	1.0	t		31.0	female	white	2.1822522881018704	smiling	102	sub-07	2.0	3.0	102_smiling	0.0		64.93674899181406	
5.0	38.50504968486712	pulse	1.0	t		31.0	female	white	2.1822522881018704	smiling	102	sub-07	2.0	3.0	102_smiling	0.0		65.6367317862414	
5.0	39.205017990389024	pulse	1.0	t		31.0	female	white	2.1822522881018704	smiling	102	sub-07	2.0	3.0	102_smiling	0.0		66.3367000917633	
5.0	39.90501195334582	pulse	1.0	t		31.0	female	white	2.1822522881018704	smiling	102	sub-07	2.0	3.0	102_smiling	0.0		67.0366940547201	
6.0	40.02156130013827	face	0.0		146	21.0	male	east_asian/white	3.501790688420215	neutral	036	sub-07	2.0	3.0	036_neutral	0.0		67.15324340151255	1.2333118012120394
6.0	40.60499504962445	pulse	0.0	t		21.0	male	east_asian/white	3.501790688420215	neutral	036	sub-07	2.0	3.0	036_neutral	0.0		67.73667715099873	
6.0	41.25487310135031	fix	1.0		443	21.0	male	east_asian/white	3.501790688420215	neutral	036	sub-07	2.0	3.0	036_neutral	0.0		68.3865552027246	3.766542706043765
6.0	41.30497150515566	pulse	1.0	t		21.0	male	east_asian/white	3.501790688420215	neutral	036	sub-07	2.0	3.0	036_neutral	0.0		68.43665360652994	
6.0	42.00494313105264	pulse	1.0	t		21.0	male	east_asian/white	3.501790688420215	neutral	036	sub-07	2.0	3.0	036_neutral	0.0		69.13662523242692	
6.0	42.70492803844445	pulse	1.0	t		21.0	male	east_asian/white	3.501790688420215	neutral	036	sub-07	2.0	3.0	036_neutral	0.0		69.83661013981873	
6.0	43.40490298471468	pulse	1.0	t		21.0	male	east_asian/white	3.501790688420215	neutral	036	sub-07	2.0	3.0	036_neutral	0.0		70.53658508608896	
6.0	44.10485408466411	pulse	1.0	t		21.0	male	east_asian/white	3.501790688420215	neutral	036	sub-07	2.0	3.0	036_neutral	0.0		71.23653618603839	
6.0	44.80486193282013	pulse	1.0	t		21.0	male	east_asian/white	3.501790688420215	neutral	036	sub-07	2.0	3.0	036_neutral	0.0		71.93654403419441	
7.0	45.02141580739408	face	0.0		145	40.0	male	white	1.868682849184242	smiling	172	sub-07	2.0	3.0	172_smiling	0.0		72.15309790876836	1.2333057641690175
7.0	45.50484774576853	pulse	0.0	t		40.0	male	white	1.868682849184242	smiling	172	sub-07	2.0	3.0	172_smiling	0.0		72.63652984714281	
7.0	46.204822390186564	pulse	0.0	t		40.0	male	white	1.868682849184242	smiling	172	sub-07	2.0	3.0	172_smiling	0.0		73.33650449156085	
7.0	46.254721571563095	fix	1.0		445	40.0	male	white	1.868682849184242	smiling	172	sub-07	2.0	3.0	172_smiling	0.0		73.38640367293738	3.7665457245666403
7.0	46.90481122165602	pulse	1.0	t		40.0	male	white	1.868682849184242	smiling	172	sub-07	2.0	3.0	172_smiling	0.0		74.0364933230303	
7.0	47.60477801791785	pulse	1.0	t		40.0	male	white	1.868682849184242	smiling	172	sub-07	2.0	3.0	172_smiling	0.0		74.73646011929213	
7.0	48.304754473449066	pulse	1.0	t		40.0	male	white	1.868682849184242	smiling	172	sub-07	2.0	3.0	172_smiling	0.0		75.43643657482335	
7.0	49.004741191954054	pulse	1.0	t		40.0	male	white	1.868682849184242	smiling	172	sub-07	2.0	3.0	172_smiling	0.0		76.13642329332833	
7.0	49.70471311970323	pulse	1.0	t		40.0	male	white	1.868682849184242	smiling	172	sub-07	2.0	3.0	172_smiling	0.0		76.83639522107751	
8.0	50.021267296129736	face	0.0		145	19.0	male	white	3.2522881018702745	smiling	018	sub-07	2.0	3.0	018_smiling	0.0		77.15294939750402	1.2333063678725011
8.0	50.40470164932049	pulse	0.0	t		19.0	male	white	3.2522881018702745	smiling	018	sub-07	2.0	3.0	018_smiling	0.0		77.53638375069477	
8.0	51.104676897442914	pulse	0.0	t		19.0	male	white	3.2522881018702745	smiling	018	sub-07	2.0	3.0	018_smiling	0.0		78.2363589988172	
8.0	51.25457366400224	fix	1.0		445	19.0	male	white	3.2522881018702745	smiling	018	sub-07	2.0	3.0	018_smiling	0.0		78.38625576537652	3.766529122697648
8.0	51.80465818260927	pulse	1.0	t		19.0	male	white	3.2522881018702745	smiling	018	sub-07	2.0	3.0	018_smiling	0.0		78.93634028398355	
8.0	52.50463554369617	pulse	1.0	t		19.0	male	white	3.2522881018702745	smiling	018	sub-07	2.0	3.0	018_smiling	0.0		79.63631764507045	
8.0	53.20460475477557	pulse	1.0	t		19.0	male	white	3.2522881018702745	smiling	018	sub-07	2.0	3.0	018_smiling	0.0		80.33628685614985	
8.0	53.90459147328056	pulse	1.0	t		19.0	male	white	3.2522881018702745	smiling	018	sub-07	2.0	3.0	018_smiling	0.0		81.03627357465484	
8.0	54.60457487141139	pulse	1.0	t		19.0	male	white	3.2522881018702745	smiling	018	sub-07	2.0	3.0	018_smiling	0.0		81.73625697278567	
9.0	55.021102786699885	face	0.0		145	21.0	male	black	2.969757262236371	smiling	137	sub-07	2.0	3.0	137_smiling	0.0		82.15278488807417	1.2333232715936902
9.0	55.30455555287244	pulse	0.0	t		21.0	male	black	2.969757262236371	smiling	137	sub-07	2.0	3.0	137_smiling	0.0		82.43623765424672	
9.0	56.00451057690043	pulse	0.0	t		21.0	male	black	2.969757262236371	smiling	137	sub-07	2.0	3.0	137_smiling	0.0		83.13619267827471	
9.0	56.254426058293575	fix	1.0		444	21.0	male	black	2.969757262236371	smiling	137	sub-07	2.0	3.0	137_smiling	0.0		83.38610815966786	3.7665421023402814
9.0	56.70451570838668	pulse	1.0	t		21.0	male	black	2.969757262236371	smiling	137	sub-07	2.0	3.0	137_smiling	0.0		83.83619780976096	
9.0	57.40448974910123	pulse	1.0	t		21.0	male	black	2.969757262236371	smiling	137	sub-07	2.0	3.0	137_smiling	0.0		84.53617185047551	
9.0	58.10446288425828	pulse	1.0	t		21.0	male	black	2.969757262236371	smiling	137	sub-07	2.0	3.0	137_smiling	0.0		85.23614498563256	
9.0	58.80444809350229	pulse	1.0	t		21.0	male	black	2.969757262236371	smiling	137	sub-07	2.0	3.0	137_smiling	0.0		85.93613019487657	
9.0	59.504425152737895	pulse	1.0	t		21.0	male	black	2.969757262236371	smiling	137	sub-07	2.0	3.0	137_smiling	0.0		86.63610725411218	
10.0	60.020968160633856	face	0.0		145	24.0	female	east_asian	2.9076800636689217	neutral	034	sub-07	2.0	3.0	034_neutral	0.0		87.15265026200814	1.2332855400736662
10.0	60.2044103619819	pulse	0.0	t		24.0	female	east_asian	2.9076800636689217	neutral	034	sub-07	2.0	3.0	034_neutral	0.0		87.33609246335618	
10.0	60.904385911956524	pulse	0.0	t		24.0	female	east_asian	2.9076800636689217	neutral	034	sub-07	2.0	3.0	034_neutral	0.0		88.0360680133308	
10.0	61.25425370070752	fix	1.0		444	24.0	female	east_asian	2.9076800636689217	neutral	034	sub-07	2.0	3.0	034_neutral	0.0		88.3859358020818	3.766565948661082
10.0	61.604367197121974	pulse	1.0	t		24.0	female	east_asian	2.9076800636689217	neutral	034	sub-07	2.0	3.0	034_neutral	0.0		88.73604929849625	
10.0	62.30434184154001	pulse	1.0	t		24.0	female	east_asian	2.9076800636689217	neutral	034	sub-07	2.0	3.0	034_neutral	0.0		89.43602394291429	
10.0	63.004355123035566	pulse	1.0	t		24.0	female	east_asian	2.9076800636689217	neutral	034	sub-07	2.0	3.0	034_neutral	0.0		90.13603722440985	
10.0	63.70430169520205	pulse	1.0	t		24.0	female	east_asian	2.9076800636689217	neutral	034	sub-07	2.0	3.0	034_neutral	0.0		90.83598379657633	
10.0	64.40427754702887	pulse	1.0	t		24.0	female	east_asian	2.9076800636689217	neutral	034	sub-07	2.0	3.0	034_neutral	0.0		91.53595964840315	
11.0	65.0208196493686	face	0.0		145	30.0	female	black	2.7345801830481498	neutral	062	sub-07	2.0	3.0	062_neutral	0.0		92.15250175074289	1.2333066697256072
11.0	65.1042678877593	pulse	0.0	t		30.0	female	black	2.7345801830481498	neutral	062	sub-07	2.0	3.0	062_neutral	0.0		92.23594998913359	
11.0	65.80424162662166	pulse	0.0	t		30.0	female	black	2.7345801830481498	neutral	062	sub-07	2.0	3.0	062_neutral	0.0		92.93592372799594	
11.0	66.25412631909421	fix	1.0		444	30.0	female	black	2.7345801830481498	neutral	062	sub-07	2.0	3.0	062_neutral	0.0		93.38580842046849	3.7665390838183157
11.0	66.50421868585636	pulse	1.0	t		30.0	female	black	2.7345801830481498	neutral	062	sub-07	2.0	3.0	062_neutral	0.0		93.63590078723064	
11.0	67.20419634879636	pulse	1.0	t		30.0	female	black	2.7345801830481498	neutral	062	sub-07	2.0	3.0	062_neutral	0.0		94.33587845017064	
11.0	67.90417159691879	pulse	1.0	t		30.0	female	black	2.7345801830481498	neutral	062	sub-07	2.0	3.0	062_neutral	0.0		95.03585369829307	
11.0	68.60415982468476	pulse	1.0	t		30.0	female	black	2.7345801830481498	neutral	062	sub-07	2.0	3.0	062_neutral	0.0		95.73584192605904	
11.0	69.30413235613742	pulse	1.0	t		30.0	female	black	2.7345801830481498	neutral	062	sub-07	2.0	3.0	062_neutral	0.0		96.4358144575117	
12.0	70.02066540291253	face	0.0		146	32.0	male	white	2.389176283326701	neutral	092	sub-07	2.0	3.0	092_neutral	0.0		97.15234750428681	1.2333130086208257
12.0	70.0067370384686	pulse	0.0	t		32.0	male	white	2.389176283326701	neutral	092	sub-07	2.0	3.0	092_neutral	0.0		97.13841913984288	
12.0	70.70409553017362	pulse	0.0	t		32.0	male	white	2.389176283326701	neutral	092	sub-07	2.0	3.0	092_neutral	0.0		97.8357776315479	
12.0	71.25397841153335	fix	1.0		443	32.0	male	white	2.389176283326701	neutral	092	sub-07	2.0	3.0	092_neutral	0.0		98.38566051290763	3.7665451208613376
12.0	71.40408013571323	pulse	1.0	t		32.0	male	white	2.389176283326701	neutral	092	sub-07	2.0	3.0	092_neutral	0.0		98.53576223708751	
12.0	72.10405025234832	pulse	1.0	t		32.0	male	white	2.389176283326701	neutral	092	sub-07	2.0	3.0	092_neutral	0.0		99.2357323537226	
12.0	72.80402851899271	pulse	1.0	t		32.0	male	white	2.389176283326701	neutral	092	sub-07	2.0	3.0	092_neutral	0.0		99.93571062036699	
12.0	73.5040064837849	pulse	1.0	t		32.0	male	white	2.389176283326701	neutral	092	sub-07	2.0	3.0	092_neutral	0.0		100.63568858515919	
12.0	74.20398354302051	pulse	1.0	t		32.0	male	white	2.389176283326701	neutral	092	sub-07	2.0	3.0	092_neutral	0.0		101.3356656443948	
12.0	74.90396875226452	pulse	1.0	t		32.0	male	white	2.389176283326701	neutral	092	sub-07	2.0	3.0	092_neutral	0.0		102.0356508536388	
13.0	75.02052353239469	face	0.0		146	26.0	female	white	4.854755272582572	neutral	027	sub-07	2.0	3.0	027_neutral	0.0		102.15220563376897	1.2333148197340051
13.0	75.6039557726208	pulse	0.0	t		26.0	female	white	4.854755272582572	neutral	027	sub-07	2.0	3.0	027_neutral	0.0		102.73563787399507	
13.0	76.2538383521287	fix	1.0		444	26.0	female	white	4.854755272582572	neutral	027	sub-07	2.0	3.0	027_neutral	0.0		103.38552045350298	3.766535763445063
13.0	76.30393041703974	pulse	1.0	t		26.0	female	white	4.854755272582572	neutral	027	sub-07	2.0	3.0	027_neutral	0.0		103.43561251841402	
13.0	77.00391170220519	pulse	1.0	t		26.0	female	white	4.854755272582572	neutral	027	sub-07	2.0	3.0	027_neutral	0.0		104.13559380357947	
13.0	77.70387638550164	pulse	1.0	t		26.0	female	white	4.854755272582572	neutral	027	sub-07	2.0	3.0	027_neutral	0.0		104.83555848687593	
13.0	78.40386038733686	pulse	1.0	t		26.0	female	white	4.854755272582572	neutral	027	sub-07	2.0	3.0	027_neutral	0.0		105.53554248871114	
13.0	79.10384378546769	pulse	1.0	t		26.0	female	white	4.854755272582572	neutral	027	sub-07	2.0	3.0	027_neutral	0.0		106.23552588684197	
13.0	79.8038440873197	pulse	1.0	t		26.0	female	white	4.854755272582572	neutral	027	sub-07	2.0	3.0	027_neutral	0.0		106.93552618869398	
14.0	80.02037411557376	face	0.0		145	27.0	female	white	4.181058495821727	smiling	039	sub-07	2.0	3.0	039_smiling	0.0		107.15205621694804	1.2333084808378771
14.0	80.50380997802586	pulse	0.0	t		27.0	female	white	4.181058495821727	smiling	039	sub-07	2.0	3.0	039_smiling	0.0		107.63549207940014	
14.0	81.2037840187395	pulse	0.0	t		27.0	female	white	4.181058495821727	smiling	039	sub-07	2.0	3.0	039_smiling	0.0		108.33546612011378	
14.0	81.25368259641164	fix	1.0		444	27.0	female	white	4.181058495821727	smiling	039	sub-07	2.0	3.0	039_smiling	0.0		108.38536469778592	3.7665457245666403
14.0	81.90376832242691	pulse	1.0	t		27.0	female	white	4.181058495821727	smiling	039	sub-07	2.0	3.0	039_smiling	0.0		109.0354504238012	
14.0	82.60374145758396	pulse	1.0	t		27.0	female	white	4.181058495821727	smiling	039	sub-07	2.0	3.0	039_smiling	0.0		109.73542355895825	
14.0	83.30368802975045	pulse	1.0	t		27.0	female	white	4.181058495821727	smiling	039	sub-07	2.0	3.0	039_smiling	0.0		110.43537013112473	
14.0	84.0036931612376	pulse	1.0	t		27.0	female	white	4.181058495821727	smiling	039	sub-07	2.0	3.0	039_smiling	0.0		111.13537526261189	
14.0	84.70367444640306	pulse	1.0	t		27.0	female	white	4.181058495821727	smiling	039	sub-07	2.0	3.0	039_smiling	0.0		111.83535654777734	
15.0	85.02022832097828	face	0.0		145	22.0	female	white	4.614007162753682	smiling	009	sub-07	2.0	3.0	009_smiling	0.0		112.15191042235256	1.2332707493169437
15.0	85.4036650889866	pulse	0.0	t		22.0	female	white	4.614007162753682	smiling	009	sub-07	2.0	3.0	009_smiling	0.0		112.53534719036088	
15.0	86.10364124266562	pulse	0.0	t		22.0	female	white	4.614007162753682	smiling	009	sub-07	2.0	3.0	009_smiling	0.0		113.2353233440399	
15.0	86.25349907029522	fix	1.0		444	22.0	female	white	4.614007162753682	smiling	009	sub-07	2.0	3.0	009_smiling	0.0		113.3851811716695	3.7665786264524286
15.0	86.80365150563921	pulse	1.0	t		22.0	female	white	4.614007162753682	smiling	009	sub-07	2.0	3.0	009_smiling	0.0		113.93533360701349	
15.0	87.50359324817146	pulse	1.0	t		22.0	female	white	4.614007162753682	smiling	009	sub-07	2.0	3.0	009_smiling	0.0		114.63527534954574	
15.0	88.20356547777192	pulse	1.0	t		22.0	female	white	4.614007162753682	smiling	009	sub-07	2.0	3.0	009_smiling	0.0		115.3352475791462	
15.0	88.90355370553789	pulse	1.0	t		22.0	female	white	4.614007162753682	smiling	009	sub-07	2.0	3.0	009_smiling	0.0		116.03523580691217	
15.0	89.60352744439933	pulse	1.0	t		22.0	female	white	4.614007162753682	smiling	009	sub-07	2.0	3.0	009_smiling	0.0		116.73520954577361	
16.0	90.02007769674765	face	0.0		145	47.0	male	east_asian	2.171110226820533	neutral	024	sub-07	2.0	3.0	024_neutral	0.0		117.15175979812193	1.233307575282197
16.0	90.30351808698197	pulse	0.0	t		47.0	male	east_asian	2.171110226820533	neutral	024	sub-07	2.0	3.0	024_neutral	0.0		117.43520018835625	
16.0	91.00349454251318	pulse	0.0	t		47.0	male	east_asian	2.171110226820533	neutral	024	sub-07	2.0	3.0	024_neutral	0.0		118.13517664388746	
16.0	91.25338527202985	fix	1.0		444	47.0	male	east_asian	2.171110226820533	neutral	024	sub-07	2.0	3.0	024_neutral	0.0		118.38506737340413	3.766544819009141
16.0	91.70347250730538	pulse	1.0	t		47.0	male	east_asian	2.171110226820533	neutral	024	sub-07	2.0	3.0	024_neutral	0.0		118.83515460867966	
16.0	92.40345107580106	pulse	1.0	t		47.0	male	east_asian	2.171110226820533	neutral	024	sub-07	2.0	3.0	024_neutral	0.0		119.53513317717534	
16.0	93.10342934244545	pulse	1.0	t		47.0	male	east_asian	2.171110226820533	neutral	024	sub-07	2.0	3.0	024_neutral	0.0		120.23511144381973	
16.0	93.80340851464643	pulse	1.0	t		47.0	male	east_asian	2.171110226820533	neutral	024	sub-07	2.0	3.0	024_neutral	0.0		120.93509061602072	
16.0	94.50336384052571	pulse	1.0	t		47.0	male	east_asian	2.171110226820533	neutral	024	sub-07	2.0	3.0	024_neutral	0.0		121.63504594189999	
17.0	95.01993009103899	face	0.0		145	20.0	male	black	3.1070433744528456	neutral	082	sub-07	2.0	3.0	082_neutral	1.0	attractiveness	122.15161219241327	1.2333078771343935
17.0	95.20337742387346	pulse	0.0	t		20.0	male	black	3.1070433744528456	neutral	082	sub-07	2.0	3.0	082_neutral	1.0	attractiveness	122.33505952524774	
17.0	95.90336836830829	pulse	0.0	t		20.0	male	black	3.1070433744528456	neutral	082	sub-07	2.0	3.0	082_neutral	1.0	attractiveness	123.03505046968257	
17.0	96.25323796817338	fix	1.0		177	20.0	male	black	3.1070433744528456	neutral	082	sub-07	2.0	3.0	082_neutral	1.0	attractiveness	123.38492006954766	1.4999468740188604
17.0	96.60333063678809	pulse	1.0	t		20.0	male	black	3.1070433744528456	neutral	082	sub-07	2.0	3.0	082_neutral	1.0	attractiveness	123.73501273816237	
17.0	97.30330347009294	pulse	1.0	t		20.0	male	black	3.1070433744528456	neutral	082	sub-07	2.0	3.0	082_neutral	1.0	attractiveness	124.43498557146722	
17.0	97.75318484219224	rating	2.0		294	20.0	male	black	3.1070433744528456	neutral	082	sub-07	2.0	3.0	082_neutral	1.0	attractiveness	124.88486694356652	2.4999335925231208
17.0	97.9980249812852	pulse	2.0	t		20.0	male	black	3.1070433744528456	neutral	082	sub-07	2.0	3.0	082_neutral	1.0	attractiveness	125.12970708265948	
17.0	98.69799992755543	pulse	2.0	t		20.0	male	black	3.1070433744528456	neutral	082	sub-07	2.0	3.0	082_neutral	1.0	attractiveness	125.82968202892971	
17.0	99.39797608123445	pulse	2.0	t		20.0	male	black	3.1070433744528456	neutral	082	sub-07	2.0	3.0	082_neutral	1.0	attractiveness	126.52965818260873	
17.0	99.70322649779064	response	2.0	b		20.0	male	black	3.1070433744528456	neutral	082	sub-07	2.0	3.0	082_neutral	1.0	attractiveness	126.83490859916492	
17.0	100.10322197000824	pulse	2.0	t		20.0	male	black	3.1070433744528456	neutral	082	sub-07	2.0	3.0	082_neutral	1.0	attractiveness	127.23490407138252	
17.0	100.25311843471536	fix	3.0		444	20.0	male	black	3.1070433744528456	neutral	082	sub-07	2.0	3.0	082_neutral	1.0	attractiveness	127.38480053608964	3.766543913453461
17.0	100.803202349618	pulse	3.0	t		20.0	male	black	3.1070433744528456	neutral	082	sub-07	2.0	3.0	082_neutral	1.0	attractiveness	127.93488445099229	
17.0	101.50318031440929	pulse	3.0	t		20.0	male	black	3.1070433744528456	neutral	082	sub-07	2.0	3.0	082_neutral	1.0	attractiveness	128.63486241578357	
17.0	102.20316341068792	pulse	3.0	t		20.0	male	black	3.1070433744528456	neutral	082	sub-07	2.0	3.0	082_neutral	1.0	attractiveness	129.3348455120622	
17.0	102.90313684769808	pulse	3.0	t		20.0	male	black	3.1070433744528456	neutral	082	sub-07	2.0	3.0	082_neutral	1.0	attractiveness	130.03481894907236	
17.0	103.60311360508149	pulse	3.0	t		20.0	male	black	3.1070433744528456	neutral	082	sub-07	2.0	3.0	082_neutral	1.0	attractiveness	130.73479570645577	
18.0	104.01966234816882	face	0.0		145	47.0	male	east_asian	2.171110226820533	smiling	024	sub-07	2.0	3.0	024_smiling	0.0		131.1513444495431	1.2332728622832292
18.0	104.30310122914216	pulse	0.0	t		47.0	male	east_asian	2.171110226820533	smiling	024	sub-07	2.0	3.0	024_smiling	0.0		131.43478333051644	
18.0	105.00307104392596	pulse	0.0	t		47.0	male	east_asian	2.171110226820533	smiling	024	sub-07	2.0	3.0	024_smiling	0.0		132.13475314530024	
18.0	105.25293521045205	fix	1.0		444	47.0	male	east_asian	2.171110226820533	smiling	024	sub-07	2.0	3.0	024_smiling	0.0		132.38461731182633	3.7665587042083644
18.0	105.7030604790998	pulse	1.0	t		47.0	male	east_asian	2.171110226820533	smiling	024	sub-07	2.0	3.0	024_smiling	0.0		132.83474258047409	
18.0	106.40303633092662	pulse	1.0	t		47.0	male	east_asian	2.171110226820533	smiling	024	sub-07	2.0	3.0	024_smiling	0.0		133.5347184323009	
18.0	107.10301278645784	pulse	1.0	t		47.0	male	east_asian	2.171110226820533	smiling	024	sub-07	2.0	3.0	024_smiling	0.0		134.23469488783212	
18.0	107.80298894013686	pulse	1.0	t		47.0	male	east_asian	2.171110226820533	smiling	024	sub-07	2.0	3.0	024_smiling	0.0		134.93467104151114	
18.0	108.50297686605063	pulse	1.0	t		47.0	male	east_asian	2.171110226820533	smiling	024	sub-07	2.0	3.0	024_smiling	0.0		135.6346589674249	
19.0	109.01949391466042	face	0.0		145	25.0	female	west_asian	2.6756864305610826	smiling	064	sub-07	2.0	3.0	064_smiling	0.0		136.1511760160347	1.2333051604646244
19.0	109.20295754751169	pulse	0.0	t		25.0	female	west_asian	2.6756864305610826	smiling	064	sub-07	2.0	3.0	064_smiling	0.0		136.33463964888597	
19.0	109.90292947526086	pulse	0.0	t		25.0	female	west_asian	2.6756864305610826	smiling	064	sub-07	2.0	3.0	064_smiling	0.0		137.03461157663514	
19.0	110.25279907512504	fix	1.0		444	25.0	female	west_asian	2.6756864305610826	smiling	064	sub-07	2.0	3.0	064_smiling	0.0		137.38448117649932	3.766566854217672
19.0	110.60325366448524	pulse	1.0	t		25.0	female	west_asian	2.6756864305610826	smiling	064	sub-07	2.0	3.0	064_smiling	0.0		137.73493576585952	
19.0	111.3028896307751	pulse	1.0	t		25.0	female	west_asian	2.6756864305610826	smiling	064	sub-07	2.0	3.0	064_smiling	0.0		138.43457173214938	
19.0	112.00286940667957	pulse	1.0	t		25.0	female	west_asian	2.6756864305610826	smiling	064	sub-07	2.0	3.0	064_smiling	0.0		139.13455150805385	
19.0	112.70284616406298	pulse	1.0	t		25.0	female	west_asian	2.6756864305610826	smiling	064	sub-07	2.0	3.0	064_smiling	0.0		139.83452826543726	
19.0	113.40282261959419	pulse	1.0	t		25.0	female	west_asian	2.6756864305610826	smiling	064	sub-07	2.0	3.0	064_smiling	0.0		140.53450472096847	
20.0	114.01936592934271	face	0.0		145	24.0	female	black	3.0955033824114606	smiling	099	sub-07	2.0	3.0	099_smiling	0.0		141.151048030717	1.2333057641690175
20.0	114.10286004926274	pulse	0.0	t		24.0	female	black	3.0955033824114606	smiling	099	sub-07	2.0	3.0	099_smiling	0.0		141.23454215063703	
20.0	114.80278730289047	pulse	0.0	t		24.0	female	black	3.0955033824114606	smiling	099	sub-07	2.0	3.0	099_smiling	0.0		141.93446940426475	
20.0	115.25267169351173	fix	1.0		1185	24.0	female	black	3.0955033824114606	smiling	099	sub-07	2.0	3.0	099_smiling	0.0		142.384353794886	10.016358274371669
20.0	115.50276707879584	pulse	1.0	t		24.0	female	black	3.0955033824114606	smiling	099	sub-07	2.0	3.0	099_smiling	0.0		142.63444918017012	
20.0	116.20274353432706	pulse	1.0	t		24.0	female	black	3.0955033824114606	smiling	099	sub-07	2.0	3.0	099_smiling	0.0		143.33442563570134	
20.0	116.90272451764031	pulse	1.0	t		24.0	female	black	3.0955033824114606	smiling	099	sub-07	2.0	3.0	099_smiling	0.0		144.0344066190146	
20.0	117.60269976576274	pulse	1.0	t		24.0	female	black	3.0955033824114606	smiling	099	sub-07	2.0	3.0	099_smiling	0.0		144.73438186713702	
20.0	118.30267773055493	pulse	1.0	t		24.0	female	black	3.0955033824114606	smiling	099	sub-07	2.0	3.0	099_smiling	0.0		145.4343598319292	
20.0	119.0026581101647	pulse	1.0	t		24.0	female	black	3.0955033824114606	smiling	099	sub-07	2.0	3.0	099_smiling	0.0		146.13434021153898	
20.0	119.70263879162576	pulse	1.0	t		24.0	female	black	3.0955033824114606	smiling	099	sub-07	2.0	3.0	099_smiling	0.0		146.83432089300004	
20.0	120.40261977493901	pulse	1.0	t		24.0	female	black	3.0955033824114606	smiling	099	sub-07	2.0	3.0	099_smiling	0.0		147.5343018763133	
20.0	121.10260407862643	pulse	1.0	t		24.0	female	black	3.0955033824114606	smiling	099	sub-07	2.0	3.0	099_smiling	0.0		148.2342861800007	
20.0	121.80257449711462	pulse	1.0	t		24.0	female	black	3.0955033824114606	smiling	099	sub-07	2.0	3.0	099_smiling	0.0		148.9342565984889	
20.0	122.50255487672348	pulse	1.0	t		24.0	female	black	3.0955033824114606	smiling	099	sub-07	2.0	3.0	099_smiling	0.0		149.63423697809776	
20.0	123.20252529521167	pulse	1.0	t		24.0	female	black	3.0955033824114606	smiling	099	sub-07	2.0	3.0	099_smiling	0.0		150.33420739658595	
20.0	123.90251171186446	pulse	1.0	t		24.0	female	black	3.0955033824114606	smiling	099	sub-07	2.0	3.0	099_smiling	0.0		151.03419381323874	
20.0	124.60249601555188	pulse	1.0	t		24.0	female	black	3.0955033824114606	smiling	099	sub-07	2.0	3.0	099_smiling	0.0		151.73417811692616	
21.0	125.2690299678834	face	0.0		145	40.0	female	west_asian	1.5777954635893354	smiling	038	sub-07	2.0	3.0	038_smiling	1.0	dominance	152.40071206925768	1.2332988215694058
21.0	125.30248997850867	pulse	0.0	t		40.0	female	west_asian	1.5777954635893354	smiling	038	sub-07	2.0	3.0	038_smiling	1.0	dominance	152.43417207988296	
21.0	126.00245647291831	pulse	0.0	t		40.0	female	west_asian	1.5777954635893354	smiling	038	sub-07	2.0	3.0	038_smiling	1.0	dominance	153.1341385742926	
21.0	126.5023287894528	fix	1.0		177	40.0	female	west_asian	1.5777954635893354	smiling	038	sub-07	2.0	3.0	038_smiling	1.0	dominance	153.63401089082708	1.4999535147662755
21.0	126.70243685252717	pulse	1.0	t		40.0	female	west_asian	1.5777954635893354	smiling	038	sub-07	2.0	3.0	038_smiling	1.0	dominance	153.83411895390145	
21.0	127.40240817657195	pulse	1.0	t		40.0	female	west_asian	1.5777954635893354	smiling	038	sub-07	2.0	3.0	038_smiling	1.0	dominance	154.53409027794623	
21.0	128.00228230421908	rating	2.0		294	40.0	female	west_asian	1.5777954635893354	smiling	038	sub-07	2.0	3.0	038_smiling	1.0	dominance	155.13396440559336	2.4999263480713125
21.0	128.09714266740775	pulse	2.0	t		40.0	female	west_asian	1.5777954635893354	smiling	038	sub-07	2.0	3.0	038_smiling	1.0	dominance	155.22882476878203	
21.0	128.79712817850395	pulse	2.0	t		40.0	female	west_asian	1.5777954635893354	smiling	038	sub-07	2.0	3.0	038_smiling	1.0	dominance	155.92881027987823	
21.0	129.49721239525752	pulse	2.0	t		40.0	female	west_asian	1.5777954635893354	smiling	038	sub-07	2.0	3.0	038_smiling	1.0	dominance	156.6288944966318	
21.0	130.15540496486483	response	2.0	y		40.0	female	west_asian	1.5777954635893354	smiling	038	sub-07	2.0	3.0	038_smiling	1.0	dominance	157.2870870662391	
21.0	130.1970632802886	pulse	2.0	t		40.0	female	west_asian	1.5777954635893354	smiling	038	sub-07	2.0	3.0	038_smiling	1.0	dominance	157.32874538166288	
21.0	130.5022086522904	fix	3.0		444	40.0	female	west_asian	1.5777954635893354	smiling	038	sub-07	2.0	3.0	038_smiling	1.0	dominance	157.63389075366467	3.7665535727228416
21.0	130.90232818574805	pulse	3.0	t		40.0	female	west_asian	1.5777954635893354	smiling	038	sub-07	2.0	3.0	038_smiling	1.0	dominance	158.03401028712233	
21.0	131.6023016227573	pulse	3.0	t		40.0	female	west_asian	1.5777954635893354	smiling	038	sub-07	2.0	3.0	038_smiling	1.0	dominance	158.73398372413158	
21.0	132.3022623819761	pulse	3.0	t		40.0	female	west_asian	1.5777954635893354	smiling	038	sub-07	2.0	3.0	038_smiling	1.0	dominance	159.4339444833504	
21.0	133.0022481949245	pulse	3.0	t		40.0	female	west_asian	1.5777954635893354	smiling	038	sub-07	2.0	3.0	038_smiling	1.0	dominance	160.1339302962988	
21.0	133.70222072637716	pulse	3.0	t		40.0	female	west_asian	1.5777954635893354	smiling	038	sub-07	2.0	3.0	038_smiling	1.0	dominance	160.83390282775144	
22.0	134.26876222501323	face	0.0		145	26.0	male	white	2.7966573816155993	smiling	117	sub-07	2.0	3.0	117_smiling	0.0		161.40044432638751	1.2332713530222463
22.0	134.40220684117776	pulse	0.0	t		26.0	male	white	2.7966573816155993	smiling	117	sub-07	2.0	3.0	117_smiling	0.0		161.53388894255204	
22.0	135.1021820893002	pulse	0.0	t		26.0	male	white	2.7966573816155993	smiling	117	sub-07	2.0	3.0	117_smiling	0.0		162.23386419067447	
22.0	135.50203357803548	fix	1.0		444	26.0	male	white	2.7966573816155993	smiling	117	sub-07	2.0	3.0	117_smiling	0.0		162.63371567940976	3.7665783245993225
22.0	135.80216458187442	pulse	1.0	t		26.0	male	white	2.7966573816155993	smiling	117	sub-07	2.0	3.0	117_smiling	0.0		162.9338466832487	
22.0	136.50214556518858	pulse	1.0	t		26.0	male	white	2.7966573816155993	smiling	117	sub-07	2.0	3.0	117_smiling	0.0		163.63382766656287	
22.0	137.20211628552806	pulse	1.0	t		26.0	male	white	2.7966573816155993	smiling	117	sub-07	2.0	3.0	117_smiling	0.0		164.33379838690234	
22.0	137.90209606143344	pulse	1.0	t		26.0	male	white	2.7966573816155993	smiling	117	sub-07	2.0	3.0	117_smiling	0.0		165.03377816280772	
22.0	138.60207825215548	pulse	1.0	t		26.0	male	white	2.7966573816155993	smiling	117	sub-07	2.0	3.0	117_smiling	0.0		165.73376035352976	
23.0	139.2686119026348	face	0.0		145	24.0	male	white	3.1153999204138483	neutral	012	sub-07	2.0	3.0	012_neutral	0.0		166.40029400400908	1.2333012363869784
23.0	139.30207221511228	pulse	0.0	t		24.0	male	white	3.1153999204138483	neutral	012	sub-07	2.0	3.0	012_neutral	0.0		166.43375431648656	
23.0	140.00203508729555	pulse	0.0	t		24.0	male	white	3.1153999204138483	neutral	012	sub-07	2.0	3.0	012_neutral	0.0		167.13371718866983	
23.0	140.50191313902178	fix	1.0		443	24.0	male	white	3.1153999204138483	neutral	012	sub-07	2.0	3.0	012_neutral	0.0		167.63359524039606	3.7582206418583155
23.0	140.70202180580054	pulse	1.0	t		24.0	male	white	3.1153999204138483	neutral	012	sub-07	2.0	3.0	012_neutral	0.0		167.83370390717482	
23.0	141.40200037429713	pulse	1.0	t		24.0	male	white	3.1153999204138483	neutral	012	sub-07	2.0	3.0	012_neutral	0.0		168.5336824756714	
23.0	142.1019720001932	pulse	1.0	t		24.0	male	white	3.1153999204138483	neutral	012	sub-07	2.0	3.0	012_neutral	0.0		169.23365410156748	
23.0	142.80195600202842	pulse	1.0	t		24.0	male	white	3.1153999204138483	neutral	012	sub-07	2.0	3.0	012_neutral	0.0		169.9336381034027	
23.0	143.50192943903858	pulse	1.0	t		24.0	male	white	3.1153999204138483	neutral	012	sub-07	2.0	3.0	012_neutral	0.0		170.63361154041286	
23.0	144.20190347975222	pulse	1.0	t		24.0	male	white	3.1153999204138483	neutral	012	sub-07	2.0	3.0	012_neutral	0.0		171.3335855811265	
24.0	144.2601337808801	face	0.0		147	26.0	male	white	2.7966573816155993	neutral	117	sub-07	2.0	3.0	117_neutral	0.0		171.39181588225438	1.24161515056403
24.0	144.90191827050785	pulse	0.0	t		26.0	male	white	2.7966573816155993	neutral	117	sub-07	2.0	3.0	117_neutral	0.0		172.03360037188213	
24.0	145.50174893144413	fix	1.0		443	26.0	male	white	2.7966573816155993	neutral	117	sub-07	2.0	3.0	117_neutral	0.0		172.6334310328184	3.7665695708865314
24.0	145.60186152230108	pulse	1.0	t		26.0	male	white	2.7966573816155993	neutral	117	sub-07	2.0	3.0	117_neutral	0.0		172.73354362367536	
24.0	146.3018527685881	pulse	1.0	t		26.0	male	white	2.7966573816155993	neutral	117	sub-07	2.0	3.0	117_neutral	0.0		173.4335348699624	
24.0	147.0018298278237	pulse	1.0	t		26.0	male	white	2.7966573816155993	neutral	117	sub-07	2.0	3.0	117_neutral	0.0		174.133511929198	
24.0	147.70180537779834	pulse	1.0	t		26.0	male	white	2.7966573816155993	neutral	117	sub-07	2.0	3.0	117_neutral	0.0		174.83348747917262	
24.0	148.40181533891973	pulse	1.0	t		26.0	male	white	2.7966573816155993	neutral	117	sub-07	2.0	3.0	117_neutral	0.0		175.533497440294	
24.0	149.1017643259038	pulse	1.0	t		26.0	male	white	2.7966573816155993	neutral	117	sub-07	2.0	3.0	117_neutral	0.0		176.23344642727807	
25.0	149.26831850233066	face	0.0		146	25.0	female	black	3.858336649423	neutral	126	sub-07	2.0	3.0	126_neutral	0.0		176.40000060370494	1.2332967086040298
25.0	149.8017492332956	pulse	0.0	t		25.0	female	black	3.858336649423	neutral	126	sub-07	2.0	3.0	126_neutral	0.0		176.93343133466988	
25.0	150.5016152109347	fix	1.0		444	25.0	female	black	3.858336649423	neutral	126	sub-07	2.0	3.0	126_neutral	0.0		177.63329731230897	3.7665553838351116
25.0	150.50908424090267	pulse	1.0	t		25.0	female	black	3.858336649423	neutral	126	sub-07	2.0	3.0	126_neutral	0.0		177.64076634227695	
25.0	151.20170576658438	pulse	1.0	t		25.0	female	black	3.858336649423	neutral	126	sub-07	2.0	3.0	126_neutral	0.0		178.33338786795866	
25.0	151.9016825239678	pulse	1.0	t		25.0	female	black	3.858336649423	neutral	126	sub-07	2.0	3.0	126_neutral	0.0		179.03336462534207	
25.0	152.60166441283764	pulse	1.0	t		25.0	female	black	3.858336649423	neutral	126	sub-07	2.0	3.0	126_neutral	0.0		179.73334651421192	
25.0	153.3016435850377	pulse	1.0	t		25.0	female	black	3.858336649423	neutral	126	sub-07	2.0	3.0	126_neutral	0.0		180.433325686412	
25.0	154.00161973871673	pulse	1.0	t		25.0	female	black	3.858336649423	neutral	126	sub-07	2.0	3.0	126_neutral	0.0		181.133301840091	
26.0	154.2681705947698	face	0.0		145	21.0	male	black	2.969757262236371	neutral	137	sub-07	2.0	3.0	137_neutral	0.0		181.39985269614408	1.2332961048996367
26.0	154.70160374055195	pulse	0.0	t		21.0	male	black	2.969757262236371	neutral	137	sub-07	2.0	3.0	137_neutral	0.0		181.83328584192623	
26.0	155.4015783849709	pulse	0.0	t		21.0	male	black	2.969757262236371	neutral	137	sub-07	2.0	3.0	137_neutral	0.0		182.53326048634517	
26.0	155.50146669966944	fix	1.0		444	21.0	male	black	2.969757262236371	neutral	137	sub-07	2.0	3.0	137_neutral	0.0		182.63314880104372	3.766555685687308
26.0	156.10156359421399	pulse	1.0	t		21.0	male	black	2.969757262236371	neutral	137	sub-07	2.0	3.0	137_neutral	0.0		183.23324569558827	
26.0	156.80154578493693	pulse	1.0	t		21.0	male	black	2.969757262236371	neutral	137	sub-07	2.0	3.0	137_neutral	0.0		183.93322788631122	
26.0	157.50151469416414	pulse	1.0	t		21.0	male	black	2.969757262236371	neutral	137	sub-07	2.0	3.0	137_neutral	0.0		184.63319679553842	
26.0	158.20148933858218	pulse	1.0	t		21.0	male	black	2.969757262236371	neutral	137	sub-07	2.0	3.0	137_neutral	0.0		185.33317143995646	
26.0	158.90147545338186	pulse	1.0	t		21.0	male	black	2.969757262236371	neutral	137	sub-07	2.0	3.0	137_neutral	0.0		186.03315755475614	
27.0	159.26802238535674	face	0.0		145	20.0	female	white	3.9502586549940313	neutral	091	sub-07	2.0	3.0	091_neutral	1.0	trustworthiness	186.39970448673103	1.2332961048996367
27.0	159.60145673854822	pulse	0.0	t		20.0	female	white	3.9502586549940313	neutral	091	sub-07	2.0	3.0	091_neutral	1.0	trustworthiness	186.7331388399225	
27.0	160.3014353070448	pulse	0.0	t		20.0	female	white	3.9502586549940313	neutral	091	sub-07	2.0	3.0	091_neutral	1.0	trustworthiness	187.4331174084191	
27.0	160.50131849025638	fix	1.0		177	20.0	female	white	3.9502586549940313	neutral	091	sub-07	2.0	3.0	091_neutral	1.0	trustworthiness	187.63300059163066	1.4999538166193815
27.0	161.00141840332344	pulse	1.0	t		20.0	female	white	3.9502586549940313	neutral	091	sub-07	2.0	3.0	091_neutral	1.0	trustworthiness	188.13310050469772	
27.0	161.70139334959367	pulse	1.0	t		20.0	female	white	3.9502586549940313	neutral	091	sub-07	2.0	3.0	091_neutral	1.0	trustworthiness	188.83307545096795	
27.0	162.00127230687576	rating	2.0		295	20.0	female	white	3.9502586549940313	neutral	091	sub-07	2.0	3.0	091_neutral	1.0	trustworthiness	189.13295440825004	2.4999269517757057
27.0	162.3961420274809	pulse	2.0	t		20.0	female	white	3.9502586549940313	neutral	091	sub-07	2.0	3.0	091_neutral	1.0	trustworthiness	189.52782412885517	
27.0	163.09610007002993	pulse	2.0	t		20.0	female	white	3.9502586549940313	neutral	091	sub-07	2.0	3.0	091_neutral	1.0	trustworthiness	190.22778217140421	
27.0	163.7960892033525	pulse	2.0	t		20.0	female	white	3.9502586549940313	neutral	091	sub-07	2.0	3.0	091_neutral	1.0	trustworthiness	190.92777130472678	
27.0	164.0929798242014	response	2.0	g		20.0	female	white	3.9502586549940313	neutral	091	sub-07	2.0	3.0	091_neutral	1.0	trustworthiness	191.22466192557567	
27.0	164.50119925865147	fix	3.0		443	20.0	female	white	3.9502586549940313	neutral	091	sub-07	2.0	3.0	091_neutral	1.0	trustworthiness	191.63288136002575	3.7665568930960944
27.0	164.50905435753793	pulse	3.0	t		20.0	female	white	3.9502586549940313	neutral	091	sub-07	2.0	3.0	091_neutral	1.0	trustworthiness	191.64073645891222	
27.0	165.20126415686718	pulse	3.0	t		20.0	female	white	3.9502586549940313	neutral	091	sub-07	2.0	3.0	091_neutral	1.0	trustworthiness	192.33294625824146	
27.0	165.90129373837863	pulse	3.0	t		20.0	female	white	3.9502586549940313	neutral	091	sub-07	2.0	3.0	091_neutral	1.0	trustworthiness	193.0329758397529	
27.0	166.601250875372	pulse	3.0	t		20.0	female	white	3.9502586549940313	neutral	091	sub-07	2.0	3.0	091_neutral	1.0	trustworthiness	193.73293297674627	
27.0	167.30122582164222	pulse	3.0	t		20.0	female	white	3.9502586549940313	neutral	091	sub-07	2.0	3.0	091_neutral	1.0	trustworthiness	194.4329079230165	
27.0	168.00120167346904	pulse	3.0	t		20.0	female	white	3.9502586549940313	neutral	091	sub-07	2.0	3.0	091_neutral	1.0	trustworthiness	195.13288377484332	
28.0	168.26775615174756	face	0.0		145	28.0	male	east_asian	1.5563072025467568	smiling	005	sub-07	2.0	3.0	005_smiling	0.0		195.39943825312184	1.2332955011952436
28.0	168.70120137161666	pulse	0.0	t		28.0	male	east_asian	1.5563072025467568	smiling	005	sub-07	2.0	3.0	005_smiling	0.0		195.83288347299094	
28.0	169.40116394194774	pulse	0.0	t		28.0	male	east_asian	1.5563072025467568	smiling	005	sub-07	2.0	3.0	005_smiling	0.0		196.53284604332202	
28.0	169.5010516529428	fix	1.0		444	28.0	male	east_asian	1.5563072025467568	smiling	005	sub-07	2.0	3.0	005_smiling	0.0		196.6327337543171	3.7583033493519906
28.0	170.10114703822728	pulse	1.0	t		28.0	male	east_asian	1.5563072025467568	smiling	005	sub-07	2.0	3.0	005_smiling	0.0		197.23282913960156	
28.0	170.80112711598395	pulse	1.0	t		28.0	male	east_asian	1.5563072025467568	smiling	005	sub-07	2.0	3.0	005_smiling	0.0		197.93280921735823	
28.0	171.50110145854978	pulse	1.0	t		28.0	male	east_asian	1.5563072025467568	smiling	005	sub-07	2.0	3.0	005_smiling	0.0		198.63278355992406	
28.0	172.20107519741123	pulse	1.0	t		28.0	male	east_asian	1.5563072025467568	smiling	005	sub-07	2.0	3.0	005_smiling	0.0		199.3327572987855	
28.0	172.90105889739516	pulse	1.0	t		28.0	male	east_asian	1.5563072025467568	smiling	005	sub-07	2.0	3.0	005_smiling	0.0		200.03274099876944	
29.0	173.2593550022948	face	0.0		146	32.0	male	white	2.389176283326701	smiling	092	sub-07	2.0	3.0	092_smiling	0.0		200.39103710366908	1.2415584023565316
29.0	173.60106251962043	pulse	0.0	t		32.0	male	white	2.389176283326701	smiling	092	sub-07	2.0	3.0	092_smiling	0.0		200.7327446209947	
29.0	174.30101482697864	pulse	0.0	t		32.0	male	white	2.389176283326701	smiling	092	sub-07	2.0	3.0	092_smiling	0.0		201.43269692835293	
29.0	174.50091340465133	fix	1.0		444	32.0	male	white	2.389176283326701	smiling	092	sub-07	2.0	3.0	092_smiling	0.0		201.6325955060256	3.766543309748158
29.0	175.00100003622265	pulse	1.0	t		32.0	male	white	2.389176283326701	smiling	092	sub-07	2.0	3.0	092_smiling	0.0		202.13268213759693	
29.0	175.70097618990167	pulse	1.0	t		32.0	male	white	2.389176283326701	smiling	092	sub-07	2.0	3.0	092_smiling	0.0		202.83265829127595	
29.0	176.4009674361887	pulse	1.0	t		32.0	male	white	2.389176283326701	smiling	092	sub-07	2.0	3.0	092_smiling	0.0		203.53264953756297	
29.0	177.10107610296836	pulse	1.0	t		32.0	male	white	2.389176283326701	smiling	092	sub-07	2.0	3.0	092_smiling	0.0		204.23275820434264	
29.0	177.80090948057295	pulse	1.0	t		32.0	male	white	2.389176283326701	smiling	092	sub-07	2.0	3.0	092_smiling	0.0		204.93259158194724	
30.0	178.2674567143995	face	0.0		145	24.0	female	black	3.0955033824114606	neutral	099	sub-07	2.0	3.0	099_neutral	0.0		205.39913881577377	1.2332858419267723
30.0	178.50090163241657	pulse	0.0	t		24.0	female	black	3.0955033824114606	neutral	099	sub-07	2.0	3.0	099_neutral	0.0		205.63258373379085	
30.0	179.20086601386174	pulse	0.0	t		24.0	female	black	3.0955033824114606	neutral	099	sub-07	2.0	3.0	099_neutral	0.0		206.33254811523602	
30.0	179.50074255632626	fix	1.0		444	24.0	female	black	3.0955033824114606	neutral	099	sub-07	2.0	3.0	099_neutral	0.0		206.63242465770054	3.7665656468088855
30.0	179.9008533360702	pulse	1.0	t		24.0	female	black	3.0955033824114606	neutral	099	sub-07	2.0	3.0	099_neutral	0.0		207.0325354374445	
30.0	180.60083492308877	pulse	1.0	t		24.0	female	black	3.0955033824114606	neutral	099	sub-07	2.0	3.0	099_neutral	0.0		207.73251702446305	
30.0	181.30081379343665	pulse	1.0	t		24.0	female	black	3.0955033824114606	neutral	099	sub-07	2.0	3.0	099_neutral	0.0		208.43249589481093	
30.0	182.00079055082006	pulse	1.0	t		24.0	female	black	3.0955033824114606	neutral	099	sub-07	2.0	3.0	099_neutral	0.0		209.13247265219434	
30.0	182.70076972302104	pulse	1.0	t		24.0	female	black	3.0955033824114606	neutral	099	sub-07	2.0	3.0	099_neutral	0.0		209.83245182439532	
31.0	183.26730820313514	face	0.0		145	22.0	male	black	2.767608436132113	smiling	044	sub-07	2.0	3.0	044_smiling	0.0		210.39899030450943	1.233293086377671
31.0	183.40075553596944	pulse	0.0	t		22.0	male	black	2.767608436132113	smiling	044	sub-07	2.0	3.0	044_smiling	0.0		210.53243763734372	
31.0	184.1007283692743	pulse	0.0	t		22.0	male	black	2.767608436132113	smiling	044	sub-07	2.0	3.0	044_smiling	0.0		211.23241047064857	
31.0	184.50060128951282	fix	1.0		444	22.0	male	black	2.767608436132113	smiling	044	sub-07	2.0	3.0	044_smiling	0.0		211.6322833908871	3.76655991161806
31.0	184.80071086184853	pulse	1.0	t		22.0	male	black	2.767608436132113	smiling	044	sub-07	2.0	3.0	044_smiling	0.0		211.9323929632228	
31.0	185.50068852478853	pulse	1.0	t		22.0	male	black	2.767608436132113	smiling	044	sub-07	2.0	3.0	044_smiling	0.0		212.6323706261628	
31.0	186.20066528217194	pulse	1.0	t		22.0	male	black	2.767608436132113	smiling	044	sub-07	2.0	3.0	044_smiling	0.0		213.33234738354622	
31.0	186.90064234140755	pulse	1.0	t		22.0	male	black	2.767608436132113	smiling	044	sub-07	2.0	3.0	044_smiling	0.0		214.03232444278183	
31.0	187.6006242302774	pulse	1.0	t		22.0	male	black	2.767608436132113	smiling	044	sub-07	2.0	3.0	044_smiling	0.0		214.73230633165167	
32.0	188.26716120113088	face	0.0		145	24.0	male	white	3.1153999204138483	smiling	012	sub-07	2.0	3.0	012_smiling	0.0		215.39884330250516	1.2332973123075135
32.0	188.30062181545964	pulse	0.0	t		24.0	male	white	3.1153999204138483	smiling	012	sub-07	2.0	3.0	012_smiling	0.0		215.43230391683392	
32.0	189.00058498949602	pulse	0.0	t		24.0	male	white	3.1153999204138483	smiling	012	sub-07	2.0	3.0	012_smiling	0.0		216.1322670908703	
32.0	189.5004585134384	fix	1.0		443	24.0	male	white	3.1153999204138483	smiling	012	sub-07	2.0	3.0	012_smiling	0.0		216.63214061481267	3.766518859723874
32.0	189.70056627466147	pulse	1.0	t		24.0	male	white	3.1153999204138483	smiling	012	sub-07	2.0	3.0	012_smiling	0.0		216.83224837603575	
32.0	190.40053820241064	pulse	1.0	t		24.0	male	white	3.1153999204138483	smiling	012	sub-07	2.0	3.0	012_smiling	0.0		217.53222030378492	
32.0	191.10052401535813	pulse	1.0	t		24.0	male	white	3.1153999204138483	smiling	012	sub-07	2.0	3.0	012_smiling	0.0		218.2322061167324	
32.0	191.80049896162927	pulse	1.0	t		24.0	male	white	3.1153999204138483	smiling	012	sub-07	2.0	3.0	012_smiling	0.0		218.93218106300355	
32.0	192.50058529134822	pulse	1.0	t		24.0	male	white	3.1153999204138483	smiling	012	sub-07	2.0	3.0	012_smiling	0.0		219.6322673927225	
32.0	193.20045066528291	pulse	1.0	t		24.0	male	white	3.1153999204138483	smiling	012	sub-07	2.0	3.0	012_smiling	0.0		220.3321327666572	
33.0	193.26697737316226	face	0.0		146	28.0	female	white	5.676880222841227	smiling	124	sub-07	2.0	3.0	124_smiling	0.0		220.39865947453654	1.233333232716177
33.0	193.90044130786555	pulse	0.0	t		28.0	female	white	5.676880222841227	smiling	124	sub-07	2.0	3.0	124_smiling	0.0		221.03212340923983	
33.0	194.50031060587844	fix	1.0		443	28.0	female	white	5.676880222841227	smiling	124	sub-07	2.0	3.0	124_smiling	0.0		221.63199270725272	3.7665547801307184
33.0	194.600422593031	pulse	1.0	t		28.0	female	white	5.676880222841227	smiling	124	sub-07	2.0	3.0	124_smiling	0.0		221.73210469440528	
33.0	195.300392709667	pulse	1.0	t		28.0	female	white	5.676880222841227	smiling	124	sub-07	2.0	3.0	124_smiling	0.0		222.43207481104128	
33.0	196.00038305039743	pulse	1.0	t		28.0	female	white	5.676880222841227	smiling	124	sub-07	2.0	3.0	124_smiling	0.0		223.1320651517717	
33.0	196.70035135592025	pulse	1.0	t		28.0	female	white	5.676880222841227	smiling	124	sub-07	2.0	3.0	124_smiling	0.0		223.83203345729453	
33.0	197.40033505590327	pulse	1.0	t		28.0	female	white	5.676880222841227	smiling	124	sub-07	2.0	3.0	124_smiling	0.0		224.53201715727755	
33.0	198.10030849291252	pulse	1.0	t		28.0	female	white	5.676880222841227	smiling	124	sub-07	2.0	3.0	124_smiling	0.0		225.2319905942868	
34.0	198.26686538600916	face	0.0		146	22.0	female	white	4.614007162753682	neutral	009	sub-07	2.0	3.0	009_neutral	0.0		225.39854748738344	1.2332964067518333
34.0	198.8002961169741	pulse	0.0	t		22.0	female	white	4.614007162753682	neutral	009	sub-07	2.0	3.0	009_neutral	0.0		225.93197821834838	
34.0	199.500161792761	fix	1.0		444	22.0	female	white	4.614007162753682	neutral	009	sub-07	2.0	3.0	009_neutral	0.0		226.63184389413527	3.766554478278522
34.0	199.50768153389254	pulse	1.0	t		22.0	female	white	4.614007162753682	neutral	009	sub-07	2.0	3.0	009_neutral	0.0		226.63936363526682	
34.0	200.2002517447063	pulse	1.0	t		22.0	female	white	4.614007162753682	neutral	009	sub-07	2.0	3.0	009_neutral	0.0		227.33193384608057	
34.0	200.90023212431515	pulse	1.0	t		22.0	female	white	4.614007162753682	neutral	009	sub-07	2.0	3.0	009_neutral	0.0		228.03191422568943	
34.0	201.60020888169856	pulse	1.0	t		22.0	female	white	4.614007162753682	neutral	009	sub-07	2.0	3.0	009_neutral	0.0		228.73189098307284	
34.0	202.3001835261166	pulse	1.0	t		22.0	female	white	4.614007162753682	neutral	009	sub-07	2.0	3.0	009_neutral	0.0		229.43186562749088	
34.0	203.00016601869083	pulse	1.0	t		22.0	female	white	4.614007162753682	neutral	009	sub-07	2.0	3.0	009_neutral	0.0		230.13184812006511	
35.0	203.2667162710395	face	0.0		145	28.0	male	white	3.9076800636689217	smiling	033	sub-07	2.0	3.0	033_smiling	1.0	trustworthiness	230.3983983724138	1.2332961048996367
35.0	203.70015273719582	pulse	0.0	t		28.0	male	white	3.9076800636689217	smiling	033	sub-07	2.0	3.0	033_smiling	1.0	trustworthiness	230.8318348385701	
35.0	204.40012074086644	pulse	0.0	t		28.0	male	white	3.9076800636689217	smiling	033	sub-07	2.0	3.0	033_smiling	1.0	trustworthiness	231.53180284224072	
35.0	204.50001237593915	fix	1.0		177	28.0	male	white	3.9076800636689217	smiling	033	sub-07	2.0	3.0	033_smiling	1.0	trustworthiness	231.63169447731343	1.4999586462536172
35.0	205.10010625196264	pulse	1.0	t		28.0	male	white	3.9076800636689217	smiling	033	sub-07	2.0	3.0	033_smiling	1.0	trustworthiness	232.23178835333692	
35.0	205.8000872352759	pulse	1.0	t		28.0	male	white	3.9076800636689217	smiling	033	sub-07	2.0	3.0	033_smiling	1.0	trustworthiness	232.93176933665018	
35.0	205.99997102219277	rating	2.0		295	28.0	male	white	3.9076800636689217	smiling	033	sub-07	2.0	3.0	033_smiling	1.0	trustworthiness	233.13165312356705	2.4999233295502563
35.0	206.49484677984128	pulse	2.0	t		28.0	male	white	3.9076800636689217	smiling	033	sub-07	2.0	3.0	033_smiling	1.0	trustworthiness	233.62652888121556	
35.0	207.1947839945915	pulse	2.0	t		28.0	male	white	3.9076800636689217	smiling	033	sub-07	2.0	3.0	033_smiling	1.0	trustworthiness	234.32646609596577	
35.0	207.8947604501227	pulse	2.0	t		28.0	male	white	3.9076800636689217	smiling	033	sub-07	2.0	3.0	033_smiling	1.0	trustworthiness	235.02644255149698	
35.0	208.2614507618755	response	2.0	w		28.0	male	white	3.9076800636689217	smiling	033	sub-07	2.0	3.0	033_smiling	1.0	trustworthiness	235.39313286324978	
35.0	208.49989435174302	fix	3.0		443	28.0	male	white	3.9076800636689217	smiling	033	sub-07	2.0	3.0	033_smiling	1.0	trustworthiness	235.6315764531173	3.7582979160124523
35.0	208.59998219072259	pulse	3.0	t		28.0	male	white	3.9076800636689217	smiling	033	sub-07	2.0	3.0	033_smiling	1.0	trustworthiness	235.73166429209687	
35.0	209.29997736108817	pulse	3.0	t		28.0	male	white	3.9076800636689217	smiling	033	sub-07	2.0	3.0	033_smiling	1.0	trustworthiness	236.43165946246245	
35.0	209.99996257033217	pulse	3.0	t		28.0	male	white	3.9076800636689217	smiling	033	sub-07	2.0	3.0	033_smiling	1.0	trustworthiness	237.13164467170645	
35.0	210.6999387240112	pulse	3.0	t		28.0	male	white	3.9076800636689217	smiling	033	sub-07	2.0	3.0	033_smiling	1.0	trustworthiness	237.83162082538547	
35.0	211.39992966844602	pulse	3.0	t		28.0	male	white	3.9076800636689217	smiling	033	sub-07	2.0	3.0	033_smiling	1.0	trustworthiness	238.5316117698203	
35.0	212.09989103136922	pulse	3.0	t		28.0	male	white	3.9076800636689217	smiling	033	sub-07	2.0	3.0	033_smiling	1.0	trustworthiness	239.2315731327435	
36.0	212.25819226775548	face	0.0		147	19.0	female	white	4.298846000795861	smiling	100	sub-07	2.0	3.0	100_smiling	0.0		239.38987436912976	1.2415414986353426
36.0	212.79987292023907	pulse	0.0	t		19.0	female	white	4.298846000795861	smiling	100	sub-07	2.0	3.0	100_smiling	0.0		239.93155502161335	
36.0	213.49973376639082	fix	1.0		444	19.0	female	white	4.298846000795861	smiling	100	sub-07	2.0	3.0	100_smiling	0.0		240.6314158677651	3.766566552365475
36.0	213.5073223298159	pulse	1.0	t		19.0	female	white	4.298846000795861	smiling	100	sub-07	2.0	3.0	100_smiling	0.0		240.6390044311902	
36.0	214.19985239429207	pulse	1.0	t		19.0	female	white	4.298846000795861	smiling	100	sub-07	2.0	3.0	100_smiling	0.0		241.33153449566635	
36.0	214.89982371833594	pulse	1.0	t		19.0	female	white	4.298846000795861	smiling	100	sub-07	2.0	3.0	100_smiling	0.0		242.03150581971022	
36.0	215.59979443867633	pulse	1.0	t		19.0	female	white	4.298846000795861	smiling	100	sub-07	2.0	3.0	100_smiling	0.0		242.7314765400506	
36.0	216.29977179976413	pulse	1.0	t		19.0	female	white	4.298846000795861	smiling	100	sub-07	2.0	3.0	100_smiling	0.0		243.4314539011384	
36.0	216.99975429233837	pulse	1.0	t		19.0	female	white	4.298846000795861	smiling	100	sub-07	2.0	3.0	100_smiling	0.0		244.13143639371265	
37.0	217.2663003187563	face	0.0		145	23.0	male	white	2.6275368085953046	neutral	141	sub-07	2.0	3.0	141_neutral	0.0		244.39798242013057	1.2333133104730223
37.0	217.69973376639064	pulse	0.0	t		23.0	male	white	2.6275368085953046	neutral	141	sub-07	2.0	3.0	141_neutral	0.0		244.83141586776492	
37.0	218.39970358117444	pulse	0.0	t		23.0	male	white	2.6275368085953046	neutral	141	sub-07	2.0	3.0	141_neutral	0.0		245.53138568254872	
37.0	218.49961362922932	fix	1.0		444	23.0	male	white	2.6275368085953046	neutral	141	sub-07	2.0	3.0	141_neutral	0.0		245.6312957306036	3.766537574557333
37.0	219.09968999782723	pulse	1.0	t		23.0	male	white	2.6275368085953046	neutral	141	sub-07	2.0	3.0	141_neutral	0.0		246.2313720992015	
37.0	219.79963928666348	pulse	1.0	t		23.0	male	white	2.6275368085953046	neutral	141	sub-07	2.0	3.0	141_neutral	0.0		246.93132138803776	
37.0	220.49965769964547	pulse	1.0	t		23.0	male	white	2.6275368085953046	neutral	141	sub-07	2.0	3.0	141_neutral	0.0		247.63133980101975	
37.0	221.19962751442927	pulse	1.0	t		23.0	male	white	2.6275368085953046	neutral	141	sub-07	2.0	3.0	141_neutral	0.0		248.33130961580355	
37.0	221.89962177923735	pulse	1.0	t		23.0	male	white	2.6275368085953046	neutral	141	sub-07	2.0	3.0	141_neutral	0.0		249.03130388061163	
38.0	222.26615120378665	face	0.0		145	24.0	female	east_asian	4.409868682849185	smiling	030	sub-07	2.0	3.0	030_smiling	0.0		249.39783330516093	1.2332976141606196
38.0	222.59959189587335	pulse	0.0	t		24.0	female	east_asian	4.409868682849185	smiling	030	sub-07	2.0	3.0	030_smiling	0.0		249.73127399724763	
38.0	223.29955869213518	pulse	0.0	t		24.0	female	east_asian	4.409868682849185	smiling	030	sub-07	2.0	3.0	030_smiling	0.0		250.43124079350946	
38.0	223.49944881794727	fix	1.0		444	24.0	female	east_asian	4.409868682849185	smiling	030	sub-07	2.0	3.0	030_smiling	0.0		250.63113091932155	3.7665351597397603
38.0	223.99954661804895	pulse	1.0	t		24.0	female	east_asian	4.409868682849185	smiling	030	sub-07	2.0	3.0	030_smiling	0.0		251.13122871942323	
38.0	224.69952156431918	pulse	1.0	t		24.0	female	east_asian	4.409868682849185	smiling	030	sub-07	2.0	3.0	030_smiling	0.0		251.83120366569347	
38.0	225.39949952911138	pulse	1.0	t		24.0	female	east_asian	4.409868682849185	smiling	030	sub-07	2.0	3.0	030_smiling	0.0		252.53118163048566	
38.0	226.09948594576326	pulse	1.0	t		24.0	female	east_asian	4.409868682849185	smiling	030	sub-07	2.0	3.0	030_smiling	0.0		253.23116804713754	
38.0	226.79947024945068	pulse	1.0	t		24.0	female	east_asian	4.409868682849185	smiling	030	sub-07	2.0	3.0	030_smiling	0.0		253.93115235082496	
39.0	227.26598397768703	face	0.0		145	20.0	female	white	3.9502586549940313	smiling	091	sub-07	2.0	3.0	091_smiling	0.0		254.3976660790613	1.2333217623345263
39.0	227.49944398831303	pulse	0.0	t		20.0	female	white	3.9502586549940313	smiling	091	sub-07	2.0	3.0	091_smiling	0.0		254.6311260896873	
39.0	228.1994086716095	pulse	0.0	t		20.0	female	white	3.9502586549940313	smiling	091	sub-07	2.0	3.0	091_smiling	0.0		255.33109077298377	
39.0	228.49930574002155	fix	1.0		444	20.0	female	white	3.9502586549940313	smiling	091	sub-07	2.0	3.0	091_smiling	0.0		255.63098784139584	3.749894955446507
39.0	228.8994014271575	pulse	1.0	t		20.0	female	white	3.9502586549940313	smiling	091	sub-07	2.0	3.0	091_smiling	0.0		256.0310835285318	
39.0	229.5993790900975	pulse	1.0	t		20.0	female	white	3.9502586549940313	smiling	091	sub-07	2.0	3.0	091_smiling	0.0		256.7310611914718	
39.0	230.2993313974548	pulse	1.0	t		20.0	female	white	3.9502586549940313	smiling	091	sub-07	2.0	3.0	091_smiling	0.0		257.4310134988291	
39.0	230.99933894375954	pulse	1.0	t		20.0	female	white	3.9502586549940313	smiling	091	sub-07	2.0	3.0	091_smiling	0.0		258.1310210451338	
39.0	231.69931419188197	pulse	1.0	t		20.0	female	white	3.9502586549940313	smiling	091	sub-07	2.0	3.0	091_smiling	0.0		258.83099629325625	
40.0	232.24920069546806	fix	0.0		721													259.38088279684234	6.0081448769651615
40.0	232.3992975900128	pulse	0.0	t														259.5309796913871	
40.0	233.0992897418564	pulse	0.0	t														260.2309718432307	
40.0	233.7993160029946	pulse	0.0	t														260.9309981043689	
40.0	234.49923571031923	pulse	0.0	t														261.6309178116935	
40.0	235.1992061288065	pulse	0.0	t														262.3308882301808	
40.0	235.89919103619832	pulse	0.0	t														263.0308731375726	
40.0	236.59917473618134	pulse	0.0	t														263.7308568375556	
40.0	237.29914515466953	pulse	0.0	t														264.4308272560438	
40.0	237.99912161020075	pulse	0.0	t														265.130803711575	
