trial_nr	onset	event_type	phase	response	nr_frames	face_age	face_sex	face_eth	attractiveness	expression	face_id	sub_id	ses	run	trial_type	catch	onset_abs	duration
-1.0	0.06018743372442259	fix	0.0		713												64.10780955738755	5.957921741726295
-1.0	0.7016584808675361	pulse	0.0	t													64.74928060453067	
-1.0	1.401654647311716	pulse	0.0	t													65.44927677097485	
-1.0	2.101628778354552	pulse	0.0	t													66.14925090201768	
-1.0	2.801621926250391	pulse	0.0	t													66.84924404991352	
-1.0	3.5015972647124727	pulse	0.0	t													67.5492193883756	
-1.0	4.201594034866048	pulse	0.0	t													68.24921615852918	
-1.0	4.901572391876471	pulse	0.0	t													68.9491945155396	
-1.0	5.601646738715772	pulse	0.0	t													69.6492688623789	
0.0	6.018109175450718	face	0.0		144	30.0	female	black	2.7345801830481498	smiling	062	sub-02	1.0	2.0	062_smiling	0.0	70.06573129911385	1.2332730931757396
0.0	6.301649847820045	pulse	0.0	t		30.0	female	black	2.7345801830481498	smiling	062	sub-02	1.0	2.0	062_smiling	0.0	70.34927197148318	
0.0	7.001655975472659	pulse	0.0	t		30.0	female	black	2.7345801830481498	smiling	062	sub-02	1.0	2.0	062_smiling	0.0	71.04927809913579	
0.0	7.2513822686264575	fix	1.0		444	30.0	female	black	2.7345801830481498	smiling	062	sub-02	1.0	2.0	062_smiling	0.0	71.29900439228959	3.758415636561949
0.0	7.701523249913862	pulse	1.0	t		30.0	female	black	2.7345801830481498	smiling	062	sub-02	1.0	2.0	062_smiling	0.0	71.749145373577	
0.0	8.401497682811623	pulse	1.0	t		30.0	female	black	2.7345801830481498	smiling	062	sub-02	1.0	2.0	062_smiling	0.0	72.44911980647476	
0.0	9.10148418990184	pulse	1.0	t		30.0	female	black	2.7345801830481498	smiling	062	sub-02	1.0	2.0	062_smiling	0.0	73.14910631356497	
0.0	9.801478545216924	pulse	1.0	t		30.0	female	black	2.7345801830481498	smiling	062	sub-02	1.0	2.0	062_smiling	0.0	73.84910066888006	
0.0	10.501448752147553	pulse	1.0	t		30.0	female	black	2.7345801830481498	smiling	062	sub-02	1.0	2.0	062_smiling	0.0	74.54907087581068	
1.0	11.009797905188407	face	0.0		146	20.0	male	black	2.609629924393156	neutral	043	sub-02	1.0	2.0	043_neutral	0.0	75.05742002885154	1.241519464654175
1.0	11.201446427865449	pulse	0.0	t		20.0	male	black	2.609629924393156	neutral	043	sub-02	1.0	2.0	043_neutral	0.0	75.24906855152858	
1.0	11.901429614552853	pulse	0.0	t		20.0	male	black	2.609629924393156	neutral	043	sub-02	1.0	2.0	043_neutral	0.0	75.94905173821599	
1.0	12.251317369842582	fix	1.0		444	20.0	male	black	2.609629924393156	neutral	043	sub-02	1.0	2.0	043_neutral	0.0	76.29893949350571	3.7665545477293563
1.0	12.601410990111162	pulse	1.0	t		20.0	male	black	2.609629924393156	neutral	043	sub-02	1.0	2.0	043_neutral	0.0	76.6490331137743	
1.0	13.301395686072283	pulse	1.0	t		20.0	male	black	2.609629924393156	neutral	043	sub-02	1.0	2.0	043_neutral	0.0	77.34901780973541	
1.0	14.00137343937331	pulse	1.0	t		20.0	male	black	2.609629924393156	neutral	043	sub-02	1.0	2.0	043_neutral	0.0	78.04899556303644	
1.0	14.701363568720808	pulse	1.0	t		20.0	male	black	2.609629924393156	neutral	043	sub-02	1.0	2.0	043_neutral	0.0	78.74898569238394	
1.0	15.401349170246704	pulse	1.0	t		20.0	male	black	2.609629924393156	neutral	043	sub-02	1.0	2.0	043_neutral	0.0	79.44897129390984	
2.0	16.017871917571938	face	0.0		145	32.0	male	white	2.389176283326701	smiling	092	sub-02	1.0	2.0	092_smiling	1.0	80.06549404123507	1.2333232010737447
2.0	16.1013018695985	pulse	0.0	t		32.0	male	white	2.389176283326701	smiling	092	sub-02	1.0	2.0	092_smiling	1.0	80.14892399326163	
2.0	16.80141032603069	pulse	0.0	t		32.0	male	white	2.389176283326701	smiling	092	sub-02	1.0	2.0	092_smiling	1.0	80.84903244969382	
2.0	17.251195118645683	fix	1.0		236	32.0	male	white	2.389176283326701	smiling	092	sub-02	1.0	2.0	092_smiling	1.0	81.29881724230881	2.0083378334857116
2.0	17.501308993371822	pulse	1.0	t		32.0	male	white	2.389176283326701	smiling	092	sub-02	1.0	2.0	092_smiling	1.0	81.54893111703495	
2.0	18.201290670785056	pulse	1.0	t		32.0	male	white	2.389176283326701	smiling	092	sub-02	1.0	2.0	092_smiling	1.0	82.24891279444819	
2.0	18.901278385294518	pulse	1.0	t		32.0	male	white	2.389176283326701	smiling	092	sub-02	1.0	2.0	092_smiling	1.0	82.94890050895765	
2.0	19.259532952131394	rating	2.0		234	32.0	male	white	2.389176283326701	smiling	092	sub-02	1.0	2.0	092_smiling	1.0	83.30715507579453	1.9915966640210172
2.0	19.601280890689395	pulse	2.0	t		32.0	male	white	2.389176283326701	smiling	092	sub-02	1.0	2.0	092_smiling	1.0	83.64890301435253	
2.0	20.259610528816665	response	2.0	w		32.0	male	white	2.389176283326701	smiling	092	sub-02	1.0	2.0	092_smiling	1.0	84.3072326524798	
2.0	20.30124928649093	pulse	2.0	t		32.0	male	white	2.389176283326701	smiling	092	sub-02	1.0	2.0	092_smiling	1.0	84.34887141015406	
2.0	21.001242434386768	pulse	2.0	t		32.0	male	white	2.389176283326701	smiling	092	sub-02	1.0	2.0	092_smiling	1.0	85.0488645580499	
2.0	21.25112961615241	fix	3.0		444	32.0	male	white	2.389176283326701	smiling	092	sub-02	1.0	2.0	092_smiling	1.0	85.29875173981554	3.7582846315758616
2.0	21.70123346929904	pulse	3.0	t		32.0	male	white	2.389176283326701	smiling	092	sub-02	1.0	2.0	092_smiling	1.0	85.74885559296217	
2.0	22.401208807761122	pulse	3.0	t		32.0	male	white	2.389176283326701	smiling	092	sub-02	1.0	2.0	092_smiling	1.0	86.44883093142425	
2.0	23.101193805577168	pulse	3.0	t		32.0	male	white	2.389176283326701	smiling	092	sub-02	1.0	2.0	092_smiling	1.0	87.1488159292403	
2.0	23.801175181135932	pulse	3.0	t		32.0	male	white	2.389176283326701	smiling	092	sub-02	1.0	2.0	092_smiling	1.0	87.84879730479906	
2.0	24.501160178951977	pulse	3.0	t		32.0	male	white	2.389176283326701	smiling	092	sub-02	1.0	2.0	092_smiling	1.0	88.54878230261511	
3.0	25.009414247728273	face	0.0		146	47.0	male	east_asian	2.171110226820533	smiling	024	sub-02	1.0	2.0	024_smiling	0.0	89.0570363713914	1.2415940227920146
3.0	25.201109859755434	pulse	0.0	t		47.0	male	east_asian	2.171110226820533	smiling	024	sub-02	1.0	2.0	024_smiling	0.0	89.24873198341857	
3.0	25.9012503127974	pulse	0.0	t		47.0	male	east_asian	2.171110226820533	smiling	024	sub-02	1.0	2.0	024_smiling	0.0	89.94887243646053	
3.0	26.251008270520288	fix	1.0		444	47.0	male	east_asian	2.171110226820533	smiling	024	sub-02	1.0	2.0	024_smiling	0.0	90.29863039418342	3.766573866436829
3.0	26.601118492802925	pulse	1.0	t		47.0	male	east_asian	2.171110226820533	smiling	024	sub-02	1.0	2.0	024_smiling	0.0	90.64874061646606	
3.0	27.30110167949033	pulse	1.0	t		47.0	male	east_asian	2.171110226820533	smiling	024	sub-02	1.0	2.0	024_smiling	0.0	91.34872380315346	
3.0	28.001088488435016	pulse	1.0	t		47.0	male	east_asian	2.171110226820533	smiling	024	sub-02	1.0	2.0	024_smiling	0.0	92.04871061209815	
3.0	28.70106926028393	pulse	1.0	t		47.0	male	east_asian	2.171110226820533	smiling	024	sub-02	1.0	2.0	024_smiling	0.0	92.74869138394706	
3.0	29.40106814342107	pulse	1.0	t		47.0	male	east_asian	2.171110226820533	smiling	024	sub-02	1.0	2.0	024_smiling	0.0	93.4486902670842	
4.0	30.017582136957117	face	0.0		145	20.0	male	black	3.1070433744528456	smiling	082	sub-02	1.0	2.0	082_smiling	0.0	94.06520426062025	1.2333210880901788
4.0	30.101002731484186	pulse	0.0	t		20.0	male	black	3.1070433744528456	smiling	082	sub-02	1.0	2.0	082_smiling	0.0	94.14862485514732	
4.0	30.800989842284253	pulse	0.0	t		20.0	male	black	3.1070433744528456	smiling	082	sub-02	1.0	2.0	082_smiling	0.0	94.84861196594738	
4.0	31.250903225047296	fix	1.0		444	20.0	male	black	3.1070433744528456	smiling	082	sub-02	1.0	2.0	082_smiling	0.0	95.29852534871043	3.7665699423246224
4.0	31.50101528864434	pulse	1.0	t		20.0	male	black	3.1070433744528456	smiling	082	sub-02	1.0	2.0	082_smiling	0.0	95.54863741230747	
4.0	32.20101085137867	pulse	1.0	t		20.0	male	black	3.1070433744528456	smiling	082	sub-02	1.0	2.0	082_smiling	0.0	96.2486329750418	
4.0	32.90098528427643	pulse	1.0	t		20.0	male	black	3.1070433744528456	smiling	082	sub-02	1.0	2.0	082_smiling	0.0	96.94860740793956	
4.0	33.6009838655591	pulse	1.0	t		20.0	male	black	3.1070433744528456	smiling	082	sub-02	1.0	2.0	082_smiling	0.0	97.64860598922223	
4.0	34.30096131700475	pulse	1.0	t		20.0	male	black	3.1070433744528456	smiling	082	sub-02	1.0	2.0	082_smiling	0.0	98.34858344066788	
5.0	35.01747316737192	face	0.0		146	22.0	female	west_asian	3.8205332272184642	smiling	066	sub-02	1.0	2.0	066_smiling	0.0	99.06509529103505	1.2333292381695173
5.0	35.00394886458844	pulse	0.0	t		22.0	female	west_asian	3.8205332272184642	smiling	066	sub-02	1.0	2.0	066_smiling	0.0	99.05157098825157	
5.0	35.700930708927444	pulse	0.0	t		22.0	female	west_asian	3.8205332272184642	smiling	066	sub-02	1.0	2.0	066_smiling	0.0	99.74855283259058	
5.0	36.250802405541435	fix	1.0		443	22.0	female	west_asian	3.8205332272184642	smiling	066	sub-02	1.0	2.0	066_smiling	0.0	100.29842452920457	3.7665886573227
5.0	36.40091057521158	pulse	1.0	t		22.0	female	west_asian	3.8205332272184642	smiling	066	sub-02	1.0	2.0	066_smiling	0.0	100.44853269887471	
5.0	37.10089798786612	pulse	1.0	t		22.0	female	west_asian	3.8205332272184642	smiling	066	sub-02	1.0	2.0	066_smiling	0.0	101.14852011152925	
5.0	37.80089355060045	pulse	1.0	t		22.0	female	west_asian	3.8205332272184642	smiling	066	sub-02	1.0	2.0	066_smiling	0.0	101.84851567426358	
5.0	38.50086315382168	pulse	1.0	t		22.0	female	west_asian	3.8205332272184642	smiling	066	sub-02	1.0	2.0	066_smiling	0.0	102.54848527748482	
5.0	39.200863848087465	pulse	1.0	t		22.0	female	west_asian	3.8205332272184642	smiling	066	sub-02	1.0	2.0	066_smiling	0.0	103.2484859717506	
5.0	39.9008455255007	pulse	1.0	t		22.0	female	west_asian	3.8205332272184642	smiling	066	sub-02	1.0	2.0	066_smiling	0.0	103.94846764916383	
6.0	40.017391062864135	face	0.0		146	31.0	female	east_asian	3.395941106247513	neutral	087	sub-02	1.0	2.0	087_neutral	0.0	104.06501318652727	1.2333038823658171
6.0	40.60082629734961	pulse	0.0	t		31.0	female	east_asian	3.395941106247513	neutral	087	sub-02	1.0	2.0	087_neutral	0.0	104.64844842101274	
6.0	41.25069494522995	fix	1.0		443	31.0	female	east_asian	3.395941106247513	neutral	087	sub-02	1.0	2.0	087_neutral	0.0	105.29831706889308	3.7582423719027247
6.0	41.30081371000415	pulse	1.0	t		31.0	female	east_asian	3.395941106247513	neutral	087	sub-02	1.0	2.0	087_neutral	0.0	105.34843583366728	
6.0	42.00080414120657	pulse	1.0	t		31.0	female	east_asian	3.395941106247513	neutral	087	sub-02	1.0	2.0	087_neutral	0.0	106.0484262648697	
6.0	42.70078853531322	pulse	1.0	t		31.0	female	east_asian	3.395941106247513	neutral	087	sub-02	1.0	2.0	087_neutral	0.0	106.74841065897635	
6.0	43.400768703452286	pulse	1.0	t		31.0	female	east_asian	3.395941106247513	neutral	087	sub-02	1.0	2.0	087_neutral	0.0	107.44839082711542	
6.0	44.10074615489839	pulse	1.0	t		31.0	female	east_asian	3.395941106247513	neutral	087	sub-02	1.0	2.0	087_neutral	0.0	108.14836827856152	
6.0	44.800736284245886	pulse	1.0	t		31.0	female	east_asian	3.395941106247513	neutral	087	sub-02	1.0	2.0	087_neutral	0.0	108.84835840790902	
7.0	45.00893731713268	face	0.0		146	40.0	male	white	1.868682849184242	neutral	172	sub-02	1.0	2.0	172_neutral	0.0	109.05655944079581	1.2416190767407898
7.0	45.50084655180717	pulse	0.0	t		40.0	male	white	1.868682849184242	neutral	172	sub-02	1.0	2.0	172_neutral	0.0	109.5484686754703	
7.0	46.20066764246303	pulse	0.0	t		40.0	male	white	1.868682849184242	neutral	172	sub-02	1.0	2.0	172_neutral	0.0	110.24828976612616	
7.0	46.25055639387347	fix	1.0		445	40.0	male	white	1.868682849184242	neutral	172	sub-02	1.0	2.0	172_neutral	0.0	110.2981785175366	3.766609183449873
7.0	46.90069640922593	pulse	1.0	t		40.0	male	white	1.868682849184242	neutral	172	sub-02	1.0	2.0	172_neutral	0.0	110.94831853288906	
7.0	47.60067174768801	pulse	1.0	t		40.0	male	white	1.868682849184242	neutral	172	sub-02	1.0	2.0	172_neutral	0.0	111.64829387135114	
7.0	48.30065523623034	pulse	1.0	t		40.0	male	white	1.868682849184242	neutral	172	sub-02	1.0	2.0	172_neutral	0.0	112.34827735989347	
7.0	49.00064838412618	pulse	1.0	t		40.0	male	white	1.868682849184242	neutral	172	sub-02	1.0	2.0	172_neutral	0.0	113.04827050778931	
7.0	49.700633381942225	pulse	1.0	t		40.0	male	white	1.868682849184242	neutral	172	sub-02	1.0	2.0	172_neutral	0.0	113.74825550560536	
8.0	50.01716557732334	face	0.0		145	28.0	female	white	5.676880222841227	smiling	124	sub-02	1.0	2.0	124_smiling	0.0	114.06478770098647	1.2333204843803287
8.0	50.40058547758417	pulse	0.0	t		28.0	female	white	5.676880222841227	smiling	124	sub-02	1.0	2.0	124_smiling	0.0	114.4482076012473	
8.0	51.1005828514476	pulse	0.0	t		28.0	female	white	5.676880222841227	smiling	124	sub-02	1.0	2.0	124_smiling	0.0	115.14820497511073	
8.0	51.25048606170367	fix	1.0		444	28.0	female	white	5.676880222841227	smiling	124	sub-02	1.0	2.0	124_smiling	0.0	115.2981081853668	3.766596505547568
8.0	51.800605882969194	pulse	1.0	t		28.0	female	white	5.676880222841227	smiling	124	sub-02	1.0	2.0	124_smiling	0.0	115.84822800663233	
8.0	52.50058484368901	pulse	1.0	t		28.0	female	white	5.676880222841227	smiling	124	sub-02	1.0	2.0	124_smiling	0.0	116.54820696735214	
8.0	53.20056863408627	pulse	1.0	t		28.0	female	white	5.676880222841227	smiling	124	sub-02	1.0	2.0	124_smiling	0.0	117.2481907577494	
8.0	53.90054487811267	pulse	1.0	t		28.0	female	white	5.676880222841227	smiling	124	sub-02	1.0	2.0	124_smiling	0.0	117.9481670017758	
8.0	54.60053349818645	pulse	1.0	t		28.0	female	white	5.676880222841227	smiling	124	sub-02	1.0	2.0	124_smiling	0.0	118.64815562184958	
9.0	55.01708256725124	face	0.0		145	23.0	male	white	2.6275368085953046	smiling	141	sub-02	1.0	2.0	141_smiling	0.0	119.06470469091437	1.2333174658324424
9.0	55.30064195461864	pulse	0.0	t		23.0	male	white	2.6275368085953046	smiling	141	sub-02	1.0	2.0	141_smiling	0.0	119.34826407828177	
9.0	56.00063208396659	pulse	0.0	t		23.0	male	white	2.6275368085953046	smiling	141	sub-02	1.0	2.0	141_smiling	0.0	120.04825420762972	
9.0	56.25040003308368	fix	1.0		444	23.0	male	white	2.6275368085953046	smiling	141	sub-02	1.0	2.0	141_smiling	0.0	120.29802215674681	3.7583492285043576
9.0	56.700491208328	pulse	1.0	t		23.0	male	white	2.6275368085953046	smiling	141	sub-02	1.0	2.0	141_smiling	0.0	120.74811333199114	
9.0	57.40048858219143	pulse	1.0	t		23.0	male	white	2.6275368085953046	smiling	141	sub-02	1.0	2.0	141_smiling	0.0	121.44811070585456	
9.0	58.100462713234265	pulse	1.0	t		23.0	male	white	2.6275368085953046	smiling	141	sub-02	1.0	2.0	141_smiling	0.0	122.1480848368974	
9.0	58.8004501258888	pulse	1.0	t		23.0	male	white	2.6275368085953046	smiling	141	sub-02	1.0	2.0	141_smiling	0.0	122.84807224955193	
9.0	59.500442670075245	pulse	1.0	t		23.0	male	white	2.6275368085953046	smiling	141	sub-02	1.0	2.0	141_smiling	0.0	123.54806479373838	
10.0	60.00874926158804	face	0.0		146	28.0	male	white	3.9076800636689217	neutral	033	sub-02	1.0	2.0	033_neutral	1.0	124.05637138525117	1.2415445186034049
10.0	60.200380276686246	pulse	0.0	t		28.0	male	white	3.9076800636689217	neutral	033	sub-02	1.0	2.0	033_neutral	1.0	124.24800240034938	
10.0	60.90041749538432	pulse	0.0	t		28.0	male	white	3.9076800636689217	neutral	033	sub-02	1.0	2.0	033_neutral	1.0	124.94803961904745	
10.0	61.25029378019144	fix	1.0		236	28.0	male	white	3.9076800636689217	neutral	033	sub-02	1.0	2.0	033_neutral	1.0	125.29791590385457	1.9999616644395246
10.0	61.60039977650695	pulse	1.0	t		28.0	male	white	3.9076800636689217	neutral	033	sub-02	1.0	2.0	033_neutral	1.0	125.64802190017008	
10.0	62.300377227952595	pulse	1.0	t		28.0	male	white	3.9076800636689217	neutral	033	sub-02	1.0	2.0	033_neutral	1.0	126.34799935161573	
10.0	63.00036584802638	pulse	1.0	t		28.0	male	white	3.9076800636689217	neutral	033	sub-02	1.0	2.0	033_neutral	1.0	127.04798797168951	
10.0	63.250255444630966	rating	2.0		235	28.0	male	white	3.9076800636689217	neutral	033	sub-02	1.0	2.0	033_neutral	1.0	127.2978775682941	1.9999701163737882
10.0	63.70035356253584	pulse	2.0	t		28.0	male	white	3.9076800636689217	neutral	033	sub-02	1.0	2.0	033_neutral	1.0	127.74797568619897	
10.0	63.875359320416464	response	2.0	b		28.0	male	white	3.9076800636689217	neutral	033	sub-02	1.0	2.0	033_neutral	1.0	127.9229814440796	
10.0	64.40032859914345	pulse	2.0	t		28.0	male	white	3.9076800636689217	neutral	033	sub-02	1.0	2.0	033_neutral	1.0	128.44795072280658	
10.0	65.10034076389229	pulse	2.0	t		28.0	male	white	3.9076800636689217	neutral	033	sub-02	1.0	2.0	033_neutral	1.0	129.14796288755542	
10.0	65.25022556100475	fix	3.0		444	28.0	male	white	3.9076800636689217	neutral	033	sub-02	1.0	2.0	033_neutral	1.0	129.2978476846679	3.7665629996640746
10.0	65.80030191517835	pulse	3.0	t		28.0	male	white	3.9076800636689217	neutral	033	sub-02	1.0	2.0	033_neutral	1.0	129.84792403884148	
10.0	66.50028812041364	pulse	3.0	t		28.0	male	white	3.9076800636689217	neutral	033	sub-02	1.0	2.0	033_neutral	1.0	130.54791024407677	
10.0	67.20028428685782	pulse	3.0	t		28.0	male	white	3.9076800636689217	neutral	033	sub-02	1.0	2.0	033_neutral	1.0	131.24790641052095	
10.0	67.90026807725462	pulse	3.0	t		28.0	male	white	3.9076800636689217	neutral	033	sub-02	1.0	2.0	033_neutral	1.0	131.94789020091775	
10.0	68.60023828418525	pulse	3.0	t		28.0	male	white	3.9076800636689217	neutral	033	sub-02	1.0	2.0	033_neutral	1.0	132.64786040784838	
11.0	69.01678856066883	face	0.0		145	25.0	female	west_asian	2.6756864305610826	neutral	064	sub-02	1.0	2.0	064_neutral	0.0	133.06441068433196	1.233281545110458
11.0	69.30024320441862	pulse	0.0	t		25.0	female	west_asian	2.6756864305610826	neutral	064	sub-02	1.0	2.0	064_neutral	0.0	133.34786532808175	
11.0	70.00018503699721	pulse	0.0	t		25.0	female	west_asian	2.6756864305610826	neutral	064	sub-02	1.0	2.0	064_neutral	0.0	134.04780716066034	
11.0	70.25007010577929	fix	1.0		444	25.0	female	west_asian	2.6756864305610826	neutral	064	sub-02	1.0	2.0	064_neutral	0.0	134.29769222944242	3.766598920386059
11.0	70.70019810731037	pulse	1.0	t		25.0	female	west_asian	2.6756864305610826	neutral	064	sub-02	1.0	2.0	064_neutral	0.0	134.7478202309735	
11.0	71.40018189770717	pulse	1.0	t		25.0	female	west_asian	2.6756864305610826	neutral	064	sub-02	1.0	2.0	064_neutral	0.0	135.4478040213703	
11.0	72.10016780108754	pulse	1.0	t		25.0	female	west_asian	2.6756864305610826	neutral	064	sub-02	1.0	2.0	064_neutral	0.0	136.14778992475067	
11.0	72.80015038406509	pulse	1.0	t		25.0	female	west_asian	2.6756864305610826	neutral	064	sub-02	1.0	2.0	064_neutral	0.0	136.84777250772822	
11.0	73.50013326889757	pulse	1.0	t		25.0	female	west_asian	2.6756864305610826	neutral	064	sub-02	1.0	2.0	064_neutral	0.0	137.5477553925607	
12.0	74.01666902616535	face	0.0		145	20.0	female	white	3.9502586549940313	smiling	091	sub-02	1.0	2.0	091_smiling	0.0	138.06429114982848	1.2333189751061582
12.0	74.2001599226769	pulse	0.0	t		20.0	female	white	3.9502586549940313	smiling	091	sub-02	1.0	2.0	091_smiling	0.0	138.24778204634003	
12.0	74.90007639945179	pulse	0.0	t		20.0	female	white	3.9502586549940313	smiling	091	sub-02	1.0	2.0	091_smiling	0.0	138.94769852311492	
12.0	75.2499880012715	fix	1.0		444	20.0	female	white	3.9502586549940313	smiling	091	sub-02	1.0	2.0	091_smiling	0.0	139.29761012493464	3.7665747720016043
12.0	75.60009520500626	pulse	1.0	t		20.0	female	white	3.9502586549940313	smiling	091	sub-02	1.0	2.0	091_smiling	0.0	139.6477173286694	
12.0	76.30009257886968	pulse	1.0	t		20.0	female	white	3.9502586549940313	smiling	091	sub-02	1.0	2.0	091_smiling	0.0	140.3477147025328	
12.0	77.00014489030764	pulse	1.0	t		20.0	female	white	3.9502586549940313	smiling	091	sub-02	1.0	2.0	091_smiling	0.0	141.04776701397077	
12.0	77.70005804667971	pulse	1.0	t		20.0	female	white	3.9502586549940313	smiling	091	sub-02	1.0	2.0	091_smiling	0.0	141.74768017034285	
12.0	78.4000327814324	pulse	1.0	t		20.0	female	white	3.9502586549940313	smiling	091	sub-02	1.0	2.0	091_smiling	0.0	142.44765490509553	
13.0	79.01656277327311	face	0.0		145	47.0	male	east_asian	2.171110226820533	neutral	024	sub-02	1.0	2.0	024_neutral	0.0	143.06418489693624	1.2333171639775173
13.0	79.09998668820344	pulse	0.0	t		47.0	male	east_asian	2.171110226820533	neutral	024	sub-02	1.0	2.0	024_neutral	0.0	143.14760881186658	
13.0	79.7999831565021	pulse	0.0	t		47.0	male	east_asian	2.171110226820533	neutral	024	sub-02	1.0	2.0	024_neutral	0.0	143.84760528016523	
13.0	80.24987993725063	fix	1.0		444	47.0	male	east_asian	2.171110226820533	neutral	024	sub-02	1.0	2.0	024_neutral	0.0	144.29750206091376	3.7665726590180384
13.0	80.49998445447773	pulse	1.0	t		47.0	male	east_asian	2.171110226820533	neutral	024	sub-02	1.0	2.0	024_neutral	0.0	144.54760657814086	
13.0	81.1999673393102	pulse	1.0	t		47.0	male	east_asian	2.171110226820533	neutral	024	sub-02	1.0	2.0	024_neutral	0.0	145.24758946297334	
13.0	81.8999656187375	pulse	1.0	t		47.0	male	east_asian	2.171110226820533	neutral	024	sub-02	1.0	2.0	024_neutral	0.0	145.94758774240063	
13.0	82.59994156090943	pulse	1.0	t		47.0	male	east_asian	2.171110226820533	neutral	024	sub-02	1.0	2.0	024_neutral	0.0	146.64756368457256	
13.0	83.29993319953155	pulse	1.0	t		47.0	male	east_asian	2.171110226820533	neutral	024	sub-02	1.0	2.0	024_neutral	0.0	147.34755532319468	
14.0	84.01645259626866	face	0.0		146	22.0	female	white	4.614007162753682	neutral	009	sub-02	1.0	2.0	009_neutral	0.0	148.0640747199318	1.2333277288958016
14.0	84.0029892681564	pulse	0.0	t		22.0	female	white	4.614007162753682	neutral	009	sub-02	1.0	2.0	009_neutral	0.0	148.05061139181953	
14.0	84.69991466564625	pulse	0.0	t		22.0	female	white	4.614007162753682	neutral	009	sub-02	1.0	2.0	009_neutral	0.0	148.74753678930938	
14.0	85.24978032516447	fix	1.0		443	22.0	female	white	4.614007162753682	neutral	009	sub-02	1.0	2.0	009_neutral	0.0	149.2974024488276	3.758345606246621
14.0	85.39989845604305	pulse	1.0	t		22.0	female	white	4.614007162753682	neutral	009	sub-02	1.0	2.0	009_neutral	0.0	149.44752057970618	
14.0	86.09989311321306	pulse	1.0	t		22.0	female	white	4.614007162753682	neutral	009	sub-02	1.0	2.0	009_neutral	0.0	150.1475152368762	
14.0	86.79987841288403	pulse	1.0	t		22.0	female	white	4.614007162753682	neutral	009	sub-02	1.0	2.0	009_neutral	0.0	150.84750053654716	
14.0	87.49984831795973	pulse	1.0	t		22.0	female	white	4.614007162753682	neutral	009	sub-02	1.0	2.0	009_neutral	0.0	151.54747044162286	
14.0	88.19982969351804	pulse	1.0	t		22.0	female	white	4.614007162753682	neutral	009	sub-02	1.0	2.0	009_neutral	0.0	152.24745181718117	
14.0	88.89982103028478	pulse	1.0	t		22.0	female	white	4.614007162753682	neutral	009	sub-02	1.0	2.0	009_neutral	0.0	152.94744315394792	
15.0	89.00812593141109	face	0.0		147	21.0	male	east_asian/white	3.501790688420215	smiling	036	sub-02	1.0	2.0	036_smiling	0.0	153.05574805507422	1.2415650447301232
15.0	89.59981930971253	pulse	0.0	t		21.0	male	east_asian/white	3.501790688420215	smiling	036	sub-02	1.0	2.0	036_smiling	0.0	153.64744143337566	
15.0	90.24969097614121	fix	1.0		443	21.0	male	east_asian/white	3.501790688420215	smiling	036	sub-02	1.0	2.0	036_smiling	0.0	154.29731309980434	3.7665584718420178
15.0	90.29979796857788	pulse	1.0	t		21.0	male	east_asian/white	3.501790688420215	smiling	036	sub-02	1.0	2.0	036_smiling	0.0	154.347420092241	
15.0	90.99977179776579	pulse	1.0	t		21.0	male	east_asian/white	3.501790688420215	smiling	036	sub-02	1.0	2.0	036_smiling	0.0	155.04739392142892	
15.0	91.69975347517902	pulse	1.0	t		21.0	male	east_asian/white	3.501790688420215	smiling	036	sub-02	1.0	2.0	036_smiling	0.0	155.74737559884215	
15.0	92.39977469557198	pulse	1.0	t		21.0	male	east_asian/white	3.501790688420215	smiling	036	sub-02	1.0	2.0	036_smiling	0.0	156.4473968192351	
15.0	93.09973011161719	pulse	1.0	t		21.0	male	east_asian/white	3.501790688420215	smiling	036	sub-02	1.0	2.0	036_smiling	0.0	157.14735223528032	
15.0	93.79971510943324	pulse	1.0	t		21.0	male	east_asian/white	3.501790688420215	smiling	036	sub-02	1.0	2.0	036_smiling	0.0	157.84733723309637	
16.0	94.01624944798323	face	0.0		145	20.0	male	black	2.609629924393156	smiling	043	sub-02	1.0	2.0	043_smiling	0.0	158.06387157164636	1.2333017693822512
16.0	94.49970493692626	pulse	0.0	t		20.0	male	black	2.609629924393156	smiling	043	sub-02	1.0	2.0	043_smiling	0.0	158.5473270605894	
16.0	95.19969446256437	pulse	0.0	t		20.0	male	black	2.609629924393156	smiling	043	sub-02	1.0	2.0	043_smiling	0.0	159.2473165862275	
16.0	95.24955121736548	fix	1.0		444	20.0	male	black	2.609629924393156	smiling	043	sub-02	1.0	2.0	043_smiling	0.0	159.2971733410286	3.7665934869996818
16.0	95.89968549747664	pulse	1.0	t		20.0	male	black	2.609629924393156	smiling	043	sub-02	1.0	2.0	043_smiling	0.0	159.94730762113977	
16.0	96.59967230642133	pulse	1.0	t		20.0	male	black	2.609629924393156	smiling	043	sub-02	1.0	2.0	043_smiling	0.0	160.64729443008446	
16.0	97.29966032278571	pulse	1.0	t		20.0	male	black	2.609629924393156	smiling	043	sub-02	1.0	2.0	043_smiling	0.0	161.34728244644884	
16.0	97.99964501874683	pulse	1.0	t		20.0	male	black	2.609629924393156	smiling	043	sub-02	1.0	2.0	043_smiling	0.0	162.04726714240996	
16.0	98.6996227720474	pulse	1.0	t		20.0	male	black	2.609629924393156	smiling	043	sub-02	1.0	2.0	043_smiling	0.0	162.74724489571054	
17.0	99.01614470436516	face	0.0		145	40.0	male	white	1.868682849184242	smiling	172	sub-02	1.0	2.0	172_smiling	0.0	163.0637668280283	1.2333388975234811
17.0	99.39960233647707	pulse	0.0	t		40.0	male	white	1.868682849184242	smiling	172	sub-02	1.0	2.0	172_smiling	0.0	163.4472244601402	
17.0	100.09959729550201	pulse	0.0	t		40.0	male	white	1.868682849184242	smiling	172	sub-02	1.0	2.0	172_smiling	0.0	164.14721941916514	
17.0	100.24948360188864	fix	1.0		444	40.0	male	white	1.868682849184242	smiling	172	sub-02	1.0	2.0	172_smiling	0.0	164.29710572555177	3.766559377406338
17.0	100.80003175512593	pulse	1.0	t		40.0	male	white	1.868682849184242	smiling	172	sub-02	1.0	2.0	172_smiling	0.0	164.84765387878906	
17.0	101.49955612250596	pulse	1.0	t		40.0	male	white	1.868682849184242	smiling	172	sub-02	1.0	2.0	172_smiling	0.0	165.5471782461691	
17.0	102.19955228895014	pulse	1.0	t		40.0	male	white	1.868682849184242	smiling	172	sub-02	1.0	2.0	172_smiling	0.0	166.24717441261328	
17.0	102.89952611813851	pulse	1.0	t		40.0	male	white	1.868682849184242	smiling	172	sub-02	1.0	2.0	172_smiling	0.0	166.94714824180164	
17.0	103.59950326772923	pulse	1.0	t		40.0	male	white	1.868682849184242	smiling	172	sub-02	1.0	2.0	172_smiling	0.0	167.64712539139236	
18.0	104.01604297929498	face	0.0		145	37.0	male	white	3.898925586947871	neutral	101	sub-02	1.0	2.0	101_neutral	0.0	168.0636651029581	1.2333002601085354
18.0	104.29947558764343	pulse	0.0	t		37.0	male	white	3.898925586947871	neutral	101	sub-02	1.0	2.0	101_neutral	0.0	168.34709771130656	
18.0	104.99949741174623	pulse	0.0	t		37.0	male	white	3.898925586947871	neutral	101	sub-02	1.0	2.0	101_neutral	0.0	169.04711953540937	
18.0	105.24934323940352	fix	1.0		444	37.0	male	white	3.898925586947871	neutral	101	sub-02	1.0	2.0	101_neutral	0.0	169.29696536306665	3.7666103908686637
18.0	105.69948240956228	pulse	1.0	t		37.0	male	white	3.898925586947871	neutral	101	sub-02	1.0	2.0	101_neutral	0.0	169.7471045332254	
18.0	106.39945140907366	pulse	1.0	t		37.0	male	white	3.898925586947871	neutral	101	sub-02	1.0	2.0	101_neutral	0.0	170.4470735327368	
18.0	107.09945361261362	pulse	1.0	t		37.0	male	white	3.898925586947871	neutral	101	sub-02	1.0	2.0	101_neutral	0.0	171.14707573627675	
18.0	107.79942381954424	pulse	1.0	t		37.0	male	white	3.898925586947871	neutral	101	sub-02	1.0	2.0	101_neutral	0.0	171.84704594320738	
18.0	108.49940428953823	pulse	1.0	t		37.0	male	white	3.898925586947871	neutral	101	sub-02	1.0	2.0	101_neutral	0.0	172.54702641320137	
19.0	109.01595363027218	face	0.0		145	34.0	male	white	2.651014723438122	smiling	121	sub-02	1.0	2.0	121_smiling	1.0	173.0635757539353	1.23332380478314
19.0	109.19940800235236	pulse	0.0	t		34.0	male	white	2.651014723438122	smiling	121	sub-02	1.0	2.0	121_smiling	1.0	173.2470301260155	
19.0	109.89935315533376	pulse	0.0	t		34.0	male	white	2.651014723438122	smiling	121	sub-02	1.0	2.0	121_smiling	1.0	173.9469752789969	
19.0	110.24927743505532	fix	1.0		236	34.0	male	white	2.651014723438122	smiling	121	sub-02	1.0	2.0	121_smiling	1.0	174.29689955871845	1.9999592496010337
19.0	110.59936501822767	pulse	1.0	t		34.0	male	white	2.651014723438122	smiling	121	sub-02	1.0	2.0	121_smiling	1.0	174.6469871418908	
19.0	111.29935031789864	pulse	1.0	t		34.0	male	white	2.651014723438122	smiling	121	sub-02	1.0	2.0	121_smiling	1.0	175.34697244156177	
19.0	111.99934467321373	pulse	1.0	t		34.0	male	white	2.651014723438122	smiling	121	sub-02	1.0	2.0	121_smiling	1.0	176.04696679687686	
19.0	112.24923668465635	rating	2.0		235	34.0	male	white	2.651014723438122	smiling	121	sub-02	1.0	2.0	121_smiling	1.0	176.29685880831948	1.9999556273432972
19.0	112.69933842481942	pulse	2.0	t		34.0	male	white	2.651014723438122	smiling	121	sub-02	1.0	2.0	121_smiling	1.0	176.74696054848255	
19.0	113.39931798924863	pulse	2.0	t		34.0	male	white	2.651014723438122	smiling	121	sub-02	1.0	2.0	121_smiling	1.0	177.44694011291176	
19.0	113.42431669881944	response	2.0	w		34.0	male	white	2.651014723438122	smiling	121	sub-02	1.0	2.0	121_smiling	1.0	177.47193882248257	
19.0	114.09929362956564	pulse	2.0	t		34.0	male	white	2.651014723438122	smiling	121	sub-02	1.0	2.0	121_smiling	1.0	178.14691575322877	
19.0	114.24919231199965	fix	3.0		444	34.0	male	white	2.651014723438122	smiling	121	sub-02	1.0	2.0	121_smiling	1.0	178.29681443566278	3.766571753453718
19.0	114.7992813440751	pulse	3.0	t		34.0	male	white	2.651014723438122	smiling	121	sub-02	1.0	2.0	121_smiling	1.0	178.84690346773823	
19.0	115.4992702660038	pulse	3.0	t		34.0	male	white	2.651014723438122	smiling	121	sub-02	1.0	2.0	121_smiling	1.0	179.54689238966694	
19.0	116.19925013228794	pulse	3.0	t		34.0	male	white	2.651014723438122	smiling	121	sub-02	1.0	2.0	121_smiling	1.0	180.24687225595108	
19.0	116.89924478945795	pulse	3.0	t		34.0	male	white	2.651014723438122	smiling	121	sub-02	1.0	2.0	121_smiling	1.0	180.94686691312108	
19.0	117.59922495759702	pulse	3.0	t		34.0	male	white	2.651014723438122	smiling	121	sub-02	1.0	2.0	121_smiling	1.0	181.64684708126015	
20.0	118.01576406545337	face	0.0		146	32.0	male	white	2.389176283326701	neutral	092	sub-02	1.0	2.0	092_neutral	0.0	182.0633861891165	1.2416788439923039
20.0	118.29933371588413	pulse	0.0	t		32.0	male	white	2.389176283326701	neutral	092	sub-02	1.0	2.0	092_neutral	0.0	182.34695583954726	
20.0	118.99931660071661	pulse	0.0	t		32.0	male	white	2.389176283326701	neutral	092	sub-02	1.0	2.0	092_neutral	0.0	183.04693872437974	
20.0	119.25744290944567	fix	1.0		444	32.0	male	white	2.389176283326701	neutral	092	sub-02	1.0	2.0	092_neutral	0.0	183.3050650331088	3.7583344376189416
20.0	119.69918840297987	pulse	1.0	t		32.0	male	white	2.389176283326701	neutral	092	sub-02	1.0	2.0	092_neutral	0.0	183.746810526643	
20.0	120.39916766555461	pulse	1.0	t		32.0	male	white	2.389176283326701	neutral	092	sub-02	1.0	2.0	092_neutral	0.0	184.44678978921775	
20.0	121.09915507820915	pulse	1.0	t		32.0	male	white	2.389176283326701	neutral	092	sub-02	1.0	2.0	092_neutral	0.0	185.14677720187228	
20.0	121.7991376611867	pulse	1.0	t		32.0	male	white	2.389176283326701	neutral	092	sub-02	1.0	2.0	092_neutral	0.0	185.84675978484984	
20.0	122.49912235714828	pulse	1.0	t		32.0	male	white	2.389176283326701	neutral	092	sub-02	1.0	2.0	092_neutral	0.0	186.5467444808114	
21.0	123.01577734706461	face	0.0		146	31.0	female	west_asian	2.364902506963788	smiling	006	sub-02	1.0	2.0	006_smiling	1.0	187.06339947072775	1.2415553853766141
21.0	123.19911641060844	pulse	0.0	t		31.0	female	west_asian	2.364902506963788	smiling	006	sub-02	1.0	2.0	006_smiling	1.0	187.24673853427157	
21.0	123.8990579413321	pulse	0.0	t		31.0	female	west_asian	2.364902506963788	smiling	006	sub-02	1.0	2.0	006_smiling	1.0	187.94668006499523	
21.0	124.25733273244123	fix	1.0		236	31.0	female	west_asian	2.364902506963788	smiling	006	sub-02	1.0	2.0	006_smiling	1.0	188.30495485610436	1.9999420438771267
21.0	124.59908399140204	pulse	1.0	t		31.0	female	west_asian	2.364902506963788	smiling	006	sub-02	1.0	2.0	006_smiling	1.0	188.64670611506517	
21.0	125.29905963171905	pulse	1.0	t		31.0	female	west_asian	2.364902506963788	smiling	006	sub-02	1.0	2.0	006_smiling	1.0	189.34668175538218	
21.0	125.99903949800364	pulse	1.0	t		31.0	female	west_asian	2.364902506963788	smiling	006	sub-02	1.0	2.0	006_smiling	1.0	190.04666162166677	
21.0	126.25727477631835	rating	2.0		235	31.0	female	west_asian	2.364902506963788	smiling	006	sub-02	1.0	2.0	006_smiling	1.0	190.3048968999815	1.9999553254883722
21.0	126.69904562565625	pulse	2.0	t		31.0	female	west_asian	2.364902506963788	smiling	006	sub-02	1.0	2.0	006_smiling	1.0	190.74666774931939	
21.0	127.12725444036005	response	2.0	y		31.0	female	west_asian	2.364902506963788	smiling	006	sub-02	1.0	2.0	006_smiling	1.0	191.17487656402318	
21.0	127.39900375839443	pulse	2.0	t		31.0	female	west_asian	2.364902506963788	smiling	006	sub-02	1.0	2.0	006_smiling	1.0	191.44662588205756	
21.0	128.09899630258087	pulse	2.0	t		31.0	female	west_asian	2.364902506963788	smiling	006	sub-02	1.0	2.0	006_smiling	1.0	192.146618426244	
21.0	128.25723010180673	fix	3.0		444	31.0	female	west_asian	2.364902506963788	smiling	006	sub-02	1.0	2.0	006_smiling	1.0	192.30485222546986	3.7665805072429066
21.0	128.79898643192837	pulse	3.0	t		31.0	female	west_asian	2.364902506963788	smiling	006	sub-02	1.0	2.0	006_smiling	1.0	192.8466085555915	
21.0	129.49897535385708	pulse	3.0	t		31.0	female	west_asian	2.364902506963788	smiling	006	sub-02	1.0	2.0	006_smiling	1.0	193.5465974775202	
21.0	130.19896427578578	pulse	3.0	t		31.0	female	west_asian	2.364902506963788	smiling	006	sub-02	1.0	2.0	006_smiling	1.0	194.24658639944892	
21.0	130.89893901053847	pulse	3.0	t		31.0	female	west_asian	2.364902506963788	smiling	006	sub-02	1.0	2.0	006_smiling	1.0	194.9465611342016	
21.0	131.59892038609678	pulse	3.0	t		31.0	female	west_asian	2.364902506963788	smiling	006	sub-02	1.0	2.0	006_smiling	1.0	195.6465425097599	
22.0	132.02381060904963	face	0.0		145	25.0	female	west_asian	2.6756864305610826	smiling	064	sub-02	1.0	2.0	064_smiling	0.0	196.07143273271276	1.2333171639775173
22.0	132.2988969319781	pulse	0.0	t		25.0	female	west_asian	2.6756864305610826	smiling	064	sub-02	1.0	2.0	064_smiling	0.0	196.34651905564124	
22.0	132.99901897187692	pulse	0.0	t		25.0	female	west_asian	2.6756864305610826	smiling	064	sub-02	1.0	2.0	064_smiling	0.0	197.04664109554005	
22.0	133.25712777302715	fix	1.0		444	25.0	female	west_asian	2.6756864305610826	smiling	064	sub-02	1.0	2.0	064_smiling	0.0	197.30474989669028	3.766579299823661
22.0	133.698889264866	pulse	1.0	t		25.0	female	west_asian	2.6756864305610826	smiling	064	sub-02	1.0	2.0	064_smiling	0.0	197.74651138852914	
22.0	134.39888241276185	pulse	1.0	t		25.0	female	west_asian	2.6756864305610826	smiling	064	sub-02	1.0	2.0	064_smiling	0.0	198.44650453642498	
22.0	135.0988668068685	pulse	1.0	t		25.0	female	west_asian	2.6756864305610826	smiling	064	sub-02	1.0	2.0	064_smiling	0.0	199.14648893053163	
22.0	135.79884456016907	pulse	1.0	t		25.0	female	west_asian	2.6756864305610826	smiling	064	sub-02	1.0	2.0	064_smiling	0.0	199.8464666838322	
22.0	136.49884042475833	pulse	1.0	t		25.0	female	west_asian	2.6756864305610826	smiling	064	sub-02	1.0	2.0	064_smiling	0.0	200.54646254842146	
23.0	137.0237070728508	face	0.0		145	34.0	male	white	2.651014723438122	neutral	121	sub-02	1.0	2.0	121_neutral	0.0	201.07132919651394	1.2333081083334037
23.0	137.1987795406435	pulse	0.0	t		34.0	male	white	2.651014723438122	neutral	121	sub-02	1.0	2.0	121_neutral	0.0	201.24640166430663	
23.0	137.8987542753962	pulse	0.0	t		34.0	male	white	2.651014723438122	neutral	121	sub-02	1.0	2.0	121_neutral	0.0	201.94637639905932	
23.0	138.25701518118422	fix	1.0		1185	34.0	male	white	2.651014723438122	neutral	121	sub-02	1.0	2.0	121_neutral	0.0	202.30463730484735	10.016438409092189
23.0	138.59878213659476	pulse	1.0	t		34.0	male	white	2.651014723438122	neutral	121	sub-02	1.0	2.0	121_neutral	0.0	202.6464042602579	
23.0	139.29876743626573	pulse	1.0	t		34.0	male	white	2.651014723438122	neutral	121	sub-02	1.0	2.0	121_neutral	0.0	203.34638955992887	
23.0	139.99874911367897	pulse	1.0	t		34.0	male	white	2.651014723438122	neutral	121	sub-02	1.0	2.0	121_neutral	0.0	204.0463712373421	
23.0	140.69874860052596	pulse	1.0	t		34.0	male	white	2.651014723438122	neutral	121	sub-02	1.0	2.0	121_neutral	0.0	204.7463707241891	
23.0	141.39873057979366	pulse	1.0	t		34.0	male	white	2.651014723438122	neutral	121	sub-02	1.0	2.0	121_neutral	0.0	205.4463527034568	
23.0	142.0987098423684	pulse	1.0	t		34.0	male	white	2.651014723438122	neutral	121	sub-02	1.0	2.0	121_neutral	0.0	206.14633196603154	
23.0	142.79870329211917	pulse	1.0	t		34.0	male	white	2.651014723438122	neutral	121	sub-02	1.0	2.0	121_neutral	0.0	206.8463254157823	
23.0	143.4986753101789	pulse	1.0	t		34.0	male	white	2.651014723438122	neutral	121	sub-02	1.0	2.0	121_neutral	0.0	207.54629743384203	
23.0	144.19867238218694	pulse	1.0	t		34.0	male	white	2.651014723438122	neutral	121	sub-02	1.0	2.0	121_neutral	0.0	208.24629450585007	
23.0	144.898652550326	pulse	1.0	t		34.0	male	white	2.651014723438122	neutral	121	sub-02	1.0	2.0	121_neutral	0.0	208.94627467398914	
23.0	145.59862819064347	pulse	1.0	t		34.0	male	white	2.651014723438122	neutral	121	sub-02	1.0	2.0	121_neutral	0.0	209.6462503143066	
23.0	146.29861922555529	pulse	1.0	t		34.0	male	white	2.651014723438122	neutral	121	sub-02	1.0	2.0	121_neutral	0.0	210.34624134921842	
23.0	146.9986099586131	pulse	1.0	t		34.0	male	white	2.651014723438122	neutral	121	sub-02	1.0	2.0	121_neutral	0.0	211.04623208227622	
23.0	147.6985919378808	pulse	1.0	t		34.0	male	white	2.651014723438122	neutral	121	sub-02	1.0	2.0	121_neutral	0.0	211.74621406154392	
24.0	148.2734535902764	face	0.0		145	54.0	female	white	2.286908077994429	neutral	136	sub-02	1.0	2.0	136_neutral	0.0	212.32107571393954	1.2333373882497654
24.0	148.39854373166827	pulse	0.0	t		54.0	female	white	2.286908077994429	neutral	136	sub-02	1.0	2.0	136_neutral	0.0	212.4461658553314	
24.0	149.09868146801682	pulse	0.0	t		54.0	female	white	2.286908077994429	neutral	136	sub-02	1.0	2.0	136_neutral	0.0	213.14630359167995	
24.0	149.50679097852617	fix	1.0		444	54.0	female	white	2.286908077994429	neutral	136	sub-02	1.0	2.0	136_neutral	0.0	213.5544131021893	3.766575979420395
24.0	149.79855296842516	pulse	1.0	t		54.0	female	white	2.286908077994429	neutral	136	sub-02	1.0	2.0	136_neutral	0.0	213.8461750920883	
24.0	150.4985298161614	pulse	1.0	t		54.0	female	white	2.286908077994429	neutral	136	sub-02	1.0	2.0	136_neutral	0.0	214.54615193982454	
24.0	151.1985154176873	pulse	1.0	t		54.0	female	white	2.286908077994429	neutral	136	sub-02	1.0	2.0	136_neutral	0.0	215.24613754135044	
24.0	151.89851279155027	pulse	1.0	t		54.0	female	white	2.286908077994429	neutral	136	sub-02	1.0	2.0	136_neutral	0.0	215.9461349152134	
24.0	152.5984992986405	pulse	1.0	t		54.0	female	white	2.286908077994429	neutral	136	sub-02	1.0	2.0	136_neutral	0.0	216.64612142230362	
25.0	153.27336695794656	face	0.0		145	21.0	male	black	2.969757262236371	neutral	137	sub-02	1.0	2.0	137_neutral	0.0	217.3209890816097	1.2333192769610832
25.0	153.29849184282693	pulse	0.0	t		21.0	male	black	2.969757262236371	neutral	137	sub-02	1.0	2.0	137_neutral	0.0	217.34611396649007	
25.0	153.9984632571768	pulse	0.0	t		21.0	male	black	2.969757262236371	neutral	137	sub-02	1.0	2.0	137_neutral	0.0	218.04608538083994	
25.0	154.50668623490765	fix	1.0		443	21.0	male	black	2.969757262236371	neutral	137	sub-02	1.0	2.0	137_neutral	0.0	218.55430835857078	3.758338361731603
25.0	154.69845036797642	pulse	1.0	t		21.0	male	black	2.969757262236371	neutral	137	sub-02	1.0	2.0	137_neutral	0.0	218.74607249163955	
25.0	155.3984477418394	pulse	1.0	t		21.0	male	black	2.969757262236371	neutral	137	sub-02	1.0	2.0	137_neutral	0.0	219.44606986550252	
25.0	156.09841794877002	pulse	1.0	t		21.0	male	black	2.969757262236371	neutral	137	sub-02	1.0	2.0	137_neutral	0.0	220.14604007243315	
25.0	156.79840837997244	pulse	1.0	t		21.0	male	black	2.969757262236371	neutral	137	sub-02	1.0	2.0	137_neutral	0.0	220.84603050363557	
25.0	157.4984012260138	pulse	1.0	t		21.0	male	black	2.969757262236371	neutral	137	sub-02	1.0	2.0	137_neutral	0.0	221.54602334967694	
25.0	158.1983708292346	pulse	1.0	t		21.0	male	black	2.969757262236371	neutral	137	sub-02	1.0	2.0	137_neutral	0.0	222.24599295289772	
26.0	158.26502459663925	face	0.0		147	31.0	female	white	2.1822522881018704	neutral	102	sub-02	1.0	2.0	102_neutral	1.0	222.31264672030238	1.2415131257034773
26.0	158.89832654713427	pulse	0.0	t		31.0	female	white	2.1822522881018704	neutral	102	sub-02	1.0	2.0	102_neutral	1.0	222.9459486707974	
26.0	159.50653772234273	fix	1.0		236	31.0	female	white	2.1822522881018704	neutral	102	sub-02	1.0	2.0	102_neutral	1.0	223.55415984600586	2.0000057352413023
26.0	159.59836859550887	pulse	1.0	t		31.0	female	white	2.1822522881018704	neutral	102	sub-02	1.0	2.0	102_neutral	1.0	223.645990719172	
26.0	160.29833457647237	pulse	1.0	t		31.0	female	white	2.1822522881018704	neutral	102	sub-02	1.0	2.0	102_neutral	1.0	224.3459567001355	
26.0	160.99833164848042	pulse	1.0	t		31.0	female	white	2.1822522881018704	neutral	102	sub-02	1.0	2.0	102_neutral	1.0	225.04595377214355	
26.0	161.50654345758403	rating	2.0		235	31.0	female	white	2.1822522881018704	neutral	102	sub-02	1.0	2.0	102_neutral	1.0	225.55416558124716	1.9999574384723928
26.0	161.69830608137863	pulse	2.0	t		31.0	female	white	2.1822522881018704	neutral	102	sub-02	1.0	2.0	102_neutral	1.0	225.74592820504176	
26.0	162.31497070046316	response	2.0	w		31.0	female	white	2.1822522881018704	neutral	102	sub-02	1.0	2.0	102_neutral	1.0	226.3625928241263	
26.0	162.39829409774256	pulse	2.0	t		31.0	female	white	2.1822522881018704	neutral	102	sub-02	1.0	2.0	102_neutral	1.0	226.4459162214057	
26.0	163.09826883249525	pulse	2.0	t		31.0	female	white	2.1822522881018704	neutral	102	sub-02	1.0	2.0	102_neutral	1.0	227.14589095615838	
26.0	163.50650089605642	fix	3.0		444	31.0	female	white	2.1822522881018704	neutral	102	sub-02	1.0	2.0	102_neutral	1.0	227.55412301971955	3.7665747720011495
26.0	163.79825986740752	pulse	3.0	t		31.0	female	white	2.1822522881018704	neutral	102	sub-02	1.0	2.0	102_neutral	1.0	227.84588199107066	
26.0	164.4982542227226	pulse	3.0	t		31.0	female	white	2.1822522881018704	neutral	102	sub-02	1.0	2.0	102_neutral	1.0	228.54587634638574	
26.0	165.19823831497433	pulse	3.0	t		31.0	female	white	2.1822522881018704	neutral	102	sub-02	1.0	2.0	102_neutral	1.0	229.24586043863746	
26.0	165.89821667198476	pulse	3.0	t		31.0	female	white	2.1822522881018704	neutral	102	sub-02	1.0	2.0	102_neutral	1.0	229.9458387956479	
26.0	166.5981917085919	pulse	3.0	t		31.0	female	white	2.1822522881018704	neutral	102	sub-02	1.0	2.0	102_neutral	1.0	230.64581383225504	
27.0	167.27307566805757	face	0.0		145	28.0	male	east_asian	1.5563072025467568	smiling	005	sub-02	1.0	2.0	005_smiling	0.0	231.3206977917207	1.2332761117240807
27.0	167.29832612453765	pulse	0.0	t		28.0	male	east_asian	1.5563072025467568	smiling	005	sub-02	1.0	2.0	005_smiling	0.0	231.34594824820078	
27.0	167.99812940575976	pulse	0.0	t		28.0	male	east_asian	1.5563072025467568	smiling	005	sub-02	1.0	2.0	005_smiling	0.0	232.0457515294229	
27.0	168.50635177978165	fix	1.0		443	28.0	male	east_asian	1.5563072025467568	smiling	005	sub-02	1.0	2.0	005_smiling	0.0	232.55397390344478	3.7666170316742864
27.0	168.69815726695833	pulse	1.0	t		28.0	male	east_asian	1.5563072025467568	smiling	005	sub-02	1.0	2.0	005_smiling	0.0	232.74577939062146	
27.0	169.39814407590347	pulse	1.0	t		28.0	male	east_asian	1.5563072025467568	smiling	005	sub-02	1.0	2.0	005_smiling	0.0	233.4457661995666	
27.0	170.0981248477524	pulse	1.0	t		28.0	male	east_asian	1.5563072025467568	smiling	005	sub-02	1.0	2.0	005_smiling	0.0	234.14574697141552	
27.0	170.7981201086318	pulse	1.0	t		28.0	male	east_asian	1.5563072025467568	smiling	005	sub-02	1.0	2.0	005_smiling	0.0	234.84574223229492	
27.0	171.49810631386708	pulse	1.0	t		28.0	male	east_asian	1.5563072025467568	smiling	005	sub-02	1.0	2.0	005_smiling	0.0	235.54572843753022	
27.0	172.1980952357958	pulse	1.0	t		28.0	male	east_asian	1.5563072025467568	smiling	005	sub-02	1.0	2.0	005_smiling	0.0	236.24571735945892	
28.0	172.27296881145594	face	0.0		146	27.0	female	white	3.504576203740549	smiling	144	sub-02	1.0	2.0	144_smiling	0.0	236.32059093511907	1.2333186732516879
28.0	172.89807359280576	pulse	0.0	t		27.0	female	white	3.504576203740549	smiling	144	sub-02	1.0	2.0	144_smiling	0.0	236.9456957164689	
28.0	173.50628748470763	fix	1.0		443	27.0	female	white	3.504576203740549	smiling	144	sub-02	1.0	2.0	144_smiling	0.0	237.55390960837076	3.7665750738560746
28.0	173.59805647763824	pulse	1.0	t		27.0	female	white	3.504576203740549	smiling	144	sub-02	1.0	2.0	144_smiling	0.0	237.64567860130137	
28.0	174.29805204037257	pulse	1.0	t		27.0	female	white	3.504576203740549	smiling	144	sub-02	1.0	2.0	144_smiling	0.0	238.3456741640357	
28.0	174.9980246621417	pulse	1.0	t		27.0	female	white	3.504576203740549	smiling	144	sub-02	1.0	2.0	144_smiling	0.0	239.04564678580482	
28.0	175.69800664140985	pulse	1.0	t		27.0	female	white	3.504576203740549	smiling	144	sub-02	1.0	2.0	144_smiling	0.0	239.74562876507298	
28.0	176.39800431712774	pulse	1.0	t		27.0	female	white	3.504576203740549	smiling	144	sub-02	1.0	2.0	144_smiling	0.0	240.44562644079087	
28.0	177.09799323905645	pulse	1.0	t		27.0	female	white	3.504576203740549	smiling	144	sub-02	1.0	2.0	144_smiling	0.0	241.14561536271958	
29.0	177.2728625585637	face	0.0		146	36.0	female	white	2.7548746518105847	neutral	011	sub-02	1.0	2.0	011_neutral	0.0	241.32048468222683	1.2417998877704122
29.0	177.7979706905021	pulse	0.0	t		36.0	female	white	2.7548746518105847	neutral	011	sub-02	1.0	2.0	011_neutral	0.0	241.84559281416523	
29.0	178.4980661671775	pulse	0.0	t		36.0	female	white	2.7548746518105847	neutral	011	sub-02	1.0	2.0	011_neutral	0.0	242.54568829084064	
29.0	178.5146624463341	fix	1.0		443	36.0	female	white	2.7548746518105847	neutral	011	sub-02	1.0	2.0	011_neutral	0.0	242.56228456999725	3.7580845018383116
29.0	179.19793736573138	pulse	1.0	t		36.0	female	white	2.7548746518105847	neutral	011	sub-02	1.0	2.0	011_neutral	0.0	243.2455594893945	
29.0	179.8979187412897	pulse	1.0	t		36.0	female	white	2.7548746518105847	neutral	011	sub-02	1.0	2.0	011_neutral	0.0	243.94554086495282	
29.0	180.59791460587894	pulse	1.0	t		36.0	female	white	2.7548746518105847	neutral	011	sub-02	1.0	2.0	011_neutral	0.0	244.64553672954207	
29.0	181.2979023203884	pulse	1.0	t		36.0	female	white	2.7548746518105847	neutral	011	sub-02	1.0	2.0	011_neutral	0.0	245.34552444405153	
29.0	181.99788580893028	pulse	1.0	t		36.0	female	white	2.7548746518105847	neutral	011	sub-02	1.0	2.0	011_neutral	0.0	246.0455079325934	
30.0	182.27274694817243	face	0.0		145	31.0	male	west_asian	1.9538400318344609	smiling	070	sub-02	1.0	2.0	070_smiling	0.0	246.32036907183556	1.2332981471249695
30.0	182.69799185052398	pulse	0.0	t		31.0	male	west_asian	1.9538400318344609	smiling	070	sub-02	1.0	2.0	070_smiling	0.0	246.7456139741871	
30.0	183.39797896132404	pulse	0.0	t		31.0	male	west_asian	1.9538400318344609	smiling	070	sub-02	1.0	2.0	070_smiling	0.0	247.44560108498717	
30.0	183.5060450952974	fix	1.0		444	31.0	male	west_asian	1.9538400318344609	smiling	070	sub-02	1.0	2.0	070_smiling	0.0	247.55366721896053	3.766596505547568
30.0	184.09783476528264	pulse	1.0	t		31.0	male	west_asian	1.9538400318344609	smiling	070	sub-02	1.0	2.0	070_smiling	0.0	248.14545688894577	
30.0	184.79782006495316	pulse	1.0	t		31.0	male	west_asian	1.9538400318344609	smiling	070	sub-02	1.0	2.0	070_smiling	0.0	248.8454421886163	
30.0	185.4978101943011	pulse	1.0	t		31.0	male	west_asian	1.9538400318344609	smiling	070	sub-02	1.0	2.0	070_smiling	0.0	249.54543231796424	
30.0	186.19780273848755	pulse	1.0	t		31.0	male	west_asian	1.9538400318344609	smiling	070	sub-02	1.0	2.0	070_smiling	0.0	250.24542486215068	
30.0	186.8977877363036	pulse	1.0	t		31.0	male	west_asian	1.9538400318344609	smiling	070	sub-02	1.0	2.0	070_smiling	0.0	250.94540985996673	
31.0	187.27264160084496	face	0.0		145	24.0	male	white	3.1153999204138483	neutral	012	sub-02	1.0	2.0	012_neutral	0.0	251.3202637245081	1.233326219621631
31.0	187.59773138001083	pulse	0.0	t		24.0	male	white	3.1153999204138483	neutral	012	sub-02	1.0	2.0	012_neutral	0.0	251.64535350367396	
31.0	188.29774837443665	pulse	0.0	t		24.0	male	white	3.1153999204138483	neutral	012	sub-02	1.0	2.0	012_neutral	0.0	252.34537049809978	
31.0	188.5059678204666	fix	1.0		444	24.0	male	white	3.1153999204138483	neutral	012	sub-02	1.0	2.0	012_neutral	0.0	252.55358994412973	3.766586846194059
31.0	188.99773307039777	pulse	1.0	t		24.0	male	white	3.1153999204138483	neutral	012	sub-02	1.0	2.0	012_neutral	0.0	253.0453551940609	
31.0	189.69771595523025	pulse	1.0	t		24.0	male	white	3.1153999204138483	neutral	012	sub-02	1.0	2.0	012_neutral	0.0	253.74533807889338	
31.0	190.39770185861062	pulse	1.0	t		24.0	male	white	3.1153999204138483	neutral	012	sub-02	1.0	2.0	012_neutral	0.0	254.44532398227375	
31.0	191.09768625271727	pulse	1.0	t		24.0	male	white	3.1153999204138483	neutral	012	sub-02	1.0	2.0	012_neutral	0.0	255.1453083763804	
31.0	191.79768060803235	pulse	1.0	t		24.0	male	white	3.1153999204138483	neutral	012	sub-02	1.0	2.0	012_neutral	0.0	255.84530273169548	
32.0	192.27255466666065	face	0.0		145	27.0	female	white	4.181058495821727	neutral	039	sub-02	1.0	2.0	039_neutral	0.0	256.3201767903238	1.2333038823658171
32.0	192.49767164294462	pulse	0.0	t		27.0	female	white	4.181058495821727	neutral	039	sub-02	1.0	2.0	039_neutral	0.0	256.54529376660776	
32.0	193.19765724447052	pulse	0.0	t		27.0	female	white	4.181058495821727	neutral	039	sub-02	1.0	2.0	039_neutral	0.0	257.24527936813365	
32.0	193.50585854902647	fix	1.0		444	27.0	female	white	4.181058495821727	neutral	039	sub-02	1.0	2.0	039_neutral	0.0	257.5534806726896	3.766603750063041
32.0	193.89763228107768	pulse	1.0	t		27.0	female	white	4.181058495821727	neutral	039	sub-02	1.0	2.0	039_neutral	0.0	257.9452544047408	
32.0	194.59761818445804	pulse	1.0	t		27.0	female	white	4.181058495821727	neutral	039	sub-02	1.0	2.0	039_neutral	0.0	258.6452403081212	
32.0	195.2976025785647	pulse	1.0	t		27.0	female	white	4.181058495821727	neutral	039	sub-02	1.0	2.0	039_neutral	0.0	259.3452247022278	
32.0	195.99758546339717	pulse	1.0	t		27.0	female	white	4.181058495821727	neutral	039	sub-02	1.0	2.0	039_neutral	0.0	260.0452075870603	
32.0	196.69761302274082	pulse	1.0	t		27.0	female	white	4.181058495821727	neutral	039	sub-02	1.0	2.0	039_neutral	0.0	260.74523514640396	
33.0	197.2724622990895	face	0.0		145	20.0	female	white	3.9502586549940313	neutral	091	sub-02	1.0	2.0	091_neutral	0.0	261.32008442275264	1.233321088089724
33.0	197.39769340667635	pulse	0.0	t		20.0	female	white	3.9502586549940313	neutral	091	sub-02	1.0	2.0	091_neutral	0.0	261.4453155303395	
33.0	198.0975452865223	pulse	0.0	t		20.0	female	white	3.9502586549940313	neutral	091	sub-02	1.0	2.0	091_neutral	0.0	262.1451674101854	
33.0	198.50578338717924	fix	1.0		444	20.0	female	white	3.9502586549940313	neutral	091	sub-02	1.0	2.0	091_neutral	0.0	262.55340551084237	3.7665599811161883
33.0	198.79753300103175	pulse	1.0	t		20.0	female	white	3.9502586549940313	neutral	091	sub-02	1.0	2.0	091_neutral	0.0	262.8451551246949	
33.0	199.49751950812197	pulse	1.0	t		20.0	female	white	3.9502586549940313	neutral	091	sub-02	1.0	2.0	091_neutral	0.0	263.5451416317851	
33.0	200.19753167287035	pulse	1.0	t		20.0	female	white	3.9502586549940313	neutral	091	sub-02	1.0	2.0	091_neutral	0.0	264.2451537965335	
33.0	200.89750308722023	pulse	1.0	t		20.0	female	white	3.9502586549940313	neutral	091	sub-02	1.0	2.0	091_neutral	0.0	264.94512521088336	
33.0	201.59747087931237	pulse	1.0	t		20.0	female	white	3.9502586549940313	neutral	091	sub-02	1.0	2.0	091_neutral	0.0	265.6450930029755	
34.0	202.27234336829542	face	0.0		145	24.0	female	east_asian	2.9076800636689217	neutral	034	sub-02	1.0	2.0	034_neutral	0.0	266.31996549195856	1.233338595668556
34.0	202.29747066801383	pulse	0.0	t		24.0	female	east_asian	2.9076800636689217	neutral	034	sub-02	1.0	2.0	034_neutral	0.0	266.34509279167696	
34.0	202.99755225936815	pulse	0.0	t		24.0	female	east_asian	2.9076800636689217	neutral	034	sub-02	1.0	2.0	034_neutral	0.0	267.0451743830313	
34.0	203.50568196396398	fix	1.0		443	24.0	female	east_asian	2.9076800636689217	neutral	034	sub-02	1.0	2.0	034_neutral	0.0	267.5533040876271	3.7665427753922813
34.0	203.69744096550085	pulse	1.0	t		24.0	female	east_asian	2.9076800636689217	neutral	034	sub-02	1.0	2.0	034_neutral	0.0	267.745063089164	
34.0	204.39741630396338	pulse	1.0	t		24.0	female	east_asian	2.9076800636689217	neutral	034	sub-02	1.0	2.0	034_neutral	0.0	268.4450384276265	
34.0	205.09741277226203	pulse	1.0	t		24.0	female	east_asian	2.9076800636689217	neutral	034	sub-02	1.0	2.0	034_neutral	0.0	269.14503489592516	
34.0	205.7973899218532	pulse	1.0	t		24.0	female	east_asian	2.9076800636689217	neutral	034	sub-02	1.0	2.0	034_neutral	0.0	269.84501204551634	
34.0	206.49737280668523	pulse	1.0	t		24.0	female	east_asian	2.9076800636689217	neutral	034	sub-02	1.0	2.0	034_neutral	0.0	270.54499493034837	
34.0	207.1973565970825	pulse	1.0	t		24.0	female	east_asian	2.9076800636689217	neutral	034	sub-02	1.0	2.0	034_neutral	0.0	271.2449787207456	
35.0	207.27222473935626	face	0.0		146	26.0	female	white	4.854755272582572	smiling	027	sub-02	1.0	2.0	027_smiling	0.0	271.3198468630194	1.2333216917995742
35.0	207.89734159489853	pulse	0.0	t		26.0	female	white	4.854755272582572	smiling	027	sub-02	1.0	2.0	027_smiling	0.0	271.94496371856167	
35.0	208.50554643115584	fix	1.0		443	26.0	female	white	4.854755272582572	smiling	027	sub-02	1.0	2.0	027_smiling	0.0	272.55316855481897	3.7665322104735424
35.0	208.5973299131174	pulse	1.0	t		26.0	female	white	4.854755272582572	smiling	027	sub-02	1.0	2.0	027_smiling	0.0	272.6449520367805	
35.0	209.29730977940153	pulse	1.0	t		26.0	female	white	4.854755272582572	smiling	027	sub-02	1.0	2.0	027_smiling	0.0	273.34493190306466	
35.0	209.99730443657154	pulse	1.0	t		26.0	female	white	4.854755272582572	smiling	027	sub-02	1.0	2.0	027_smiling	0.0	274.04492656023467	
35.0	210.69729064180683	pulse	1.0	t		26.0	female	white	4.854755272582572	smiling	027	sub-02	1.0	2.0	027_smiling	0.0	274.74491276546996	
35.0	211.39726809325293	pulse	1.0	t		26.0	female	white	4.854755272582572	smiling	027	sub-02	1.0	2.0	027_smiling	0.0	275.44489021691606	
35.0	212.09725278921405	pulse	1.0	t		26.0	female	white	4.854755272582572	smiling	027	sub-02	1.0	2.0	027_smiling	0.0	276.1448749128772	
36.0	212.27207864162938	face	0.0		146	31.0	female	white	2.1822522881018704	smiling	102	sub-02	1.0	2.0	102_smiling	0.0	276.3197007652925	1.2417111424570066
36.0	212.79724835194838	pulse	0.0	t		31.0	female	white	2.1822522881018704	smiling	102	sub-02	1.0	2.0	102_smiling	0.0	276.8448704756115	
36.0	213.49722369041046	pulse	0.0	t		31.0	female	white	2.1822522881018704	smiling	102	sub-02	1.0	2.0	102_smiling	0.0	277.5448458140736	
36.0	213.51378978408638	fix	1.0		443	31.0	female	white	2.1822522881018704	smiling	102	sub-02	1.0	2.0	102_smiling	0.0	277.5614119077495	3.7582170160990245
36.0	214.1972135179035	pulse	1.0	t		31.0	female	white	2.1822522881018704	smiling	102	sub-02	1.0	2.0	102_smiling	0.0	278.2448356415666	
36.0	214.89719247862377	pulse	1.0	t		31.0	female	white	2.1822522881018704	smiling	102	sub-02	1.0	2.0	102_smiling	0.0	278.9448146022869	
36.0	215.59717596716564	pulse	1.0	t		31.0	female	white	2.1822522881018704	smiling	102	sub-02	1.0	2.0	102_smiling	0.0	279.6447980908288	
36.0	216.29716005941737	pulse	1.0	t		31.0	female	white	2.1822522881018704	smiling	102	sub-02	1.0	2.0	102_smiling	0.0	280.3447821830805	
36.0	216.99718399650374	pulse	1.0	t		31.0	female	white	2.1822522881018704	smiling	102	sub-02	1.0	2.0	102_smiling	0.0	281.04480612016687	
37.0	217.2720068001854	face	0.0		145	19.0	female	white	4.298846000795861	smiling	100	sub-02	1.0	2.0	100_smiling	0.0	281.31962892384854	1.233338595668556
37.0	217.69714152553206	pulse	0.0	t		19.0	female	white	4.298846000795861	smiling	100	sub-02	1.0	2.0	100_smiling	0.0	281.7447636491952	
37.0	218.39713618270207	pulse	0.0	t		19.0	female	white	4.298846000795861	smiling	100	sub-02	1.0	2.0	100_smiling	0.0	282.4447583063652	
37.0	218.50534539585396	fix	1.0		444	19.0	female	white	4.298846000795861	smiling	100	sub-02	1.0	2.0	100_smiling	0.0	282.5529675195171	3.7583715657601715
37.0	219.0971226897923	pulse	1.0	t		19.0	female	white	4.298846000795861	smiling	100	sub-02	1.0	2.0	100_smiling	0.0	283.1447448134554	
37.0	219.7971098005919	pulse	1.0	t		19.0	female	white	4.298846000795861	smiling	100	sub-02	1.0	2.0	100_smiling	0.0	283.84473192425503	
37.0	220.49708845945725	pulse	1.0	t		19.0	female	white	4.298846000795861	smiling	100	sub-02	1.0	2.0	100_smiling	0.0	284.5447105831204	
37.0	221.19710575573754	pulse	1.0	t		19.0	female	white	4.298846000795861	smiling	100	sub-02	1.0	2.0	100_smiling	0.0	285.24472787940067	
37.0	221.89725888668136	pulse	1.0	t		19.0	female	white	4.298846000795861	smiling	100	sub-02	1.0	2.0	100_smiling	0.0	285.9448810103445	
38.0	222.26371696161414	face	0.0		146	28.0	female	white	5.676880222841227	neutral	124	sub-02	1.0	2.0	124_neutral	0.0	286.31133908527727	1.2415233887672912
38.0	222.59706216790346	pulse	0.0	t		28.0	female	white	5.676880222841227	neutral	124	sub-02	1.0	2.0	124_neutral	0.0	286.6446842915666	
38.0	223.29702965814067	pulse	0.0	t		28.0	female	white	5.676880222841227	neutral	124	sub-02	1.0	2.0	124_neutral	0.0	287.3446517818038	
38.0	223.50524035038143	fix	1.0		444	28.0	female	white	5.676880222841227	neutral	124	sub-02	1.0	2.0	124_neutral	0.0	287.55286247404456	3.766566018211961
38.0	223.9970219004722	pulse	1.0	t		28.0	female	white	5.676880222841227	neutral	124	sub-02	1.0	2.0	124_neutral	0.0	288.0446440241353	
38.0	224.69700840756195	pulse	1.0	t		28.0	female	white	5.676880222841227	neutral	124	sub-02	1.0	2.0	124_neutral	0.0	288.7446305312251	
38.0	225.39699491465217	pulse	1.0	t		28.0	female	white	5.676880222841227	neutral	124	sub-02	1.0	2.0	124_neutral	0.0	289.4446170383153	
38.0	226.09698383658088	pulse	1.0	t		28.0	female	white	5.676880222841227	neutral	124	sub-02	1.0	2.0	124_neutral	0.0	290.144605960244	
38.0	226.79695857133356	pulse	1.0	t		28.0	female	white	5.676880222841227	neutral	124	sub-02	1.0	2.0	124_neutral	0.0	290.8445806949967	
39.0	227.2718063685934	face	0.0		145	28.0	male	east_asian	1.5563072025467568	neutral	005	sub-02	1.0	2.0	005_neutral	0.0	291.3194284922565	1.2333213899446491
39.0	227.49695956745427	pulse	0.0	t		28.0	male	east_asian	1.5563072025467568	neutral	005	sub-02	1.0	2.0	005_neutral	0.0	291.5445816911174	
39.0	228.19692886882058	pulse	0.0	t		28.0	male	east_asian	1.5563072025467568	neutral	005	sub-02	1.0	2.0	005_neutral	0.0	292.2445509924837	
39.0	228.50512775853804	fix	1.0		444	28.0	male	east_asian	1.5563072025467568	neutral	005	sub-02	1.0	2.0	005_neutral	0.0	292.55274988220117	3.7499235552700156
39.0	228.8969235259906	pulse	1.0	t		28.0	male	east_asian	1.5563072025467568	neutral	005	sub-02	1.0	2.0	005_neutral	0.0	292.9445456496537	
39.0	229.59688950695363	pulse	1.0	t		28.0	male	east_asian	1.5563072025467568	neutral	005	sub-02	1.0	2.0	005_neutral	0.0	293.64451163061676	
39.0	230.29687118436686	pulse	1.0	t		28.0	male	east_asian	1.5563072025467568	neutral	005	sub-02	1.0	2.0	005_neutral	0.0	294.34449330803	
39.0	230.99686282298853	pulse	1.0	t		28.0	male	east_asian	1.5563072025467568	neutral	005	sub-02	1.0	2.0	005_neutral	0.0	295.04448494665166	
39.0	231.69684510411162	pulse	1.0	t		28.0	male	east_asian	1.5563072025467568	neutral	005	sub-02	1.0	2.0	005_neutral	0.0	295.74446722777475	
40.0	232.25505131380805	fix	0.0		720												296.3026734374712	5.999874730255215
40.0	232.3968319130563	pulse	0.0	t													296.44445403671943	
40.0	233.096825664662	pulse	0.0	t													297.1444477883251	
40.0	233.7968037198175	pulse	0.0	t													297.8444258434806	
40.0	234.49678992505278	pulse	0.0	t													298.5444120487159	
40.0	235.1967746210139	pulse	0.0	t													299.24439674467703	
40.0	235.89676384479753	pulse	0.0	t													299.94438596846067	
40.0	236.59676212422482	pulse	0.0	t													300.64438424788796	
40.0	237.29732336286816	pulse	0.0	t													301.3449454865313	
40.0	237.9967224605034	pulse	0.0	t													302.04434458416654	
