trial_nr	onset	event_type	phase	response	nr_frames	face_age	face_sex	face_eth	attractiveness	expression	face_id	sub_id	ses	run	trial_type	catch	rating_type	onset_abs	duration
-1.0	0.05669734801085724	fix	0.0		714													25.15069406566181	5.966259778904714
-1.0	0.7065457725348097	pulse	0.0	t														25.800542490185762	
-1.0	1.4065301667342283	pulse	0.0	t														26.50052688438518	
-1.0	2.1065073164645582	pulse	0.0	t														27.20050403411551	
-1.0	2.8065255181991233	pulse	0.0	t														27.900522235850076	
-1.0	3.506463125186201	pulse	0.0	t														28.600459842837154	
-1.0	4.206444802710394	pulse	0.0	t														29.300441520361346	
-1.0	4.906423461705344	pulse	0.0	t														30.000420179356297	
-1.0	5.606401516992264	pulse	0.0	t														30.700398234643217	
0.0	6.022957126915571	face	0.0		144	40.0	male	black	2.408674890569041	neutral	061	sub-01	1.0	6.0	061_neutral	0.0		31.116953844566524	1.2332934183068573
0.0	6.306399494578727	pulse	0.0	t		40.0	male	black	2.408674890569041	neutral	061	sub-01	1.0	6.0	061_neutral	0.0		31.40039621222968	
0.0	7.006380870248904	pulse	0.0	t		40.0	male	black	2.408674890569041	neutral	061	sub-01	1.0	6.0	061_neutral	0.0		32.10037758789986	
0.0	7.256250545222429	fix	1.0		445	40.0	male	black	2.408674890569041	neutral	061	sub-01	1.0	6.0	061_neutral	0.0		32.35024726287338	3.758233568405558
0.0	7.706362849625293	pulse	1.0	t		40.0	male	black	2.408674890569041	neutral	061	sub-01	1.0	6.0	061_neutral	0.0		32.800359567276246	
0.0	8.406347847532743	pulse	1.0	t		40.0	male	black	2.408674890569041	neutral	061	sub-01	1.0	6.0	061_neutral	0.0		33.500344565183696	
0.0	9.106314130553073	pulse	1.0	t		40.0	male	black	2.408674890569041	neutral	061	sub-01	1.0	6.0	061_neutral	0.0		34.200310848204026	
0.0	9.80630637293143	pulse	1.0	t		40.0	male	black	2.408674890569041	neutral	061	sub-01	1.0	6.0	061_neutral	0.0		34.90030309058238	
0.0	10.50627808930767	pulse	1.0	t		40.0	male	black	2.408674890569041	neutral	061	sub-01	1.0	6.0	061_neutral	0.0		35.60027480695862	
1.0	11.014484113627987	face	0.0		146	24.0	female	black	3.0955033824114606	neutral	099	sub-01	1.0	6.0	099_neutral	0.0		36.10848083127894	1.2416499163427943
1.0	11.206265803890346	pulse	0.0	t		24.0	female	black	3.0955033824114606	neutral	099	sub-01	1.0	6.0	099_neutral	0.0		36.3002625215413	
1.0	11.906248688826963	pulse	0.0	t		24.0	female	black	3.0955033824114606	neutral	099	sub-01	1.0	6.0	099_neutral	0.0		37.000245406477916	
1.0	12.25613402997078	fix	1.0		445	24.0	female	black	3.0955033824114606	neutral	099	sub-01	1.0	6.0	099_neutral	0.0		37.35013074762173	3.7582211924327567
1.0	12.606226744113883	pulse	1.0	t		24.0	female	black	3.0955033824114606	neutral	099	sub-01	1.0	6.0	099_neutral	0.0		37.700223461764836	
1.0	13.306218684640044	pulse	1.0	t		24.0	female	black	3.0955033824114606	neutral	099	sub-01	1.0	6.0	099_neutral	0.0		38.400215402290996	
1.0	14.006199758458024	pulse	1.0	t		24.0	female	black	3.0955033824114606	neutral	099	sub-01	1.0	6.0	099_neutral	0.0		39.10019647610898	
1.0	14.706200452719713	pulse	1.0	t		24.0	female	black	3.0955033824114606	neutral	099	sub-01	1.0	6.0	099_neutral	0.0		39.800197170370666	
1.0	15.406151944944213	pulse	1.0	t		24.0	female	black	3.0955033824114606	neutral	099	sub-01	1.0	6.0	099_neutral	0.0		40.500148662595166	
2.0	16.014355222403537	face	0.0		146	24.0	male	white	3.1153999204138483	smiling	012	sub-01	1.0	6.0	012_smiling	0.0		41.10835194005449	1.2416387477824173
2.0	16.106124868732877	pulse	0.0	t		24.0	male	white	3.1153999204138483	smiling	012	sub-01	1.0	6.0	012_smiling	0.0		41.20012158638383	
2.0	16.806129487082217	pulse	0.0	t		24.0	male	white	3.1153999204138483	smiling	012	sub-01	1.0	6.0	012_smiling	0.0		41.90012620473317	
2.0	17.255993970185955	fix	1.0		444	24.0	male	white	3.1153999204138483	smiling	012	sub-01	1.0	6.0	012_smiling	0.0		42.34999068783691	3.7582233054035896
2.0	17.50612203131459	pulse	1.0	t		24.0	male	white	3.1153999204138483	smiling	012	sub-01	1.0	6.0	012_smiling	0.0		42.60011874896554	
2.0	18.206067788332803	pulse	1.0	t		24.0	male	white	3.1153999204138483	smiling	012	sub-01	1.0	6.0	012_smiling	0.0		43.300064505983755	
2.0	18.906065162211235	pulse	1.0	t		24.0	male	white	3.1153999204138483	smiling	012	sub-01	1.0	6.0	012_smiling	0.0		44.00006187986219	
2.0	19.606055593472774	pulse	1.0	t		24.0	male	white	3.1153999204138483	smiling	012	sub-01	1.0	6.0	012_smiling	0.0		44.70005231112373	
2.0	20.30602308390553	pulse	1.0	t		24.0	male	white	3.1153999204138483	smiling	012	sub-01	1.0	6.0	012_smiling	0.0		45.40001980155648	
3.0	21.014217275589544	face	0.0		147	24.0	female	east_asian	4.409868682849185	neutral	030	sub-01	1.0	6.0	030_neutral	0.0		46.1082139932405	1.2416414644576435
3.0	21.007203721484984	pulse	0.0	t		24.0	female	east_asian	4.409868682849185	neutral	030	sub-01	1.0	6.0	030_neutral	0.0		46.10120043913594	
3.0	21.705998211220503	pulse	0.0	t		24.0	female	east_asian	4.409868682849185	neutral	030	sub-01	1.0	6.0	030_neutral	0.0		46.799994928871456	
3.0	22.255858740047188	fix	1.0		443	24.0	female	east_asian	4.409868682849185	neutral	030	sub-01	1.0	6.0	030_neutral	0.0		47.34985545769814	3.7582317572887405
3.0	22.405981699861513	pulse	1.0	t		24.0	female	east_asian	4.409868682849185	neutral	030	sub-01	1.0	6.0	030_neutral	0.0		47.499978417512466	
3.0	23.105950699560708	pulse	1.0	t		24.0	female	east_asian	4.409868682849185	neutral	030	sub-01	1.0	6.0	030_neutral	0.0		48.19994741721166	
3.0	23.80592845299543	pulse	1.0	t		24.0	female	east_asian	4.409868682849185	neutral	030	sub-01	1.0	6.0	030_neutral	0.0		48.899925170646384	
3.0	24.50591828054894	pulse	1.0	t		24.0	female	east_asian	4.409868682849185	neutral	030	sub-01	1.0	6.0	030_neutral	0.0		49.59991499819989	
3.0	25.20589301545442	pulse	1.0	t		24.0	female	east_asian	4.409868682849185	neutral	030	sub-01	1.0	6.0	030_neutral	0.0		50.299889733105374	
3.0	25.90587891892028	pulse	1.0	t		24.0	female	east_asian	4.409868682849185	neutral	030	sub-01	1.0	6.0	030_neutral	0.0		50.99987563657123	
4.0	26.01409049733593	face	0.0		147	23.0	male	white	2.6275368085953046	smiling	141	sub-01	1.0	6.0	141_smiling	0.0		51.10808721498688	1.2416372385159775
4.0	26.605857276061215	pulse	0.0	t		23.0	male	white	2.6275368085953046	smiling	141	sub-01	1.0	6.0	141_smiling	0.0		51.69985399371217	
4.0	27.255727735851906	fix	1.0		445	23.0	male	white	2.6275368085953046	smiling	141	sub-01	1.0	6.0	141_smiling	0.0		52.34972445350286	3.758228738759499
4.0	27.30583412393753	pulse	1.0	t		23.0	male	white	2.6275368085953046	smiling	141	sub-01	1.0	6.0	141_smiling	0.0		52.39983084158848	
4.0	28.005829686697325	pulse	1.0	t		23.0	male	white	2.6275368085953046	smiling	141	sub-01	1.0	6.0	141_smiling	0.0		53.09982640434828	
4.0	28.7058095531047	pulse	1.0	t		23.0	male	white	2.6275368085953046	smiling	141	sub-01	1.0	6.0	141_smiling	0.0		53.79980627075565	
4.0	29.40577523241882	pulse	1.0	t		23.0	male	white	2.6275368085953046	smiling	141	sub-01	1.0	6.0	141_smiling	0.0		54.49977195006977	
4.0	30.105755702532406	pulse	1.0	t		23.0	male	white	2.6275368085953046	smiling	141	sub-01	1.0	6.0	141_smiling	0.0		55.19975242018336	
4.0	30.80573647449637	pulse	1.0	t		23.0	male	white	2.6275368085953046	smiling	141	sub-01	1.0	6.0	141_smiling	0.0		55.89973319214732	
5.0	31.013956474611405	face	0.0		146	37.0	male	white	3.898925586947871	neutral	101	sub-01	1.0	6.0	101_neutral	0.0		56.10795319226236	1.2416517274596117
5.0	31.505740489141317	pulse	0.0	t		37.0	male	white	3.898925586947871	neutral	101	sub-01	1.0	6.0	101_neutral	0.0		56.59973720679227	
5.0	32.20571129995733	pulse	0.0	t		37.0	male	white	3.898925586947871	neutral	101	sub-01	1.0	6.0	101_neutral	0.0		57.29970801760828	
5.0	32.255608202071016	fix	1.0		445	37.0	male	white	3.898925586947871	neutral	101	sub-01	1.0	6.0	101_neutral	0.0		57.34960491972197	3.7665484107292286
5.0	32.90570082565864	pulse	1.0	t		37.0	male	white	3.898925586947871	neutral	101	sub-01	1.0	6.0	101_neutral	0.0		57.999697543309594	
5.0	33.605669221651624	pulse	1.0	t		37.0	male	white	3.898925586947871	neutral	101	sub-01	1.0	6.0	101_neutral	0.0		58.69966593930258	
5.0	34.30564033432165	pulse	1.0	t		37.0	male	white	3.898925586947871	neutral	101	sub-01	1.0	6.0	101_neutral	0.0		59.399637051972604	
5.0	35.005627445198115	pulse	1.0	t		37.0	male	white	3.898925586947871	neutral	101	sub-01	1.0	6.0	101_neutral	0.0		60.09962416284907	
5.0	35.705622706105714	pulse	1.0	t		37.0	male	white	3.898925586947871	neutral	101	sub-01	1.0	6.0	101_neutral	0.0		60.79961942375667	
6.0	36.022156612800245	face	0.0		145	22.0	female	west_asian	3.8205332272184642	smiling	066	sub-01	1.0	6.0	066_smiling	1.0	trustworthiness	61.1161533304512	1.2333030776007945
6.0	36.40560740216097	pulse	0.0	t		22.0	female	west_asian	3.8205332272184642	smiling	066	sub-01	1.0	6.0	066_smiling	1.0	trustworthiness	61.49960411981192	
6.0	37.10558062780001	pulse	0.0	t		22.0	female	west_asian	3.8205332272184642	smiling	066	sub-01	1.0	6.0	066_smiling	1.0	trustworthiness	62.19957734545096	
6.0	37.25545969040104	fix	1.0		177	22.0	female	west_asian	3.8205332272184642	smiling	066	sub-01	1.0	6.0	066_smiling	1.0	trustworthiness	62.34945640805199	1.5083204266029497
6.0	37.805560494205565	pulse	1.0	t		22.0	female	west_asian	3.8205332272184642	smiling	066	sub-01	1.0	6.0	066_smiling	1.0	trustworthiness	62.89955721185652	
6.0	38.5055388513465	pulse	1.0	t		22.0	female	west_asian	3.8205332272184642	smiling	066	sub-01	1.0	6.0	066_smiling	1.0	trustworthiness	63.59953556899745	
6.0	38.76378011700399	rating	2.0		294	22.0	female	west_asian	3.8205332272184642	smiling	066	sub-01	1.0	6.0	066_smiling	1.0	trustworthiness	63.85777683465494	2.491588413797217
6.0	39.20035039094546	pulse	2.0	t		22.0	female	west_asian	3.8205332272184642	smiling	066	sub-01	1.0	6.0	066_smiling	1.0	trustworthiness	64.29434710859641	
6.0	39.90033780367594	pulse	2.0	t		22.0	female	west_asian	3.8205332272184642	smiling	066	sub-01	1.0	6.0	066_smiling	1.0	trustworthiness	64.99433452132689	
6.0	40.0836458769445	response	2.0	y		22.0	female	west_asian	3.8205332272184642	smiling	066	sub-01	1.0	6.0	066_smiling	1.0	trustworthiness	65.17764259459545	
6.0	40.60553308595445	pulse	2.0	t		22.0	female	west_asian	3.8205332272184642	smiling	066	sub-01	1.0	6.0	066_smiling	1.0	trustworthiness	65.6995298036054	
6.0	41.255368530801206	fix	3.0		443	22.0	female	west_asian	3.8205332272184642	smiling	066	sub-01	1.0	6.0	066_smiling	1.0	trustworthiness	66.34936524845216	3.7665535422293033
6.0	41.305471598501754	pulse	3.0	t		22.0	female	west_asian	3.8205332272184642	smiling	066	sub-01	1.0	6.0	066_smiling	1.0	trustworthiness	66.3994683161527	
6.0	42.00545508714458	pulse	3.0	t		22.0	female	west_asian	3.8205332272184642	smiling	066	sub-01	1.0	6.0	066_smiling	1.0	trustworthiness	67.09945180479554	
6.0	42.70542952019605	pulse	3.0	t		22.0	female	west_asian	3.8205332272184642	smiling	066	sub-01	1.0	6.0	066_smiling	1.0	trustworthiness	67.799426237847	
6.0	43.40541210327865	pulse	3.0	t		22.0	female	west_asian	3.8205332272184642	smiling	066	sub-01	1.0	6.0	066_smiling	1.0	trustworthiness	68.4994088209296	
6.0	44.105394384509054	pulse	3.0	t		22.0	female	west_asian	3.8205332272184642	smiling	066	sub-01	1.0	6.0	066_smiling	1.0	trustworthiness	69.19939110216	
6.0	44.80536640273749	pulse	3.0	t		22.0	female	west_asian	3.8205332272184642	smiling	066	sub-01	1.0	6.0	066_smiling	1.0	trustworthiness	69.89936312038844	
7.0	45.02192207303051	face	0.0		145	20.0	female	white	3.9502586549940313	smiling	091	sub-01	1.0	6.0	091_smiling	0.0		70.11591879068146	1.23331666098602
7.0	45.505373737763875	pulse	0.0	t		20.0	female	white	3.9502586549940313	smiling	091	sub-01	1.0	6.0	091_smiling	0.0		70.59937045541483	
7.0	46.20533790781519	pulse	0.0	t		20.0	female	white	3.9502586549940313	smiling	091	sub-01	1.0	6.0	091_smiling	0.0		71.29933462546614	
7.0	46.25523873401653	fix	1.0		445	20.0	female	white	3.9502586549940313	smiling	091	sub-01	1.0	6.0	091_smiling	0.0		71.34923545166748	3.7583558188653114
7.0	46.905330452045746	pulse	1.0	t		20.0	female	white	3.9502586549940313	smiling	091	sub-01	1.0	6.0	091_smiling	0.0		71.9993271696967	
7.0	47.605299149892744	pulse	1.0	t		20.0	female	white	3.9502586549940313	smiling	091	sub-01	1.0	6.0	091_smiling	0.0		72.6992958675437	
7.0	48.3052726773858	pulse	1.0	t		20.0	female	white	3.9502586549940313	smiling	091	sub-01	1.0	6.0	091_smiling	0.0		73.39926939503675	
7.0	49.00527186238287	pulse	1.0	t		20.0	female	white	3.9502586549940313	smiling	091	sub-01	1.0	6.0	091_smiling	0.0		74.09926858003382	
7.0	49.70524025837403	pulse	1.0	t		20.0	female	white	3.9502586549940313	smiling	091	sub-01	1.0	6.0	091_smiling	0.0		74.79923697602499	
8.0	50.01359455288184	face	0.0		146	21.0	male	black	2.969757262236371	neutral	137	sub-01	1.0	6.0	137_neutral	0.0		75.1075912705328	1.24148631202479
8.0	50.40522887851694	pulse	0.0	t		21.0	male	black	2.969757262236371	neutral	137	sub-01	1.0	6.0	137_neutral	0.0		75.49922559616789	
8.0	51.105201500451585	pulse	0.0	t		21.0	male	black	2.969757262236371	neutral	137	sub-01	1.0	6.0	137_neutral	0.0		76.19919821810254	
8.0	51.25508086490663	fix	1.0		445	21.0	male	black	2.969757262236371	neutral	137	sub-01	1.0	6.0	137_neutral	0.0		76.34907758255758	3.7665749737916485
8.0	51.805196761359184	pulse	1.0	t		21.0	male	black	2.969757262236371	neutral	137	sub-01	1.0	6.0	137_neutral	0.0		76.89919347901014	
8.0	52.50517572220633	pulse	1.0	t		21.0	male	black	2.969757262236371	neutral	137	sub-01	1.0	6.0	137_neutral	0.0		77.59917243985728	
8.0	53.2051435144931	pulse	1.0	t		21.0	male	black	2.969757262236371	neutral	137	sub-01	1.0	6.0	137_neutral	0.0		78.29914023214405	
8.0	53.90514179393176	pulse	1.0	t		21.0	male	black	2.969757262236371	neutral	137	sub-01	1.0	6.0	137_neutral	0.0		78.99913851158271	
8.0	54.60511683068944	pulse	1.0	t		21.0	male	black	2.969757262236371	neutral	137	sub-01	1.0	6.0	137_neutral	0.0		79.69911354834039	
9.0	55.02165583869828	face	0.0		145	31.0	male	west_asian	1.9538400318344609	smiling	070	sub-01	1.0	6.0	070_smiling	0.0		80.11565255634923	1.2333190758090495
9.0	55.3051102804784	pulse	0.0	t		31.0	male	west_asian	1.9538400318344609	smiling	070	sub-01	1.0	6.0	070_smiling	0.0		80.39910699812935	
9.0	56.005089543179565	pulse	0.0	t		31.0	male	west_asian	1.9538400318344609	smiling	070	sub-01	1.0	6.0	070_smiling	0.0		81.09908626083052	
9.0	56.25497491450733	fix	1.0		445	31.0	male	west_asian	1.9538400318344609	smiling	070	sub-01	1.0	6.0	070_smiling	0.0		81.34897163215828	3.766532110668777
9.0	56.70506971143732	pulse	1.0	t		31.0	male	west_asian	1.9538400318344609	smiling	070	sub-01	1.0	6.0	070_smiling	0.0		81.79906642908827	
9.0	57.40504505004901	pulse	1.0	t		31.0	male	west_asian	1.9538400318344609	smiling	070	sub-01	1.0	6.0	070_smiling	0.0		82.49904176769996	
9.0	58.10502944425025	pulse	1.0	t		31.0	male	west_asian	1.9538400318344609	smiling	070	sub-01	1.0	6.0	070_smiling	0.0		83.1990261619012	
9.0	58.805002368037094	pulse	1.0	t		31.0	male	west_asian	1.9538400318344609	smiling	070	sub-01	1.0	6.0	070_smiling	0.0		83.89899908568805	
9.0	59.504981932590454	pulse	1.0	t		31.0	male	west_asian	1.9538400318344609	smiling	070	sub-01	1.0	6.0	070_smiling	0.0		84.5989786502414	
10.0	60.021507025176106	face	0.0		145	26.0	male	white	2.7966573816155993	smiling	117	sub-01	1.0	6.0	117_smiling	0.0		85.11550374282706	1.2333350740191236
10.0	60.20499319170631	pulse	0.0	t		26.0	male	white	2.7966573816155993	smiling	117	sub-01	1.0	6.0	117_smiling	0.0		85.29898990935726	
10.0	60.90494830616808	pulse	0.0	t		26.0	male	white	2.7966573816155993	smiling	117	sub-01	1.0	6.0	117_smiling	0.0		85.99894502381903	
10.0	61.25484209919523	fix	1.0		445	26.0	male	white	2.7966573816155993	smiling	117	sub-01	1.0	6.0	117_smiling	0.0		86.34883881684618	3.758195233076549
10.0	61.60494598189871	pulse	1.0	t		26.0	male	white	2.7966573816155993	smiling	117	sub-01	1.0	6.0	117_smiling	0.0		86.69894269954966	
10.0	62.30491467974571	pulse	1.0	t		26.0	male	white	2.7966573816155993	smiling	117	sub-01	1.0	6.0	117_smiling	0.0		87.39891139739666	
10.0	63.00489997950535	pulse	1.0	t		26.0	male	white	2.7966573816155993	smiling	117	sub-01	1.0	6.0	117_smiling	0.0		88.0988966971563	
10.0	63.70488165702773	pulse	1.0	t		26.0	male	white	2.7966573816155993	smiling	117	sub-01	1.0	6.0	117_smiling	0.0		88.79887837467868	
10.0	64.40485880675806	pulse	1.0	t		26.0	male	white	2.7966573816155993	smiling	117	sub-01	1.0	6.0	117_smiling	0.0		89.49885552440901	
11.0	65.01303733227178	face	0.0		146	25.0	female	black	3.858336649423	neutral	126	sub-01	1.0	6.0	126_neutral	0.0		90.10703404992273	1.241671046051124
11.0	65.10484199354687	pulse	0.0	t		25.0	female	black	3.858336649423	neutral	126	sub-01	1.0	6.0	126_neutral	0.0		90.19883871119782	
11.0	65.80481069139205	pulse	0.0	t		25.0	female	black	3.858336649423	neutral	126	sub-01	1.0	6.0	126_neutral	0.0		90.898807409043	
11.0	66.2547083783229	fix	1.0		445	25.0	female	black	3.858336649423	neutral	126	sub-01	1.0	6.0	126_neutral	0.0		91.34870509597386	3.766546901462789
11.0	66.50481078194753	pulse	1.0	t		25.0	female	black	3.858336649423	neutral	126	sub-01	1.0	6.0	126_neutral	0.0		91.59880749959848	
11.0	67.20477917794051	pulse	1.0	t		25.0	female	black	3.858336649423	neutral	126	sub-01	1.0	6.0	126_neutral	0.0		92.29877589559146	
11.0	67.90477021290644	pulse	1.0	t		25.0	female	black	3.858336649423	neutral	126	sub-01	1.0	6.0	126_neutral	0.0		92.9987669305574	
11.0	68.60474011816405	pulse	1.0	t		25.0	female	black	3.858336649423	neutral	126	sub-01	1.0	6.0	126_neutral	0.0		93.698736835815	
11.0	69.30472511606968	pulse	1.0	t		25.0	female	black	3.858336649423	neutral	126	sub-01	1.0	6.0	126_neutral	0.0		94.39872183372063	
12.0	70.02125527978569	face	0.0		146	40.0	male	black	2.408674890569041	smiling	061	sub-01	1.0	6.0	061_smiling	0.0		95.11525199743664	1.2333205850773084
12.0	70.00749802814607	pulse	0.0	t		40.0	male	black	2.408674890569041	smiling	061	sub-01	1.0	6.0	061_smiling	0.0		95.10149474579703	
12.0	70.70470145079707	pulse	0.0	t		40.0	male	black	2.408674890569041	smiling	061	sub-01	1.0	6.0	061_smiling	0.0		95.79869816844803	
12.0	71.254575864863	fix	1.0		443	40.0	male	black	2.408674890569041	smiling	061	sub-01	1.0	6.0	061_smiling	0.0		96.34857258251395	3.766550825552258
12.0	71.40468463758589	pulse	1.0	t		40.0	male	black	2.408674890569041	smiling	061	sub-01	1.0	6.0	061_smiling	0.0		96.49868135523684	
12.0	72.10466057990197	pulse	1.0	t		40.0	male	black	2.408674890569041	smiling	061	sub-01	1.0	6.0	061_smiling	0.0		97.19865729755293	
12.0	72.80463229627821	pulse	1.0	t		40.0	male	black	2.408674890569041	smiling	061	sub-01	1.0	6.0	061_smiling	0.0		97.89862901392917	
12.0	73.50463359424612	pulse	1.0	t		40.0	male	black	2.408674890569041	smiling	061	sub-01	1.0	6.0	061_smiling	0.0		98.59863031189707	
12.0	74.20460621617895	pulse	1.0	t		40.0	male	black	2.408674890569041	smiling	061	sub-01	1.0	6.0	061_smiling	0.0		99.2986029338299	
12.0	74.9045731029073	pulse	1.0	t		40.0	male	black	2.408674890569041	smiling	061	sub-01	1.0	6.0	061_smiling	0.0		99.99856982055826	
13.0	75.02112669041526	face	0.0		146	27.0	male	black	3.5523278949462798	neutral	042	sub-01	1.0	6.0	042_neutral	1.0	trustworthiness	100.11512340806621	1.2333063979858707
13.0	75.60456232675642	pulse	0.0	t		27.0	male	black	3.5523278949462798	neutral	042	sub-01	1.0	6.0	042_neutral	1.0	trustworthiness	100.69855904440738	
13.0	76.25443308840113	fix	1.0		176	27.0	male	black	3.5523278949462798	neutral	042	sub-01	1.0	6.0	042_neutral	1.0	trustworthiness	101.34842980605208	1.4999590989191347
13.0	76.30454762651607	pulse	1.0	t		27.0	male	black	3.5523278949462798	neutral	042	sub-01	1.0	6.0	042_neutral	1.0	trustworthiness	101.39854434416702	
13.0	77.0045262855092	pulse	1.0	t		27.0	male	black	3.5523278949462798	neutral	042	sub-01	1.0	6.0	042_neutral	1.0	trustworthiness	102.09852300316015	
13.0	77.7045025296793	pulse	1.0	t		27.0	male	black	3.5523278949462798	neutral	042	sub-01	1.0	6.0	042_neutral	1.0	trustworthiness	102.79849924733026	
13.0	77.75439218732026	rating	2.0		295	27.0	male	black	3.5523278949462798	neutral	042	sub-01	1.0	6.0	042_neutral	1.0	trustworthiness	102.84838890497122	2.49993434697717
13.0	78.39940402146749	pulse	2.0	t		27.0	male	black	3.5523278949462798	neutral	042	sub-01	1.0	6.0	042_neutral	1.0	trustworthiness	103.49340073911844	
13.0	79.09939203790418	pulse	2.0	t		27.0	male	black	3.5523278949462798	neutral	042	sub-01	1.0	6.0	042_neutral	1.0	trustworthiness	104.19338875555513	
13.0	79.40445341819941	response	2.0	y		27.0	male	black	3.5523278949462798	neutral	042	sub-01	1.0	6.0	042_neutral	1.0	trustworthiness	104.49845013585036	
13.0	79.80444484557484	pulse	2.0	t		27.0	male	black	3.5523278949462798	neutral	042	sub-01	1.0	6.0	042_neutral	1.0	trustworthiness	104.89844156322579	
13.0	80.25432653429743	fix	3.0		444	27.0	male	black	3.5523278949462798	neutral	042	sub-01	1.0	6.0	042_neutral	1.0	trustworthiness	105.34832325194839	3.7665583718771813
13.0	80.50444825651357	pulse	3.0	t		27.0	male	black	3.5523278949462798	neutral	042	sub-01	1.0	6.0	042_neutral	1.0	trustworthiness	105.59844497416452	
13.0	81.20440970988602	pulse	3.0	t		27.0	male	black	3.5523278949462798	neutral	042	sub-01	1.0	6.0	042_neutral	1.0	trustworthiness	106.29840642753697	
13.0	81.90439561335188	pulse	3.0	t		27.0	male	black	3.5523278949462798	neutral	042	sub-01	1.0	6.0	042_neutral	1.0	trustworthiness	106.99839233100283	
13.0	82.60438121496554	pulse	3.0	t		27.0	male	black	3.5523278949462798	neutral	042	sub-01	1.0	6.0	042_neutral	1.0	trustworthiness	107.6983779326165	
13.0	83.30435927025246	pulse	3.0	t		27.0	male	black	3.5523278949462798	neutral	042	sub-01	1.0	6.0	042_neutral	1.0	trustworthiness	108.39835598790341	
14.0	84.02088490617462	face	0.0		146	25.0	female	west_asian	2.6756864305610826	neutral	064	sub-01	1.0	6.0	064_neutral	0.0		109.11488162382557	1.2333181702506408
14.0	84.0071729324809	pulse	0.0	t		25.0	female	west_asian	2.6756864305610826	neutral	064	sub-01	1.0	6.0	064_neutral	0.0		109.10116965013185	
14.0	84.70431839935918	pulse	0.0	t		25.0	female	west_asian	2.6756864305610826	neutral	064	sub-01	1.0	6.0	064_neutral	0.0		109.79831511701013	
14.0	85.25420307642526	fix	1.0		443	25.0	female	west_asian	2.6756864305610826	neutral	064	sub-01	1.0	6.0	064_neutral	0.0		110.34819979407621	3.7665372421688517
14.0	85.4043021898542	pulse	1.0	t		25.0	female	west_asian	2.6756864305610826	neutral	064	sub-01	1.0	6.0	064_neutral	0.0		110.49829890750516	
14.0	86.1042600209912	pulse	1.0	t		25.0	female	west_asian	2.6756864305610826	neutral	064	sub-01	1.0	6.0	064_neutral	0.0		111.19825673864216	
14.0	86.80426916713623	pulse	1.0	t		25.0	female	west_asian	2.6756864305610826	neutral	064	sub-01	1.0	6.0	064_neutral	0.0		111.89826588478718	
14.0	87.50424571316034	pulse	1.0	t		25.0	female	west_asian	2.6756864305610826	neutral	064	sub-01	1.0	6.0	064_neutral	0.0		112.5982424308113	
14.0	88.20422135362423	pulse	1.0	t		25.0	female	west_asian	2.6756864305610826	neutral	064	sub-01	1.0	6.0	064_neutral	0.0		113.29821807127519	
14.0	88.90420876635471	pulse	1.0	t		25.0	female	west_asian	2.6756864305610826	neutral	064	sub-01	1.0	6.0	064_neutral	0.0		113.99820548400567	
15.0	89.02074031859411	face	0.0		146	31.0	female	east_asian	3.395941106247513	neutral	087	sub-01	1.0	6.0	087_neutral	0.0		114.11473703624506	1.2333362814315478
15.0	89.60420704579337	pulse	0.0	t		31.0	female	east_asian	3.395941106247513	neutral	087	sub-01	1.0	6.0	087_neutral	0.0		114.69820376344433	
15.0	90.25407660002566	fix	1.0		443	31.0	female	east_asian	3.395941106247513	neutral	087	sub-01	1.0	6.0	087_neutral	0.0		115.34807331767661	3.766548712581425
15.0	90.30417815846158	pulse	1.0	t		31.0	female	east_asian	3.395941106247513	neutral	087	sub-01	1.0	6.0	087_neutral	0.0		115.39817487611253	
15.0	91.00414927113161	pulse	1.0	t		31.0	female	east_asian	3.395941106247513	neutral	087	sub-01	1.0	6.0	087_neutral	0.0		116.09814598878256	
15.0	91.7041436264808	pulse	1.0	t		31.0	female	east_asian	3.395941106247513	neutral	087	sub-01	1.0	6.0	087_neutral	0.0		116.79814034413175	
15.0	92.40412560585719	pulse	1.0	t		31.0	female	east_asian	3.395941106247513	neutral	087	sub-01	1.0	6.0	087_neutral	0.0		117.49812232350814	
15.0	93.10410577411676	pulse	1.0	t		31.0	female	east_asian	3.395941106247513	neutral	087	sub-01	1.0	6.0	087_neutral	0.0		118.19810249176771	
15.0	93.80409228128701	pulse	1.0	t		31.0	female	east_asian	3.395941106247513	neutral	087	sub-01	1.0	6.0	087_neutral	0.0		118.89808899893796	
16.0	94.02062531260708	face	0.0		145	22.0	female	white	4.614007162753682	smiling	009	sub-01	1.0	6.0	009_smiling	1.0	dominance	119.11462203025803	1.233320886927686
16.0	94.50406580878007	pulse	0.0	t		22.0	female	white	4.614007162753682	smiling	009	sub-01	1.0	6.0	009_smiling	1.0	dominance	119.59806252643102	
16.0	95.20404658074585	pulse	0.0	t		22.0	female	white	4.614007162753682	smiling	009	sub-01	1.0	6.0	009_smiling	1.0	dominance	120.2980432983968	
16.0	95.25394619953477	fix	1.0		177	22.0	female	white	4.614007162753682	smiling	009	sub-01	1.0	6.0	009_smiling	1.0	dominance	120.34794291718572	1.499949137773001
16.0	95.90403369162414	pulse	1.0	t		22.0	female	white	4.614007162753682	smiling	009	sub-01	1.0	6.0	009_smiling	1.0	dominance	120.99803040927509	
16.0	96.60399997464447	pulse	1.0	t		22.0	female	white	4.614007162753682	smiling	009	sub-01	1.0	6.0	009_smiling	1.0	dominance	121.69799669229542	
16.0	96.75389533730777	rating	2.0		295	22.0	female	white	4.614007162753682	smiling	009	sub-01	1.0	6.0	009_smiling	1.0	dominance	121.84789205495872	2.499931026592094
16.0	97.29880155309365	pulse	2.0	t		22.0	female	white	4.614007162753682	smiling	009	sub-01	1.0	6.0	009_smiling	1.0	dominance	122.3927982707446	
16.0	97.96546288702484	response	2.0	w		22.0	female	white	4.614007162753682	smiling	009	sub-01	1.0	6.0	009_smiling	1.0	dominance	123.0594596046758	
16.0	97.99878172135323	pulse	2.0	t		22.0	female	white	4.614007162753682	smiling	009	sub-01	1.0	6.0	009_smiling	1.0	dominance	123.09277843900418	
16.0	98.70394742204007	pulse	2.0	t		22.0	female	white	4.614007162753682	smiling	009	sub-01	1.0	6.0	009_smiling	1.0	dominance	123.79794413969103	
16.0	99.25382636389986	fix	3.0		443	22.0	female	white	4.614007162753682	smiling	009	sub-01	1.0	6.0	009_smiling	1.0	dominance	124.34782308155081	3.75822783320109
16.0	99.40393996627063	pulse	3.0	t		22.0	female	white	4.614007162753682	smiling	009	sub-01	1.0	6.0	009_smiling	1.0	dominance	124.49793668392158	
16.0	100.10391681414694	pulse	3.0	t		22.0	female	white	4.614007162753682	smiling	009	sub-01	1.0	6.0	009_smiling	1.0	dominance	125.1979135317979	
16.0	100.80390362317121	pulse	3.0	t		22.0	female	white	4.614007162753682	smiling	009	sub-01	1.0	6.0	009_smiling	1.0	dominance	125.89790034082216	
16.0	101.50387020804737	pulse	3.0	t		22.0	female	white	4.614007162753682	smiling	009	sub-01	1.0	6.0	009_smiling	1.0	dominance	126.59786692569833	
16.0	102.20385611151141	pulse	3.0	t		22.0	female	white	4.614007162753682	smiling	009	sub-01	1.0	6.0	009_smiling	1.0	dominance	127.29785282916237	
16.0	102.90382994085849	pulse	3.0	t		22.0	female	white	4.614007162753682	smiling	009	sub-01	1.0	6.0	009_smiling	1.0	dominance	127.99782665850944	
17.0	103.01205419710095	face	0.0		147	24.0	female	east_asian	2.9076800636689217	neutral	034	sub-01	1.0	6.0	034_neutral	0.0		128.1060509147519	1.241639653339007
17.0	103.60382761659093	pulse	0.0	t		24.0	female	east_asian	2.9076800636689217	neutral	034	sub-01	1.0	6.0	034_neutral	0.0		128.6978243342419	
17.0	104.25369385043996	fix	1.0		443	24.0	female	east_asian	2.9076800636689217	neutral	034	sub-01	1.0	6.0	034_neutral	0.0		129.3476905680909	3.7665638052312715
17.0	104.30380989781952	pulse	1.0	t		24.0	female	east_asian	2.9076800636689217	neutral	034	sub-01	1.0	6.0	034_neutral	0.0		129.39780661547047	
17.0	105.00378402901879	pulse	1.0	t		24.0	female	east_asian	2.9076800636689217	neutral	034	sub-01	1.0	6.0	034_neutral	0.0		130.09778074666974	
17.0	105.70376872507222	pulse	1.0	t		24.0	female	east_asian	2.9076800636689217	neutral	034	sub-01	1.0	6.0	034_neutral	0.0		130.79776544272318	
17.0	106.40373953589005	pulse	1.0	t		24.0	female	east_asian	2.9076800636689217	neutral	034	sub-01	1.0	6.0	034_neutral	0.0		131.497736253541	
17.0	107.10373932459152	pulse	1.0	t		24.0	female	east_asian	2.9076800636689217	neutral	034	sub-01	1.0	6.0	034_neutral	0.0		132.19773604224247	
17.0	107.80371617246783	pulse	1.0	t		24.0	female	east_asian	2.9076800636689217	neutral	034	sub-01	1.0	6.0	034_neutral	0.0		132.89771289011878	
18.0	108.02025765567123	face	0.0		145	31.0	female	white	2.1822522881018704	smiling	102	sub-01	1.0	6.0	102_smiling	0.0		133.11425437332218	1.2333175665462477
18.0	108.5036963407274	pulse	0.0	t		31.0	female	white	2.1822522881018704	smiling	102	sub-01	1.0	6.0	102_smiling	0.0		133.59769305837835	
18.0	109.2036849608703	pulse	0.0	t		31.0	female	white	2.1822522881018704	smiling	102	sub-01	1.0	6.0	102_smiling	0.0		134.29768167852126	
18.0	109.25357522221748	fix	1.0		445	31.0	female	white	2.1822522881018704	smiling	102	sub-01	1.0	6.0	102_smiling	0.0		134.34757193986843	3.766550221846046
18.0	109.90365848836336	pulse	1.0	t		31.0	female	white	2.1822522881018704	smiling	102	sub-01	1.0	6.0	102_smiling	0.0		134.99765520601431	
18.0	110.60364197700437	pulse	1.0	t		31.0	female	white	2.1822522881018704	smiling	102	sub-01	1.0	6.0	102_smiling	0.0		135.69763869465532	
18.0	111.30362335267637	pulse	1.0	t		31.0	female	white	2.1822522881018704	smiling	102	sub-01	1.0	6.0	102_smiling	0.0		136.39762007032732	
18.0	112.00359688016943	pulse	1.0	t		31.0	female	white	2.1822522881018704	smiling	102	sub-01	1.0	6.0	102_smiling	0.0		137.09759359782038	
18.0	112.70357614286877	pulse	1.0	t		31.0	female	white	2.1822522881018704	smiling	102	sub-01	1.0	6.0	102_smiling	0.0		137.79757286051972	
19.0	113.02012544406352	face	0.0		145	40.0	female	west_asian	1.5777954635893354	smiling	038	sub-01	1.0	6.0	038_smiling	0.0		138.11412216171448	1.233312435046173
19.0	113.40357442230743	pulse	0.0	t		40.0	female	west_asian	1.5777954635893354	smiling	038	sub-01	1.0	6.0	038_smiling	0.0		138.49757113995838	
19.0	114.10355640168382	pulse	0.0	t		40.0	female	west_asian	1.5777954635893354	smiling	038	sub-01	1.0	6.0	038_smiling	0.0		139.19755311933477	
19.0	114.2534378791097	fix	1.0		444	40.0	female	west_asian	1.5777954635893354	smiling	038	sub-01	1.0	6.0	038_smiling	0.0		139.34743459676065	3.7665547496417275
19.0	114.80352902361847	pulse	1.0	t		40.0	female	west_asian	1.5777954635893354	smiling	038	sub-01	1.0	6.0	038_smiling	0.0		139.89752574126942	
19.0	115.50351462523031	pulse	1.0	t		40.0	female	west_asian	1.5777954635893354	smiling	038	sub-01	1.0	6.0	038_smiling	0.0		140.59751134288126	
19.0	116.20349177495882	pulse	1.0	t		40.0	female	west_asian	1.5777954635893354	smiling	038	sub-01	1.0	6.0	038_smiling	0.0		141.29748849260977	
19.0	116.90346801912892	pulse	1.0	t		40.0	female	west_asian	1.5777954635893354	smiling	038	sub-01	1.0	6.0	038_smiling	0.0		141.99746473677988	
19.0	117.60345271518236	pulse	1.0	t		40.0	female	west_asian	1.5777954635893354	smiling	038	sub-01	1.0	6.0	038_smiling	0.0		142.6974494328333	
20.0	118.01999262875142	face	0.0		145	34.0	male	white	2.651014723438122	neutral	121	sub-01	1.0	6.0	121_neutral	0.0		143.11398934640238	1.2333169628382166
20.0	118.30344525941473	pulse	0.0	t		34.0	male	white	2.651014723438122	neutral	121	sub-01	1.0	6.0	121_neutral	0.0		143.39744197706568	
20.0	119.00340459981817	pulse	0.0	t		34.0	male	white	2.651014723438122	neutral	121	sub-01	1.0	6.0	121_neutral	0.0		144.09740131746912	
20.0	119.25330959158964	fix	1.0		1185	34.0	male	white	2.651014723438122	neutral	121	sub-01	1.0	6.0	121_neutral	0.0		144.3473063092406	10.01636827996117
20.0	119.70340257740281	pulse	1.0	t		34.0	male	white	2.651014723438122	neutral	121	sub-01	1.0	6.0	121_neutral	0.0		144.79739929505376	
20.0	120.40337429377723	pulse	1.0	t		34.0	male	white	2.651014723438122	neutral	121	sub-01	1.0	6.0	121_neutral	0.0		145.49737101142819	
20.0	121.10335687685983	pulse	1.0	t		34.0	male	white	2.651014723438122	neutral	121	sub-01	1.0	6.0	121_neutral	0.0		146.1973535945108	
20.0	121.80333432844236	pulse	1.0	t		34.0	male	white	2.651014723438122	neutral	121	sub-01	1.0	6.0	121_neutral	0.0		146.8973310460933	
20.0	122.50333411714564	pulse	1.0	t		34.0	male	white	2.651014723438122	neutral	121	sub-01	1.0	6.0	121_neutral	0.0		147.5973308347966	
20.0	123.2033073427865	pulse	1.0	t		34.0	male	white	2.651014723438122	neutral	121	sub-01	1.0	6.0	121_neutral	0.0		148.29730406043745	
20.0	123.90329354810456	pulse	1.0	t		34.0	male	white	2.651014723438122	neutral	121	sub-01	1.0	6.0	121_neutral	0.0		148.9972902657555	
20.0	124.60327462192254	pulse	1.0	t		34.0	male	white	2.651014723438122	neutral	121	sub-01	1.0	6.0	121_neutral	0.0		149.6972713395735	
20.0	125.30323939567825	pulse	1.0	t		34.0	male	white	2.651014723438122	neutral	121	sub-01	1.0	6.0	121_neutral	0.0		150.3972361133292	
20.0	126.00322620470251	pulse	1.0	t		34.0	male	white	2.651014723438122	neutral	121	sub-01	1.0	6.0	121_neutral	0.0		151.09722292235347	
20.0	126.7032078822267	pulse	1.0	t		34.0	male	white	2.651014723438122	neutral	121	sub-01	1.0	6.0	121_neutral	0.0		151.79720459987766	
20.0	127.40319861534044	pulse	1.0	t		34.0	male	white	2.651014723438122	neutral	121	sub-01	1.0	6.0	121_neutral	0.0		152.4971953329914	
20.0	128.10317878360001	pulse	1.0	t		34.0	male	white	2.651014723438122	neutral	121	sub-01	1.0	6.0	121_neutral	0.0		153.19717550125097	
20.0	128.80315291479928	pulse	1.0	t		34.0	male	white	2.651014723438122	neutral	121	sub-01	1.0	6.0	121_neutral	0.0		153.89714963245024	
21.0	129.2696778715508	face	0.0		145	19.0	male	white	3.2522881018702745	smiling	018	sub-01	1.0	6.0	018_smiling	0.0		154.36367458920176	1.2333350740191236
21.0	129.50314485532363	pulse	0.0	t		19.0	male	white	3.2522881018702745	smiling	018	sub-01	1.0	6.0	018_smiling	0.0		154.59714157297458	
21.0	130.2031256272894	pulse	0.0	t		19.0	male	white	3.2522881018702745	smiling	018	sub-01	1.0	6.0	018_smiling	0.0		155.29712234494036	
21.0	130.50301294556994	fix	1.0		444	19.0	male	white	3.2522881018702745	smiling	018	sub-01	1.0	6.0	018_smiling	0.0		155.5970096632209	3.766548712581425
21.0	130.90311273816587	pulse	1.0	t		19.0	male	white	3.2522881018702745	smiling	018	sub-01	1.0	6.0	018_smiling	0.0		155.99710945581683	
21.0	131.60307600265878	pulse	1.0	t		19.0	male	white	3.2522881018702745	smiling	018	sub-01	1.0	6.0	018_smiling	0.0		156.69707272030973	
21.0	132.30305617091653	pulse	1.0	t		19.0	male	white	3.2522881018702745	smiling	018	sub-01	1.0	6.0	018_smiling	0.0		157.3970528885675	
21.0	133.00304086696997	pulse	1.0	t		19.0	male	white	3.2522881018702745	smiling	018	sub-01	1.0	6.0	018_smiling	0.0		158.09703758462092	
21.0	133.70302737414204	pulse	1.0	t		19.0	male	white	3.2522881018702745	smiling	018	sub-01	1.0	6.0	018_smiling	0.0		158.797024091793	
22.0	134.26956165815136	face	0.0		145	40.0	male	white	1.868682849184242	smiling	172	sub-01	1.0	6.0	172_smiling	0.0		159.3635583758023	1.2332973423963267
22.0	134.40302323875585	pulse	0.0	t		40.0	male	white	1.868682849184242	smiling	172	sub-01	1.0	6.0	172_smiling	0.0		159.4970199564068	
22.0	135.10298740880717	pulse	0.0	t		40.0	male	white	1.868682849184242	smiling	172	sub-01	1.0	6.0	172_smiling	0.0		160.19698412645812	
22.0	135.5028590005477	fix	1.0		444	40.0	male	white	1.868682849184242	smiling	172	sub-01	1.0	6.0	172_smiling	0.0		160.59685571819864	3.7665722571146034
22.0	135.8029793493315	pulse	1.0	t		40.0	male	white	1.868682849184242	smiling	172	sub-01	1.0	6.0	172_smiling	0.0		160.89697606698246	
22.0	136.50294895273692	pulse	1.0	t		40.0	male	white	1.868682849184242	smiling	172	sub-01	1.0	6.0	172_smiling	0.0		161.59694567038787	
22.0	137.20292700802383	pulse	1.0	t		40.0	male	white	1.868682849184242	smiling	172	sub-01	1.0	6.0	172_smiling	0.0		162.2969237256748	
22.0	137.9029382671415	pulse	1.0	t		40.0	male	white	1.868682849184242	smiling	172	sub-01	1.0	6.0	172_smiling	0.0		162.99693498479246	
22.0	138.6028942871617	pulse	1.0	t		40.0	male	white	1.868682849184242	smiling	172	sub-01	1.0	6.0	172_smiling	0.0		163.69689100481264	
23.0	139.2694312576623	face	0.0		145	24.0	female	east_asian	2.9076800636689217	smiling	034	sub-01	1.0	6.0	034_smiling	1.0	attractiveness	164.36342797531324	1.2333184721046564
23.0	139.30294297604814	pulse	0.0	t		24.0	female	east_asian	2.9076800636689217	smiling	034	sub-01	1.0	6.0	034_smiling	1.0	attractiveness	164.3969396936991	
23.0	140.00286518853318	pulse	0.0	t		24.0	female	east_asian	2.9076800636689217	smiling	034	sub-01	1.0	6.0	034_smiling	1.0	attractiveness	165.09686190618413	
23.0	140.50274972976695	fix	1.0		177	24.0	female	east_asian	2.9076800636689217	smiling	034	sub-01	1.0	6.0	034_smiling	1.0	attractiveness	165.5967464474179	1.4999494396251976
23.0	140.70285018644063	pulse	1.0	t		24.0	female	east_asian	2.9076800636689217	smiling	034	sub-01	1.0	6.0	034_smiling	1.0	attractiveness	165.79684690409158	
23.0	141.4028182805796	pulse	1.0	t		24.0	female	east_asian	2.9076800636689217	smiling	034	sub-01	1.0	6.0	034_smiling	1.0	attractiveness	166.49681499823055	
23.0	142.00269916939214	rating	2.0		294	24.0	female	east_asian	2.9076800636689217	smiling	034	sub-01	1.0	6.0	034_smiling	1.0	attractiveness	167.0966958870431	2.499934346975351
23.0	142.0976391776203	pulse	2.0	t		24.0	female	east_asian	2.9076800636689217	smiling	034	sub-01	1.0	6.0	034_smiling	1.0	attractiveness	167.19163589527125	
23.0	142.79771382586296	pulse	2.0	t		24.0	female	east_asian	2.9076800636689217	smiling	034	sub-01	1.0	6.0	034_smiling	1.0	attractiveness	167.8917105435139	
23.0	143.1392761746538	response	2.0	b		24.0	female	east_asian	2.9076800636689217	smiling	034	sub-01	1.0	6.0	034_smiling	1.0	attractiveness	168.23327289230474	
23.0	143.50276753909202	pulse	2.0	t		24.0	female	east_asian	2.9076800636689217	smiling	034	sub-01	1.0	6.0	034_smiling	1.0	attractiveness	168.59676425674297	
23.0	144.20276461111825	pulse	2.0	t		24.0	female	east_asian	2.9076800636689217	smiling	034	sub-01	1.0	6.0	034_smiling	1.0	attractiveness	169.2967613287692	
23.0	144.5026335163675	fix	3.0		444	24.0	female	east_asian	2.9076800636689217	smiling	034	sub-01	1.0	6.0	034_smiling	1.0	attractiveness	169.59663023401845	3.766546901464608
23.0	144.90273451637586	pulse	3.0	t		24.0	female	east_asian	2.9076800636689217	smiling	034	sub-01	1.0	6.0	034_smiling	1.0	attractiveness	169.9967312340268	
23.0	145.60272223096035	pulse	3.0	t		24.0	female	east_asian	2.9076800636689217	smiling	034	sub-01	1.0	6.0	034_smiling	1.0	attractiveness	170.6967189486113	
23.0	146.30268549545144	pulse	3.0	t		24.0	female	east_asian	2.9076800636689217	smiling	034	sub-01	1.0	6.0	034_smiling	1.0	attractiveness	171.3966822131024	
23.0	147.0026840767423	pulse	3.0	t		24.0	female	east_asian	2.9076800636689217	smiling	034	sub-01	1.0	6.0	034_smiling	1.0	attractiveness	172.09668079439325	
23.0	147.7026542838521	pulse	3.0	t		24.0	female	east_asian	2.9076800636689217	smiling	034	sub-01	1.0	6.0	034_smiling	1.0	attractiveness	172.79665100150305	
24.0	148.2691804178321	face	0.0		145	23.0	male	white	2.6275368085953046	neutral	141	sub-01	1.0	6.0	141_neutral	0.0		173.36317713548306	1.2333175665444287
24.0	148.4026749004115	pulse	0.0	t		23.0	male	white	2.6275368085953046	neutral	141	sub-01	1.0	6.0	141_neutral	0.0		173.49667161806246	
24.0	149.1026318259901	pulse	0.0	t		23.0	male	white	2.6275368085953046	neutral	141	sub-01	1.0	6.0	141_neutral	0.0		174.19662854364105	
24.0	149.50249798437653	fix	1.0		444	23.0	male	white	2.6275368085953046	neutral	141	sub-01	1.0	6.0	141_neutral	0.0		174.59649470202748	3.7665737663810432
24.0	149.80261682389755	pulse	1.0	t		23.0	male	white	2.6275368085953046	neutral	141	sub-01	1.0	6.0	141_neutral	0.0		174.8966135415485	
24.0	150.50257948468243	pulse	1.0	t		23.0	male	white	2.6275368085953046	neutral	141	sub-01	1.0	6.0	141_neutral	0.0		175.59657620233338	
24.0	151.2025587473836	pulse	1.0	t		23.0	male	white	2.6275368085953046	neutral	141	sub-01	1.0	6.0	141_neutral	0.0		176.29655546503454	
24.0	151.9025428397308	pulse	1.0	t		23.0	male	white	2.6275368085953046	neutral	141	sub-01	1.0	6.0	141_neutral	0.0		176.99653955738177	
24.0	152.60253719508	pulse	1.0	t		23.0	male	white	2.6275368085953046	neutral	141	sub-01	1.0	6.0	141_neutral	0.0		177.69653391273096	
25.0	153.26907175075758	face	0.0		145	20.0	male	black	2.609629924393156	smiling	043	sub-01	1.0	6.0	043_smiling	0.0		178.36306846840853	1.2332955312776903
25.0	153.30251675963336	pulse	0.0	t		20.0	male	black	2.609629924393156	smiling	043	sub-01	1.0	6.0	043_smiling	0.0		178.39651347728432	
25.0	154.00250266309922	pulse	0.0	t		20.0	male	black	2.609629924393156	smiling	043	sub-01	1.0	6.0	043_smiling	0.0		179.09649938075017	
25.0	154.50236728203527	fix	1.0		443	20.0	male	black	2.609629924393156	smiling	043	sub-01	1.0	6.0	043_smiling	0.0		179.59636399968622	3.7665616922604386
25.0	154.70247739800288	pulse	1.0	t		20.0	male	black	2.609629924393156	smiling	043	sub-01	1.0	6.0	043_smiling	0.0		179.79647411565384	
25.0	155.40248684600192	pulse	1.0	t		20.0	male	black	2.609629924393156	smiling	043	sub-01	1.0	6.0	043_smiling	0.0		180.49648356365287	
25.0	156.10242716966604	pulse	1.0	t		20.0	male	black	2.609629924393156	smiling	043	sub-01	1.0	6.0	043_smiling	0.0		181.196423887317	
25.0	156.8024194120444	pulse	1.0	t		20.0	male	black	2.609629924393156	smiling	043	sub-01	1.0	6.0	043_smiling	0.0		181.89641612969535	
25.0	157.50240018401018	pulse	1.0	t		20.0	male	black	2.609629924393156	smiling	043	sub-01	1.0	6.0	043_smiling	0.0		182.59639690166114	
25.0	158.20238578562203	pulse	1.0	t		20.0	male	black	2.609629924393156	smiling	043	sub-01	1.0	6.0	043_smiling	0.0		183.29638250327298	
26.0	158.2689289742957	face	0.0		146	19.0	female	white	4.298846000795861	smiling	100	sub-01	1.0	6.0	100_smiling	1.0	attractiveness	183.36292569194666	1.233319377663065
26.0	158.90236444461698	pulse	0.0	t		19.0	female	white	4.298846000795861	smiling	100	sub-01	1.0	6.0	100_smiling	1.0	attractiveness	183.99636116226793	
26.0	159.50224835195877	fix	1.0		177	19.0	female	white	4.298846000795861	smiling	100	sub-01	1.0	6.0	100_smiling	1.0	attractiveness	184.59624506960972	1.4999506470376218
26.0	159.60244482806593	pulse	1.0	t		19.0	female	white	4.298846000795861	smiling	100	sub-01	1.0	6.0	100_smiling	1.0	attractiveness	184.69644154571688	
26.0	160.3023244792821	pulse	1.0	t		19.0	female	white	4.298846000795861	smiling	100	sub-01	1.0	6.0	100_smiling	1.0	attractiveness	185.39632119693306	
26.0	161.0021989989964	rating	2.0		294	19.0	female	white	4.298846000795861	smiling	100	sub-01	1.0	6.0	100_smiling	1.0	attractiveness	186.09619571664734	2.4999271025026246
26.0	160.99730626396376	pulse	2.0	t		19.0	female	white	4.298846000795861	smiling	100	sub-01	1.0	6.0	100_smiling	1.0	attractiveness	186.09130298161472	
26.0	161.69721428935918	pulse	2.0	t		19.0	female	white	4.298846000795861	smiling	100	sub-01	1.0	6.0	100_smiling	1.0	attractiveness	186.79121100701013	
26.0	162.21895268484695	response	2.0	e		19.0	female	white	4.298846000795861	smiling	100	sub-01	1.0	6.0	100_smiling	1.0	attractiveness	187.3129494024979	
26.0	162.39725633747912	pulse	2.0	t		19.0	female	white	4.298846000795861	smiling	100	sub-01	1.0	6.0	100_smiling	1.0	attractiveness	187.49125305513007	
26.0	163.1022484727	pulse	2.0	t		19.0	female	white	4.298846000795861	smiling	100	sub-01	1.0	6.0	100_smiling	1.0	attractiveness	188.19624519035096	
26.0	163.50212610149902	fix	3.0		444	19.0	female	white	4.298846000795861	smiling	100	sub-01	1.0	6.0	100_smiling	1.0	attractiveness	188.59612281914997	3.7665514292602893
26.0	163.80223709284292	pulse	3.0	t		19.0	female	white	4.298846000795861	smiling	100	sub-01	1.0	6.0	100_smiling	1.0	attractiveness	188.89623381049387	
26.0	164.50221363886521	pulse	3.0	t		19.0	female	white	4.298846000795861	smiling	100	sub-01	1.0	6.0	100_smiling	1.0	attractiveness	189.59621035651617	
26.0	165.20218958118312	pulse	3.0	t		19.0	female	white	4.298846000795861	smiling	100	sub-01	1.0	6.0	100_smiling	1.0	attractiveness	190.29618629883407	
26.0	165.90218031429504	pulse	3.0	t		19.0	female	white	4.298846000795861	smiling	100	sub-01	1.0	6.0	100_smiling	1.0	attractiveness	190.996177031946	
26.0	166.60216199181923	pulse	3.0	t		19.0	female	white	4.298846000795861	smiling	100	sub-01	1.0	6.0	100_smiling	1.0	attractiveness	191.69615870947018	
27.0	167.2686775307593	face	0.0		145	26.0	male	white	2.7966573816155993	neutral	117	sub-01	1.0	6.0	117_neutral	0.0		192.36267424841026	1.23331666098602
27.0	167.3021418582248	pulse	0.0	t		26.0	male	white	2.7966573816155993	neutral	117	sub-01	1.0	6.0	117_neutral	0.0		192.39613857587574	
27.0	168.0021313839261	pulse	0.0	t		26.0	male	white	2.7966573816155993	neutral	117	sub-01	1.0	6.0	117_neutral	0.0		193.09612810157705	
27.0	168.50199419174533	fix	1.0		443	26.0	male	white	2.7966573816155993	neutral	117	sub-01	1.0	6.0	117_neutral	0.0		193.59599090939628	3.7583718170735665
27.0	168.70211789109817	pulse	1.0	t		26.0	male	white	2.7966573816155993	neutral	117	sub-01	1.0	6.0	117_neutral	0.0		193.79611460874912	
27.0	169.40208658894335	pulse	1.0	t		26.0	male	white	2.7966573816155993	neutral	117	sub-01	1.0	6.0	117_neutral	0.0		194.4960833065943	
27.0	170.10205770161338	pulse	1.0	t		26.0	male	white	2.7966573816155993	neutral	117	sub-01	1.0	6.0	117_neutral	0.0		195.19605441926433	
27.0	170.80205266066878	pulse	1.0	t		26.0	male	white	2.7966573816155993	neutral	117	sub-01	1.0	6.0	117_neutral	0.0		195.89604937831973	
27.0	171.50202286777858	pulse	1.0	t		26.0	male	white	2.7966573816155993	neutral	117	sub-01	1.0	6.0	117_neutral	0.0		196.59601958542953	
27.0	172.20200937495065	pulse	1.0	t		26.0	male	white	2.7966573816155993	neutral	117	sub-01	1.0	6.0	117_neutral	0.0		197.2960060926016	
28.0	172.2603660088189	face	0.0		147	54.0	female	white	2.286908077994429	smiling	136	sub-01	1.0	6.0	136_smiling	0.0		197.35436272646984	1.2414977824373636
28.0	172.9020197285081	pulse	0.0	t		54.0	female	white	2.286908077994429	smiling	136	sub-01	1.0	6.0	136_smiling	0.0		197.99601644615905	
28.0	173.50186379125626	fix	1.0		443	54.0	female	white	2.286908077994429	smiling	136	sub-01	1.0	6.0	136_smiling	0.0		198.5958605089072	3.766566220054301
28.0	173.6019778614991	pulse	1.0	t		54.0	female	white	2.286908077994429	smiling	136	sub-01	1.0	6.0	136_smiling	0.0		198.69597457915006	
28.0	174.30195621864004	pulse	1.0	t		54.0	female	white	2.286908077994429	smiling	136	sub-01	1.0	6.0	136_smiling	0.0		199.395952936291	
28.0	175.0019490647246	pulse	1.0	t		54.0	female	white	2.286908077994429	smiling	136	sub-01	1.0	6.0	136_smiling	0.0		200.09594578237557	
28.0	175.70191383848032	pulse	1.0	t		54.0	female	white	2.286908077994429	smiling	136	sub-01	1.0	6.0	136_smiling	0.0		200.79591055613128	
28.0	176.4019072882711	pulse	1.0	t		54.0	female	white	2.286908077994429	smiling	136	sub-01	1.0	6.0	136_smiling	0.0		201.49590400592206	
28.0	177.1018892676475	pulse	1.0	t		54.0	female	white	2.286908077994429	smiling	136	sub-01	1.0	6.0	136_smiling	0.0		202.19588598529845	
29.0	177.26843001131056	face	0.0		146	36.0	female	white	2.7548746518105847	neutral	011	sub-01	1.0	6.0	011_neutral	0.0		202.3624267289615	1.2333066998380673
29.0	177.80187486926116	pulse	0.0	t		36.0	female	white	2.7548746518105847	neutral	011	sub-01	1.0	6.0	011_neutral	0.0		202.8958715869121	
29.0	178.50173671114862	fix	1.0		444	36.0	female	white	2.7548746518105847	neutral	011	sub-01	1.0	6.0	011_neutral	0.0		203.59573342879958	3.7665490144354408
29.0	178.50917708537418	pulse	1.0	t		36.0	female	white	2.7548746518105847	neutral	011	sub-01	1.0	6.0	011_neutral	0.0		203.60317380302513	
29.0	179.20182615018894	pulse	1.0	t		36.0	female	white	2.7548746518105847	neutral	011	sub-01	1.0	6.0	011_neutral	0.0		204.2958228678399	
29.0	179.90180511103608	pulse	1.0	t		36.0	female	white	2.7548746518105847	neutral	011	sub-01	1.0	6.0	011_neutral	0.0		204.99580182868704	
29.0	180.601783166323	pulse	1.0	t		36.0	female	white	2.7548746518105847	neutral	011	sub-01	1.0	6.0	011_neutral	0.0		205.69577988397396	
29.0	181.3017654475534	pulse	1.0	t		36.0	female	white	2.7548746518105847	neutral	011	sub-01	1.0	6.0	011_neutral	0.0		206.39576216520436	
29.0	182.0017465213714	pulse	1.0	t		36.0	female	white	2.7548746518105847	neutral	011	sub-01	1.0	6.0	011_neutral	0.0		207.09574323902234	
30.0	182.26828572558406	face	0.0		145	24.0	male	white	3.1153999204138483	neutral	012	sub-01	1.0	6.0	012_neutral	0.0		207.36228244323502	1.2333311499296542
30.0	182.70174993231012	pulse	0.0	t		24.0	male	white	3.1153999204138483	neutral	012	sub-01	1.0	6.0	012_neutral	0.0		207.79574664996107	
30.0	183.4017183283031	pulse	0.0	t		24.0	male	white	3.1153999204138483	neutral	012	sub-01	1.0	6.0	012_neutral	0.0		208.49571504595406	
30.0	183.50161687551372	fix	1.0		444	24.0	male	white	3.1153999204138483	neutral	012	sub-01	1.0	6.0	012_neutral	0.0		208.59561359316467	3.766550825554077
30.0	184.10170875956283	pulse	1.0	t		24.0	male	white	3.1153999204138483	neutral	012	sub-01	1.0	6.0	012_neutral	0.0		209.19570547721378	
30.0	184.80168621114535	pulse	1.0	t		24.0	male	white	3.1153999204138483	neutral	012	sub-01	1.0	6.0	012_neutral	0.0		209.8956829287963	
30.0	185.50166336087386	pulse	1.0	t		24.0	male	white	3.1153999204138483	neutral	012	sub-01	1.0	6.0	012_neutral	0.0		210.59566007852482	
30.0	186.2016417180148	pulse	1.0	t		24.0	male	white	3.1153999204138483	neutral	012	sub-01	1.0	6.0	012_neutral	0.0		211.29563843566575	
30.0	186.90163154557013	pulse	1.0	t		24.0	male	white	3.1153999204138483	neutral	012	sub-01	1.0	6.0	012_neutral	0.0		211.99562826322108	
31.0	187.2681677010678	face	0.0		145	28.0	male	east_asian	1.5563072025467568	smiling	005	sub-01	1.0	6.0	005_smiling	0.0		212.36216441871875	1.2332910034820088
31.0	187.60160446935697	pulse	0.0	t		28.0	male	east_asian	1.5563072025467568	smiling	005	sub-01	1.0	6.0	005_smiling	0.0		212.69560118700792	
31.0	188.3015514337876	pulse	0.0	t		28.0	male	east_asian	1.5563072025467568	smiling	005	sub-01	1.0	6.0	005_smiling	0.0		213.39554815143856	
31.0	188.5014587045498	fix	1.0		444	28.0	male	east_asian	1.5563072025467568	smiling	005	sub-01	1.0	6.0	005_smiling	0.0		213.59545542220076	3.76657406823324
31.0	189.0015708429346	pulse	1.0	t		28.0	male	east_asian	1.5563072025467568	smiling	005	sub-01	1.0	6.0	005_smiling	0.0		214.09556756058555	
31.0	189.70154618154447	pulse	1.0	t		28.0	male	east_asian	1.5563072025467568	smiling	005	sub-01	1.0	6.0	005_smiling	0.0		214.79554289919542	
31.0	190.40155623324972	pulse	1.0	t		28.0	male	east_asian	1.5563072025467568	smiling	005	sub-01	1.0	6.0	005_smiling	0.0		215.49555295090067	
31.0	191.10151647921157	pulse	1.0	t		28.0	male	east_asian	1.5563072025467568	smiling	005	sub-01	1.0	6.0	005_smiling	0.0		216.19551319686252	
31.0	191.80150419379424	pulse	1.0	t		28.0	male	east_asian	1.5563072025467568	smiling	005	sub-01	1.0	6.0	005_smiling	0.0		216.8955009114452	
32.0	192.26803277278304	face	0.0		145	27.0	female	white	4.181058495821727	neutral	039	sub-01	1.0	6.0	039_neutral	0.0		217.362029490434	1.2333079072504916
32.0	192.50148858799548	pulse	0.0	t		27.0	female	white	4.181058495821727	neutral	039	sub-01	1.0	6.0	039_neutral	0.0		217.59548530564643	
32.0	193.2014597006655	pulse	0.0	t		27.0	female	white	4.181058495821727	neutral	039	sub-01	1.0	6.0	039_neutral	0.0		218.29545641831646	
32.0	193.50134068003354	fix	1.0		444	27.0	female	white	4.181058495821727	neutral	039	sub-01	1.0	6.0	039_neutral	0.0		218.5953373976845	3.76655927743559
32.0	193.9014540560147	pulse	1.0	t		27.0	female	white	4.181058495821727	neutral	039	sub-01	1.0	6.0	039_neutral	0.0		218.99545077366565	
32.0	194.60142879092018	pulse	1.0	t		27.0	female	white	4.181058495821727	neutral	039	sub-01	1.0	6.0	039_neutral	0.0		219.69542550857113	
32.0	195.30142042959233	pulse	1.0	t		27.0	female	white	4.181058495821727	neutral	039	sub-01	1.0	6.0	039_neutral	0.0		220.39541714724328	
32.0	196.00137886443554	pulse	1.0	t		27.0	female	white	4.181058495821727	neutral	039	sub-01	1.0	6.0	039_neutral	0.0		221.0953755820865	
32.0	196.70136174937215	pulse	1.0	t		27.0	female	white	4.181058495821727	neutral	039	sub-01	1.0	6.0	039_neutral	0.0		221.7953584670231	
33.0	197.26789995746913	face	0.0		145	34.0	male	white	2.651014723438122	smiling	121	sub-01	1.0	6.0	121_smiling	0.0		222.36189667512008	1.2333048887212499
33.0	197.4013536898965	pulse	0.0	t		34.0	male	white	2.651014723438122	smiling	121	sub-01	1.0	6.0	121_smiling	0.0		222.49535040754745	
33.0	198.10132631183114	pulse	0.0	t		34.0	male	white	2.651014723438122	smiling	121	sub-01	1.0	6.0	121_smiling	0.0		223.1953230294821	
33.0	198.50120484619038	fix	1.0		444	34.0	male	white	2.651014723438122	smiling	121	sub-01	1.0	6.0	121_smiling	0.0		223.59520156384133	3.766566823760513
33.0	198.80132217644496	pulse	1.0	t		34.0	male	white	2.651014723438122	smiling	121	sub-01	1.0	6.0	121_smiling	0.0		223.8953188940959	
33.0	199.50129872246725	pulse	1.0	t		34.0	male	white	2.651014723438122	smiling	121	sub-01	1.0	6.0	121_smiling	0.0		224.5952954401182	
33.0	200.20127466478516	pulse	1.0	t		34.0	male	white	2.651014723438122	smiling	121	sub-01	1.0	6.0	121_smiling	0.0		225.2952713824361	
33.0	200.9012599645448	pulse	1.0	t		34.0	male	white	2.651014723438122	smiling	121	sub-01	1.0	6.0	121_smiling	0.0		225.99525668219576	
33.0	201.60123832168574	pulse	1.0	t		34.0	male	white	2.651014723438122	smiling	121	sub-01	1.0	6.0	121_smiling	0.0		226.6952350393367	
34.0	202.2677716699509	face	0.0		145	26.0	female	white	4.854755272582572	neutral	027	sub-01	1.0	6.0	027_neutral	0.0		227.36176838760184	1.2333163591338234
34.0	202.30132353478257	pulse	0.0	t		26.0	female	white	4.854755272582572	neutral	027	sub-01	1.0	6.0	027_neutral	0.0		227.39532025243352	
34.0	203.00120197858632	pulse	0.0	t		26.0	female	white	4.854755272582572	neutral	027	sub-01	1.0	6.0	027_neutral	0.0		228.09519869623728	
34.0	203.5010880290847	fix	1.0		443	26.0	female	white	4.854755272582572	neutral	027	sub-01	1.0	6.0	027_neutral	0.0		228.59508474673567	3.7665490144354408
34.0	203.7011966357877	pulse	1.0	t		26.0	female	white	4.854755272582572	neutral	027	sub-01	1.0	6.0	027_neutral	0.0		228.79519335343866	
34.0	204.40115808916198	pulse	1.0	t		26.0	female	white	4.854755272582572	neutral	027	sub-01	1.0	6.0	027_neutral	0.0		229.49515480681293	
34.0	205.10112678700716	pulse	1.0	t		26.0	female	white	4.854755272582572	neutral	027	sub-01	1.0	6.0	027_neutral	0.0		230.1951235046581	
34.0	205.80111027565	pulse	1.0	t		26.0	female	white	4.854755272582572	neutral	027	sub-01	1.0	6.0	027_neutral	0.0		230.89510699330094	
34.0	206.5010998013513	pulse	1.0	t		26.0	female	white	4.854755272582572	neutral	027	sub-01	1.0	6.0	027_neutral	0.0		231.59509651900225	
34.0	207.2010884214942	pulse	1.0	t		26.0	female	white	4.854755272582572	neutral	027	sub-01	1.0	6.0	027_neutral	0.0		232.29508513914516	
35.0	207.26763704352015	face	0.0		146	26.0	female	white	4.854755272582572	smiling	027	sub-01	1.0	6.0	027_smiling	0.0		232.3616337611711	1.2333181702506408
35.0	207.90106949531219	pulse	0.0	t		26.0	female	white	4.854755272582572	smiling	027	sub-01	1.0	6.0	027_smiling	0.0		232.99506621296314	
35.0	208.5009552137708	fix	1.0		443	26.0	female	white	4.854755272582572	smiling	027	sub-01	1.0	6.0	027_smiling	0.0		233.59495193142175	3.7665511274062737
35.0	208.60128359963346	pulse	1.0	t		26.0	female	white	4.854755272582572	smiling	027	sub-01	1.0	6.0	027_smiling	0.0		233.6952803172844	
35.0	209.30103858556504	pulse	1.0	t		26.0	female	white	4.854755272582572	smiling	027	sub-01	1.0	6.0	027_smiling	0.0		234.395035303216	
35.0	210.00101664085378	pulse	1.0	t		26.0	female	white	4.854755272582572	smiling	027	sub-01	1.0	6.0	027_smiling	0.0		235.09501335850473	
35.0	210.70100465729047	pulse	1.0	t		26.0	female	white	4.854755272582572	smiling	027	sub-01	1.0	6.0	027_smiling	0.0		235.79500137494142	
35.0	211.4009760718127	pulse	1.0	t		26.0	female	white	4.854755272582572	smiling	027	sub-01	1.0	6.0	027_smiling	0.0		236.49497278946365	
35.0	212.10096257898476	pulse	1.0	t		26.0	female	white	4.854755272582572	smiling	027	sub-01	1.0	6.0	027_smiling	0.0		237.19495929663572	
36.0	212.26750634117707	face	0.0		146	24.0	female	east_asian	4.409868682849185	smiling	030	sub-01	1.0	6.0	030_smiling	0.0		237.36150305882802	1.2333045868672343
36.0	212.80094968986123	pulse	0.0	t		24.0	female	east_asian	4.409868682849185	smiling	030	sub-01	1.0	6.0	030_smiling	0.0		237.89494640751218	
36.0	213.5008109280443	fix	1.0		444	24.0	female	east_asian	4.409868682849185	smiling	030	sub-01	1.0	6.0	030_smiling	0.0		238.59480764569525	3.7665644089374837
36.0	213.50832646366325	pulse	1.0	t		24.0	female	east_asian	4.409868682849185	smiling	030	sub-01	1.0	6.0	030_smiling	0.0		238.6023231813142	
36.0	214.20090791340772	pulse	1.0	t		24.0	female	east_asian	4.409868682849185	smiling	030	sub-01	1.0	6.0	030_smiling	0.0		239.29490463105867	
36.0	214.90087751681313	pulse	1.0	t		24.0	female	east_asian	4.409868682849185	smiling	030	sub-01	1.0	6.0	030_smiling	0.0		239.99487423446408	
36.0	215.60085919433732	pulse	1.0	t		24.0	female	east_asian	4.409868682849185	smiling	030	sub-01	1.0	6.0	030_smiling	0.0		240.69485591198827	
36.0	216.30083845703666	pulse	1.0	t		24.0	female	east_asian	4.409868682849185	smiling	030	sub-01	1.0	6.0	030_smiling	0.0		241.3948351746876	
36.0	217.0008228512379	pulse	1.0	t		24.0	female	east_asian	4.409868682849185	smiling	030	sub-01	1.0	6.0	030_smiling	0.0		242.09481956888885	
37.0	217.2673753369818	face	0.0		145	32.0	male	white	2.389176283326701	neutral	092	sub-01	1.0	6.0	092_neutral	0.0		242.36137205463274	1.2332994553671597
37.0	217.7008123769392	pulse	0.0	t		32.0	male	white	2.389176283326701	neutral	092	sub-01	1.0	6.0	092_neutral	0.0		242.79480909459016	
37.0	218.40078409331363	pulse	0.0	t		32.0	male	white	2.389176283326701	neutral	092	sub-01	1.0	6.0	092_neutral	0.0		243.49478081096458	
37.0	218.50067479234895	fix	1.0		444	32.0	male	white	2.389176283326701	neutral	092	sub-01	1.0	6.0	092_neutral	0.0		243.5946715099999	3.766568333025134
37.0	219.1007832783107	pulse	1.0	t		32.0	male	white	2.389176283326701	neutral	092	sub-01	1.0	6.0	092_neutral	0.0		244.19477999596165	
37.0	219.8007604280392	pulse	1.0	t		32.0	male	white	2.389176283326701	neutral	092	sub-01	1.0	6.0	092_neutral	0.0		244.89475714569016	
37.0	220.50073003144462	pulse	1.0	t		32.0	male	white	2.389176283326701	neutral	092	sub-01	1.0	6.0	092_neutral	0.0		245.59472674909557	
37.0	221.20071382193964	pulse	1.0	t		32.0	male	white	2.389176283326701	neutral	092	sub-01	1.0	6.0	092_neutral	0.0		246.2947105395906	
37.0	221.9007066680242	pulse	1.0	t		32.0	male	white	2.389176283326701	neutral	092	sub-01	1.0	6.0	092_neutral	0.0		246.99470338567517	
38.0	222.26724312537408	face	0.0		145	22.0	female	white	4.614007162753682	neutral	009	sub-01	1.0	6.0	009_neutral	0.0		247.36123984302503	1.2333070016920828
38.0	222.60066631027985	pulse	0.0	t		22.0	female	white	4.614007162753682	neutral	009	sub-01	1.0	6.0	009_neutral	0.0		247.6946630279308	
38.0	223.30065704339358	pulse	0.0	t		22.0	female	white	4.614007162753682	neutral	009	sub-01	1.0	6.0	009_neutral	0.0		248.39465376104454	
38.0	223.50055012706616	fix	1.0		444	22.0	female	white	4.614007162753682	neutral	009	sub-01	1.0	6.0	009_neutral	0.0		248.59454684471712	3.7665595792896056
38.0	224.00064536168247	pulse	1.0	t		22.0	female	white	4.614007162753682	neutral	009	sub-01	1.0	6.0	009_neutral	0.0		249.09464207933343	
38.0	224.7006222095588	pulse	1.0	t		22.0	female	white	4.614007162753682	neutral	009	sub-01	1.0	6.0	009_neutral	0.0		249.79461892720974	
38.0	225.40060358522896	pulse	1.0	t		22.0	female	white	4.614007162753682	neutral	009	sub-01	1.0	6.0	009_neutral	0.0		250.49460030287992	
38.0	226.10059280907808	pulse	1.0	t		22.0	female	white	4.614007162753682	neutral	009	sub-01	1.0	6.0	009_neutral	0.0		251.19458952672903	
38.0	226.80056663842333	pulse	1.0	t		22.0	female	white	4.614007162753682	neutral	009	sub-01	1.0	6.0	009_neutral	0.0		251.8945633560743	
39.0	227.26710970635577	face	0.0		145	47.0	male	east_asian	2.171110226820533	neutral	024	sub-01	1.0	6.0	024_neutral	0.0		252.36110642400672	1.233305492425643
39.0	227.50055374930162	pulse	0.0	t		47.0	male	east_asian	2.171110226820533	neutral	024	sub-01	1.0	6.0	024_neutral	0.0		252.59455046695257	
39.0	228.20052123973437	pulse	0.0	t		47.0	male	east_asian	2.171110226820533	neutral	024	sub-01	1.0	6.0	024_neutral	0.0		253.29451795738532	
39.0	228.5004151987814	fix	1.0		444	47.0	male	east_asian	2.171110226820533	neutral	024	sub-01	1.0	6.0	024_neutral	0.0		253.59441191643236	3.7498966908151488
39.0	228.90051680249599	pulse	1.0	t		47.0	male	east_asian	2.171110226820533	neutral	024	sub-01	1.0	6.0	024_neutral	0.0		253.99451352014694	
39.0	229.6004945559307	pulse	1.0	t		47.0	male	east_asian	2.171110226820533	neutral	024	sub-01	1.0	6.0	024_neutral	0.0		254.69449127358166	
39.0	230.30047230936543	pulse	1.0	t		47.0	male	east_asian	2.171110226820533	neutral	024	sub-01	1.0	6.0	024_neutral	0.0		255.39446902701638	
39.0	231.00045489244803	pulse	1.0	t		47.0	male	east_asian	2.171110226820533	neutral	024	sub-01	1.0	6.0	024_neutral	0.0		256.094451610099	
39.0	231.70045015335745	pulse	1.0	t		47.0	male	east_asian	2.171110226820533	neutral	024	sub-01	1.0	6.0	024_neutral	0.0		256.7944468710084	
40.0	232.25031188959656	fix	0.0		720													257.3443086072475	5.999856016127524
40.0	232.4004291142046	pulse	0.0	t														257.49442583185555	
40.0	233.10038905831243	pulse	0.0	t														258.1943857759634	
40.0	233.80038643219086	pulse	0.0	t														258.8943831498418	
40.0	234.50036599674422	pulse	0.0	t														259.5943627143952	
40.0	235.20034465573917	pulse	0.0	t														260.2943413733901	
40.0	235.90032180546768	pulse	0.0	t														260.99431852311864	
40.0	236.60030650152112	pulse	0.0	t														261.69430321917207	
40.0	237.3002993476057	pulse	0.0	t														262.39429606525664	
40.0	238.0002825343945	pulse	0.0	t														263.09427925204545	
