trial_nr	onset	event_type	phase	response	nr_frames	face_age	face_sex	face_eth	attractiveness	expression	face_id	sub_id	ses	run	trial_type	catch	rating_type	onset_abs	duration
-1.0	0.059746121995885915	fix	0.0		713													23.91005481381444	5.9579147990657475
-1.0	0.7012301488962294	pulse	0.0	t														24.551538840714784	
-1.0	1.4012006576813292	pulse	0.0	t														25.251509349499884	
-1.0	2.1011932018677726	pulse	0.0	t														25.951501893686327	
-1.0	2.8011763885547225	pulse	0.0	t														26.651485080373277	
-1.0	3.5011653104834295	pulse	0.0	t														27.351474002301984	
-1.0	4.201153930557211	pulse	0.0	t														28.051462622375766	
-1.0	4.901129570874218	pulse	0.0	t														28.751438262692773	
-1.0	5.601120002077096	pulse	0.0	t														29.45142869389565	
0.0	6.017660921061633	face	0.0		144	40.0	male	black	2.408674890569041	neutral	061	sub-03	2.0	2.0	061_neutral	0.0		29.867969612880188	1.2333174658324424
0.0	6.301109829569668	pulse	0.0	t		40.0	male	black	2.408674890569041	neutral	061	sub-03	2.0	2.0	061_neutral	0.0		30.151418521388223	
0.0	7.0010857717416	pulse	0.0	t		40.0	male	black	2.408674890569041	neutral	061	sub-03	2.0	2.0	061_neutral	0.0		30.851394463560155	
0.0	7.250978386894076	fix	1.0		445	40.0	male	black	2.408674890569041	neutral	061	sub-03	2.0	2.0	061_neutral	0.0		31.10128707871263	3.758238447790063
0.0	7.701078919637439	pulse	1.0	t		40.0	male	black	2.408674890569041	neutral	061	sub-03	2.0	2.0	061_neutral	0.0		31.551387611455993	
0.0	8.401066332291975	pulse	1.0	t		40.0	male	black	2.408674890569041	neutral	061	sub-03	2.0	2.0	061_neutral	0.0		32.25137502411053	
0.0	9.101027483578491	pulse	1.0	t		40.0	male	black	2.408674890569041	neutral	061	sub-03	2.0	2.0	061_neutral	0.0		32.951336175397046	
0.0	9.80103330937618	pulse	1.0	t		40.0	male	black	2.408674890569041	neutral	061	sub-03	2.0	2.0	061_neutral	0.0		33.651342001194735	
0.0	10.501014081225094	pulse	1.0	t		40.0	male	black	2.408674890569041	neutral	061	sub-03	2.0	2.0	061_neutral	0.0		34.35132277304365	
1.0	11.009216834684139	face	0.0		146	31.0	female	east_asian	3.395941106247513	smiling	087	sub-03	2.0	2.0	087_smiling	1.0	dominance	34.85952552650269	1.2416559030275494
1.0	11.201007530975858	pulse	0.0	t		31.0	female	east_asian	3.395941106247513	smiling	087	sub-03	2.0	2.0	087_smiling	1.0	dominance	35.05131622279441	
1.0	11.90098618984075	pulse	0.0	t		31.0	female	east_asian	3.395941106247513	smiling	087	sub-03	2.0	2.0	087_smiling	1.0	dominance	35.751294881659305	
1.0	12.250872737711688	fix	1.0		177	31.0	female	east_asian	3.395941106247513	smiling	087	sub-03	2.0	2.0	087_smiling	1.0	dominance	36.10118142953024	1.5083301361878512
1.0	12.600978734027194	pulse	1.0	t		31.0	female	east_asian	3.395941106247513	smiling	087	sub-03	2.0	2.0	087_smiling	1.0	dominance	36.45128742584575	
1.0	13.300952563215105	pulse	1.0	t		31.0	female	east_asian	3.395941106247513	smiling	087	sub-03	2.0	2.0	087_smiling	1.0	dominance	37.15126125503366	
1.0	13.75920287389954	rating	2.0		293	31.0	female	east_asian	3.395941106247513	smiling	087	sub-03	2.0	2.0	087_smiling	1.0	dominance	37.609511565718094	2.4915835333372343
1.0	14.000954464900587	pulse	2.0	t		31.0	female	east_asian	3.395941106247513	smiling	087	sub-03	2.0	2.0	087_smiling	1.0	dominance	37.85126315671914	
1.0	14.700933425620406	pulse	2.0	t		31.0	female	east_asian	3.395941106247513	smiling	087	sub-03	2.0	2.0	087_smiling	1.0	dominance	38.55124211743896	
1.0	15.400918725291376	pulse	2.0	t		31.0	female	east_asian	3.395941106247513	smiling	087	sub-03	2.0	2.0	087_smiling	1.0	dominance	39.25122741710993	
1.0	15.509223626417224	response	2.0	e		31.0	female	east_asian	3.395941106247513	smiling	087	sub-03	2.0	2.0	087_smiling	1.0	dominance	39.35953231823578	
1.0	16.1008895359314	pulse	2.0	t		31.0	female	east_asian	3.395941106247513	smiling	087	sub-03	2.0	2.0	087_smiling	1.0	dominance	39.951198227749956	
1.0	16.250786407236774	fix	3.0		444	31.0	female	east_asian	3.395941106247513	smiling	087	sub-03	2.0	2.0	087_smiling	1.0	dominance	40.10109509905533	3.7582396552093087
1.0	16.80088419310141	pulse	3.0	t		31.0	female	east_asian	3.395941106247513	smiling	087	sub-03	2.0	2.0	087_smiling	1.0	dominance	40.651192884919965	
1.0	17.500871907610872	pulse	3.0	t		31.0	female	east_asian	3.395941106247513	smiling	087	sub-03	2.0	2.0	087_smiling	1.0	dominance	41.351180599429426	
1.0	18.200849660911445	pulse	3.0	t		31.0	female	east_asian	3.395941106247513	smiling	087	sub-03	2.0	2.0	087_smiling	1.0	dominance	42.05115835273	
1.0	18.90083767727583	pulse	3.0	t		31.0	female	east_asian	3.395941106247513	smiling	087	sub-03	2.0	2.0	087_smiling	1.0	dominance	42.751146369094386	
1.0	19.600826297349613	pulse	3.0	t		31.0	female	east_asian	3.395941106247513	smiling	087	sub-03	2.0	2.0	087_smiling	1.0	dominance	43.45113498916817	
2.0	20.009026062446083	face	0.0		146	31.0	female	white	2.1822522881018704	neutral	102	sub-03	2.0	2.0	102_neutral	0.0		43.85933475426464	1.2416546956078491
2.0	20.300814313713545	pulse	0.0	t		31.0	female	white	2.1822522881018704	neutral	102	sub-03	2.0	2.0	102_neutral	0.0		44.1511230055321	
2.0	21.00078814290191	pulse	0.0	t		31.0	female	white	2.1822522881018704	neutral	102	sub-03	2.0	2.0	102_neutral	0.0		44.851096834720465	
2.0	21.25068075805393	fix	1.0		444	31.0	female	white	2.1822522881018704	neutral	102	sub-03	2.0	2.0	102_neutral	0.0		45.100989449872486	3.7582423719027247
2.0	21.700787931603372	pulse	1.0	t		31.0	female	white	2.1822522881018704	neutral	102	sub-03	2.0	2.0	102_neutral	0.0		45.55109662342193	
2.0	22.400761458936813	pulse	1.0	t		31.0	female	white	2.1822522881018704	neutral	102	sub-03	2.0	2.0	102_neutral	0.0		46.25107015075537	
2.0	23.100746154897934	pulse	1.0	t		31.0	female	white	2.1822522881018704	neutral	102	sub-03	2.0	2.0	102_neutral	0.0		46.95105484671649	
2.0	23.800739906503622	pulse	1.0	t		31.0	female	white	2.1822522881018704	neutral	102	sub-03	2.0	2.0	102_neutral	0.0		47.65104859832218	
2.0	24.50071856536897	pulse	1.0	t		31.0	female	white	2.1822522881018704	neutral	102	sub-03	2.0	2.0	102_neutral	0.0		48.351027257187525	
3.0	25.008923129956656	face	0.0		146	40.0	male	white	1.868682849184242	smiling	172	sub-03	2.0	2.0	172_smiling	0.0		48.85923182177521	1.2416552993176992
3.0	25.20071352439345	pulse	0.0	t		40.0	male	white	1.868682849184242	smiling	172	sub-03	2.0	2.0	172_smiling	0.0		49.051022216212004	
3.0	25.900652036569227	pulse	0.0	t		40.0	male	white	1.868682849184242	smiling	172	sub-03	2.0	2.0	172_smiling	0.0		49.75096072838778	
3.0	26.250578429274356	fix	1.0		445	40.0	male	white	1.868682849184242	smiling	172	sub-03	2.0	2.0	172_smiling	0.0		50.10088712109291	3.7665723571631133
3.0	26.600681407041975	pulse	1.0	t		40.0	male	white	1.868682849184242	smiling	172	sub-03	2.0	2.0	172_smiling	0.0		50.45099009886053	
3.0	27.300665197438775	pulse	1.0	t		40.0	male	white	1.868682849184242	smiling	172	sub-03	2.0	2.0	172_smiling	0.0		51.15097388925733	
3.0	28.000639328482066	pulse	1.0	t		40.0	male	white	1.868682849184242	smiling	172	sub-03	2.0	2.0	172_smiling	0.0		51.85094802030062	
3.0	28.700632476377905	pulse	1.0	t		40.0	male	white	1.868682849184242	smiling	172	sub-03	2.0	2.0	172_smiling	0.0		52.55094116819646	
3.0	29.40062019088691	pulse	1.0	t		40.0	male	white	1.868682849184242	smiling	172	sub-03	2.0	2.0	172_smiling	0.0		53.250928882705466	
4.0	30.01715078643747	face	0.0		145	36.0	female	white	2.7548746518105847	smiling	011	sub-03	2.0	2.0	011_smiling	1.0	trustworthiness	53.86745947825602	1.2333183713967628
4.0	30.100606697977128	pulse	0.0	t		36.0	female	white	2.7548746518105847	smiling	011	sub-03	2.0	2.0	011_smiling	1.0	trustworthiness	53.95091538979568	
4.0	30.80058203643921	pulse	0.0	t		36.0	female	white	2.7548746518105847	smiling	011	sub-03	2.0	2.0	011_smiling	1.0	trustworthiness	54.650890728257764	
4.0	31.25046915783423	fix	1.0		177	36.0	female	white	2.7548746518105847	smiling	011	sub-03	2.0	2.0	011_smiling	1.0	trustworthiness	55.100777849652786	1.49996905988246
4.0	31.500577901028464	pulse	1.0	t		36.0	female	white	2.7548746518105847	smiling	011	sub-03	2.0	2.0	011_smiling	1.0	trustworthiness	55.35088659284702	
4.0	32.2005595784417	pulse	1.0	t		36.0	female	white	2.7548746518105847	smiling	011	sub-03	2.0	2.0	011_smiling	1.0	trustworthiness	56.05086827026025	
4.0	32.75043821771669	rating	2.0		294	36.0	female	white	2.7548746518105847	smiling	011	sub-03	2.0	2.0	011_smiling	1.0	trustworthiness	56.600746909535246	2.4999452133524755
4.0	32.90054668924131	pulse	2.0	t		36.0	female	white	2.7548746518105847	smiling	011	sub-03	2.0	2.0	011_smiling	1.0	trustworthiness	56.750855381059864	
4.0	33.60053349818645	pulse	2.0	t		36.0	female	white	2.7548746518105847	smiling	011	sub-03	2.0	2.0	011_smiling	1.0	trustworthiness	57.450842190005005	
4.0	34.300516081164005	pulse	2.0	t		36.0	female	white	2.7548746518105847	smiling	011	sub-03	2.0	2.0	011_smiling	1.0	trustworthiness	58.15082477298256	
4.0	34.45050230149218	response	2.0	e		36.0	female	white	2.7548746518105847	smiling	011	sub-03	2.0	2.0	011_smiling	1.0	trustworthiness	58.30081099331073	
4.0	35.00049081591669	pulse	2.0	t		36.0	female	white	2.7548746518105847	smiling	011	sub-03	2.0	2.0	011_smiling	1.0	trustworthiness	58.850799507735246	
4.0	35.25038343106917	fix	3.0		444	36.0	female	white	2.7548746518105847	smiling	011	sub-03	2.0	2.0	011_smiling	1.0	trustworthiness	59.10069212288772	3.758240862628554
4.0	35.70048818977966	pulse	3.0	t		36.0	female	white	2.7548746518105847	smiling	011	sub-03	2.0	2.0	011_smiling	1.0	trustworthiness	59.55079688159822	
4.0	36.40046533937084	pulse	3.0	t		36.0	female	white	2.7548746518105847	smiling	011	sub-03	2.0	2.0	011_smiling	1.0	trustworthiness	60.250774031189394	
4.0	37.100447922348394	pulse	3.0	t		36.0	female	white	2.7548746518105847	smiling	011	sub-03	2.0	2.0	011_smiling	1.0	trustworthiness	60.95075661416695	
4.0	37.800431410890724	pulse	3.0	t		36.0	female	white	2.7548746518105847	smiling	011	sub-03	2.0	2.0	011_smiling	1.0	trustworthiness	61.65074010270928	
4.0	38.50042425693164	pulse	3.0	t		36.0	female	white	2.7548746518105847	smiling	011	sub-03	2.0	2.0	011_smiling	1.0	trustworthiness	62.35073294875019	
5.0	39.00862429369772	face	0.0		146	26.0	female	white	4.854755272582572	smiling	027	sub-03	2.0	2.0	027_smiling	0.0		62.858932985516276	1.2416528844792083
5.0	39.200413178860344	pulse	0.0	t		26.0	female	white	4.854755272582572	smiling	027	sub-03	2.0	2.0	027_smiling	0.0		63.0507218706789	
5.0	39.90039515812805	pulse	0.0	t		26.0	female	white	4.854755272582572	smiling	027	sub-03	2.0	2.0	027_smiling	0.0		63.7507038499466	
5.0	40.25027717817693	fix	1.0		444	26.0	female	white	4.854755272582572	smiling	027	sub-03	2.0	2.0	027_smiling	0.0		64.10058586999548	3.7665750738560746
5.0	40.60038287263751	pulse	1.0	t		26.0	female	white	4.854755272582572	smiling	027	sub-03	2.0	2.0	027_smiling	0.0		64.45069156445606	
5.0	41.30035790924512	pulse	1.0	t		26.0	female	white	4.854755272582572	smiling	027	sub-03	2.0	2.0	027_smiling	0.0		65.15066660106368	
5.0	42.000352264560206	pulse	1.0	t		26.0	female	white	4.854755272582572	smiling	027	sub-03	2.0	2.0	027_smiling	0.0		65.85066095637876	
5.0	42.70032639560304	pulse	1.0	t		26.0	female	white	4.854755272582572	smiling	027	sub-03	2.0	2.0	027_smiling	0.0		66.5506350874216	
5.0	43.4003159212416	pulse	1.0	t		26.0	female	white	4.854755272582572	smiling	027	sub-03	2.0	2.0	027_smiling	0.0		67.25062461306015	
6.0	44.016852252033004	face	0.0		145	27.0	female	white	4.181058495821727	neutral	039	sub-03	2.0	2.0	039_neutral	1.0	attractiveness	67.86716094385156	1.2333210880901788
6.0	44.100311182121004	pulse	0.0	t		27.0	female	white	4.181058495821727	neutral	039	sub-03	2.0	2.0	039_neutral	1.0	attractiveness	67.95061987393956	
6.0	44.800294368807954	pulse	0.0	t		27.0	female	white	4.181058495821727	neutral	039	sub-03	2.0	2.0	039_neutral	1.0	attractiveness	68.65060306062651	
6.0	45.25017334012318	fix	1.0		177	27.0	female	white	4.181058495821727	neutral	039	sub-03	2.0	2.0	039_neutral	1.0	attractiveness	69.10048203194174	1.4999696635918554
6.0	45.500277857350284	pulse	1.0	t		27.0	female	white	4.181058495821727	neutral	039	sub-03	2.0	2.0	039_neutral	1.0	attractiveness	69.35058654916884	
6.0	46.200253195812365	pulse	1.0	t		27.0	female	white	4.181058495821727	neutral	039	sub-03	2.0	2.0	039_neutral	1.0	attractiveness	70.05056188763092	
6.0	46.75014300371504	rating	2.0		294	27.0	female	white	4.181058495821727	neutral	039	sub-03	2.0	2.0	039_neutral	1.0	attractiveness	70.6004516955336	2.4999479300458916
6.0	46.90025509749785	pulse	2.0	t		27.0	female	white	4.181058495821727	neutral	039	sub-03	2.0	2.0	039_neutral	1.0	attractiveness	70.7505637893164	
6.0	47.60023707676555	pulse	2.0	t		27.0	female	white	4.181058495821727	neutral	039	sub-03	2.0	2.0	039_neutral	1.0	attractiveness	71.4505457685841	
6.0	48.300217848614466	pulse	2.0	t		27.0	female	white	4.181058495821727	neutral	039	sub-03	2.0	2.0	039_neutral	1.0	attractiveness	72.15052654043302	
6.0	48.508513362055965	response	2.0	w		27.0	female	white	4.181058495821727	neutral	039	sub-03	2.0	2.0	039_neutral	1.0	attractiveness	72.35882205387452	
6.0	49.00020586497885	pulse	2.0	t		27.0	female	white	4.181058495821727	neutral	039	sub-03	2.0	2.0	039_neutral	1.0	attractiveness	72.8505145567974	
6.0	49.25009093376093	fix	3.0		444	27.0	female	white	4.181058495821727	neutral	039	sub-03	2.0	2.0	039_neutral	1.0	attractiveness	73.10039962557948	3.7665699423246224
6.0	49.70019056093997	pulse	3.0	t		27.0	female	white	4.181058495821727	neutral	039	sub-03	2.0	2.0	039_neutral	1.0	attractiveness	73.55049925275853	
6.0	50.400165597547584	pulse	3.0	t		27.0	female	white	4.181058495821727	neutral	039	sub-03	2.0	2.0	039_neutral	1.0	attractiveness	74.25047428936614	
6.0	51.100150293508705	pulse	3.0	t		27.0	female	white	4.181058495821727	neutral	039	sub-03	2.0	2.0	039_neutral	1.0	attractiveness	74.95045898532726	
6.0	51.800147365517205	pulse	3.0	t		27.0	female	white	4.181058495821727	neutral	039	sub-03	2.0	2.0	039_neutral	1.0	attractiveness	75.65045605733576	
6.0	52.50012451510793	pulse	3.0	t		27.0	female	white	4.181058495821727	neutral	039	sub-03	2.0	2.0	039_neutral	1.0	attractiveness	76.35043320692648	
7.0	53.01666087608555	face	0.0		145	28.0	female	white	5.676880222841227	neutral	124	sub-03	2.0	2.0	124_neutral	0.0		76.8669695679041	1.233305995349383
7.0	53.20011705929437	pulse	0.0	t		28.0	female	white	5.676880222841227	neutral	124	sub-03	2.0	2.0	124_neutral	0.0		77.05042575111293	
7.0	53.900099340417	pulse	0.0	t		28.0	female	white	5.676880222841227	neutral	124	sub-03	2.0	2.0	124_neutral	0.0		77.75040803223555	
7.0	54.249966871434935	fix	1.0		444	28.0	female	white	5.676880222841227	neutral	124	sub-03	2.0	2.0	124_neutral	0.0		78.10027556325349	3.7665874499034544
7.0	54.60008916791003	pulse	1.0	t		28.0	female	white	5.676880222841227	neutral	124	sub-03	2.0	2.0	124_neutral	0.0		78.45039785972858	
7.0	55.30006329895332	pulse	1.0	t		28.0	female	white	5.676880222841227	neutral	124	sub-03	2.0	2.0	124_neutral	0.0		79.15037199077187	
7.0	56.000047391205044	pulse	1.0	t		28.0	female	white	5.676880222841227	neutral	124	sub-03	2.0	2.0	124_neutral	0.0		79.8503560830236	
7.0	56.700035407568976	pulse	1.0	t		28.0	female	white	5.676880222841227	neutral	124	sub-03	2.0	2.0	124_neutral	0.0		80.55034409938753	
7.0	57.4000194998207	pulse	1.0	t		28.0	female	white	5.676880222841227	neutral	124	sub-03	2.0	2.0	124_neutral	0.0		81.25032819163926	
8.0	58.01655432133839	face	0.0		145	32.0	male	white	2.389176283326701	smiling	092	sub-03	2.0	2.0	092_smiling	0.0		81.86686301315694	1.2333056934949127
8.0	58.100016269974276	pulse	0.0	t		32.0	male	white	2.389176283326701	smiling	092	sub-03	2.0	2.0	092_smiling	0.0		81.95032496179283	
8.0	58.799995834403944	pulse	0.0	t		32.0	male	white	2.389176283326701	smiling	092	sub-03	2.0	2.0	092_smiling	0.0		82.6503045262225	
8.0	59.2498600148333	fix	1.0		444	32.0	male	white	2.389176283326701	smiling	092	sub-03	2.0	2.0	092_smiling	0.0		83.10016870665186	3.766583223935868
8.0	59.49997932294582	pulse	1.0	t		32.0	male	white	2.389176283326701	smiling	092	sub-03	2.0	2.0	092_smiling	0.0		83.35028801476437	
8.0	60.19994741689288	pulse	1.0	t		32.0	male	white	2.389176283326701	smiling	092	sub-03	2.0	2.0	092_smiling	0.0		84.05025610871144	
8.0	60.89995475196474	pulse	1.0	t		32.0	male	white	2.389176283326701	smiling	092	sub-03	2.0	2.0	092_smiling	0.0		84.7502634437833	
8.0	61.599932505265315	pulse	1.0	t		32.0	male	white	2.389176283326701	smiling	092	sub-03	2.0	2.0	092_smiling	0.0		85.45024119708387	
8.0	62.29991146598513	pulse	1.0	t		32.0	male	white	2.389176283326701	smiling	092	sub-03	2.0	2.0	092_smiling	0.0		86.15022015780369	
9.0	63.01644323876917	face	0.0		146	40.0	male	black	2.408674890569041	smiling	061	sub-03	2.0	2.0	061_smiling	0.0		86.86675193058772	1.2333259177671607
9.0	63.00279396809583	pulse	0.0	t		40.0	male	black	2.408674890569041	smiling	061	sub-03	2.0	2.0	061_smiling	0.0		86.85310265991438	
9.0	63.699897158067415	pulse	0.0	t		40.0	male	black	2.408674890569041	smiling	061	sub-03	2.0	2.0	061_smiling	0.0		87.55020584988597	
9.0	64.24976915653633	fix	1.0		443	40.0	male	black	2.408674890569041	smiling	061	sub-03	2.0	2.0	061_smiling	0.0		88.10007784835489	3.7665732627274338
9.0	64.39987853362572	pulse	1.0	t		40.0	male	black	2.408674890569041	smiling	061	sub-03	2.0	2.0	061_smiling	0.0		88.25018722544428	
9.0	65.09985477765258	pulse	1.0	t		40.0	male	black	2.408674890569041	smiling	061	sub-03	2.0	2.0	061_smiling	0.0		88.95016346947114	
9.0	65.79983826619446	pulse	1.0	t		40.0	male	black	2.408674890569041	smiling	061	sub-03	2.0	2.0	061_smiling	0.0		89.65014695801301	
9.0	66.49983684747667	pulse	1.0	t		40.0	male	black	2.408674890569041	smiling	061	sub-03	2.0	2.0	061_smiling	0.0		90.35014553929523	
9.0	67.19982244900257	pulse	1.0	t		40.0	male	black	2.408674890569041	smiling	061	sub-03	2.0	2.0	061_smiling	0.0		91.05013114082112	
9.0	67.89979567448108	pulse	1.0	t		40.0	male	black	2.408674890569041	smiling	061	sub-03	2.0	2.0	061_smiling	0.0		91.75010436629964	
10.0	68.01634241926376	face	0.0		146	24.0	female	east_asian	4.409868682849185	smiling	030	sub-03	2.0	2.0	030_smiling	0.0		91.86665111108232	1.2333216917995742
10.0	68.59979002979617	pulse	0.0	t		24.0	female	east_asian	4.409868682849185	smiling	030	sub-03	2.0	2.0	030_smiling	0.0		92.45009872161472	
10.0	69.24966411106334	fix	1.0		443	24.0	female	east_asian	4.409868682849185	smiling	030	sub-03	2.0	2.0	030_smiling	0.0		93.0999728028819	3.7582369385163474
10.0	69.29977472575729	pulse	1.0	t		24.0	female	east_asian	4.409868682849185	smiling	030	sub-03	2.0	2.0	030_smiling	0.0		93.15008341757584	
10.0	69.9997497623649	pulse	1.0	t		24.0	female	east_asian	4.409868682849185	smiling	030	sub-03	2.0	2.0	030_smiling	0.0		93.85005845418345	
10.0	70.69973626945512	pulse	1.0	t		24.0	female	east_asian	4.409868682849185	smiling	030	sub-03	2.0	2.0	030_smiling	0.0		94.55004496127367	
10.0	71.39971975799699	pulse	1.0	t		24.0	female	east_asian	4.409868682849185	smiling	030	sub-03	2.0	2.0	030_smiling	0.0		95.25002844981555	
10.0	72.09971139661911	pulse	1.0	t		24.0	female	east_asian	4.409868682849185	smiling	030	sub-03	2.0	2.0	030_smiling	0.0		95.95002008843767	
10.0	72.79968945177461	pulse	1.0	t		24.0	female	east_asian	4.409868682849185	smiling	030	sub-03	2.0	2.0	030_smiling	0.0		96.64999814359317	
11.0	73.00790104957969	face	0.0		146	47.0	male	east_asian	2.171110226820533	smiling	024	sub-03	2.0	2.0	024_smiling	0.0		96.85820974139824	1.2416559030270946
11.0	73.4996877312019	pulse	0.0	t		47.0	male	east_asian	2.171110226820533	smiling	024	sub-03	2.0	2.0	024_smiling	0.0		97.34999642302046	
11.0	74.1996618622452	pulse	0.0	t		47.0	male	east_asian	2.171110226820533	smiling	024	sub-03	2.0	2.0	024_smiling	0.0		98.04997055406375	
11.0	74.24955695260678	fix	1.0		444	47.0	male	east_asian	2.171110226820533	smiling	024	sub-03	2.0	2.0	024_smiling	0.0		98.09986564442534	3.7665744701466792
11.0	74.89965440643118	pulse	1.0	t		47.0	male	east_asian	2.171110226820533	smiling	024	sub-03	2.0	2.0	024_smiling	0.0		98.74996309824974	
11.0	75.59963759311859	pulse	1.0	t		47.0	male	east_asian	2.171110226820533	smiling	024	sub-03	2.0	2.0	024_smiling	0.0		99.44994628493714	
11.0	76.29962108166046	pulse	1.0	t		47.0	male	east_asian	2.171110226820533	smiling	024	sub-03	2.0	2.0	024_smiling	0.0		100.14992977347902	
11.0	76.99960457020279	pulse	1.0	t		47.0	male	east_asian	2.171110226820533	smiling	024	sub-03	2.0	2.0	024_smiling	0.0		100.84991326202135	
11.0	77.6995940958409	pulse	1.0	t		47.0	male	east_asian	2.171110226820533	smiling	024	sub-03	2.0	2.0	024_smiling	0.0		101.54990278765945	
12.0	78.01613142275346	face	0.0		145	25.0	female	west_asian	2.6756864305610826	neutral	064	sub-03	2.0	2.0	064_neutral	0.0		101.86644011457201	1.2333210880901788
12.0	78.3995812066405	pulse	0.0	t		25.0	female	west_asian	2.6756864305610826	neutral	064	sub-03	2.0	2.0	064_neutral	0.0		102.24988989845906	
12.0	79.09955563953827	pulse	0.0	t		25.0	female	west_asian	2.6756864305610826	neutral	064	sub-03	2.0	2.0	064_neutral	0.0		102.94986433135682	
12.0	79.24945251084364	fix	1.0		444	25.0	female	west_asian	2.6756864305610826	neutral	064	sub-03	2.0	2.0	064_neutral	0.0		103.0997612026622	3.7665732627274338
12.0	79.7995563338045	pulse	1.0	t		25.0	female	west_asian	2.6756864305610826	neutral	064	sub-03	2.0	2.0	064_neutral	0.0		103.64986502562306	
12.0	80.49953106855719	pulse	1.0	t		25.0	female	west_asian	2.6756864305610826	neutral	064	sub-03	2.0	2.0	064_neutral	0.0		104.34983976037574	
12.0	81.1995130478249	pulse	1.0	t		25.0	female	west_asian	2.6756864305610826	neutral	064	sub-03	2.0	2.0	064_neutral	0.0		105.04982173964345	
12.0	81.89950408273717	pulse	1.0	t		25.0	female	west_asian	2.6756864305610826	neutral	064	sub-03	2.0	2.0	064_neutral	0.0		105.74981277455572	
12.0	82.599485156441	pulse	1.0	t		25.0	female	west_asian	2.6756864305610826	neutral	064	sub-03	2.0	2.0	064_neutral	0.0		106.44979384825956	
13.0	83.01602577357107	face	0.0		145	22.0	male	black	2.767608436132113	smiling	044	sub-03	2.0	2.0	044_smiling	1.0	dominance	106.86633446538963	1.2333198806704786
13.0	83.29947739877252	pulse	0.0	t		22.0	male	black	2.767608436132113	smiling	044	sub-03	2.0	2.0	044_smiling	1.0	dominance	107.14978609059108	
13.0	83.99945937804023	pulse	0.0	t		22.0	male	black	2.767608436132113	smiling	044	sub-03	2.0	2.0	044_smiling	1.0	dominance	107.84976806985878	
13.0	84.24934565424155	fix	1.0		177	22.0	male	black	2.767608436132113	smiling	044	sub-03	2.0	2.0	044_smiling	1.0	dominance	108.0996543460601	1.499971776575876
13.0	84.69945011109758	pulse	1.0	t		22.0	male	black	2.767608436132113	smiling	044	sub-03	2.0	2.0	044_smiling	1.0	dominance	108.54975880291613	
13.0	85.39942695883428	pulse	1.0	t		22.0	male	black	2.767608436132113	smiling	044	sub-03	2.0	2.0	044_smiling	1.0	dominance	109.24973565065284	
13.0	85.74931743081743	rating	2.0		295	22.0	male	black	2.767608436132113	smiling	044	sub-03	2.0	2.0	044_smiling	1.0	dominance	109.59962612263598	2.49994340222338
13.0	86.09942221971369	pulse	2.0	t		22.0	male	black	2.767608436132113	smiling	044	sub-03	2.0	2.0	044_smiling	1.0	dominance	109.94973091153224	
13.0	86.799403595272	pulse	2.0	t		22.0	male	black	2.767608436132113	smiling	044	sub-03	2.0	2.0	044_smiling	1.0	dominance	110.64971228709055	
13.0	87.49938980050729	pulse	2.0	t		22.0	male	black	2.767608436132113	smiling	044	sub-03	2.0	2.0	044_smiling	1.0	dominance	111.34969849232584	
13.0	88.19937238348484	pulse	2.0	t		22.0	male	black	2.767608436132113	smiling	044	sub-03	2.0	2.0	044_smiling	1.0	dominance	112.0496810753034	
13.0	88.24926083304081	fix	3.0		443	22.0	male	black	2.767608436132113	smiling	044	sub-03	2.0	2.0	044_smiling	1.0	dominance	112.09956952485936	3.7665732627274338
13.0	88.29935243088221	response	3.0	e		22.0	male	black	2.767608436132113	smiling	044	sub-03	2.0	2.0	044_smiling	1.0	dominance	112.14966112270076	
13.0	88.8993486275117	pulse	3.0	t		22.0	male	black	2.767608436132113	smiling	044	sub-03	2.0	2.0	044_smiling	1.0	dominance	112.74965731933025	
13.0	89.59934328468171	pulse	3.0	t		22.0	male	black	2.767608436132113	smiling	044	sub-03	2.0	2.0	044_smiling	1.0	dominance	113.44965197650026	
13.0	90.2993156045959	pulse	3.0	t		22.0	male	black	2.767608436132113	smiling	044	sub-03	2.0	2.0	044_smiling	1.0	dominance	114.14962429641446	
13.0	90.99931690257154	pulse	3.0	t		22.0	male	black	2.767608436132113	smiling	044	sub-03	2.0	2.0	044_smiling	1.0	dominance	114.84962559439009	
13.0	91.69929737256552	pulse	3.0	t		22.0	male	black	2.767608436132113	smiling	044	sub-03	2.0	2.0	044_smiling	1.0	dominance	115.54960606438408	
14.0	92.01583409576824	face	0.0		145	22.0	female	west_asian	3.8205332272184642	neutral	066	sub-03	2.0	2.0	066_neutral	0.0		115.8661427875868	1.233318975106613
14.0	92.39928297409097	pulse	0.0	t		22.0	female	west_asian	3.8205332272184642	neutral	066	sub-03	2.0	2.0	066_neutral	0.0		116.24959166590952	
14.0	93.09926193481078	pulse	0.0	t		22.0	female	west_asian	3.8205332272184642	neutral	066	sub-03	2.0	2.0	066_neutral	0.0		116.94957062662934	
14.0	93.24915307087485	fix	1.0		445	22.0	female	west_asian	3.8205332272184642	neutral	066	sub-03	2.0	2.0	066_neutral	0.0		117.09946176269341	3.7666523486868755
14.0	93.79923395287051	pulse	1.0	t		22.0	female	west_asian	3.8205332272184642	neutral	066	sub-03	2.0	2.0	066_neutral	0.0		117.64954264468906	
14.0	94.49923374157197	pulse	1.0	t		22.0	female	west_asian	3.8205332272184642	neutral	066	sub-03	2.0	2.0	066_neutral	0.0		118.34954243339052	
14.0	95.19921572084013	pulse	1.0	t		22.0	female	west_asian	3.8205332272184642	neutral	066	sub-03	2.0	2.0	066_neutral	0.0		119.04952441265868	
14.0	95.89920977430029	pulse	1.0	t		22.0	female	west_asian	3.8205332272184642	neutral	066	sub-03	2.0	2.0	066_neutral	0.0		119.74951846611884	
14.0	96.59918782945579	pulse	1.0	t		22.0	female	west_asian	3.8205332272184642	neutral	066	sub-03	2.0	2.0	066_neutral	0.0		120.44949652127434	
15.0	97.01580541956173	face	0.0		146	24.0	female	black	3.0955033824114606	neutral	099	sub-03	2.0	2.0	099_neutral	0.0		120.86611411138028	1.241577118922578
15.0	97.29918097735163	pulse	0.0	t		24.0	female	black	3.0955033824114606	neutral	099	sub-03	2.0	2.0	099_neutral	0.0		121.14948966917018	
15.0	97.99915208984658	pulse	0.0	t		24.0	female	black	3.0955033824114606	neutral	099	sub-03	2.0	2.0	099_neutral	0.0		121.84946078166513	
15.0	98.25738253848431	fix	1.0		444	24.0	female	black	3.0955033824114606	neutral	099	sub-03	2.0	2.0	099_neutral	0.0		122.10769123030286	3.7583640193897736
15.0	98.69914946371	pulse	1.0	t		24.0	female	black	3.0955033824114606	neutral	099	sub-03	2.0	2.0	099_neutral	0.0		122.54945815552855	
15.0	99.39913717821901	pulse	1.0	t		24.0	female	black	3.0955033824114606	neutral	099	sub-03	2.0	2.0	099_neutral	0.0		123.24944587003756	
15.0	100.09912217603505	pulse	1.0	t		24.0	female	black	3.0955033824114606	neutral	099	sub-03	2.0	2.0	099_neutral	0.0		123.94943086785361	
15.0	100.79909630707834	pulse	1.0	t		24.0	female	black	3.0955033824114606	neutral	099	sub-03	2.0	2.0	099_neutral	0.0		124.6494049988969	
15.0	101.4990846252972	pulse	1.0	t		24.0	female	black	3.0955033824114606	neutral	099	sub-03	2.0	2.0	099_neutral	0.0		125.34939331711576	
16.0	102.01574655787408	face	0.0		146	28.0	male	white	3.9076800636689217	neutral	033	sub-03	2.0	2.0	033_neutral	0.0		125.86605524969264	1.2415288221536684
16.0	102.1990759620644	pulse	0.0	t		28.0	male	white	3.9076800636689217	neutral	033	sub-03	2.0	2.0	033_neutral	0.0		126.04938465388295	
16.0	102.89905069681663	pulse	0.0	t		28.0	male	white	3.9076800636689217	neutral	033	sub-03	2.0	2.0	033_neutral	0.0		126.74935938863518	
16.0	103.25727538002775	fix	1.0		444	28.0	male	white	3.9076800636689217	neutral	033	sub-03	2.0	2.0	033_neutral	0.0		127.1075840718463	3.766573564582359
16.0	103.59904686326081	pulse	1.0	t		28.0	male	white	3.9076800636689217	neutral	033	sub-03	2.0	2.0	033_neutral	0.0		127.44935555507936	
16.0	104.29902612583555	pulse	1.0	t		28.0	male	white	3.9076800636689217	neutral	033	sub-03	2.0	2.0	033_neutral	0.0		128.1493348176541	
16.0	104.99900901066803	pulse	1.0	t		28.0	male	white	3.9076800636689217	neutral	033	sub-03	2.0	2.0	033_neutral	0.0		128.8493177024866	
16.0	105.69899823445121	pulse	1.0	t		28.0	male	white	3.9076800636689217	neutral	033	sub-03	2.0	2.0	033_neutral	0.0		129.54930692626976	
16.0	106.39897719517148	pulse	1.0	t		28.0	male	white	3.9076800636689217	neutral	033	sub-03	2.0	2.0	033_neutral	0.0		130.24928588699004	
17.0	107.02384894461011	face	0.0		145	25.0	female	black	3.858336649423	neutral	126	sub-03	2.0	2.0	126_neutral	0.0		130.87415763642866	1.2333198806709333
17.0	107.09896068371336	pulse	0.0	t		25.0	female	black	3.858336649423	neutral	126	sub-03	2.0	2.0	126_neutral	0.0		130.9492693755319	
17.0	107.79894960564206	pulse	0.0	t		25.0	female	black	3.858336649423	neutral	126	sub-03	2.0	2.0	126_neutral	0.0		131.64925829746062	
17.0	108.25716882528104	fix	1.0		444	25.0	female	black	3.858336649423	neutral	126	sub-03	2.0	2.0	126_neutral	0.0		132.1074775170996	3.7665753757109997
17.0	108.49894305539237	pulse	1.0	t		25.0	female	black	3.858336649423	neutral	126	sub-03	2.0	2.0	126_neutral	0.0		132.34925174721093	
17.0	109.19891718643566	pulse	1.0	t		25.0	female	black	3.858336649423	neutral	126	sub-03	2.0	2.0	126_neutral	0.0		133.04922587825422	
17.0	109.89891003247658	pulse	1.0	t		25.0	female	black	3.858336649423	neutral	126	sub-03	2.0	2.0	126_neutral	0.0		133.74921872429513	
17.0	110.59888476722926	pulse	1.0	t		25.0	female	black	3.858336649423	neutral	126	sub-03	2.0	2.0	126_neutral	0.0		134.44919345904782	
17.0	111.29887550028661	pulse	1.0	t		25.0	female	black	3.858336649423	neutral	126	sub-03	2.0	2.0	126_neutral	0.0		135.14918419210517	
17.0	111.99886623334396	pulse	1.0	t		25.0	female	black	3.858336649423	neutral	126	sub-03	2.0	2.0	126_neutral	0.0		135.84917492516252	
18.0	112.02374420099204	face	0.0		146	27.0	female	white	4.181058495821727	smiling	039	sub-03	2.0	2.0	039_smiling	1.0	attractiveness	135.8740528928106	1.2333204843803287
18.0	112.69885032559569	pulse	0.0	t		27.0	female	white	4.181058495821727	smiling	039	sub-03	2.0	2.0	039_smiling	1.0	attractiveness	136.54915901741424	
18.0	113.25706468537237	fix	1.0		177	27.0	female	white	4.181058495821727	smiling	039	sub-03	2.0	2.0	039_smiling	1.0	attractiveness	137.10737337719092	1.4999669468984393
18.0	113.39884136050796	pulse	1.0	t		27.0	female	white	4.181058495821727	smiling	039	sub-03	2.0	2.0	039_smiling	1.0	attractiveness	137.2491500523265	
18.0	114.09885594009529	pulse	1.0	t		27.0	female	white	4.181058495821727	smiling	039	sub-03	2.0	2.0	039_smiling	1.0	attractiveness	137.94916463191385	
18.0	114.75703163227081	rating	2.0		294	27.0	female	white	4.181058495821727	smiling	039	sub-03	2.0	2.0	039_smiling	1.0	attractiveness	138.60734032408936	2.499934044724796
18.0	114.7988125635593	pulse	2.0	t		27.0	female	white	4.181058495821727	smiling	039	sub-03	2.0	2.0	039_smiling	1.0	attractiveness	138.64912125537785	
18.0	115.49879876879459	pulse	2.0	t		27.0	female	white	4.181058495821727	smiling	039	sub-03	2.0	2.0	039_smiling	1.0	attractiveness	139.34910746061314	
18.0	115.95712152463238	response	2.0	w		27.0	female	white	4.181058495821727	smiling	039	sub-03	2.0	2.0	039_smiling	1.0	attractiveness	139.80743021645094	
18.0	116.19875599596844	pulse	2.0	t		27.0	female	white	4.181058495821727	smiling	039	sub-03	2.0	2.0	039_smiling	1.0	attractiveness	140.049064687787	
18.0	116.89876031249241	pulse	2.0	t		27.0	female	white	4.181058495821727	smiling	039	sub-03	2.0	2.0	039_smiling	1.0	attractiveness	140.74906900431097	
18.0	117.2569656769956	fix	3.0		444	27.0	female	white	4.181058495821727	smiling	039	sub-03	2.0	2.0	039_smiling	1.0	attractiveness	141.10727436881416	3.7665886573227
18.0	117.59875406409765	pulse	3.0	t		27.0	female	white	4.181058495821727	smiling	039	sub-03	2.0	2.0	039_smiling	1.0	attractiveness	141.4490627559162	
18.0	118.29873574151088	pulse	3.0	t		27.0	female	white	4.181058495821727	smiling	039	sub-03	2.0	2.0	039_smiling	1.0	attractiveness	142.14904443332944	
18.0	118.99872104118185	pulse	3.0	t		27.0	female	white	4.181058495821727	smiling	039	sub-03	2.0	2.0	039_smiling	1.0	attractiveness	142.8490297330004	
18.0	119.69870392601433	pulse	3.0	t		27.0	female	white	4.181058495821727	smiling	039	sub-03	2.0	2.0	039_smiling	1.0	attractiveness	143.5490126178329	
18.0	120.39868590528249	pulse	3.0	t		27.0	female	white	4.181058495821727	smiling	039	sub-03	2.0	2.0	039_smiling	1.0	attractiveness	144.24899459710105	
19.0	121.0235543343183	face	0.0		145	27.0	male	black	3.5523278949462798	neutral	042	sub-03	2.0	2.0	042_neutral	0.0		144.87386302613686	1.2333183713967628
19.0	121.09867995874265	pulse	0.0	t		27.0	male	black	3.5523278949462798	neutral	042	sub-03	2.0	2.0	042_neutral	0.0		144.9489886505612	
19.0	121.79865590091458	pulse	0.0	t		27.0	male	black	3.5523278949462798	neutral	042	sub-03	2.0	2.0	042_neutral	0.0		145.64896459273314	
19.0	122.25687270571507	fix	1.0		444	27.0	male	black	3.5523278949462798	neutral	042	sub-03	2.0	2.0	042_neutral	0.0		146.10718139753362	3.7665750738560746
19.0	122.49864603026208	pulse	1.0	t		27.0	male	black	3.5523278949462798	neutral	042	sub-03	2.0	2.0	042_neutral	0.0		146.34895472208063	
19.0	123.19862317985326	pulse	1.0	t		27.0	male	black	3.5523278949462798	neutral	042	sub-03	2.0	2.0	042_neutral	0.0		147.0489318716718	
19.0	123.89861330920121	pulse	1.0	t		27.0	male	black	3.5523278949462798	neutral	042	sub-03	2.0	2.0	042_neutral	0.0		147.74892200101976	
19.0	124.59860102371067	pulse	1.0	t		27.0	male	black	3.5523278949462798	neutral	042	sub-03	2.0	2.0	042_neutral	0.0		148.44890971552923	
19.0	125.29857515475351	pulse	1.0	t		27.0	male	black	3.5523278949462798	neutral	042	sub-03	2.0	2.0	042_neutral	0.0		149.14888384657206	
19.0	125.99856286926297	pulse	1.0	t		27.0	male	black	3.5523278949462798	neutral	042	sub-03	2.0	2.0	042_neutral	0.0		149.84887156108152	
20.0	126.02344777957114	face	0.0		146	34.0	male	white	2.651014723438122	smiling	121	sub-03	2.0	2.0	121_smiling	0.0		149.8737564713897	1.2333195788160083
20.0	126.69855360232032	pulse	0.0	t		34.0	male	white	2.651014723438122	smiling	121	sub-03	2.0	2.0	121_smiling	0.0		150.54886229413887	
20.0	127.25676735838715	fix	1.0		1184	34.0	male	white	2.651014723438122	smiling	121	sub-03	2.0	2.0	121_smiling	0.0		151.1070760502057	10.016441729495455
20.0	127.39852924263732	pulse	1.0	t		34.0	male	white	2.651014723438122	smiling	121	sub-03	2.0	2.0	121_smiling	0.0		151.24883793445588	
20.0	128.0985202775496	pulse	1.0	t		34.0	male	white	2.651014723438122	smiling	121	sub-03	2.0	2.0	121_smiling	0.0		151.94882896936815	
20.0	128.79851010504262	pulse	1.0	t		34.0	male	white	2.651014723438122	smiling	121	sub-03	2.0	2.0	121_smiling	0.0		152.64881879686118	
20.0	129.4984929898751	pulse	1.0	t		34.0	male	white	2.651014723438122	smiling	121	sub-03	2.0	2.0	121_smiling	0.0		153.34880168169366	
20.0	130.1984686301921	pulse	1.0	t		34.0	male	white	2.651014723438122	smiling	121	sub-03	2.0	2.0	121_smiling	0.0		154.04877732201066	
20.0	130.89846147623302	pulse	1.0	t		34.0	male	white	2.651014723438122	smiling	121	sub-03	2.0	2.0	121_smiling	0.0		154.74877016805158	
20.0	131.59844768146831	pulse	1.0	t		34.0	male	white	2.651014723438122	smiling	121	sub-03	2.0	2.0	121_smiling	0.0		155.44875637328687	
20.0	132.29843207557496	pulse	1.0	t		34.0	male	white	2.651014723438122	smiling	121	sub-03	2.0	2.0	121_smiling	0.0		156.14874076739352	
20.0	132.9984143566976	pulse	1.0	t		34.0	male	white	2.651014723438122	smiling	121	sub-03	2.0	2.0	121_smiling	0.0		156.84872304851615	
20.0	133.6984090138676	pulse	1.0	t		34.0	male	white	2.651014723438122	smiling	121	sub-03	2.0	2.0	121_smiling	0.0		157.54871770568616	
20.0	134.3983903894259	pulse	1.0	t		34.0	male	white	2.651014723438122	smiling	121	sub-03	2.0	2.0	121_smiling	0.0		158.24869908124447	
20.0	135.09837206683915	pulse	1.0	t		34.0	male	white	2.651014723438122	smiling	121	sub-03	2.0	2.0	121_smiling	0.0		158.9486807586577	
20.0	135.79835253683314	pulse	1.0	t		34.0	male	white	2.651014723438122	smiling	121	sub-03	2.0	2.0	121_smiling	0.0		159.6486612286517	
20.0	136.4983345161013	pulse	1.0	t		34.0	male	white	2.651014723438122	smiling	121	sub-03	2.0	2.0	121_smiling	0.0		160.34864320791985	
20.0	137.19833611593185	pulse	1.0	t		34.0	male	white	2.651014723438122	smiling	121	sub-03	2.0	2.0	121_smiling	0.0		161.0486448077504	
21.0	137.2732090878826	face	0.0		146	28.0	male	east_asian	1.5563072025467568	smiling	005	sub-03	2.0	2.0	005_smiling	0.0		161.12351777970116	1.2333192769610832
21.0	137.89832020818312	pulse	0.0	t		28.0	male	east_asian	1.5563072025467568	smiling	005	sub-03	2.0	2.0	005_smiling	0.0		161.74862890000168	
21.0	138.5065283648437	fix	1.0		443	28.0	male	east_asian	1.5563072025467568	smiling	005	sub-03	2.0	2.0	005_smiling	0.0		162.35683705666224	3.7665747720016043
21.0	138.5983049041447	pulse	1.0	t		28.0	male	east_asian	1.5563072025467568	smiling	005	sub-03	2.0	2.0	005_smiling	0.0		162.44861359596325	
21.0	139.2982856759936	pulse	1.0	t		28.0	male	east_asian	1.5563072025467568	smiling	005	sub-03	2.0	2.0	005_smiling	0.0		163.14859436781217	
21.0	139.99827459792186	pulse	1.0	t		28.0	male	east_asian	1.5563072025467568	smiling	005	sub-03	2.0	2.0	005_smiling	0.0		163.84858328974042	
21.0	140.69825718089942	pulse	1.0	t		28.0	male	east_asian	1.5563072025467568	smiling	005	sub-03	2.0	2.0	005_smiling	0.0		164.54856587271797	
21.0	141.39823644347416	pulse	1.0	t		28.0	male	east_asian	1.5563072025467568	smiling	005	sub-03	2.0	2.0	005_smiling	0.0		165.24854513529272	
21.0	142.09822747838643	pulse	1.0	t		28.0	male	east_asian	1.5563072025467568	smiling	005	sub-03	2.0	2.0	005_smiling	0.0		165.948536170205	
22.0	142.2731031368453	face	0.0		146	21.0	male	black	2.969757262236371	neutral	137	sub-03	2.0	2.0	137_neutral	0.0		166.12341182866385	1.2416528844792083
22.0	142.7982179095893	pulse	0.0	t		21.0	male	black	2.969757262236371	neutral	137	sub-03	2.0	2.0	137_neutral	0.0		166.64852660140787	
22.0	143.49819807772838	pulse	0.0	t		21.0	male	black	2.969757262236371	neutral	137	sub-03	2.0	2.0	137_neutral	0.0		167.34850676954693	
22.0	143.5147560213245	fix	1.0		443	21.0	male	black	2.969757262236371	neutral	137	sub-03	2.0	2.0	137_neutral	0.0		167.36506471314306	3.758238447790063
22.0	144.19818428296367	pulse	1.0	t		21.0	male	black	2.969757262236371	neutral	137	sub-03	2.0	2.0	137_neutral	0.0		168.04849297478222	
22.0	144.89816535666705	pulse	1.0	t		21.0	male	black	2.969757262236371	neutral	137	sub-03	2.0	2.0	137_neutral	0.0		168.7484740484856	
22.0	145.59814854335445	pulse	1.0	t		21.0	male	black	2.969757262236371	neutral	137	sub-03	2.0	2.0	137_neutral	0.0		169.448457235173	
22.0	146.29812810778412	pulse	1.0	t		21.0	male	black	2.969757262236371	neutral	137	sub-03	2.0	2.0	137_neutral	0.0		170.14843679960268	
22.0	146.99812125567996	pulse	1.0	t		21.0	male	black	2.969757262236371	neutral	137	sub-03	2.0	2.0	137_neutral	0.0		170.84842994749852	
23.0	147.27299446911456	face	0.0		145	19.0	male	white	2.243931555909272	neutral	130	sub-03	2.0	2.0	130_neutral	0.0		171.12330316093312	1.23332380478314
23.0	147.69811078131806	pulse	0.0	t		19.0	male	white	2.243931555909272	neutral	130	sub-03	2.0	2.0	130_neutral	0.0		171.54841947313662	
23.0	148.39809457171486	pulse	0.0	t		19.0	male	white	2.243931555909272	neutral	130	sub-03	2.0	2.0	130_neutral	0.0		172.24840326353342	
23.0	148.5063182738977	fix	1.0		444	19.0	male	white	2.243931555909272	neutral	130	sub-03	2.0	2.0	130_neutral	0.0		172.35662696571626	3.766571451598793
23.0	149.09808168251448	pulse	1.0	t		19.0	male	white	2.243931555909272	neutral	130	sub-03	2.0	2.0	130_neutral	0.0		172.94839037433303	
23.0	149.79806215250846	pulse	1.0	t		19.0	male	white	2.243931555909272	neutral	130	sub-03	2.0	2.0	130_neutral	0.0		173.64837084432702	
23.0	150.49804201879306	pulse	1.0	t		19.0	male	white	2.243931555909272	neutral	130	sub-03	2.0	2.0	130_neutral	0.0		174.3483507106116	
23.0	151.1980276203185	pulse	1.0	t		19.0	male	white	2.243931555909272	neutral	130	sub-03	2.0	2.0	130_neutral	0.0		175.04833631213705	
23.0	151.89801956079555	pulse	1.0	t		19.0	male	white	2.243931555909272	neutral	130	sub-03	2.0	2.0	130_neutral	0.0		175.7483282526141	
24.0	152.2728897254965	face	0.0		145	20.0	male	black	3.1070433744528456	smiling	082	sub-03	2.0	2.0	082_smiling	0.0		176.12319841731505	1.2333213899446491
24.0	152.59800667159516	pulse	0.0	t		20.0	male	black	3.1070433744528456	smiling	082	sub-03	2.0	2.0	082_smiling	0.0		176.4483153634137	
24.0	153.29798110449292	pulse	0.0	t		20.0	male	black	3.1070433744528456	smiling	082	sub-03	2.0	2.0	082_smiling	0.0		177.14828979631147	
24.0	153.50621111544115	fix	1.0		444	20.0	male	black	3.1070433744528456	smiling	082	sub-03	2.0	2.0	082_smiling	0.0		177.3565198072597	3.766571149743868
24.0	153.99797727093664	pulse	1.0	t		20.0	male	black	3.1070433744528456	smiling	082	sub-03	2.0	2.0	082_smiling	0.0		177.8482859627552	
24.0	154.69796287246254	pulse	1.0	t		20.0	male	black	3.1070433744528456	smiling	082	sub-03	2.0	2.0	082_smiling	0.0		178.5482715642811	
24.0	155.3979481721335	pulse	1.0	t		20.0	male	black	3.1070433744528456	smiling	082	sub-03	2.0	2.0	082_smiling	0.0		179.24825686395207	
24.0	156.0979319625303	pulse	1.0	t		20.0	male	black	3.1070433744528456	smiling	082	sub-03	2.0	2.0	082_smiling	0.0		179.94824065434887	
24.0	156.79791182881445	pulse	1.0	t		20.0	male	black	3.1070433744528456	smiling	082	sub-03	2.0	2.0	082_smiling	0.0		180.648220520633	
25.0	157.27278226518501	face	0.0		145	34.0	male	white	2.651014723438122	neutral	121	sub-03	2.0	2.0	121_neutral	0.0		181.12309095700357	1.2333222955094243
25.0	157.49790346743657	pulse	0.0	t		34.0	male	white	2.651014723438122	neutral	121	sub-03	2.0	2.0	121_neutral	0.0		181.34821215925513	
25.0	158.19787880589865	pulse	0.0	t		34.0	male	white	2.651014723438122	neutral	121	sub-03	2.0	2.0	121_neutral	0.0		182.0481874977172	
25.0	158.50610456069444	fix	1.0		444	34.0	male	white	2.651014723438122	neutral	121	sub-03	2.0	2.0	121_neutral	0.0		182.356413252513	3.7665729608725087
25.0	158.8978746704879	pulse	1.0	t		34.0	male	white	2.651014723438122	neutral	121	sub-03	2.0	2.0	121_neutral	0.0		182.74818336230646	
25.0	159.5978584608847	pulse	1.0	t		34.0	male	white	2.651014723438122	neutral	121	sub-03	2.0	2.0	121_neutral	0.0		183.44816715270326	
25.0	160.29784526982985	pulse	1.0	t		34.0	male	white	2.651014723438122	neutral	121	sub-03	2.0	2.0	121_neutral	0.0		184.1481539616484	
25.0	160.99782181571118	pulse	1.0	t		34.0	male	white	2.651014723438122	neutral	121	sub-03	2.0	2.0	121_neutral	0.0		184.84813050752973	
25.0	161.6978164728812	pulse	1.0	t		34.0	male	white	2.651014723438122	neutral	121	sub-03	2.0	2.0	121_neutral	0.0		185.54812516469974	
26.0	162.27267752156695	face	0.0		145	31.0	male	west_asian	1.9538400318344609	smiling	070	sub-03	2.0	2.0	070_smiling	0.0		186.1229862133855	1.2333192769610832
26.0	162.39780207440663	pulse	0.0	t		31.0	male	west_asian	1.9538400318344609	smiling	070	sub-03	2.0	2.0	070_smiling	0.0		186.24811076622518	
26.0	163.09778194069122	pulse	0.0	t		31.0	male	west_asian	1.9538400318344609	smiling	070	sub-03	2.0	2.0	070_smiling	0.0		186.94809063250977	
26.0	163.50599679852803	fix	1.0		444	31.0	male	west_asian	1.9538400318344609	smiling	070	sub-03	2.0	2.0	070_smiling	0.0		187.35630549034659	3.7665750738565293
26.0	163.7977711644744	pulse	1.0	t		31.0	male	west_asian	1.9538400318344609	smiling	070	sub-03	2.0	2.0	070_smiling	0.0		187.64807985629295	
26.0	164.49775555858105	pulse	1.0	t		31.0	male	west_asian	1.9538400318344609	smiling	070	sub-03	2.0	2.0	070_smiling	0.0		188.3480642503996	
26.0	165.19773089704313	pulse	1.0	t		31.0	male	west_asian	1.9538400318344609	smiling	070	sub-03	2.0	2.0	070_smiling	0.0		189.04803958886168	
26.0	165.897714385585	pulse	1.0	t		31.0	male	west_asian	1.9538400318344609	smiling	070	sub-03	2.0	2.0	070_smiling	0.0		189.74802307740356	
26.0	166.59770542049728	pulse	1.0	t		31.0	male	west_asian	1.9538400318344609	smiling	070	sub-03	2.0	2.0	070_smiling	0.0		190.44801411231583	
27.0	167.27257187238456	face	0.0		145	47.0	male	east_asian	2.171110226820533	neutral	024	sub-03	2.0	2.0	024_neutral	0.0		191.12288056420311	1.233320786234799
27.0	167.29770128508653	pulse	0.0	t		47.0	male	east_asian	2.171110226820533	neutral	024	sub-03	2.0	2.0	024_neutral	0.0		191.1480099769051	
27.0	167.9976784346777	pulse	0.0	t		47.0	male	east_asian	2.171110226820533	neutral	024	sub-03	2.0	2.0	024_neutral	0.0		191.84798712649626	
27.0	168.50589265861936	fix	1.0		443	47.0	male	east_asian	2.171110226820533	neutral	024	sub-03	2.0	2.0	024_neutral	0.0		192.3562013504379	3.766574168292209
27.0	168.69766886588013	pulse	1.0	t		47.0	male	east_asian	2.171110226820533	neutral	024	sub-03	2.0	2.0	024_neutral	0.0		192.5479775576987	
27.0	169.3976508451483	pulse	1.0	t		47.0	male	east_asian	2.171110226820533	neutral	024	sub-03	2.0	2.0	024_neutral	0.0		193.24795953696685	
27.0	170.09762678732022	pulse	1.0	t		47.0	male	east_asian	2.171110226820533	neutral	024	sub-03	2.0	2.0	024_neutral	0.0		193.94793547913878	
27.0	170.79761178513627	pulse	1.0	t		47.0	male	east_asian	2.171110226820533	neutral	024	sub-03	2.0	2.0	024_neutral	0.0		194.64792047695482	
27.0	171.49760251819362	pulse	1.0	t		47.0	male	east_asian	2.171110226820533	neutral	024	sub-03	2.0	2.0	024_neutral	0.0		195.34791121001217	
27.0	172.19758329004253	pulse	1.0	t		47.0	male	east_asian	2.171110226820533	neutral	024	sub-03	2.0	2.0	024_neutral	0.0		196.04789198186108	
28.0	172.27246682691157	face	0.0		146	20.0	female	white	3.9502586549940313	smiling	091	sub-03	2.0	2.0	091_smiling	0.0		196.12277551873012	1.2333180695418378
28.0	172.89757613608344	pulse	0.0	t		20.0	female	white	3.9502586549940313	smiling	091	sub-03	2.0	2.0	091_smiling	0.0		196.747884827902	
28.0	173.5057848964534	fix	1.0		443	20.0	female	white	3.9502586549940313	smiling	091	sub-03	2.0	2.0	091_smiling	0.0		197.35609358827196	3.7665753757109997
28.0	173.59759071567078	pulse	1.0	t		20.0	female	white	3.9502586549940313	smiling	091	sub-03	2.0	2.0	091_smiling	0.0		197.44789940748933	
28.0	174.29754401873197	pulse	1.0	t		20.0	female	white	3.9502586549940313	smiling	091	sub-03	2.0	2.0	091_smiling	0.0		198.14785271055052	
28.0	174.9975281109837	pulse	1.0	t		20.0	female	white	3.9502586549940313	smiling	091	sub-03	2.0	2.0	091_smiling	0.0		198.84783680280225	
28.0	175.69751039210632	pulse	1.0	t		20.0	female	white	3.9502586549940313	smiling	091	sub-03	2.0	2.0	091_smiling	0.0		199.54781908392488	
28.0	176.39749237137448	pulse	1.0	t		20.0	female	white	3.9502586549940313	smiling	091	sub-03	2.0	2.0	091_smiling	0.0		200.24780106319304	
28.0	177.09748008588394	pulse	1.0	t		20.0	female	white	3.9502586549940313	smiling	091	sub-03	2.0	2.0	091_smiling	0.0		200.9477887777025	
29.0	177.2723602721644	face	0.0		146	23.0	male	white	2.6275368085953046	neutral	141	sub-03	2.0	2.0	141_neutral	0.0		201.12266896398296	1.2416537900439835
29.0	177.79746387628074	pulse	0.0	t		23.0	male	white	2.6275368085953046	neutral	141	sub-03	2.0	2.0	141_neutral	0.0		201.6477725680993	
29.0	178.49746155199864	pulse	0.0	t		23.0	male	white	2.6275368085953046	neutral	141	sub-03	2.0	2.0	141_neutral	0.0		202.3477702438172	
29.0	178.5140140622084	fix	1.0		443	23.0	male	white	2.6275368085953046	neutral	141	sub-03	2.0	2.0	141_neutral	0.0		202.36432275402694	3.750046712031235
29.0	179.197447455379	pulse	1.0	t		23.0	male	white	2.6275368085953046	neutral	141	sub-03	2.0	2.0	141_neutral	0.0		203.04775614719756	
29.0	179.89742309569647	pulse	1.0	t		23.0	male	white	2.6275368085953046	neutral	141	sub-03	2.0	2.0	141_neutral	0.0		203.74773178751502	
29.0	180.59741201762472	pulse	1.0	t		23.0	male	white	2.6275368085953046	neutral	141	sub-03	2.0	2.0	141_neutral	0.0		204.44772070944327	
29.0	181.29739399689288	pulse	1.0	t		23.0	male	white	2.6275368085953046	neutral	141	sub-03	2.0	2.0	141_neutral	0.0		205.14770268871143	
29.0	181.9973811076925	pulse	1.0	t		23.0	male	white	2.6275368085953046	neutral	141	sub-03	2.0	2.0	141_neutral	0.0		205.84768979951104	
30.0	182.26406077423962	face	0.0		146	54.0	female	white	2.286908077994429	smiling	136	sub-03	2.0	2.0	136_smiling	0.0		206.11436946605818	1.2415140312677977
30.0	182.69737184074984	pulse	0.0	t		54.0	female	white	2.286908077994429	smiling	136	sub-03	2.0	2.0	136_smiling	0.0		206.5476805325684	
30.0	183.39735170703443	pulse	0.0	t		54.0	female	white	2.286908077994429	smiling	136	sub-03	2.0	2.0	136_smiling	0.0		207.247660398853	
30.0	183.50557480550742	fix	1.0		444	54.0	female	white	2.286908077994429	smiling	136	sub-03	2.0	2.0	136_smiling	0.0		207.35588349732598	3.766574168292209
30.0	184.09733821412465	pulse	1.0	t		54.0	female	white	2.286908077994429	smiling	136	sub-03	2.0	2.0	136_smiling	0.0		207.9476469059432	
30.0	184.79731777855386	pulse	1.0	t		54.0	female	white	2.286908077994429	smiling	136	sub-03	2.0	2.0	136_smiling	0.0		208.64762647037242	
30.0	185.49730609677317	pulse	1.0	t		54.0	female	white	2.286908077994429	smiling	136	sub-03	2.0	2.0	136_smiling	0.0		209.34761478859173	
30.0	186.1974335700579	pulse	1.0	t		54.0	female	white	2.286908077994429	smiling	136	sub-03	2.0	2.0	136_smiling	0.0		210.04774226187646	
30.0	186.89728152579164	pulse	1.0	t		54.0	female	white	2.286908077994429	smiling	136	sub-03	2.0	2.0	136_smiling	0.0		210.7475902176102	
31.0	187.27214897379963	face	0.0		145	27.0	female	white	3.504576203740549	smiling	144	sub-03	2.0	2.0	144_smiling	0.0		211.12245766561819	1.2333201825254037
31.0	187.59726773102693	pulse	0.0	t		27.0	female	white	3.504576203740549	smiling	144	sub-03	2.0	2.0	144_smiling	0.0		211.4475764228455	
31.0	188.2972391453768	pulse	0.0	t		27.0	female	white	3.504576203740549	smiling	144	sub-03	2.0	2.0	144_smiling	0.0		212.14754783719536	
31.0	188.50546915632503	fix	1.0		444	27.0	female	white	3.504576203740549	smiling	144	sub-03	2.0	2.0	144_smiling	0.0		212.3557778481436	3.766573866436829
31.0	188.9972344062562	pulse	1.0	t		27.0	female	white	3.504576203740549	smiling	144	sub-03	2.0	2.0	144_smiling	0.0		212.84754309807477	
31.0	189.69721638552437	pulse	1.0	t		27.0	female	white	3.504576203740549	smiling	144	sub-03	2.0	2.0	144_smiling	0.0		213.54752507734293	
31.0	190.39719655366343	pulse	1.0	t		27.0	female	white	3.504576203740549	smiling	144	sub-03	2.0	2.0	144_smiling	0.0		214.247505245482	
31.0	191.09718547559214	pulse	1.0	t		27.0	female	white	3.504576203740549	smiling	144	sub-03	2.0	2.0	144_smiling	0.0		214.9474941674107	
31.0	191.7971713789725	pulse	1.0	t		27.0	female	white	3.504576203740549	smiling	144	sub-03	2.0	2.0	144_smiling	0.0		215.64748007079106	
32.0	192.27204302276186	face	0.0		145	40.0	female	west_asian	1.5777954635893354	neutral	038	sub-03	2.0	2.0	038_neutral	0.0		216.12235171458042	1.2333180695422925
32.0	192.4971799214636	pulse	0.0	t		40.0	female	west_asian	1.5777954635893354	neutral	038	sub-03	2.0	2.0	038_neutral	0.0		216.34748861328217	
32.0	193.19713926162103	pulse	0.0	t		40.0	female	west_asian	1.5777954635893354	neutral	038	sub-03	2.0	2.0	038_neutral	0.0		217.0474479534396	
32.0	193.50536109230416	fix	1.0		444	40.0	female	west_asian	1.5777954635893354	neutral	038	sub-03	2.0	2.0	038_neutral	0.0		217.3556697841227	3.76657628127532
32.0	193.89712999467838	pulse	1.0	t		40.0	female	west_asian	1.5777954635893354	neutral	038	sub-03	2.0	2.0	038_neutral	0.0		217.74743868649693	
32.0	194.59710412572122	pulse	1.0	t		40.0	female	west_asian	1.5777954635893354	neutral	038	sub-03	2.0	2.0	038_neutral	0.0		218.44741281753977	
32.0	195.29707855861943	pulse	1.0	t		40.0	female	west_asian	1.5777954635893354	neutral	038	sub-03	2.0	2.0	038_neutral	0.0		219.147387250438	
32.0	195.99707955474014	pulse	1.0	t		40.0	female	west_asian	1.5777954635893354	neutral	038	sub-03	2.0	2.0	038_neutral	0.0		219.8473882465587	
32.0	196.69706515626604	pulse	1.0	t		40.0	female	west_asian	1.5777954635893354	neutral	038	sub-03	2.0	2.0	038_neutral	0.0		220.5473738480846	
33.0	197.27193737357948	face	0.0		145	28.0	male	east_asian	1.5563072025467568	neutral	005	sub-03	2.0	2.0	005_neutral	0.0		221.12224606539803	1.2333171639775173
33.0	197.39705830416187	pulse	0.0	t		28.0	male	east_asian	1.5563072025467568	neutral	005	sub-03	2.0	2.0	005_neutral	0.0		221.24736699598043	
33.0	198.09703605746245	pulse	0.0	t		28.0	male	east_asian	1.5563072025467568	neutral	005	sub-03	2.0	2.0	005_neutral	0.0		221.947344749281	
33.0	198.505254537557	fix	1.0		444	28.0	male	east_asian	1.5563072025467568	neutral	005	sub-03	2.0	2.0	005_neutral	0.0		222.35556322937555	3.766576583130245
33.0	198.7970301109226	pulse	1.0	t		28.0	male	east_asian	1.5563072025467568	neutral	005	sub-03	2.0	2.0	005_neutral	0.0		222.64733880274116	
33.0	199.49700846793303	pulse	1.0	t		28.0	male	east_asian	1.5563072025467568	neutral	005	sub-03	2.0	2.0	005_neutral	0.0		223.34731715975158	
33.0	200.1969895416364	pulse	1.0	t		28.0	male	east_asian	1.5563072025467568	neutral	005	sub-03	2.0	2.0	005_neutral	0.0		224.04729823345497	
33.0	200.89697725614587	pulse	1.0	t		28.0	male	east_asian	1.5563072025467568	neutral	005	sub-03	2.0	2.0	005_neutral	0.0		224.74728594796443	
33.0	201.5969664799295	pulse	1.0	t		28.0	male	east_asian	1.5563072025467568	neutral	005	sub-03	2.0	2.0	005_neutral	0.0		225.44727517174806	
34.0	202.27183112068724	face	0.0		145	37.0	male	white	3.898925586947871	smiling	101	sub-03	2.0	2.0	101_smiling	0.0		226.1221398125058	1.2333186732516879
34.0	202.29695570371268	pulse	0.0	t		37.0	male	white	3.898925586947871	smiling	101	sub-03	2.0	2.0	101_smiling	0.0		226.14726439553124	
34.0	202.9969313440297	pulse	0.0	t		37.0	male	white	3.898925586947871	smiling	101	sub-03	2.0	2.0	101_smiling	0.0		226.84724003584824	
34.0	203.50514979393893	fix	1.0		443	37.0	male	white	3.898925586947871	smiling	101	sub-03	2.0	2.0	101_smiling	0.0		227.35545848575748	3.7583172318950346
34.0	203.6969260011997	pulse	1.0	t		37.0	male	white	3.898925586947871	smiling	101	sub-03	2.0	2.0	101_smiling	0.0		227.54723469301825	
34.0	204.39690284893595	pulse	1.0	t		37.0	male	white	3.898925586947871	smiling	101	sub-03	2.0	2.0	101_smiling	0.0		228.2472115407545	
34.0	205.09688301707502	pulse	1.0	t		37.0	male	white	3.898925586947871	smiling	101	sub-03	2.0	2.0	101_smiling	0.0		228.94719170889357	
34.0	205.7968749575516	pulse	1.0	t		37.0	male	white	3.898925586947871	smiling	101	sub-03	2.0	2.0	101_smiling	0.0		229.64718364937016	
34.0	206.49685361641696	pulse	1.0	t		37.0	male	white	3.898925586947871	smiling	101	sub-03	2.0	2.0	101_smiling	0.0		230.3471623082355	
34.0	207.19684646245787	pulse	1.0	t		37.0	male	white	3.898925586947871	smiling	101	sub-03	2.0	2.0	101_smiling	0.0		231.04715515427642	
35.0	207.26346702583396	face	0.0		147	40.0	female	west_asian	1.5777954635893354	smiling	038	sub-03	2.0	2.0	038_smiling	0.0		231.11377571765252	1.2415780244868984
35.0	207.89683689366075	pulse	0.0	t		40.0	female	west_asian	1.5777954635893354	smiling	038	sub-03	2.0	2.0	038_smiling	0.0		231.7471455854793	
35.0	208.50504505032086	fix	1.0		443	40.0	female	west_asian	1.5777954635893354	smiling	038	sub-03	2.0	2.0	038_smiling	0.0		232.3553537421394	3.766561490389904
35.0	208.5968218914768	pulse	1.0	t		40.0	female	west_asian	1.5777954635893354	smiling	038	sub-03	2.0	2.0	038_smiling	0.0		232.44713058329535	
35.0	209.29680417259942	pulse	1.0	t		40.0	female	west_asian	1.5777954635893354	smiling	038	sub-03	2.0	2.0	038_smiling	0.0		233.14711286441798	
35.0	209.9967819259	pulse	1.0	t		40.0	female	west_asian	1.5777954635893354	smiling	038	sub-03	2.0	2.0	038_smiling	0.0		233.84709061771855	
35.0	210.69676782928082	pulse	1.0	t		40.0	female	west_asian	1.5777954635893354	smiling	038	sub-03	2.0	2.0	038_smiling	0.0		234.54707652109937	
35.0	211.3967482992748	pulse	1.0	t		40.0	female	west_asian	1.5777954635893354	smiling	038	sub-03	2.0	2.0	038_smiling	0.0		235.24705699109336	
35.0	212.09674054160632	pulse	1.0	t		40.0	female	west_asian	1.5777954635893354	smiling	038	sub-03	2.0	2.0	038_smiling	0.0		235.94704923342488	
36.0	212.27160654071076	face	0.0		146	24.0	female	east_asian	2.9076800636689217	neutral	034	sub-03	2.0	2.0	034_neutral	0.0		236.12191523252932	1.241664958671663
36.0	212.79674334885567	pulse	0.0	t		24.0	female	east_asian	2.9076800636689217	neutral	034	sub-03	2.0	2.0	034_neutral	0.0		236.64705204067423	
36.0	213.49671566876987	pulse	0.0	t		24.0	female	east_asian	2.9076800636689217	neutral	034	sub-03	2.0	2.0	034_neutral	0.0		237.34702436058842	
36.0	213.51327149938243	fix	1.0		443	24.0	female	east_asian	2.9076800636689217	neutral	034	sub-03	2.0	2.0	034_neutral	0.0		237.36358019120098	3.7500382600969715
36.0	214.1967136463427	pulse	1.0	t		24.0	female	east_asian	2.9076800636689217	neutral	034	sub-03	2.0	2.0	034_neutral	0.0		238.04702233816124	
36.0	214.89669351262728	pulse	1.0	t		24.0	female	east_asian	2.9076800636689217	neutral	034	sub-03	2.0	2.0	034_neutral	0.0		238.74700220444583	
36.0	215.59667700116916	pulse	1.0	t		24.0	female	east_asian	2.9076800636689217	neutral	034	sub-03	2.0	2.0	034_neutral	0.0		239.4469856929877	
36.0	216.29664781180918	pulse	1.0	t		24.0	female	east_asian	2.9076800636689217	neutral	034	sub-03	2.0	2.0	034_neutral	0.0		240.14695650362773	
36.0	216.99663733744774	pulse	1.0	t		24.0	female	east_asian	2.9076800636689217	neutral	034	sub-03	2.0	2.0	034_neutral	0.0		240.8469460292663	
37.0	217.2633097594794	face	0.0		146	25.0	female	black	3.858336649423	smiling	126	sub-03	2.0	2.0	126_smiling	0.0		241.11361845129795	1.2415209739283455
37.0	217.69662927792433	pulse	0.0	t		25.0	female	black	3.858336649423	smiling	126	sub-03	2.0	2.0	126_smiling	0.0		241.54693796974288	
37.0	218.39662272767464	pulse	0.0	t		25.0	female	black	3.858336649423	smiling	126	sub-03	2.0	2.0	126_smiling	0.0		242.2469314194932	
37.0	218.50483073340774	fix	1.0		444	25.0	female	black	3.858336649423	smiling	126	sub-03	2.0	2.0	126_smiling	0.0		242.3551394252263	3.766576583130245
37.0	219.0965983679921	pulse	1.0	t		25.0	female	black	3.858336649423	smiling	126	sub-03	2.0	2.0	126_smiling	0.0		242.94690705981066	
37.0	219.79658004540534	pulse	1.0	t		25.0	female	black	3.858336649423	smiling	126	sub-03	2.0	2.0	126_smiling	0.0		243.6468887372239	
37.0	220.49656685435002	pulse	1.0	t		25.0	female	black	3.858336649423	smiling	126	sub-03	2.0	2.0	126_smiling	0.0		244.34687554616858	
37.0	221.19654490950552	pulse	1.0	t		25.0	female	black	3.858336649423	smiling	126	sub-03	2.0	2.0	126_smiling	0.0		245.04685360132407	
37.0	221.8965335295793	pulse	1.0	t		25.0	female	black	3.858336649423	smiling	126	sub-03	2.0	2.0	126_smiling	0.0		245.74684222139786	
38.0	222.271407316538	face	0.0		145	20.0	male	black	2.609629924393156	neutral	043	sub-03	2.0	2.0	043_neutral	0.0		246.12171600835654	1.233318975106613
38.0	222.59652426263665	pulse	0.0	t		20.0	male	black	2.609629924393156	neutral	043	sub-03	2.0	2.0	043_neutral	0.0		246.4468329544552	
38.0	223.2964986955344	pulse	0.0	t		20.0	male	black	2.609629924393156	neutral	043	sub-03	2.0	2.0	043_neutral	0.0		247.14680738735296	
38.0	223.5047262916446	fix	1.0		444	20.0	male	black	2.609629924393156	neutral	043	sub-03	2.0	2.0	043_neutral	0.0		247.35503498346316	3.766570847888943
38.0	223.99649335270442	pulse	1.0	t		20.0	male	black	2.609629924393156	neutral	043	sub-03	2.0	2.0	043_neutral	0.0		247.84680204452297	
38.0	224.69647503011765	pulse	1.0	t		20.0	male	black	2.609629924393156	neutral	043	sub-03	2.0	2.0	043_neutral	0.0		248.5467837219362	
38.0	225.39645791495013	pulse	1.0	t		20.0	male	black	2.609629924393156	neutral	043	sub-03	2.0	2.0	043_neutral	0.0		249.2467666067687	
38.0	226.09643929050844	pulse	1.0	t		20.0	male	black	2.609629924393156	neutral	043	sub-03	2.0	2.0	043_neutral	0.0		249.946747982327	
38.0	226.79642609945358	pulse	1.0	t		20.0	male	black	2.609629924393156	neutral	043	sub-03	2.0	2.0	043_neutral	0.0		250.64673479127214	
39.0	227.27129713953354	face	0.0		145	54.0	female	white	2.286908077994429	neutral	136	sub-03	2.0	2.0	136_neutral	0.0		251.1216058313521	1.2333222955089695
39.0	227.496421360333	pulse	0.0	t		54.0	female	white	2.286908077994429	neutral	136	sub-03	2.0	2.0	136_neutral	0.0		251.34673005215154	
39.0	228.19639247282794	pulse	0.0	t		54.0	female	white	2.286908077994429	neutral	136	sub-03	2.0	2.0	136_neutral	0.0		252.0467011646465	
39.0	228.5046194350425	fix	1.0		444	54.0	female	white	2.286908077994429	neutral	136	sub-03	2.0	2.0	136_neutral	0.0		252.35492812686107	3.749919329302884
39.0	228.8963635853229	pulse	1.0	t		54.0	female	white	2.286908077994429	neutral	136	sub-03	2.0	2.0	136_neutral	0.0		252.74667227714144	
39.0	229.59637182595907	pulse	1.0	t		54.0	female	white	2.286908077994429	neutral	136	sub-03	2.0	2.0	136_neutral	0.0		253.44668051777762	
39.0	230.29634656071175	pulse	1.0	t		54.0	female	white	2.286908077994429	neutral	136	sub-03	2.0	2.0	136_neutral	0.0		254.1466552525303	
39.0	230.9963348789306	pulse	1.0	t		54.0	female	white	2.286908077994429	neutral	136	sub-03	2.0	2.0	136_neutral	0.0		254.84664357074917	
39.0	231.69633044166494	pulse	1.0	t		54.0	female	white	2.286908077994429	neutral	136	sub-03	2.0	2.0	136_neutral	0.0		255.5466391334835	
40.0	232.2545387643454	fix	0.0		720													256.10484745616395	5.999872013561799
40.0	232.39631755246455	pulse	0.0	t														256.2466262442831	
40.0	233.09629349463648	pulse	0.0	t														256.94660218645504	
40.0	233.79628845366142	pulse	0.0	t														257.64659714548	
40.0	234.49626258470425	pulse	0.0	t														258.3465712765228	
40.0	235.19624909179447	pulse	0.0	t														259.046557783613	
40.0	235.8962289580786	pulse	0.0	t														259.74653764989716	
40.0	236.59621606887868	pulse	0.0	t														260.44652476069723	
40.0	237.2962092167745	pulse	0.0	t														261.14651790859307	
40.0	237.99618998862343	pulse	0.0	t														261.846498680442	
