trial_nr	onset	event_type	phase	response	nr_frames	face_age	face_sex	face_eth	attractiveness	expression	face_id	sub_id	ses	run	trial_type	catch	rating_type	onset_abs	duration
-1.0	0.05945935992895102	fix	0.0		713													30.33472196606499	5.957887330278481
-1.0	0.7009349348945761	pulse	0.0	t														30.976197541030615	
-1.0	1.4008897472299395	pulse	0.0	t														31.67615235336598	
-1.0	2.1008780654487964	pulse	0.0	t														32.376140671584835	
-1.0	2.8008718170544853	pulse	0.0	t														33.076134423190524	
-1.0	3.5008534944672647	pulse	0.0	t														33.7761161006033	
-1.0	4.200842114541047	pulse	0.0	t														34.476104720677085	
-1.0	4.900824999373526	pulse	0.0	t														35.176087605509565	
-1.0	5.600801243400383	pulse	0.0	t														35.87606384953642	
0.0	6.017346690207432	face	0.0		144	24.0	female	east_asian	4.409868682849185	neutral	030	sub-09	2.0	4.0	030_neutral	0.0		36.29260929634347	1.23331112688129
0.0	6.300794089441297	pulse	0.0	t		24.0	female	east_asian	4.409868682849185	neutral	030	sub-09	2.0	4.0	030_neutral	0.0		36.576056695577336	
0.0	7.000771842742324	pulse	0.0	t		24.0	female	east_asian	4.409868682849185	neutral	030	sub-09	2.0	4.0	030_neutral	0.0		37.27603444887836	
0.0	7.250657817088722	fix	1.0		445	24.0	female	east_asian	4.409868682849185	neutral	030	sub-09	2.0	4.0	030_neutral	0.0		37.52592042322476	3.7582565590787453
0.0	7.700762575799672	pulse	1.0	t		24.0	female	east_asian	4.409868682849185	neutral	030	sub-09	2.0	4.0	030_neutral	0.0		37.97602518193571	
0.0	8.400745158777227	pulse	1.0	t		24.0	female	east_asian	4.409868682849185	neutral	030	sub-09	2.0	4.0	030_neutral	0.0		38.676007764913265	
0.0	9.10073891038246	pulse	1.0	t		24.0	female	east_asian	4.409868682849185	neutral	030	sub-09	2.0	4.0	030_neutral	0.0		39.3760015165185	
0.0	9.800729341585338	pulse	1.0	t		24.0	female	east_asian	4.409868682849185	neutral	030	sub-09	2.0	4.0	030_neutral	0.0		40.07599194772138	
0.0	10.500716150530025	pulse	1.0	t		24.0	female	east_asian	4.409868682849185	neutral	030	sub-09	2.0	4.0	030_neutral	0.0		40.77597875666606	
1.0	11.008914376167468	face	0.0		146	40.0	male	black	2.408674890569041	smiling	061	sub-09	2.0	4.0	061_smiling	0.0		41.28417698230351	1.2416386973031877
1.0	11.200707185442297	pulse	0.0	t		40.0	male	black	2.408674890569041	smiling	061	sub-09	2.0	4.0	061_smiling	0.0		41.475969791578336	
1.0	11.900684335033475	pulse	0.0	t		40.0	male	black	2.408674890569041	smiling	061	sub-09	2.0	4.0	061_smiling	0.0		42.175946941169514	
1.0	12.250553073470655	fix	1.0		444	40.0	male	black	2.408674890569041	smiling	061	sub-09	2.0	4.0	061_smiling	0.0		42.525815679606694	3.7582559553688952
1.0	12.600659975350482	pulse	1.0	t		40.0	male	black	2.408674890569041	smiling	061	sub-09	2.0	4.0	061_smiling	0.0		42.87592258148652	
1.0	13.300655236229886	pulse	1.0	t		40.0	male	black	2.408674890569041	smiling	061	sub-09	2.0	4.0	061_smiling	0.0		43.575917842365925	
1.0	14.000644460013518	pulse	1.0	t		40.0	male	black	2.408674890569041	smiling	061	sub-09	2.0	4.0	061_smiling	0.0		44.27590706614956	
1.0	14.700621911459166	pulse	1.0	t		40.0	male	black	2.408674890569041	smiling	061	sub-09	2.0	4.0	061_smiling	0.0		44.975884517595205	
1.0	15.400608720404307	pulse	1.0	t		40.0	male	black	2.408674890569041	smiling	061	sub-09	2.0	4.0	061_smiling	0.0		45.675871326540346	
2.0	16.00880902883955	face	0.0		146	24.0	female	east_asian	2.9076800636689217	smiling	034	sub-09	2.0	4.0	034_smiling	0.0		46.28407163497559	1.2416589215754357
2.0	16.100604283138637	pulse	0.0	t		24.0	female	east_asian	2.9076800636689217	smiling	034	sub-09	2.0	4.0	034_smiling	0.0		46.375866889274675	
2.0	16.800579017891323	pulse	0.0	t		24.0	female	east_asian	2.9076800636689217	smiling	034	sub-09	2.0	4.0	034_smiling	0.0		47.07584162402736	
2.0	17.250467950414986	fix	1.0		445	24.0	female	east_asian	2.9076800636689217	smiling	034	sub-09	2.0	4.0	034_smiling	0.0		47.525730556551025	3.758235127387252
2.0	17.500575184335048	pulse	1.0	t		24.0	female	east_asian	2.9076800636689217	smiling	034	sub-09	2.0	4.0	034_smiling	0.0		47.77583779047109	
2.0	18.20055173021683	pulse	1.0	t		24.0	female	east_asian	2.9076800636689217	smiling	034	sub-09	2.0	4.0	034_smiling	0.0		48.47581433635287	
2.0	18.900535218758705	pulse	1.0	t		24.0	female	east_asian	2.9076800636689217	smiling	034	sub-09	2.0	4.0	034_smiling	0.0		49.175797824894744	
2.0	19.600522027703846	pulse	1.0	t		24.0	female	east_asian	2.9076800636689217	smiling	034	sub-09	2.0	4.0	034_smiling	0.0		49.875784633839885	
2.0	20.300544455516047	pulse	1.0	t		24.0	female	east_asian	2.9076800636689217	smiling	034	sub-09	2.0	4.0	034_smiling	0.0		50.575807061652085	
3.0	21.008703077802238	face	0.0		147	22.0	female	west_asian	3.8205332272184642	smiling	066	sub-09	2.0	4.0	066_smiling	0.0		51.28396568393828	1.2416432251252445
3.0	21.001685859098416	pulse	0.0	t		22.0	female	west_asian	3.8205332272184642	smiling	066	sub-09	2.0	4.0	066_smiling	0.0		51.276948465234454	
3.0	21.700476417442133	pulse	0.0	t		22.0	female	west_asian	3.8205332272184642	smiling	066	sub-09	2.0	4.0	066_smiling	0.0		51.97573902357817	
3.0	22.250346302927483	fix	1.0		443	22.0	female	west_asian	3.8205332272184642	smiling	066	sub-09	2.0	4.0	066_smiling	0.0		52.52560890906352	3.758253540530859
3.0	22.40045779300044	pulse	1.0	t		22.0	female	west_asian	3.8205332272184642	smiling	066	sub-09	2.0	4.0	066_smiling	0.0		52.67572039913648	
3.0	23.10043464073715	pulse	1.0	t		22.0	female	west_asian	3.8205332272184642	smiling	066	sub-09	2.0	4.0	066_smiling	0.0		53.37569724687319	
3.0	23.800425373794496	pulse	1.0	t		22.0	female	west_asian	3.8205332272184642	smiling	066	sub-09	2.0	4.0	066_smiling	0.0		54.075687979930535	
3.0	24.50040886233637	pulse	1.0	t		22.0	female	west_asian	3.8205332272184642	smiling	066	sub-09	2.0	4.0	066_smiling	0.0		54.77567146847241	
3.0	25.200410764021854	pulse	1.0	t		22.0	female	west_asian	3.8205332272184642	smiling	066	sub-09	2.0	4.0	066_smiling	0.0		55.47567337015789	
3.0	25.900394554418654	pulse	1.0	t		22.0	female	west_asian	3.8205332272184642	smiling	066	sub-09	2.0	4.0	066_smiling	0.0		56.17565716055469	
4.0	26.00859984345834	face	0.0		147	28.0	male	east_asian	1.5563072025467568	smiling	005	sub-09	2.0	4.0	005_smiling	0.0		56.28386244959438	1.2416610345590016
4.0	26.600383476346906	pulse	0.0	t		28.0	male	east_asian	1.5563072025467568	smiling	005	sub-09	2.0	4.0	005_smiling	0.0		56.875646082482945	
4.0	27.250260878017343	fix	1.0		444	28.0	male	east_asian	1.5563072025467568	smiling	005	sub-09	2.0	4.0	005_smiling	0.0		57.52552348415338	3.7665554532936767
4.0	27.30037360569486	pulse	1.0	t		28.0	male	east_asian	1.5563072025467568	smiling	005	sub-09	2.0	4.0	005_smiling	0.0		57.5756362118309	
4.0	28.00035045343111	pulse	1.0	t		28.0	male	east_asian	1.5563072025467568	smiling	005	sub-09	2.0	4.0	005_smiling	0.0		58.27561305956715	
4.0	28.700330621570174	pulse	1.0	t		28.0	male	east_asian	1.5563072025467568	smiling	005	sub-09	2.0	4.0	005_smiling	0.0		58.97559322770621	
4.0	29.4003147138219	pulse	1.0	t		28.0	male	east_asian	1.5563072025467568	smiling	005	sub-09	2.0	4.0	005_smiling	0.0		59.67557731995794	
4.0	30.10029669309006	pulse	1.0	t		28.0	male	east_asian	1.5563072025467568	smiling	005	sub-09	2.0	4.0	005_smiling	0.0		60.3755592992261	
4.0	30.800275653809877	pulse	1.0	t		28.0	male	east_asian	1.5563072025467568	smiling	005	sub-09	2.0	4.0	005_smiling	0.0		61.075538259945915	
5.0	31.01681633131102	face	0.0		145	40.0	female	west_asian	1.5777954635893354	smiling	038	sub-09	2.0	4.0	038_smiling	0.0		61.29207893744706	1.2333232010737447
5.0	31.500268801705715	pulse	0.0	t		40.0	female	west_asian	1.5777954635893354	smiling	038	sub-09	2.0	4.0	038_smiling	0.0		61.775531407841754	
5.0	32.20025138468327	pulse	0.0	t		40.0	female	west_asian	1.5777954635893354	smiling	038	sub-09	2.0	4.0	038_smiling	0.0		62.47551399081931	
5.0	32.250139532384765	fix	1.0		445	40.0	female	west_asian	1.5777954635893354	smiling	038	sub-09	2.0	4.0	038_smiling	0.0		62.5254021385208	3.766591675870586
5.0	32.90024030661198	pulse	1.0	t		40.0	female	west_asian	1.5777954635893354	smiling	038	sub-09	2.0	4.0	038_smiling	0.0		63.175502912748016	
5.0	33.600222285880136	pulse	1.0	t		40.0	female	west_asian	1.5777954635893354	smiling	038	sub-09	2.0	4.0	038_smiling	0.0		63.875484892016175	
5.0	34.300226300549184	pulse	1.0	t		40.0	female	west_asian	1.5777954635893354	smiling	038	sub-09	2.0	4.0	038_smiling	0.0		64.57548890668522	
5.0	35.0001937907864	pulse	1.0	t		40.0	female	west_asian	1.5777954635893354	smiling	038	sub-09	2.0	4.0	038_smiling	0.0		65.27545639692244	
5.0	35.700186033117916	pulse	1.0	t		40.0	female	west_asian	1.5777954635893354	smiling	038	sub-09	2.0	4.0	038_smiling	0.0		65.97544863925395	
6.0	36.01673120825535	face	0.0		145	24.0	female	east_asian	2.9076800636689217	neutral	034	sub-09	2.0	4.0	034_neutral	0.0		66.29199381439139	1.2333244084929902
6.0	36.40018340698089	pulse	0.0	t		24.0	female	east_asian	2.9076800636689217	neutral	034	sub-09	2.0	4.0	034_neutral	0.0		66.67544601311693	
6.0	37.10016176399131	pulse	0.0	t		24.0	female	east_asian	2.9076800636689217	neutral	034	sub-09	2.0	4.0	034_neutral	0.0		67.37542437012735	
6.0	37.25005561674834	fix	1.0		445	24.0	female	east_asian	2.9076800636689217	neutral	034	sub-09	2.0	4.0	034_neutral	0.0		67.52531822288438	3.7665545477293563
6.0	37.80014283769469	pulse	1.0	t		24.0	female	east_asian	2.9076800636689217	neutral	034	sub-09	2.0	4.0	034_neutral	0.0		68.07540544383073	
6.0	38.50012059099572	pulse	1.0	t		24.0	female	east_asian	2.9076800636689217	neutral	034	sub-09	2.0	4.0	034_neutral	0.0		68.77538319713176	
6.0	39.200113437036634	pulse	1.0	t		24.0	female	east_asian	2.9076800636689217	neutral	034	sub-09	2.0	4.0	034_neutral	0.0		69.47537604317267	
6.0	39.90009149219213	pulse	1.0	t		24.0	female	east_asian	2.9076800636689217	neutral	034	sub-09	2.0	4.0	034_neutral	0.0		70.17535409832817	
6.0	40.60007467887954	pulse	1.0	t		24.0	female	east_asian	2.9076800636689217	neutral	034	sub-09	2.0	4.0	034_neutral	0.0		70.87533728501558	
7.0	41.0166101644777	face	0.0		145	34.0	male	white	2.651014723438122	smiling	121	sub-09	2.0	4.0	121_smiling	0.0		71.29187277061374	1.233343727200463
7.0	41.30008412693496	pulse	0.0	t		34.0	male	white	2.651014723438122	smiling	121	sub-09	2.0	4.0	121_smiling	0.0		71.575346733071	
7.0	42.00005855983272	pulse	0.0	t		34.0	male	white	2.651014723438122	smiling	121	sub-09	2.0	4.0	121_smiling	0.0		72.27532116596876	
7.0	42.24995389167816	fix	1.0		445	34.0	male	white	2.651014723438122	smiling	121	sub-09	2.0	4.0	121_smiling	0.0		72.5252164978142	3.7665672256312064
7.0	42.70005200958349	pulse	1.0	t		34.0	male	white	2.651014723438122	smiling	121	sub-09	2.0	4.0	121_smiling	0.0		72.97531461571953	
7.0	43.40002161280427	pulse	1.0	t		34.0	male	white	2.651014723438122	smiling	121	sub-09	2.0	4.0	121_smiling	0.0		73.6752842189403	
7.0	44.10001596811935	pulse	1.0	t		34.0	male	white	2.651014723438122	smiling	121	sub-09	2.0	4.0	121_smiling	0.0		74.37527857425539	
7.0	44.80000338077389	pulse	1.0	t		34.0	male	white	2.651014723438122	smiling	121	sub-09	2.0	4.0	121_smiling	0.0		75.07526598690993	
7.0	45.49998958600918	pulse	1.0	t		34.0	male	white	2.651014723438122	smiling	121	sub-09	2.0	4.0	121_smiling	0.0		75.77525219214522	
8.0	46.01652111730937	face	0.0		145	31.0	female	east_asian	3.395941106247513	neutral	087	sub-09	2.0	4.0	087_neutral	0.0		76.2917837234454	1.2333096176075742
8.0	46.199978809792356	pulse	0.0	t		31.0	female	east_asian	3.395941106247513	neutral	087	sub-09	2.0	4.0	087_neutral	0.0		76.4752414159284	
8.0	46.89996018535112	pulse	0.0	t		31.0	female	east_asian	3.395941106247513	neutral	087	sub-09	2.0	4.0	087_neutral	0.0		77.17522279148716	
8.0	47.24983073491694	fix	1.0		445	31.0	female	east_asian	3.395941106247513	neutral	087	sub-09	2.0	4.0	087_neutral	0.0		77.52509334105298	3.7665880536128498
8.0	47.59994820171505	pulse	1.0	t		31.0	female	east_asian	3.395941106247513	neutral	087	sub-09	2.0	4.0	087_neutral	0.0		77.87521080785109	
8.0	48.29992354017713	pulse	1.0	t		31.0	female	east_asian	3.395941106247513	neutral	087	sub-09	2.0	4.0	087_neutral	0.0		78.57518614631317	
8.0	48.999914575089406	pulse	1.0	t		31.0	female	east_asian	3.395941106247513	neutral	087	sub-09	2.0	4.0	087_neutral	0.0		79.27517718122544	
8.0	49.699909835969265	pulse	1.0	t		31.0	female	east_asian	3.395941106247513	neutral	087	sub-09	2.0	4.0	087_neutral	0.0		79.9751724421053	
8.0	50.39988064660929	pulse	1.0	t		31.0	female	east_asian	3.395941106247513	neutral	087	sub-09	2.0	4.0	087_neutral	0.0		80.67514325274533	
9.0	51.01641878852979	face	0.0		145	20.0	female	white	3.9502586549940313	neutral	091	sub-09	2.0	4.0	091_neutral	0.0		81.29168139466583	1.2333256159122357
9.0	51.09987077595724	pulse	0.0	t		20.0	female	white	3.9502586549940313	neutral	091	sub-09	2.0	4.0	091_neutral	0.0		81.37513338209328	
9.0	51.79987267764227	pulse	0.0	t		20.0	female	white	3.9502586549940313	neutral	091	sub-09	2.0	4.0	091_neutral	0.0		82.07513528377831	
9.0	52.249744404442026	fix	1.0		445	20.0	female	white	3.9502586549940313	neutral	091	sub-09	2.0	4.0	091_neutral	0.0		82.52500701057807	3.766568433050452
9.0	52.49984529941139	pulse	1.0	t		20.0	female	white	3.9502586549940313	neutral	091	sub-09	2.0	4.0	091_neutral	0.0		82.77510790554743	
9.0	53.19982033601855	pulse	1.0	t		20.0	female	white	3.9502586549940313	neutral	091	sub-09	2.0	4.0	091_neutral	0.0		83.47508294215459	
9.0	53.89985996955511	pulse	1.0	t		20.0	female	white	3.9502586549940313	neutral	091	sub-09	2.0	4.0	091_neutral	0.0		84.17512257569115	
9.0	54.5998018021337	pulse	1.0	t		20.0	female	white	3.9502586549940313	neutral	091	sub-09	2.0	4.0	091_neutral	0.0		84.87506440826974	
9.0	55.2997913277718	pulse	1.0	t		20.0	female	white	3.9502586549940313	neutral	091	sub-09	2.0	4.0	091_neutral	0.0		85.57505393390784	
10.0	56.01631283749248	face	0.0		146	24.0	male	white	3.1153999204138483	smiling	012	sub-09	2.0	4.0	012_smiling	0.0		86.29157544362852	1.2333277288958016
10.0	56.002566973280864	pulse	0.0	t		24.0	male	white	3.1153999204138483	smiling	012	sub-09	2.0	4.0	012_smiling	0.0		86.2778295794169	
10.0	56.69974773993772	pulse	0.0	t		24.0	male	white	3.1153999204138483	smiling	012	sub-09	2.0	4.0	012_smiling	0.0		86.97501034607376	
10.0	57.24964056638828	fix	1.0		443	24.0	male	white	3.1153999204138483	smiling	012	sub-09	2.0	4.0	012_smiling	0.0		87.52490317252432	3.766553944019961
10.0	57.39973575630165	pulse	1.0	t		24.0	male	white	3.1153999204138483	smiling	012	sub-09	2.0	4.0	012_smiling	0.0		87.67499836243769	
10.0	58.09972407452051	pulse	1.0	t		24.0	male	white	3.1153999204138483	smiling	012	sub-09	2.0	4.0	012_smiling	0.0		88.37498668065655	
10.0	58.79971963725484	pulse	1.0	t		24.0	male	white	3.1153999204138483	smiling	012	sub-09	2.0	4.0	012_smiling	0.0		89.07498224339088	
10.0	59.499694372007525	pulse	1.0	t		24.0	male	white	3.1153999204138483	smiling	012	sub-09	2.0	4.0	012_smiling	0.0		89.77495697814356	
10.0	60.199677860549855	pulse	1.0	t		24.0	male	white	3.1153999204138483	smiling	012	sub-09	2.0	4.0	012_smiling	0.0		90.4749404666859	
10.0	60.8996553119955	pulse	1.0	t		24.0	male	white	3.1153999204138483	smiling	012	sub-09	2.0	4.0	012_smiling	0.0		91.17491791813154	
11.0	61.01619451040824	face	0.0		146	54.0	female	white	2.286908077994429	neutral	136	sub-09	2.0	4.0	136_neutral	0.0		91.29145711654428	1.2333301437342925
11.0	61.599654798842494	pulse	0.0	t		54.0	female	white	2.286908077994429	neutral	136	sub-09	2.0	4.0	136_neutral	0.0		91.87491740497853	
11.0	62.24952465414253	fix	1.0		444	54.0	female	white	2.286908077994429	neutral	136	sub-09	2.0	4.0	136_neutral	0.0		92.52478726027857	3.766583525790793
11.0	62.299630741014425	pulse	1.0	t		54.0	female	white	2.286908077994429	neutral	136	sub-09	2.0	4.0	136_neutral	0.0		92.57489334715046	
11.0	62.99962207778117	pulse	1.0	t		54.0	female	white	2.286908077994429	neutral	136	sub-09	2.0	4.0	136_neutral	0.0		93.27488468391721	
11.0	63.69961069785495	pulse	1.0	t		54.0	female	white	2.286908077994429	neutral	136	sub-09	2.0	4.0	136_neutral	0.0		93.97487330399099	
11.0	64.39959811050949	pulse	1.0	t		54.0	female	white	2.286908077994429	neutral	136	sub-09	2.0	4.0	136_neutral	0.0		94.67486071664553	
11.0	65.09958733429312	pulse	1.0	t		54.0	female	white	2.286908077994429	neutral	136	sub-09	2.0	4.0	136_neutral	0.0		95.37484994042916	
11.0	65.79957384138334	pulse	1.0	t		54.0	female	white	2.286908077994429	neutral	136	sub-09	2.0	4.0	136_neutral	0.0		96.07483644751937	
12.0	66.01610817993333	face	0.0		145	28.0	female	white	5.676880222841227	smiling	124	sub-09	2.0	4.0	124_smiling	0.0		96.29137078606936	1.233308712042799
12.0	66.49955521694164	pulse	0.0	t		28.0	female	white	5.676880222841227	smiling	124	sub-09	2.0	4.0	124_smiling	0.0		96.77481782307768	
12.0	67.19953508322578	pulse	0.0	t		28.0	female	white	5.676880222841227	smiling	124	sub-09	2.0	4.0	124_smiling	0.0		97.47479768936182	
12.0	67.24941689197613	fix	1.0		445	28.0	female	white	5.676880222841227	smiling	124	sub-09	2.0	4.0	124_smiling	0.0		97.52467949811216	3.766570847888943
12.0	67.8995209866066	pulse	1.0	t		28.0	female	white	5.676880222841227	smiling	124	sub-09	2.0	4.0	124_smiling	0.0		98.17478359274264	
12.0	68.59949541950436	pulse	1.0	t		28.0	female	white	5.676880222841227	smiling	124	sub-09	2.0	4.0	124_smiling	0.0		98.8747580256404	
12.0	69.2994834358683	pulse	1.0	t		28.0	female	white	5.676880222841227	smiling	124	sub-09	2.0	4.0	124_smiling	0.0		99.57474604200434	
12.0	69.99948805424674	pulse	1.0	t		28.0	female	white	5.676880222841227	smiling	124	sub-09	2.0	4.0	124_smiling	0.0		100.27475066038278	
12.0	70.69946761867641	pulse	1.0	t		28.0	female	white	5.676880222841227	smiling	124	sub-09	2.0	4.0	124_smiling	0.0		100.97473022481245	
13.0	71.01598773986507	face	0.0		145	36.0	female	white	2.7548746518105847	smiling	011	sub-09	2.0	4.0	011_smiling	0.0		101.2912503460011	1.2333446327652382
13.0	71.39945140907321	pulse	0.0	t		36.0	female	white	2.7548746518105847	smiling	011	sub-09	2.0	4.0	011_smiling	0.0		101.67471401520925	
13.0	72.09943791616342	pulse	0.0	t		36.0	female	white	2.7548746518105847	smiling	011	sub-09	2.0	4.0	011_smiling	0.0		102.37470052229946	
13.0	72.2493323726303	fix	1.0		445	36.0	female	white	2.7548746518105847	smiling	011	sub-09	2.0	4.0	011_smiling	0.0		102.52459497876634	3.758237542225743
13.0	72.79943136591419	pulse	1.0	t		36.0	female	white	2.7548746518105847	smiling	011	sub-09	2.0	4.0	011_smiling	0.0		103.07469397205023	
13.0	73.49940368582838	pulse	1.0	t		36.0	female	white	2.7548746518105847	smiling	011	sub-09	2.0	4.0	011_smiling	0.0		103.77466629196442	
13.0	74.19939321146649	pulse	1.0	t		36.0	female	white	2.7548746518105847	smiling	011	sub-09	2.0	4.0	011_smiling	0.0		104.47465581760252	
13.0	74.89937851113746	pulse	1.0	t		36.0	female	white	2.7548746518105847	smiling	011	sub-09	2.0	4.0	011_smiling	0.0		105.1746411172735	
13.0	75.59936139596994	pulse	1.0	t		36.0	female	white	2.7548746518105847	smiling	011	sub-09	2.0	4.0	011_smiling	0.0		105.87462400210597	
14.0	76.00756991485605	face	0.0		146	19.0	male	white	2.243931555909272	neutral	130	sub-09	2.0	4.0	130_neutral	0.0		106.28283252099209	1.241656808591415
14.0	76.2993587698329	pulse	0.0	t		19.0	male	white	2.243931555909272	neutral	130	sub-09	2.0	4.0	130_neutral	0.0		106.57462137596895	
14.0	76.99933531571469	pulse	0.0	t		19.0	male	white	2.243931555909272	neutral	130	sub-09	2.0	4.0	130_neutral	0.0		107.27459792185073	
14.0	77.24922672344746	fix	1.0		445	19.0	male	white	2.243931555909272	neutral	130	sub-09	2.0	4.0	130_neutral	0.0		107.5244893295835	3.7665696404696973
14.0	77.69932665248143	pulse	1.0	t		19.0	male	white	2.243931555909272	neutral	130	sub-09	2.0	4.0	130_neutral	0.0		107.97458925861747	
14.0	78.39930229279844	pulse	1.0	t		19.0	male	white	2.243931555909272	neutral	130	sub-09	2.0	4.0	130_neutral	0.0		108.67456489893448	
14.0	79.09928970545297	pulse	1.0	t		19.0	male	white	2.243931555909272	neutral	130	sub-09	2.0	4.0	130_neutral	0.0		109.37455231158901	
14.0	79.79927832552676	pulse	1.0	t		19.0	male	white	2.243931555909272	neutral	130	sub-09	2.0	4.0	130_neutral	0.0		110.0745409316628	
14.0	80.49926634189114	pulse	1.0	t		19.0	male	white	2.243931555909272	neutral	130	sub-09	2.0	4.0	130_neutral	0.0		110.77452894802718	
15.0	81.01579636391716	face	0.0		146	21.0	male	black	2.969757262236371	smiling	137	sub-09	2.0	4.0	137_smiling	1.0	dominance	111.2910589700532	1.2416607327045313
15.0	81.19925647123864	pulse	0.0	t		21.0	male	black	2.969757262236371	smiling	137	sub-09	2.0	4.0	137_smiling	1.0	dominance	111.47451907737468	
15.0	81.89923694123263	pulse	0.0	t		21.0	male	black	2.969757262236371	smiling	137	sub-09	2.0	4.0	137_smiling	1.0	dominance	112.17449954736867	
15.0	82.25745709662169	fix	1.0		177	21.0	male	black	2.969757262236371	smiling	137	sub-09	2.0	4.0	137_smiling	1.0	dominance	112.53271970275773	1.5083256083657943
15.0	82.59922284461345	pulse	1.0	t		21.0	male	black	2.969757262236371	smiling	137	sub-09	2.0	4.0	137_smiling	1.0	dominance	112.87448545074949	
15.0	83.29920452202668	pulse	1.0	t		21.0	male	black	2.969757262236371	smiling	137	sub-09	2.0	4.0	137_smiling	1.0	dominance	113.57446712816272	
15.0	83.76578270498749	rating	2.0		293	21.0	male	black	2.969757262236371	smiling	137	sub-09	2.0	4.0	137_smiling	1.0	dominance	114.04104531112353	2.491592287126423
15.0	83.99920189588966	pulse	2.0	t		21.0	male	black	2.969757262236371	smiling	137	sub-09	2.0	4.0	137_smiling	1.0	dominance	114.2744645020257	
15.0	84.69916878241747	pulse	2.0	t		21.0	male	black	2.969757262236371	smiling	137	sub-09	2.0	4.0	137_smiling	1.0	dominance	114.97443138855351	
15.0	85.12721550108972	response	2.0	y		21.0	male	black	2.969757262236371	smiling	137	sub-09	2.0	4.0	137_smiling	1.0	dominance	115.40247810722576	
15.0	85.39915800620065	pulse	2.0	t		21.0	male	black	2.969757262236371	smiling	137	sub-09	2.0	4.0	137_smiling	1.0	dominance	115.67442061233669	
15.0	86.09914753183875	pulse	2.0	t		21.0	male	black	2.969757262236371	smiling	137	sub-09	2.0	4.0	137_smiling	1.0	dominance	116.37441013797479	
15.0	86.25737499211391	fix	3.0		444	21.0	male	black	2.969757262236371	smiling	137	sub-09	2.0	4.0	137_smiling	1.0	dominance	116.53263759824995	3.766569640470152
15.0	86.79914067973459	pulse	3.0	t		21.0	male	black	2.969757262236371	smiling	137	sub-09	2.0	4.0	137_smiling	1.0	dominance	117.07440328587063	
15.0	87.49910454771452	pulse	3.0	t		21.0	male	black	2.969757262236371	smiling	137	sub-09	2.0	4.0	137_smiling	1.0	dominance	117.77436715385056	
15.0	88.1990937714977	pulse	3.0	t		21.0	male	black	2.969757262236371	smiling	137	sub-09	2.0	4.0	137_smiling	1.0	dominance	118.47435637763374	
15.0	88.89909205092545	pulse	3.0	t		21.0	male	black	2.969757262236371	smiling	137	sub-09	2.0	4.0	137_smiling	1.0	dominance	119.17435465706149	
15.0	89.599074633903	pulse	3.0	t		21.0	male	black	2.969757262236371	smiling	137	sub-09	2.0	4.0	137_smiling	1.0	dominance	119.87433724003904	
16.0	90.02394463258406	face	0.0		145	19.0	male	white	3.2522881018702745	smiling	018	sub-09	2.0	4.0	018_smiling	0.0		120.2992072387201	1.2333090138972693
16.0	90.29906687623452	pulse	0.0	t		19.0	male	white	3.2522881018702745	smiling	018	sub-09	2.0	4.0	018_smiling	0.0		120.57432948237056	
16.0	90.99903255534264	pulse	0.0	t		19.0	male	white	3.2522881018702745	smiling	018	sub-09	2.0	4.0	018_smiling	0.0		121.27429516147868	
16.0	91.25725364648133	fix	1.0		444	19.0	male	white	3.2522881018702745	smiling	018	sub-09	2.0	4.0	018_smiling	0.0		121.53251625261737	3.758235127387252
16.0	91.69902811807697	pulse	1.0	t		19.0	male	white	3.2522881018702745	smiling	018	sub-09	2.0	4.0	018_smiling	0.0		121.974290724213	
16.0	92.39901221032869	pulse	1.0	t		19.0	male	white	3.2522881018702745	smiling	018	sub-09	2.0	4.0	018_smiling	0.0		122.67427481646473	
16.0	93.09898905806494	pulse	1.0	t		19.0	male	white	3.2522881018702745	smiling	018	sub-09	2.0	4.0	018_smiling	0.0		123.37425166420098	
16.0	93.7989924690246	pulse	1.0	t		19.0	male	white	3.2522881018702745	smiling	018	sub-09	2.0	4.0	018_smiling	0.0		124.07425507516064	
16.0	94.4989744482923	pulse	1.0	t		19.0	male	white	3.2522881018702745	smiling	018	sub-09	2.0	4.0	018_smiling	0.0		124.77423705442834	
17.0	95.01548877386858	face	0.0		146	24.0	female	black	3.0955033824114606	smiling	099	sub-09	2.0	4.0	099_smiling	0.0		125.29075138000462	1.2416776365735132
17.0	95.19897936852567	pulse	0.0	t		24.0	female	black	3.0955033824114606	smiling	099	sub-09	2.0	4.0	099_smiling	0.0		125.47424197466171	
17.0	95.89894504763424	pulse	0.0	t		24.0	female	black	3.0955033824114606	smiling	099	sub-09	2.0	4.0	099_smiling	0.0		126.17420765377028	
17.0	96.2571664104421	fix	1.0		444	24.0	female	black	3.0955033824114606	smiling	099	sub-09	2.0	4.0	099_smiling	0.0		126.53242901657813	3.7665756775659247
17.0	96.59893547883667	pulse	1.0	t		24.0	female	black	3.0955033824114606	smiling	099	sub-09	2.0	4.0	099_smiling	0.0		126.8741980849727	
17.0	97.29890478020297	pulse	1.0	t		24.0	female	black	3.0955033824114606	smiling	099	sub-09	2.0	4.0	099_smiling	0.0		127.57416738633901	
17.0	97.99888826874485	pulse	1.0	t		24.0	female	black	3.0955033824114606	smiling	099	sub-09	2.0	4.0	099_smiling	0.0		128.2741508748809	
17.0	98.69888352962471	pulse	1.0	t		24.0	female	black	3.0955033824114606	smiling	099	sub-09	2.0	4.0	099_smiling	0.0		128.97414613576075	
17.0	99.39886943300507	pulse	1.0	t		24.0	female	black	3.0955033824114606	smiling	099	sub-09	2.0	4.0	099_smiling	0.0		129.6741320391411	
18.0	100.02374208800802	face	0.0		145	31.0	female	white	2.1822522881018704	neutral	102	sub-09	2.0	4.0	102_neutral	0.0		130.29900469414406	1.2333210880901788
18.0	100.09886590130372	pulse	0.0	t		31.0	female	white	2.1822522881018704	neutral	102	sub-09	2.0	4.0	102_neutral	0.0		130.37412850743976	
18.0	100.79884425831415	pulse	0.0	t		31.0	female	white	2.1822522881018704	neutral	102	sub-09	2.0	4.0	102_neutral	0.0		131.0741068644502	
18.0	101.2570631760982	fix	1.0		444	31.0	female	white	2.1822522881018704	neutral	102	sub-09	2.0	4.0	102_neutral	0.0		131.53232578223424	3.7665720553081883
18.0	101.49883740620999	pulse	1.0	t		31.0	female	white	2.1822522881018704	neutral	102	sub-09	2.0	4.0	102_neutral	0.0		131.77410001234603	
18.0	102.19880791499509	pulse	1.0	t		31.0	female	white	2.1822522881018704	neutral	102	sub-09	2.0	4.0	102_neutral	0.0		132.47407052113113	
18.0	102.89879834619796	pulse	1.0	t		31.0	female	white	2.1822522881018704	neutral	102	sub-09	2.0	4.0	102_neutral	0.0		133.174060952334	
18.0	103.59878213659476	pulse	1.0	t		31.0	female	white	2.1822522881018704	neutral	102	sub-09	2.0	4.0	102_neutral	0.0		133.8740447427308	
18.0	104.29876803997513	pulse	1.0	t		31.0	female	white	2.1822522881018704	neutral	102	sub-09	2.0	4.0	102_neutral	0.0		134.57403064611117	
18.0	104.9988058623826	pulse	1.0	t		31.0	female	white	2.1822522881018704	neutral	102	sub-09	2.0	4.0	102_neutral	0.0		135.27406846851864	
19.0	105.02363523140639	face	0.0		146	37.0	male	white	3.898925586947871	neutral	101	sub-09	2.0	4.0	101_neutral	1.0	attractiveness	135.29889783754243	1.2333247103479152
19.0	105.698751015364	pulse	0.0	t		37.0	male	white	3.898925586947871	neutral	101	sub-09	2.0	4.0	101_neutral	1.0	attractiveness	135.97401362150003	
19.0	106.2569599417543	fix	1.0		177	37.0	male	white	3.898925586947871	neutral	101	sub-09	2.0	4.0	101_neutral	1.0	attractiveness	136.53222254789034	1.4999539671416642
19.0	106.39872333527819	pulse	1.0	t		37.0	male	white	3.898925586947871	neutral	101	sub-09	2.0	4.0	101_neutral	1.0	attractiveness	136.67398594141423	
19.0	107.09871618131956	pulse	1.0	t		37.0	male	white	3.898925586947871	neutral	101	sub-09	2.0	4.0	101_neutral	1.0	attractiveness	137.3739787874556	
19.0	107.75691390889597	rating	2.0		294	37.0	male	white	3.898925586947871	neutral	101	sub-09	2.0	4.0	101_neutral	1.0	attractiveness	138.032176515032	2.499946722626646
19.0	107.79871446074685	pulse	2.0	t		37.0	male	white	3.898925586947871	neutral	101	sub-09	2.0	4.0	101_neutral	1.0	attractiveness	138.0739770668829	
19.0	108.49868647880612	pulse	2.0	t		37.0	male	white	3.898925586947871	neutral	101	sub-09	2.0	4.0	101_neutral	1.0	attractiveness	138.77394908494216	
19.0	109.02675339156531	response	2.0	b		37.0	male	white	3.898925586947871	neutral	101	sub-09	2.0	4.0	101_neutral	1.0	attractiveness	139.30201599770135	
19.0	109.19866996734845	pulse	2.0	t		37.0	male	white	3.898925586947871	neutral	101	sub-09	2.0	4.0	101_neutral	1.0	attractiveness	139.4739325734845	
19.0	109.89865405960018	pulse	2.0	t		37.0	male	white	3.898925586947871	neutral	101	sub-09	2.0	4.0	101_neutral	1.0	attractiveness	140.17391666573621	
19.0	110.25686063152261	fix	3.0		444	37.0	male	white	3.898925586947871	neutral	101	sub-09	2.0	4.0	101_neutral	1.0	attractiveness	140.53212323765865	3.7665717534532632
19.0	110.59863784999698	pulse	3.0	t		37.0	male	white	3.898925586947871	neutral	101	sub-09	2.0	4.0	101_neutral	1.0	attractiveness	140.87390045613301	
19.0	111.29861137733042	pulse	3.0	t		37.0	male	white	3.898925586947871	neutral	101	sub-09	2.0	4.0	101_neutral	1.0	attractiveness	141.57387398346646	
19.0	111.99861478828961	pulse	3.0	t		37.0	male	white	3.898925586947871	neutral	101	sub-09	2.0	4.0	101_neutral	1.0	attractiveness	142.27387739442565	
19.0	112.69859193788079	pulse	3.0	t		37.0	male	white	3.898925586947871	neutral	101	sub-09	2.0	4.0	101_neutral	1.0	attractiveness	142.97385454401683	
19.0	113.3985814635189	pulse	3.0	t		37.0	male	white	3.898925586947871	neutral	101	sub-09	2.0	4.0	101_neutral	1.0	attractiveness	143.67384406965493	
20.0	114.02343238497588	face	0.0		145	28.0	male	white	3.9076800636689217	smiling	033	sub-09	2.0	4.0	033_smiling	0.0		144.29869499111192	1.2333256159122357
20.0	114.09859453383206	pulse	0.0	t		28.0	male	white	3.9076800636689217	smiling	033	sub-09	2.0	4.0	033_smiling	0.0		144.3738571399681	
20.0	114.79854783689325	pulse	0.0	t		28.0	male	white	3.9076800636689217	smiling	033	sub-09	2.0	4.0	033_smiling	0.0		145.0738104430293	
20.0	115.25675800088811	fix	1.0		1185	28.0	male	white	3.9076800636689217	smiling	033	sub-09	2.0	4.0	033_smiling	0.0		145.53202060702415	10.016459237073832
20.0	115.49855034228813	pulse	1.0	t		28.0	male	white	3.9076800636689217	smiling	033	sub-09	2.0	4.0	033_smiling	0.0		145.77381294842417	
20.0	116.19852507704081	pulse	1.0	t		28.0	male	white	3.9076800636689217	smiling	033	sub-09	2.0	4.0	033_smiling	0.0		146.47378768317685	
20.0	116.89850132106767	pulse	1.0	t		28.0	male	white	3.9076800636689217	smiling	033	sub-09	2.0	4.0	033_smiling	0.0		147.1737639272037	
20.0	117.5985032227527	pulse	1.0	t		28.0	male	white	3.9076800636689217	smiling	033	sub-09	2.0	4.0	033_smiling	0.0		147.87376582888874	
20.0	118.29848308903729	pulse	1.0	t		28.0	male	white	3.9076800636689217	smiling	033	sub-09	2.0	4.0	033_smiling	0.0		148.57374569517333	
20.0	118.99846838870826	pulse	1.0	t		28.0	male	white	3.9076800636689217	smiling	033	sub-09	2.0	4.0	033_smiling	0.0		149.2737309948443	
20.0	119.698459725475	pulse	1.0	t		28.0	male	white	3.9076800636689217	smiling	033	sub-09	2.0	4.0	033_smiling	0.0		149.97372233161104	
20.0	120.3984435158718	pulse	1.0	t		28.0	male	white	3.9076800636689217	smiling	033	sub-09	2.0	4.0	033_smiling	0.0		150.67370612200784	
20.0	121.09842277844655	pulse	1.0	t		28.0	male	white	3.9076800636689217	smiling	033	sub-09	2.0	4.0	033_smiling	0.0		151.3736853845826	
20.0	121.79840355029546	pulse	1.0	t		28.0	male	white	3.9076800636689217	smiling	033	sub-09	2.0	4.0	033_smiling	0.0		152.0736661564315	
20.0	122.49852740132292	pulse	1.0	t		28.0	male	white	3.9076800636689217	smiling	033	sub-09	2.0	4.0	033_smiling	0.0		152.77379000745896	
20.0	123.19837596076604	pulse	1.0	t		28.0	male	white	3.9076800636689217	smiling	033	sub-09	2.0	4.0	033_smiling	0.0		153.47363856690208	
20.0	123.89836005301777	pulse	1.0	t		28.0	male	white	3.9076800636689217	smiling	033	sub-09	2.0	4.0	033_smiling	0.0		154.1736226591538	
20.0	124.59835591760702	pulse	1.0	t		28.0	male	white	3.9076800636689217	smiling	033	sub-09	2.0	4.0	033_smiling	0.0		154.87361852374306	
21.0	125.27321723796194	face	0.0		145	31.0	male	west_asian	1.9538400318344609	neutral	070	sub-09	2.0	4.0	070_neutral	0.0		155.54847984409798	1.2333093157526491
21.0	125.29835027292211	pulse	0.0	t		31.0	male	west_asian	1.9538400318344609	neutral	070	sub-09	2.0	4.0	070_neutral	0.0		155.57361287905815	
21.0	125.99831836686872	pulse	0.0	t		31.0	male	west_asian	1.9538400318344609	neutral	070	sub-09	2.0	4.0	070_neutral	0.0		156.27358097300475	
21.0	126.5065265537146	fix	1.0		443	31.0	male	west_asian	1.9538400318344609	neutral	070	sub-09	2.0	4.0	070_neutral	0.0		156.78178915985063	3.7665856387748136
21.0	126.69830276097537	pulse	1.0	t		31.0	male	west_asian	1.9538400318344609	neutral	070	sub-09	2.0	4.0	070_neutral	0.0		156.9735653671114	
21.0	127.39828836250126	pulse	1.0	t		31.0	male	west_asian	1.9538400318344609	neutral	070	sub-09	2.0	4.0	070_neutral	0.0		157.6735509686373	
21.0	128.098279699268	pulse	1.0	t		31.0	male	west_asian	1.9538400318344609	neutral	070	sub-09	2.0	4.0	070_neutral	0.0		158.37354230540404	
21.0	128.79827284716384	pulse	1.0	t		31.0	male	west_asian	1.9538400318344609	neutral	070	sub-09	2.0	4.0	070_neutral	0.0		159.07353545329988	
21.0	129.49824486522357	pulse	1.0	t		31.0	male	west_asian	1.9538400318344609	neutral	070	sub-09	2.0	4.0	070_neutral	0.0		159.7735074713596	
21.0	130.19824254094146	pulse	1.0	t		31.0	male	west_asian	1.9538400318344609	neutral	070	sub-09	2.0	4.0	070_neutral	0.0		160.4735051470775	
22.0	130.2731121924894	face	0.0		146	23.0	male	white	2.6275368085953046	smiling	141	sub-09	2.0	4.0	141_smiling	0.0		160.54837479862545	1.2333268233310264
22.0	130.89822965174108	pulse	0.0	t		23.0	male	white	2.6275368085953046	smiling	141	sub-09	2.0	4.0	141_smiling	0.0		161.17349225787711	
22.0	131.50643901582043	fix	1.0		443	23.0	male	white	2.6275368085953046	smiling	141	sub-09	2.0	4.0	141_smiling	0.0		161.78170162195647	3.7665530384556405
22.0	131.5982137439928	pulse	1.0	t		23.0	male	white	2.6275368085953046	smiling	141	sub-09	2.0	4.0	141_smiling	0.0		161.87347635012884	
22.0	132.29819149729337	pulse	1.0	t		23.0	male	white	2.6275368085953046	smiling	141	sub-09	2.0	4.0	141_smiling	0.0		162.5734541034294	
22.0	132.99817589140002	pulse	1.0	t		23.0	male	white	2.6275368085953046	smiling	141	sub-09	2.0	4.0	141_smiling	0.0		163.27343849753606	
22.0	133.69816300219964	pulse	1.0	t		23.0	male	white	2.6275368085953046	smiling	141	sub-09	2.0	4.0	141_smiling	0.0		163.97342560833567	
22.0	134.39814347219362	pulse	1.0	t		23.0	male	white	2.6275368085953046	smiling	141	sub-09	2.0	4.0	141_smiling	0.0		164.67340607832966	
22.0	135.09812605517118	pulse	1.0	t		23.0	male	white	2.6275368085953046	smiling	141	sub-09	2.0	4.0	141_smiling	0.0		165.37338866130722	
23.0	135.27299205427607	face	0.0		146	21.0	male	black	2.969757262236371	neutral	137	sub-09	2.0	4.0	137_neutral	0.0		165.5482546604121	1.241676731008738
23.0	135.79812795685666	pulse	0.0	t		21.0	male	black	2.969757262236371	neutral	137	sub-09	2.0	4.0	137_neutral	0.0		166.0733905629927	
23.0	136.498087598869	pulse	0.0	t		21.0	male	black	2.969757262236371	neutral	137	sub-09	2.0	4.0	137_neutral	0.0		166.77335020500504	
23.0	136.5146687852848	fix	1.0		444	21.0	male	black	2.969757262236371	neutral	137	sub-09	2.0	4.0	137_neutral	0.0		166.78993139142085	3.7582366366614224
23.0	137.1980852745869	pulse	1.0	t		21.0	male	black	2.969757262236371	neutral	137	sub-09	2.0	4.0	137_neutral	0.0		167.47334788072294	
23.0	137.89807661135364	pulse	1.0	t		21.0	male	black	2.969757262236371	neutral	137	sub-09	2.0	4.0	137_neutral	0.0		168.17333921748968	
23.0	138.59805949618612	pulse	1.0	t		21.0	male	black	2.969757262236371	neutral	137	sub-09	2.0	4.0	137_neutral	0.0		168.87332210232216	
23.0	139.29804389029277	pulse	1.0	t		21.0	male	black	2.969757262236371	neutral	137	sub-09	2.0	4.0	137_neutral	0.0		169.5733064964288	
23.0	139.99804398084916	pulse	1.0	t		21.0	male	black	2.969757262236371	neutral	137	sub-09	2.0	4.0	137_neutral	0.0		170.2733065869852	
24.0	140.27290542194623	face	0.0		145	31.0	female	west_asian	2.364902506963788	neutral	006	sub-09	2.0	4.0	006_neutral	0.0		170.54816802808227	1.2333280307507266
24.0	140.69802716753657	pulse	0.0	t		31.0	female	west_asian	2.364902506963788	neutral	006	sub-09	2.0	4.0	006_neutral	0.0		170.9732897736726	
24.0	141.39799918559584	pulse	0.0	t		31.0	female	west_asian	2.364902506963788	neutral	006	sub-09	2.0	4.0	006_neutral	0.0		171.67326179173187	
24.0	141.50623345269696	fix	1.0		444	31.0	female	west_asian	2.364902506963788	neutral	006	sub-09	2.0	4.0	006_neutral	0.0		171.781496058833	3.7665699423246224
24.0	142.09799444647524	pulse	1.0	t		31.0	female	west_asian	2.364902506963788	neutral	006	sub-09	2.0	4.0	006_neutral	0.0		172.37325705261128	
24.0	142.79796404969602	pulse	1.0	t		31.0	female	west_asian	2.364902506963788	neutral	006	sub-09	2.0	4.0	006_neutral	0.0		173.07322665583206	
24.0	143.4979502549313	pulse	1.0	t		31.0	female	west_asian	2.364902506963788	neutral	006	sub-09	2.0	4.0	006_neutral	0.0		173.77321286106735	
24.0	144.19794551581117	pulse	1.0	t		31.0	female	west_asian	2.364902506963788	neutral	006	sub-09	2.0	4.0	006_neutral	0.0		174.4732081219472	
24.0	144.8979302117723	pulse	1.0	t		31.0	female	west_asian	2.364902506963788	neutral	006	sub-09	2.0	4.0	006_neutral	0.0		175.17319281790833	
25.0	145.27280339502158	face	0.0		145	20.0	male	black	2.609629924393156	smiling	043	sub-09	2.0	4.0	043_smiling	1.0	dominance	175.54806600115762	1.2333247103474605
25.0	145.59792456708738	pulse	0.0	t		20.0	male	black	2.609629924393156	smiling	043	sub-09	2.0	4.0	043_smiling	1.0	dominance	175.8731871732234	
25.0	146.29790443337197	pulse	0.0	t		20.0	male	black	2.609629924393156	smiling	043	sub-09	2.0	4.0	043_smiling	1.0	dominance	176.573167039508	
25.0	146.50612810536904	fix	1.0		177	20.0	male	black	2.609629924393156	smiling	043	sub-09	2.0	4.0	043_smiling	1.0	dominance	176.78139071150508	1.4999693617369303
25.0	146.99789426086454	pulse	1.0	t		20.0	male	black	2.609629924393156	smiling	043	sub-09	2.0	4.0	043_smiling	1.0	dominance	177.27315686700058	
25.0	147.6978762401327	pulse	1.0	t		20.0	male	black	2.609629924393156	smiling	043	sub-09	2.0	4.0	043_smiling	1.0	dominance	177.97313884626874	
25.0	148.00609746710597	rating	2.0		295	20.0	male	black	2.609629924393156	smiling	043	sub-09	2.0	4.0	043_smiling	1.0	dominance	178.281360073242	2.508282744983262
25.0	148.39787029359286	pulse	2.0	t		20.0	male	black	2.609629924393156	smiling	043	sub-09	2.0	4.0	043_smiling	1.0	dominance	178.6731328997289	
25.0	149.09784231165258	pulse	2.0	t		20.0	male	black	2.609629924393156	smiling	043	sub-09	2.0	4.0	043_smiling	1.0	dominance	179.37310491778862	
25.0	149.3843318036338	response	2.0	e		20.0	male	black	2.609629924393156	smiling	043	sub-09	2.0	4.0	043_smiling	1.0	dominance	179.65959440976985	
25.0	149.79783304470993	pulse	2.0	t		20.0	male	black	2.609629924393156	smiling	043	sub-09	2.0	4.0	043_smiling	1.0	dominance	180.07309565084597	
25.0	150.49781502397764	pulse	2.0	t		20.0	male	black	2.609629924393156	smiling	043	sub-09	2.0	4.0	043_smiling	1.0	dominance	180.77307763011368	
25.0	150.51438021208924	fix	3.0		443	20.0	male	black	2.609629924393156	smiling	043	sub-09	2.0	4.0	043_smiling	1.0	dominance	180.78964281822527	3.758238145935138
25.0	151.19780485147066	pulse	3.0	t		20.0	male	black	2.609629924393156	smiling	043	sub-09	2.0	4.0	043_smiling	1.0	dominance	181.4730674576067	
25.0	151.8977916604158	pulse	3.0	t		20.0	male	black	2.609629924393156	smiling	043	sub-09	2.0	4.0	043_smiling	1.0	dominance	182.17305426655184	
25.0	152.59777182855487	pulse	3.0	t		20.0	male	black	2.609629924393156	smiling	043	sub-09	2.0	4.0	043_smiling	1.0	dominance	182.8730344346909	
25.0	153.29775320411318	pulse	3.0	t		20.0	male	black	2.609629924393156	smiling	043	sub-09	2.0	4.0	043_smiling	1.0	dominance	183.57301581024922	
25.0	153.99774423902545	pulse	3.0	t		20.0	male	black	2.609629924393156	smiling	043	sub-09	2.0	4.0	043_smiling	1.0	dominance	184.2730068451615	
26.0	154.27261835802437	face	0.0		145	40.0	male	white	1.868682849184242	neutral	172	sub-09	2.0	4.0	172_neutral	0.0		184.5478809641604	1.2333084101883287
26.0	154.69772712385793	pulse	0.0	t		40.0	male	white	1.868682849184242	neutral	172	sub-09	2.0	4.0	172_neutral	0.0		184.97298972999397	
26.0	155.39771031054534	pulse	0.0	t		40.0	male	white	1.868682849184242	neutral	172	sub-09	2.0	4.0	172_neutral	0.0		185.67297291668137	
26.0	155.5059267682127	fix	1.0		444	40.0	male	white	1.868682849184242	neutral	172	sub-09	2.0	4.0	172_neutral	0.0		185.78118937434874	3.766586544339134
26.0	156.0976956102163	pulse	1.0	t		40.0	male	white	1.868682849184242	neutral	172	sub-09	2.0	4.0	172_neutral	0.0		186.37295821635234	
26.0	156.79768392843516	pulse	1.0	t		40.0	male	white	1.868682849184242	neutral	172	sub-09	2.0	4.0	172_neutral	0.0		187.0729465345712	
26.0	157.49767103923477	pulse	1.0	t		40.0	male	white	1.868682849184242	neutral	172	sub-09	2.0	4.0	172_neutral	0.0		187.7729336453708	
26.0	158.1976557351959	pulse	1.0	t		40.0	male	white	1.868682849184242	neutral	172	sub-09	2.0	4.0	172_neutral	0.0		188.47291834133193	
26.0	158.89764163857672	pulse	1.0	t		40.0	male	white	1.868682849184242	neutral	172	sub-09	2.0	4.0	172_neutral	0.0		189.17290424471275	
27.0	159.27251331255184	face	0.0		145	24.0	female	black	3.0955033824114606	neutral	099	sub-09	2.0	4.0	099_neutral	0.0		189.54777591868788	1.233308410187874
27.0	159.5976341827627	pulse	0.0	t		24.0	female	black	3.0955033824114606	neutral	099	sub-09	2.0	4.0	099_neutral	0.0		189.87289678889874	
27.0	160.29760710638675	pulse	0.0	t		24.0	female	black	3.0955033824114606	neutral	099	sub-09	2.0	4.0	099_neutral	0.0		190.5728697125228	
27.0	160.5058217227397	fix	1.0		444	24.0	female	black	3.0955033824114606	neutral	099	sub-09	2.0	4.0	099_neutral	0.0		190.78108432887575	3.7665877517583795
27.0	160.9976059895239	pulse	1.0	t		24.0	female	black	3.0955033824114606	neutral	099	sub-09	2.0	4.0	099_neutral	0.0		191.27286859565993	
27.0	161.69757740387377	pulse	1.0	t		24.0	female	black	3.0955033824114606	neutral	099	sub-09	2.0	4.0	099_neutral	0.0		191.9728400100098	
27.0	162.39755696830298	pulse	1.0	t		24.0	female	black	3.0955033824114606	neutral	099	sub-09	2.0	4.0	099_neutral	0.0		192.67281957443902	
27.0	163.09754196611902	pulse	1.0	t		24.0	female	black	3.0955033824114606	neutral	099	sub-09	2.0	4.0	099_neutral	0.0		193.37280457225506	
27.0	163.79754205667587	pulse	1.0	t		24.0	female	black	3.0955033824114606	neutral	099	sub-09	2.0	4.0	099_neutral	0.0		194.0728046628119	
28.0	164.2724094744981	face	0.0		145	28.0	male	east_asian	1.5563072025467568	neutral	005	sub-09	2.0	4.0	005_neutral	1.0	trustworthiness	194.54767208063413	1.233310825026365
28.0	164.49753460086185	pulse	0.0	t		28.0	male	east_asian	1.5563072025467568	neutral	005	sub-09	2.0	4.0	005_neutral	1.0	trustworthiness	194.7727972069979	
28.0	165.19750631706665	pulse	0.0	t		28.0	male	east_asian	1.5563072025467568	neutral	005	sub-09	2.0	4.0	005_neutral	1.0	trustworthiness	195.4727689232027	
28.0	165.50572029952446	fix	1.0		177	28.0	male	east_asian	1.5563072025467568	neutral	005	sub-09	2.0	4.0	005_neutral	1.0	trustworthiness	195.7809829056605	1.4999708710111008
28.0	165.89749342786627	pulse	1.0	t		28.0	male	east_asian	1.5563072025467568	neutral	005	sub-09	2.0	4.0	005_neutral	1.0	trustworthiness	196.1727560340023	
28.0	166.59747480342457	pulse	1.0	t		28.0	male	east_asian	1.5563072025467568	neutral	005	sub-09	2.0	4.0	005_neutral	1.0	trustworthiness	196.8727374095606	
28.0	167.00569117053556	rating	2.0		294	28.0	male	east_asian	1.5563072025467568	neutral	005	sub-09	2.0	4.0	005_neutral	1.0	trustworthiness	197.2809537766716	2.499961815366987
28.0	167.29746583833685	pulse	2.0	t		28.0	male	east_asian	1.5563072025467568	neutral	005	sub-09	2.0	4.0	005_neutral	1.0	trustworthiness	197.5727284444729	
28.0	167.99744419534727	pulse	2.0	t		28.0	male	east_asian	1.5563072025467568	neutral	005	sub-09	2.0	4.0	005_neutral	1.0	trustworthiness	198.2727068014833	
28.0	168.4172695964894	response	2.0	e		28.0	male	east_asian	1.5563072025467568	neutral	005	sub-09	2.0	4.0	005_neutral	1.0	trustworthiness	198.69253220262544	
28.0	168.69741953380935	pulse	2.0	t		28.0	male	east_asian	1.5563072025467568	neutral	005	sub-09	2.0	4.0	005_neutral	1.0	trustworthiness	198.9726821399454	
28.0	169.3974259633169	pulse	2.0	t		28.0	male	east_asian	1.5563072025467568	neutral	005	sub-09	2.0	4.0	005_neutral	1.0	trustworthiness	199.67268856945293	
28.0	169.50565298590254	fix	3.0		444	28.0	male	east_asian	1.5563072025467568	neutral	005	sub-09	2.0	4.0	005_neutral	1.0	trustworthiness	199.78091559203858	3.766570847888943
28.0	170.0974079425846	pulse	3.0	t		28.0	male	east_asian	1.5563072025467568	neutral	005	sub-09	2.0	4.0	005_neutral	1.0	trustworthiness	200.37267054872063	
28.0	170.79738931814336	pulse	3.0	t		28.0	male	east_asian	1.5563072025467568	neutral	005	sub-09	2.0	4.0	005_neutral	1.0	trustworthiness	201.0726519242794	
28.0	171.49736978813735	pulse	3.0	t		28.0	male	east_asian	1.5563072025467568	neutral	005	sub-09	2.0	4.0	005_neutral	1.0	trustworthiness	201.7726323942734	
28.0	172.19736836941956	pulse	3.0	t		28.0	male	east_asian	1.5563072025467568	neutral	005	sub-09	2.0	4.0	005_neutral	1.0	trustworthiness	202.4726309755556	
28.0	172.89734974497787	pulse	3.0	t		28.0	male	east_asian	1.5563072025467568	neutral	005	sub-09	2.0	4.0	005_neutral	1.0	trustworthiness	203.1726123511139	
29.0	173.2722238337915	face	0.0		145	24.0	female	east_asian	4.409868682849185	smiling	030	sub-09	2.0	4.0	030_smiling	0.0		203.54748643992752	1.233308712042799
29.0	173.59733474279392	pulse	0.0	t		24.0	female	east_asian	4.409868682849185	smiling	030	sub-09	2.0	4.0	030_smiling	0.0		203.87259734892996	
29.0	174.2973227591583	pulse	0.0	t		24.0	female	east_asian	4.409868682849185	smiling	030	sub-09	2.0	4.0	030_smiling	0.0		204.57258536529434	
29.0	174.50553254583428	fix	1.0		444	24.0	female	east_asian	4.409868682849185	smiling	030	sub-09	2.0	4.0	030_smiling	0.0		204.78079515197032	3.76658926103255
29.0	174.99730836068375	pulse	1.0	t		24.0	female	east_asian	4.409868682849185	smiling	030	sub-09	2.0	4.0	030_smiling	0.0		205.27257096681979	
29.0	175.69728852882326	pulse	1.0	t		24.0	female	east_asian	4.409868682849185	smiling	030	sub-09	2.0	4.0	030_smiling	0.0		205.9725511349593	
29.0	176.39726537655952	pulse	1.0	t		24.0	female	east_asian	4.409868682849185	smiling	030	sub-09	2.0	4.0	030_smiling	0.0		206.67252798269556	
29.0	177.09726637268022	pulse	1.0	t		24.0	female	east_asian	4.409868682849185	smiling	030	sub-09	2.0	4.0	030_smiling	0.0		207.37252897881626	
29.0	177.79724623896436	pulse	1.0	t		24.0	female	east_asian	4.409868682849185	smiling	030	sub-09	2.0	4.0	030_smiling	0.0		208.0725088451004	
30.0	178.27212180686683	face	0.0		145	20.0	female	white	3.9502586549940313	smiling	091	sub-09	2.0	4.0	091_smiling	0.0		208.54738441300287	1.2333274270408765
30.0	178.49723516089307	pulse	0.0	t		20.0	female	white	3.9502586549940313	smiling	091	sub-09	2.0	4.0	091_smiling	0.0		208.7724977670291	
30.0	179.19722468653117	pulse	0.0	t		20.0	female	white	3.9502586549940313	smiling	091	sub-09	2.0	4.0	091_smiling	0.0		209.4724872926672	
30.0	179.5054492339077	fix	1.0		444	20.0	female	white	3.9502586549940313	smiling	091	sub-09	2.0	4.0	091_smiling	0.0		209.78071184004375	3.7582191290825904
30.0	179.89720364725144	pulse	1.0	t		20.0	female	white	3.9502586549940313	smiling	091	sub-09	2.0	4.0	091_smiling	0.0		210.17246625338748	
30.0	180.59719951184024	pulse	1.0	t		20.0	female	white	3.9502586549940313	smiling	091	sub-09	2.0	4.0	091_smiling	0.0		210.87246211797628	
30.0	181.29716971877087	pulse	1.0	t		20.0	female	white	3.9502586549940313	smiling	091	sub-09	2.0	4.0	091_smiling	0.0		211.5724323249069	
30.0	181.99718792061594	pulse	1.0	t		20.0	female	white	3.9502586549940313	smiling	091	sub-09	2.0	4.0	091_smiling	0.0		212.27245052675198	
30.0	182.69714394037055	pulse	1.0	t		20.0	female	white	3.9502586549940313	smiling	091	sub-09	2.0	4.0	091_smiling	0.0		212.9724065465066	
31.0	183.2636683629903	face	0.0		146	25.0	female	west_asian	2.6756864305610826	smiling	064	sub-09	2.0	4.0	064_smiling	0.0		213.53893096912634	1.2416752217345675
31.0	183.39713074931524	pulse	0.0	t		25.0	female	west_asian	2.6756864305610826	smiling	064	sub-09	2.0	4.0	064_smiling	0.0		213.67239335545128	
31.0	184.09712691575942	pulse	0.0	t		25.0	female	west_asian	2.6756864305610826	smiling	064	sub-09	2.0	4.0	064_smiling	0.0		214.37238952189546	
31.0	184.50534358472487	fix	1.0		444	25.0	female	west_asian	2.6756864305610826	smiling	064	sub-09	2.0	4.0	064_smiling	0.0		214.7806061908609	3.758333230199696
31.0	184.79711342284918	pulse	1.0	t		25.0	female	west_asian	2.6756864305610826	smiling	064	sub-09	2.0	4.0	064_smiling	0.0		215.07237602898522	
31.0	185.4970951002624	pulse	1.0	t		25.0	female	west_asian	2.6756864305610826	smiling	064	sub-09	2.0	4.0	064_smiling	0.0		215.77235770639845	
31.0	186.19707707953057	pulse	1.0	t		25.0	female	west_asian	2.6756864305610826	smiling	064	sub-09	2.0	4.0	064_smiling	0.0		216.4723396856666	
31.0	186.89706056807245	pulse	1.0	t		25.0	female	west_asian	2.6756864305610826	smiling	064	sub-09	2.0	4.0	064_smiling	0.0		217.1723231742085	
31.0	187.59703137871293	pulse	1.0	t		25.0	female	west_asian	2.6756864305610826	smiling	064	sub-09	2.0	4.0	064_smiling	0.0		217.87229398484897	
32.0	188.26367681492457	face	0.0		146	32.0	male	white	2.389176283326701	neutral	092	sub-09	2.0	4.0	092_neutral	0.0		218.5389394210606	1.241547537151746
32.0	188.2970559195087	pulse	0.0	t		32.0	male	white	2.389176283326701	neutral	092	sub-09	2.0	4.0	092_neutral	0.0		218.57231852564473	
32.0	188.99702673014872	pulse	0.0	t		32.0	male	white	2.389176283326701	neutral	092	sub-09	2.0	4.0	092_neutral	0.0		219.27228933628476	
32.0	189.5052243520763	fix	1.0		443	32.0	male	white	2.389176283326701	neutral	092	sub-09	2.0	4.0	092_neutral	0.0		219.78048695821235	3.7665877517579247
32.0	189.69700176675633	pulse	1.0	t		32.0	male	white	2.389176283326701	neutral	092	sub-09	2.0	4.0	092_neutral	0.0		219.97226437289237	
32.0	190.39698314231464	pulse	1.0	t		32.0	male	white	2.389176283326701	neutral	092	sub-09	2.0	4.0	092_neutral	0.0		220.67224574845068	
32.0	191.09697749762972	pulse	1.0	t		32.0	male	white	2.389176283326701	neutral	092	sub-09	2.0	4.0	092_neutral	0.0		221.37224010376576	
32.0	191.7969634010101	pulse	1.0	t		32.0	male	white	2.389176283326701	neutral	092	sub-09	2.0	4.0	092_neutral	0.0		222.07222600714613	
32.0	192.49694266358483	pulse	1.0	t		32.0	male	white	2.389176283326701	neutral	092	sub-09	2.0	4.0	092_neutral	0.0		222.77220526972087	
32.0	193.19692856696565	pulse	1.0	t		32.0	male	white	2.389176283326701	neutral	092	sub-09	2.0	4.0	092_neutral	0.0		223.4721911731017	
33.0	193.27181210383424	face	0.0		146	22.0	male	black	2.767608436132113	neutral	044	sub-09	2.0	4.0	044_neutral	0.0		223.54707470997027	1.2333253140573106
33.0	193.89692352599013	pulse	0.0	t		22.0	male	black	2.767608436132113	neutral	044	sub-09	2.0	4.0	044_neutral	0.0		224.17218613212617	
33.0	194.50513741789155	fix	1.0		443	22.0	male	black	2.767608436132113	neutral	044	sub-09	2.0	4.0	044_neutral	0.0		224.78040002402759	3.7665524347457904
33.0	194.59691335348316	pulse	1.0	t		22.0	male	black	2.767608436132113	neutral	044	sub-09	2.0	4.0	044_neutral	0.0		224.8721759596192	
33.0	195.2968932197673	pulse	1.0	t		22.0	male	black	2.767608436132113	neutral	044	sub-09	2.0	4.0	044_neutral	0.0		225.57215582590334	
33.0	195.9968758027453	pulse	1.0	t		22.0	male	black	2.767608436132113	neutral	044	sub-09	2.0	4.0	044_neutral	0.0		226.27213840888135	
33.0	196.6968481226595	pulse	1.0	t		22.0	male	black	2.767608436132113	neutral	044	sub-09	2.0	4.0	044_neutral	0.0		226.97211072879554	
33.0	197.39682889450796	pulse	1.0	t		22.0	male	black	2.767608436132113	neutral	044	sub-09	2.0	4.0	044_neutral	0.0		227.672091500644	
33.0	198.09681540159818	pulse	1.0	t		22.0	male	black	2.767608436132113	neutral	044	sub-09	2.0	4.0	044_neutral	0.0		228.37207800773422	
34.0	198.27168985263734	face	0.0		146	54.0	female	white	2.286908077994429	smiling	136	sub-09	2.0	4.0	136_smiling	0.0		228.54695245877338	1.2416764291542677
34.0	198.7968248496536	pulse	0.0	t		54.0	female	white	2.286908077994429	smiling	136	sub-09	2.0	4.0	136_smiling	0.0		229.07208745578964	
34.0	199.49679928255136	pulse	0.0	t		54.0	female	white	2.286908077994429	smiling	136	sub-09	2.0	4.0	136_smiling	0.0		229.7720618886874	
34.0	199.5133662817916	fix	1.0		443	54.0	female	white	2.286908077994429	smiling	136	sub-09	2.0	4.0	136_smiling	0.0		229.78862888792764	3.7582366366614224
34.0	200.19679393972137	pulse	1.0	t		54.0	female	white	2.286908077994429	smiling	136	sub-09	2.0	4.0	136_smiling	0.0		230.4720565458574	
34.0	200.89677169302195	pulse	1.0	t		54.0	female	white	2.286908077994429	smiling	136	sub-09	2.0	4.0	136_smiling	0.0		231.17203429915799	
34.0	201.59675970938633	pulse	1.0	t		54.0	female	white	2.286908077994429	smiling	136	sub-09	2.0	4.0	136_smiling	0.0		231.87202231552237	
34.0	202.29673836825123	pulse	1.0	t		54.0	female	white	2.286908077994429	smiling	136	sub-09	2.0	4.0	136_smiling	0.0		232.57200097438727	
34.0	202.99672668647054	pulse	1.0	t		54.0	female	white	2.286908077994429	smiling	136	sub-09	2.0	4.0	136_smiling	0.0		233.27198929260658	
35.0	203.27160291845303	face	0.0		145	24.0	male	white	3.1153999204138483	neutral	012	sub-09	2.0	4.0	012_neutral	0.0		233.54686552458907	1.233325917766706
35.0	203.69671953251145	pulse	0.0	t		24.0	male	white	3.1153999204138483	neutral	012	sub-09	2.0	4.0	012_neutral	0.0		233.9719821386475	
35.0	204.39666740218627	pulse	0.0	t		24.0	male	white	3.1153999204138483	neutral	012	sub-09	2.0	4.0	012_neutral	0.0		234.6719300083223	
35.0	204.50492883621973	fix	1.0		444	24.0	male	white	3.1153999204138483	neutral	012	sub-09	2.0	4.0	012_neutral	0.0		234.78019144235577	3.7665533403105655
35.0	205.09669435782052	pulse	1.0	t		24.0	male	white	3.1153999204138483	neutral	012	sub-09	2.0	4.0	012_neutral	0.0		235.37195696395656	
35.0	205.7966739222502	pulse	1.0	t		24.0	male	white	3.1153999204138483	neutral	012	sub-09	2.0	4.0	012_neutral	0.0		236.07193652838623	
35.0	206.49664563845454	pulse	1.0	t		24.0	male	white	3.1153999204138483	neutral	012	sub-09	2.0	4.0	012_neutral	0.0		236.77190824459058	
35.0	207.19663214554475	pulse	1.0	t		24.0	male	white	3.1153999204138483	neutral	012	sub-09	2.0	4.0	012_neutral	0.0		237.4718947516808	
35.0	207.89662740642416	pulse	1.0	t		24.0	male	white	3.1153999204138483	neutral	012	sub-09	2.0	4.0	012_neutral	0.0		238.1718900125602	
36.0	208.2714821765303	face	0.0		145	28.0	female	white	5.676880222841227	neutral	124	sub-09	2.0	4.0	124_neutral	0.0		238.54674478266634	1.233343123490613
36.0	208.5966099894017	pulse	0.0	t		28.0	female	white	5.676880222841227	neutral	124	sub-09	2.0	4.0	124_neutral	0.0		238.87187259553775	
36.0	209.29660283544308	pulse	0.0	t		28.0	female	white	5.676880222841227	neutral	124	sub-09	2.0	4.0	124_neutral	0.0		239.57186544157912	
36.0	209.5048253000209	fix	1.0		444	28.0	female	white	5.676880222841227	neutral	124	sub-09	2.0	4.0	124_neutral	0.0		239.78008790615695	3.7665557551486017
36.0	209.99658360729154	pulse	1.0	t		28.0	female	white	5.676880222841227	neutral	124	sub-09	2.0	4.0	124_neutral	0.0		240.27184621342758	
36.0	210.69655864389915	pulse	1.0	t		28.0	female	white	5.676880222841227	neutral	124	sub-09	2.0	4.0	124_neutral	0.0		240.9718212500352	
36.0	211.39655782889122	pulse	1.0	t		28.0	female	white	5.676880222841227	neutral	124	sub-09	2.0	4.0	124_neutral	0.0		241.67182043502726	
36.0	212.09654101557862	pulse	1.0	t		28.0	female	white	5.676880222841227	neutral	124	sub-09	2.0	4.0	124_neutral	0.0		242.37180362171466	
36.0	212.79651786331488	pulse	1.0	t		28.0	female	white	5.676880222841227	neutral	124	sub-09	2.0	4.0	124_neutral	0.0		243.0717804694509	
37.0	213.2713810551695	face	0.0		145	40.0	male	white	1.868682849184242	smiling	172	sub-09	2.0	4.0	172_smiling	0.0		243.54664366130555	1.2333407086525767
37.0	213.49652097241915	pulse	0.0	t		40.0	male	white	1.868682849184242	smiling	172	sub-09	2.0	4.0	172_smiling	0.0		243.7717835785552	
37.0	214.19649812201033	pulse	0.0	t		40.0	male	white	1.868682849184242	smiling	172	sub-09	2.0	4.0	172_smiling	0.0		244.47176072814636	
37.0	214.5047217638221	fix	1.0		444	40.0	male	white	1.868682849184242	smiling	172	sub-09	2.0	4.0	172_smiling	0.0		244.77998436995813	3.766536134586204
37.0	214.89649126990616	pulse	1.0	t		40.0	male	white	1.868682849184242	smiling	172	sub-09	2.0	4.0	172_smiling	0.0		245.1717538760422	
37.0	215.5964647972396	pulse	1.0	t		40.0	male	white	1.868682849184242	smiling	172	sub-09	2.0	4.0	172_smiling	0.0		245.87172740337564	
37.0	216.29645734142605	pulse	1.0	t		40.0	male	white	1.868682849184242	smiling	172	sub-09	2.0	4.0	172_smiling	0.0		246.5717199475621	
37.0	216.9964317743238	pulse	1.0	t		40.0	male	white	1.868682849184242	smiling	172	sub-09	2.0	4.0	172_smiling	0.0		247.27169438045985	
37.0	217.69641194246287	pulse	1.0	t		40.0	male	white	1.868682849184242	smiling	172	sub-09	2.0	4.0	172_smiling	0.0		247.9716745485989	
38.0	218.2712578984083	face	0.0		145	19.0	female	white	4.298846000795861	neutral	100	sub-09	2.0	4.0	100_neutral	1.0	attractiveness	248.54652050454433	1.2333597255055793
38.0	218.39642410721171	pulse	0.0	t		19.0	female	white	4.298846000795861	neutral	100	sub-09	2.0	4.0	100_neutral	1.0	attractiveness	248.67168671334775	
38.0	219.09639914381887	pulse	0.0	t		19.0	female	white	4.298846000795861	neutral	100	sub-09	2.0	4.0	100_neutral	1.0	attractiveness	249.3716617499549	
38.0	219.50461762391387	fix	1.0		177	19.0	female	white	4.298846000795861	neutral	100	sub-09	2.0	4.0	100_neutral	1.0	attractiveness	249.7798802300499	1.4999554764158347
38.0	219.79639108429546	pulse	1.0	t		19.0	female	white	4.298846000795861	neutral	100	sub-09	2.0	4.0	100_neutral	1.0	attractiveness	250.0716536904315	
38.0	220.49637185614438	pulse	1.0	t		19.0	female	white	4.298846000795861	neutral	100	sub-09	2.0	4.0	100_neutral	1.0	attractiveness	250.77163446228042	
38.0	221.0045731003297	rating	2.0		294	19.0	female	white	4.298846000795861	neutral	100	sub-09	2.0	4.0	100_neutral	1.0	attractiveness	251.27983570646575	2.4999452133524755
38.0	221.19635202428344	pulse	2.0	t		19.0	female	white	4.298846000795861	neutral	100	sub-09	2.0	4.0	100_neutral	1.0	attractiveness	251.47161463041948	
38.0	221.89635090742104	pulse	2.0	t		19.0	female	white	4.298846000795861	neutral	100	sub-09	2.0	4.0	100_neutral	1.0	attractiveness	252.17161351355708	
38.0	222.338002222255	response	2.0	e		19.0	female	white	4.298846000795861	neutral	100	sub-09	2.0	4.0	100_neutral	1.0	attractiveness	252.61326482839104	
38.0	222.59631839765825	pulse	2.0	t		19.0	female	white	4.298846000795861	neutral	100	sub-09	2.0	4.0	100_neutral	1.0	attractiveness	252.8715810037943	
38.0	223.2963148659569	pulse	2.0	t		19.0	female	white	4.298846000795861	neutral	100	sub-09	2.0	4.0	100_neutral	1.0	attractiveness	253.57157747209294	
38.0	223.50451831368218	fix	3.0		444	19.0	female	white	4.298846000795861	neutral	100	sub-09	2.0	4.0	100_neutral	1.0	attractiveness	253.77978091981822	3.7665892610320952
38.0	223.99630590086917	pulse	3.0	t		19.0	female	white	4.298846000795861	neutral	100	sub-09	2.0	4.0	100_neutral	1.0	attractiveness	254.2715685070052	
38.0	224.69627127812282	pulse	3.0	t		19.0	female	white	4.298846000795861	neutral	100	sub-09	2.0	4.0	100_neutral	1.0	attractiveness	254.97153388425886	
38.0	225.39627317980785	pulse	3.0	t		19.0	female	white	4.298846000795861	neutral	100	sub-09	2.0	4.0	100_neutral	1.0	attractiveness	255.6715357859439	
38.0	226.0965168671937	pulse	3.0	t		19.0	female	white	4.298846000795861	neutral	100	sub-09	2.0	4.0	100_neutral	1.0	attractiveness	256.37177947332975	
38.0	226.79625102366526	pulse	3.0	t		19.0	female	white	4.298846000795861	neutral	100	sub-09	2.0	4.0	100_neutral	1.0	attractiveness	257.0715136298013	
39.0	227.27110757471428	face	0.0		145	47.0	male	east_asian	2.171110226820533	neutral	024	sub-09	2.0	4.0	024_neutral	0.0		257.5463701808503	1.2333219936544992
39.0	227.49622907882076	pulse	0.0	t		47.0	male	east_asian	2.171110226820533	neutral	024	sub-09	2.0	4.0	024_neutral	0.0		257.7714916849568	
39.0	228.19620381357345	pulse	0.0	t		47.0	male	east_asian	2.171110226820533	neutral	024	sub-09	2.0	4.0	024_neutral	0.0		258.4714664197095	
39.0	228.50442956836878	fix	1.0		444	47.0	male	east_asian	2.171110226820533	neutral	024	sub-09	2.0	4.0	024_neutral	0.0		258.7796921745048	3.7499232534150906
39.0	228.89620239485566	pulse	1.0	t		47.0	male	east_asian	2.171110226820533	neutral	024	sub-09	2.0	4.0	024_neutral	0.0		259.1714650009917	
39.0	229.59617712960835	pulse	1.0	t		47.0	male	east_asian	2.171110226820533	neutral	024	sub-09	2.0	4.0	024_neutral	0.0		259.8714397357444	
39.0	230.2961702775042	pulse	1.0	t		47.0	male	east_asian	2.171110226820533	neutral	024	sub-09	2.0	4.0	024_neutral	0.0		260.5714328836402	
39.0	230.9961510493531	pulse	1.0	t		47.0	male	east_asian	2.171110226820533	neutral	024	sub-09	2.0	4.0	024_neutral	0.0		261.27141365548914	
39.0	231.69613665087854	pulse	1.0	t		47.0	male	east_asian	2.171110226820533	neutral	024	sub-09	2.0	4.0	024_neutral	0.0		261.9713992570146	
40.0	232.25435282178387	fix	0.0		720													262.5296154279199	5.999877145093706
40.0	232.39611470603404	pulse	0.0	t														262.6713773121701	
40.0	233.09609759086652	pulse	0.0	t														263.37136019700256	
40.0	233.79609496472995	pulse	0.0	t														264.071357570866	
40.0	234.49607694399765	pulse	0.0	t														264.7713395501337	
40.0	235.1960700918935	pulse	0.0	t														265.4713326980295	
40.0	235.89605056188748	pulse	0.0	t														266.1713131680235	
40.0	236.59603525784905	pulse	0.0	t														266.8712978639851	
40.0	237.296018444536	pulse	0.0	t														267.57128105067204	
40.0	237.99601008315813	pulse	0.0	t														268.27127268929416	
