trial_nr	onset	event_type	phase	response	nr_frames	trial_type	stim_name	task_probe	onset_abs	duration
0.0	0.05640424876173711	baseline	0.0		41.0		baseline	0.0	30.241722964763994	0.3497642980969431
0.0	0.4061685468586802	ISI	1.0		11.0		baseline	0.0	30.591487262860937	0.09998608457726732
1.0	0.5061546314359475	baseline	0.0		48.0		baseline	0.0	30.691473347438205	0.4000025959358027
1.0	0.7062632381398544	pulse	0.0	t			baseline	0.0	30.89158195414211	
1.0	0.9061572273717502	ISI	1.0		11.0		baseline	0.0	31.091475943374007	0.09999483831370526
2.0	1.0061520656854555	baseline	0.0		48.0		baseline	0.0	31.191470781687713	0.3999687884015657
2.0	1.4061208540870211	ISI	1.0		11.0		baseline	0.0	31.59143957008928	0.09998970681317587
2.0	1.4105870708517614	pulse	1.0	t			baseline	0.0	31.59590578685402	
3.0	1.506110560900197	baseline	0.0		48.0		baseline	0.0	31.691429276902454	0.3999989736998941
3.0	1.9061095346000911	ISI	1.0		11.0		baseline	0.0	32.09142825060235	0.09999664943188691
4.0	2.006106184031978	baseline	0.0		48.0		baseline	0.0	32.191424900034235	0.39999112552231963
4.0	2.1062214616868005	pulse	0.0	t			baseline	0.0	32.29154017768906	
4.0	2.4060973095542977	ISI	1.0		11.0		baseline	0.0	32.591416025556555	0.0999785382527989
5.0	2.5060758478070966	baseline	0.0		48.0		baseline	0.0	32.691394563809354	0.4000047089061809
5.0	2.8061898576793283	pulse	0.0	t			baseline	0.0	32.991508573681585	
5.0	2.9060805567132775	ISI	1.0		11.0		baseline	0.0	33.091399272715535	0.09999876240317462
6.0	3.006079319116452	baseline	0.0		48.0		baseline	0.0	33.19139803511871	0.39999142737497095
6.0	3.406070746491423	ISI	1.0		11.0		baseline	0.0	33.59138946249368	0.09999634757878084
7.0	3.506067094070204	baseline	0.0		47.0		baseline	0.0	33.69138581007246	0.3999875032864111
7.0	3.5104007973750413	pulse	0.0	t			baseline	0.0	33.6957195133773	
7.0	3.906054597356615	ISI	1.0		11.0		baseline	0.0	34.09137331335887	0.09999906425582594
8.0	4.006053661612441	baseline	0.0		48.0		baseline	0.0	34.1913723776147	0.3999902199634562
8.0	4.206160155345515	pulse	0.0	t			baseline	0.0	34.39147887134777	
8.0	4.406043881575897	ISI	1.0		11.0		baseline	0.0	34.591362597578154	0.09999574387302346
9.0	4.506039625448921	baseline	0.0		48.0		baseline	0.0	34.69135834145118	0.399989314404138
9.0	4.9060289398530585	ISI	1.0		11.0		baseline	0.0	35.091347655855316	0.09999604572612952
9.0	4.910465575025228	pulse	1.0	t			baseline	0.0	35.095784291027485	
10.0	5.006024985579188	baseline	0.0		48.0		baseline	0.0	35.191343701581445	0.3999920310811831
10.0	5.406017016660371	ISI	1.0		11.0		baseline	0.0	35.59133573266263	0.09999514016681132
11.0	5.5060121568271825	baseline	0.0		48.0		baseline	0.0	35.69133087282944	0.3999932384931526
11.0	5.6061265289231414	pulse	0.0	t			baseline	0.0	35.7914452449254	
11.0	5.906005395320335	ISI	1.0		5.0		baseline	0.0	36.09132411132259	0.12498373767039084
12.0	6.030989132990726	body	0.0		45.0	body	body-46.jpg	0.0	36.21630784899298	0.374954533393975
12.0	6.306055684027342	pulse	0.0	t		body	body-46.jpg	0.0	36.4913744000296	
12.0	6.405943666384701	ISI	1.0		6.0	body	body-46.jpg	0.0	36.59126238238696	0.11667221573088682
13.0	6.522615882115588	body	0.0		46.0	body	body-97.jpg	0.0	36.707934598117845	0.3833137481055928
13.0	6.905929630221181	ISI	1.0		6.0	body	body-97.jpg	0.0	37.09124834622344	0.11667070646581124
14.0	7.022600336686992	body	0.0		45.0	body	body-29.jpg	0.0	37.20791905268925	0.3833158610764258
14.0	7.0143349982536165	pulse	0.0	t		body	body-29.jpg	0.0	37.199653714255874	
14.0	7.405916197763418	ISI	1.0		6.0	body	body-29.jpg	0.0	37.591234913765675	0.11667131017156862
15.0	7.522587507934986	body	0.0		46.0	body	body-22.jpg	0.0	37.70790622393724	0.3833155592233197
15.0	7.706023265016938	pulse	0.0	t		body	body-22.jpg	0.0	37.891341981019195	
15.0	7.905903067158306	ISI	1.0		6.0	body	body-22.jpg	0.0	38.09122178316056	0.11668368614436986
16.0	8.022586753302676	body	0.0		46.0	body	body-80.jpg	0.0	38.20790546930493	0.3832947313671866
16.0	8.405881484669862	ISI	1.0		5.0	body	body-80.jpg	0.0	38.59120020067212	0.1166800639084613
16.0	8.458065828702729	pulse	1.0	t		body	body-80.jpg	0.0	38.643384544704986	
17.0	8.522561548578324	body	0.0		46.0	body	body-24.jpg	0.0	38.70788026458058	0.38331404995824414
17.0	8.905875598536568	ISI	1.0		5.0	body	body-24.jpg	0.0	39.091194314538825	0.1166879120860358
18.0	9.022563510622604	body	0.0		46.0	body	body-101.jpg	0.0	39.20788222662486	0.3832989573093073
18.0	9.105986620064414	pulse	0.0	t		body	body-101.jpg	0.0	39.29130533606667	
18.0	9.405862467931911	ISI	1.0		6.0	body	body-101.jpg	0.0	39.59118118393417	0.1166851954089907
19.0	9.522547663340902	body	0.0		46.0	body	body-78.jpg	0.0	39.70786637934316	0.3833007684270342
19.0	9.805964675352698	pulse	0.0	t		body	body-78.jpg	0.0	39.991283391354955	
19.0	9.905848431767936	ISI	1.0		6.0	body	body-78.jpg	0.0	40.09116714777019	0.1166897232037627
20.0	10.022538154971699	body	0.0		46.0	body	body-43.jpg	0.0	40.207856870973956	0.38329744804468646
20.0	10.405835603016385	ISI	1.0		6.0	body	body-43.jpg	0.0	40.59115431901864	0.11667946020224917
21.0	10.522515063218634	body	0.0		45.0	body	body-45.jpg	0.0	40.70783377922089	0.3832923165437023
21.0	10.514263911875787	pulse	0.0	t		body	body-45.jpg	0.0	40.699582627878044	
21.0	10.905807379762336	ISI	1.0		6.0	body	body-45.jpg	0.0	41.091126095764594	0.11669968435217015
22.0	11.022507064114507	body	0.0		46.0	body	body-69.jpg	0.0	41.207825780116764	0.3832886943077938
22.0	11.205926822988204	pulse	0.0	t		body	body-69.jpg	0.0	41.39124553899046	
22.0	11.4057957584223	ISI	1.0		6.0	body	body-69.jpg	0.0	41.59111447442456	0.1166987787933067
23.0	11.522494537215607	body	0.0		46.0	body	body-34.jpg	0.0	41.707813253217864	0.38327963871824977
23.0	11.905774175933857	ISI	1.0		6.0	body	body-34.jpg	0.0	42.091092891936114	0.1167078343828507
23.0	11.949770757750684	pulse	1.0	t		body	body-34.jpg	0.0	42.13508947375294	
24.0	12.022482010316708	body	0.0		46.0	body	body-135.jpg	0.0	42.207800726318965	0.3833113332816538
24.0	12.405793343598361	ISI	1.0		6.0	body	body-135.jpg	0.0	42.59111205960062	0.11669485470474683
25.0	12.522488198303108	body	0.0		46.0	body	body-16.jpg	0.0	42.707806914305365	0.3832859776307487
25.0	12.60589591324242	pulse	0.0	t		body	body-16.jpg	0.0	42.79121462924468	
25.0	12.905774175933857	ISI	1.0		7.0	body	body-16.jpg	0.0	43.091092891936114	0.11668579911474808
26.0	13.022459975048605	body	0.0		46.0	body	body-30.jpg	0.0	43.20777869105086	0.3832956369265048
26.0	13.305876685207295	pulse	0.0	t		body	body-30.jpg	0.0	43.49119540120955	
26.0	13.40575561197511	ISI	1.0		8.0	body	body-30.jpg	0.0	43.59107432797737	0.11668700652717234
27.0	13.522442618502282	body	0.0		46.0	body	body-30.jpg	1.0	43.70776133450454	0.38329080727862674
27.0	13.905733425780909	ISI	1.0		6.0	body	body-30.jpg	1.0	44.091052141783166	0.11669304358656518
27.0	13.948825957907957	response	1.0	b		body	body-30.jpg	1.0	44.134144673910214	
28.0	14.022426469367474	body	0.0		45.0	body	body-82.jpg	0.0	44.20774518536973	0.38328627948385474
28.0	14.014247159035222	pulse	0.0	t		body	body-82.jpg	0.0	44.19956587503748	
28.0	14.405712748851329	ISI	1.0		6.0	body	body-82.jpg	0.0	44.591031464853586	0.11670964550103236
29.0	14.522422394352361	body	0.0		46.0	body	body-14.jpg	0.0	44.70774111035462	0.38329533507339875
29.0	14.706022963163832	pulse	0.0	t		body	body-14.jpg	0.0	44.89134167916609	
29.0	14.90571772942576	ISI	1.0		6.0	body	body-14.jpg	0.0	45.09103644542802	0.11668791208558105
30.0	15.022405641511341	body	0.0		46.0	body	body-75.jpg	0.0	45.2077243575136	0.38329654248536826
30.0	15.40570218399671	ISI	1.0		6.0	body	body-75.jpg	0.0	45.591020899998966	0.11669334543967125
30.0	15.454043939531402	pulse	1.0	t		body	body-75.jpg	0.0	45.63936265553366	
31.0	15.52239552943638	body	0.0		46.0	body	body-15.jpg	0.0	45.70771424543864	0.38329352395567184
31.0	15.905689053392052	ISI	1.0		7.0	body	body-15.jpg	0.0	46.09100776939431	0.11668821393868711
32.0	16.02237726733074	body	0.0		46.0	body	body-5.jpg	0.0	46.207695983333	0.383298655456656
32.0	16.10579947121414	pulse	0.0	t		body	body-5.jpg	0.0	46.2911181872164	
32.0	16.405675922787395	ISI	1.0		6.0	body	body-5.jpg	0.0	46.59099463878965	0.1166851954089907
33.0	16.522361118196386	body	0.0		46.0	body	body-137.jpg	0.0	46.70767983419864	0.3833025795447611
33.0	16.80580590068257	pulse	0.0	t		body	body-137.jpg	0.0	46.99112461668483	
33.0	16.905663697741147	ISI	1.0		6.0	body	body-137.jpg	0.0	47.090982413743404	0.11667312128975027
34.0	17.022336819030897	body	0.0		46.0	body	body-52.jpg	0.0	47.207655535033155	0.38331344625248676
34.0	17.405650265283384	ISI	1.0		6.0	body	body-52.jpg	0.0	47.59096898128564	0.11667644167255276
35.0	17.522326706955937	body	0.0		45.0	body	body-72.jpg	0.0	47.707645422958194	0.3833080128988513
35.0	17.51394545697667	pulse	0.0	t		body	body-72.jpg	0.0	47.69926417297893	
35.0	17.90563471985479	ISI	1.0		6.0	body	body-72.jpg	0.0	48.090953435857045	0.11667402684861372
36.0	18.022308746703402	house	0.0		46.0	place	house-30.jpg	0.0	48.20762746270566	0.38329805175044385
36.0	18.205742692667627	pulse	0.0	t		place	house-30.jpg	0.0	48.391061408669884	
36.0	18.405606798453846	ISI	1.0		6.0	place	house-30.jpg	0.0	48.5909255144561	0.11667825279027966
37.0	18.522285051244125	house	0.0		46.0	place	house-110.jpg	0.0	48.70760376724638	0.38334272599195174
37.0	18.905627777236077	ISI	1.0		5.0	place	house-110.jpg	0.0	49.090946493238334	0.11668730837982366
37.0	18.954580181359233	pulse	1.0	t		place	house-110.jpg	0.0	49.13989889736149	
38.0	19.0223150856159	house	0.0		46.0	place	house-90.jpg	0.0	49.20763380161816	0.3832814498364314
38.0	19.405596535452332	ISI	1.0		6.0	place	house-90.jpg	0.0	49.59091525145459	0.1166851954089907
39.0	19.522281730861323	house	0.0		46.0	place	house-144.jpg	0.0	49.70760044686358	0.38329080727862674
39.0	19.605708764392148	pulse	0.0	t		place	house-144.jpg	0.0	49.791027480394405	
39.0	19.90557253813995	ISI	1.0		5.0	place	house-144.jpg	0.0	50.09089125414221	0.1167005899110336
40.0	20.022273128050983	house	0.0		46.0	place	house-120.jpg	0.0	50.20759184405324	0.3832959387796109
40.0	20.30568500856225	pulse	0.0	t		place	house-120.jpg	0.0	50.49100372456451	
40.0	20.405569066830594	ISI	1.0		7.0	place	house-120.jpg	0.0	50.59088778283285	0.11668610096785414
41.0	20.52225516779845	house	0.0		46.0	place	house-100.jpg	0.0	50.707573883800706	0.3833007684270342
41.0	20.905555936225483	ISI	1.0		6.0	place	house-100.jpg	0.0	51.09087465222774	0.11668428985012724
42.0	21.02224022607561	house	0.0		45.0	place	house-85.jpg	0.0	51.20755894207787	0.38330408881029143
42.0	21.01399752661655	pulse	0.0	t		place	house-85.jpg	0.0	51.199316242618806	
42.0	21.4055443148859	ISI	1.0		7.0	place	house-85.jpg	0.0	51.59086303088816	0.11668549726209676
43.0	21.522229812147998	house	0.0		46.0	place	house-83.jpg	0.0	51.707548528150255	0.38330318325097323
43.0	21.70565108028677	pulse	0.0	t		place	house-83.jpg	0.0	51.89096979628903	
43.0	21.90553299539897	ISI	1.0		6.0	place	house-83.jpg	0.0	52.09085171140123	0.11666708422990268
44.0	22.022200079628874	house	0.0		46.0	place	house-140.jpg	0.0	52.20751879563113	0.3833164647821832
44.0	22.405516544411057	ISI	1.0		6.0	place	house-140.jpg	0.0	52.590835260413314	0.11668398799702118
44.0	22.446052985461847	pulse	1.0	t		place	house-140.jpg	0.0	52.631371701464104	
45.0	22.52220053240808	house	0.0		46.0	place	house-65.jpg	0.0	52.707519248410335	0.38328839245514246
45.0	22.90548892486322	ISI	1.0		7.0	place	house-65.jpg	0.0	53.09080764086548	0.11668851579179318
46.0	23.022177440655014	house	0.0		46.0	place	house-111.jpg	0.0	53.20749615665727	0.38331404995824414
46.0	23.105603870479626	pulse	0.0	t		place	house-111.jpg	0.0	53.290922586481884	
46.0	23.405491490613258	ISI	1.0		8.0	place	house-111.jpg	0.0	53.590810206615515	0.11666708422990268
47.0	23.52215857484316	house	0.0		46.0	place	house-76.jpg	0.0	53.70747729084542	0.3833125406936233
47.0	23.805596112857984	pulse	0.0	t		place	house-76.jpg	0.0	53.99091482886024	
47.0	23.905471115536784	ISI	1.0		5.0	place	house-76.jpg	0.0	54.09078983153904	0.11668700652717234
48.0	24.022158122063956	car	0.0		46.0	object	car-84.jpg	0.0	54.20747683806621	0.3832902035724146
48.0	24.40544832563637	ISI	1.0		8.0	object	car-84.jpg	0.0	54.59076704163863	0.1166755361136893
49.0	24.52212386175006	car	0.0		45.0	object	car-84.jpg	1.0	54.70744257775232	0.3833065036337757
49.0	24.51396085147917	pulse	0.0	t		object	car-84.jpg	1.0	54.699279567481426	
49.0	24.905430365383836	ISI	1.0		6.0	object	car-84.jpg	1.0	55.09074908138609	0.11669998620527622
50.0	25.022130351589112	car	0.0		45.0	object	car-49.jpg	0.0	55.20744906759137	0.3833397074622553
50.0	25.013945607903224	response	0.0	b		object	car-49.jpg	0.0	55.19926432390548	
50.0	25.20556127902364	pulse	0.0	t		object	car-49.jpg	0.0	55.3908799950259	
50.0	25.405470059051368	ISI	1.0		6.0	object	car-49.jpg	0.0	55.590788775053625	0.11668489355633938
51.0	25.522154952607707	car	0.0		46.0	object	car-5.jpg	0.0	55.707473668609964	0.38327843130628025
51.0	25.905433383913987	ISI	1.0		6.0	object	car-5.jpg	0.0	56.090752099916244	0.11666406569975152
51.0	25.948320052305007	pulse	1.0	t		object	car-5.jpg	0.0	56.133638768307264	
52.0	26.02209744961374	car	0.0		46.0	object	car-42.jpg	0.0	56.207416165615996	0.38331284254672937
52.0	26.405410292160468	ISI	1.0		6.0	object	car-42.jpg	0.0	56.590729008162725	0.11668640282096021
53.0	26.52209669498143	car	0.0		46.0	object	car-60.jpg	0.0	56.707415410983685	0.3832835628072644
53.0	26.605518295158618	pulse	0.0	t		object	car-60.jpg	0.0	56.790837011160875	
53.0	26.905380257788693	ISI	1.0		7.0	object	car-60.jpg	0.0	57.09069897379095	0.11668670467361153
54.0	27.022066962462304	car	0.0		46.0	object	car-108.jpg	0.0	57.20738567846456	0.3833046925160488
54.0	27.30550027453546	pulse	0.0	t		object	car-108.jpg	0.0	57.49081899053772	
54.0	27.405371654978353	ISI	1.0		7.0	object	car-108.jpg	0.0	57.59069037098061	0.11670119361724574
55.0	27.5220728485956	car	0.0		46.0	object	car-52.jpg	0.0	57.707391564597856	0.3833004665743829
55.0	27.90537331516998	ISI	1.0		7.0	object	car-52.jpg	0.0	58.09069203117224	0.11667553611323456
56.0	28.022048851283216	car	0.0		45.0	object	car-120.jpg	0.0	58.20736756728547	0.3832956369265048
56.0	28.013827583386046	pulse	0.0	t		object	car-120.jpg	0.0	58.1991462993883	
56.0	28.40534448820972	ISI	1.0		6.0	object	car-120.jpg	0.0	58.59066320421198	0.11668278058505166
57.0	28.522027268794773	car	0.0		46.0	object	car-15.jpg	0.0	58.70734598479703	0.3833215962831673
57.0	28.705463629582937	pulse	0.0	t		object	car-15.jpg	0.0	58.890782345585194	
57.0	28.90534886507794	ISI	1.0		6.0	object	car-15.jpg	0.0	59.0906675810802	0.11667855464338572
58.0	29.022027419721326	car	0.0		46.0	object	car-44.jpg	0.0	59.20734613572358	0.3832923165437023
58.0	29.405319736265028	ISI	1.0		7.0	object	car-44.jpg	0.0	59.590638452267285	0.1166879120860358
58.0	29.43940557902806	pulse	1.0	t		object	car-44.jpg	0.0	59.62472429503032	
59.0	29.522007648351064	car	0.0		46.0	object	car-63.jpg	0.0	59.70732636435332	0.38330439066294275
59.0	29.905312039014007	ISI	1.0		6.0	object	car-63.jpg	0.0	60.090630755016264	0.11668096946732476
60.0	30.02199300848133	car	0.0		46.0	object	car-12.jpg	0.0	60.20731172448359	0.38329593877915613
60.0	30.105416419776247	pulse	0.0	t		object	car-12.jpg	0.0	60.290735135778505	
60.0	30.405288947260487	ISI	1.0		5.0	object	car-12.jpg	0.0	60.590607663262745	0.11670119361724574
61.0	30.521990140877733	car	0.0		46.0	object	car-9.jpg	0.0	60.70730885687999	0.3832917128374902
61.0	30.8054083603015	pulse	0.0	t		object	car-9.jpg	0.0	60.990727076303756	
61.0	30.905281853715223	ISI	1.0		8.0	object	car-9.jpg	0.0	61.09060056971748	0.11669847694065538
62.0	31.02198033065588	car	0.0		46.0	object	car-18.jpg	0.0	61.207299046658136	0.3832962406322622
62.0	31.40527657128814	ISI	1.0		8.0	object	car-18.jpg	0.0	61.5905952872904	0.11668157317308214
63.0	31.521958144461223	car	0.0		45.0	object	car-94.jpg	0.0	61.70727686046348	0.38333880190339187
63.0	31.514472492288405	pulse	0.0	t		object	car-94.jpg	0.0	61.69979120829066	
63.0	31.905296946364615	ISI	1.0		8.0	object	car-94.jpg	0.0	62.09061566236687	0.11666980090694778
64.0	32.02196674727156	car	0.0		46.0	object	car-100.jpg	0.0	62.20728546327382	0.3832850720718852
64.0	32.20553984746175	pulse	0.0	t		object	car-100.jpg	0.0	62.39085856346401	
64.0	32.40525181934345	ISI	1.0		6.0	object	car-100.jpg	0.0	62.590570535345705	0.11666738608300875
65.0	32.52191920542646	car	0.0		46.0	object	car-103.jpg	0.0	62.707237921428714	0.3833221999889247
65.0	32.90524140541538	ISI	1.0		6.0	object	car-103.jpg	0.0	63.09056012141764	0.11667915834959786
65.0	32.94778003731517	pulse	1.0	t		object	car-103.jpg	0.0	63.13309875331743	
66.0	33.02192056376498	car	0.0		46.0	object	car-70.jpg	0.0	63.207239279767236	0.38330499436870014
66.0	33.40522555813368	ISI	1.0		6.0	object	car-70.jpg	0.0	63.59054427413594	0.11669213802770173
67.0	33.52191769616138	car	0.0		46.0	object	car-11.jpg	0.0	63.70723641216364	0.38329473136764136
67.0	33.605335372249556	pulse	0.0	t		object	car-11.jpg	0.0	63.79065408825181	
67.0	33.90521242752902	ISI	1.0		8.0	object	car-11.jpg	0.0	64.09053114353128	0.11668157317308214
68.0	34.021894000702105	car	0.0		46.0	object	car-92.jpg	0.0	64.20721271670436	0.3833065036337757
68.0	34.3053140312436	pulse	0.0	t		object	car-92.jpg	0.0	64.49063274724585	
68.0	34.40520050433588	ISI	1.0		5.0	object	car-92.jpg	0.0	64.59051922033814	0.11668217687929427
69.0	34.521882681215175	car	0.0		46.0	object	car-25.jpg	0.0	64.70720139721743	0.38330107028014027
69.0	34.905183751495315	ISI	1.0		8.0	object	car-25.jpg	0.0	65.09050246749757	0.11667644167255276
70.0	35.02186019316787	car	0.0		45.0	object	car-25.jpg	1.0	65.20717890917012	0.38331012586968427
70.0	35.013535691549805	pulse	0.0	t		object	car-25.jpg	1.0	65.19885440755206	
70.0	35.40517031903755	ISI	1.0		6.0	object	car-25.jpg	1.0	65.59048903503981	0.11667221573043207
71.0	35.521842534767984	car	0.0		46.0	object	car-110.jpg	0.0	65.70716125077024	0.3833146536644563
71.0	35.55527848805468	response	0.0	b		object	car-110.jpg	0.0	65.74059720405694	
71.0	35.70527195293744	pulse	0.0	t		object	car-110.jpg	0.0	65.8905906689397	
71.0	35.90515718843244	ISI	1.0		11.0	object	car-110.jpg	0.0	66.0904759044347	0.0999999698146894
72.0	36.00515715824713	baseline	0.0		48.0		baseline	0.0	66.19047587424939	0.3999884088457293
72.0	36.40514556709286	ISI	1.0		11.0		baseline	0.0	66.59046428309512	0.09998397160643435
72.0	36.40965645809911	pulse	1.0	t			baseline	0.0	66.59497517410136	
73.0	36.50512953869929	baseline	0.0		48.0		baseline	0.0	66.69044825470155	0.3999814662265635
73.0	36.90511100492586	ISI	1.0		11.0		baseline	0.0	67.09042972092811	0.10001898655264085
74.0	37.0051299914785	baseline	0.0		48.0		baseline	0.0	67.19044870748075	0.3999748254614133
74.0	37.1052437598687	pulse	0.0	t			baseline	0.0	67.29056247587096	
74.0	37.40510481693991	ISI	1.0		11.0		baseline	0.0	67.59042353294217	0.10001023281620292
75.0	37.505115049756114	baseline	0.0		48.0		baseline	0.0	67.69043376575837	0.399989314404138
75.0	37.8052230225685	pulse	0.0	t			baseline	0.0	67.99054173857076	
75.0	37.90510436416025	ISI	1.0		11.0		baseline	0.0	68.09042308016251	0.09999846054961381
76.0	38.005102824709866	baseline	0.0		48.0		baseline	0.0	68.19042154071212	0.40005904244389967
76.0	38.405161867153765	ISI	1.0		11.0		baseline	0.0	68.59048058315602	0.09999453646105394
77.0	38.50515640361482	baseline	0.0		47.0		baseline	0.0	68.69047511961708	0.39999112552231963
77.0	38.50934733045733	pulse	0.0	t			baseline	0.0	68.69466604645959	
77.0	38.90514752913714	ISI	1.0		11.0		baseline	0.0	69.0904662451394	0.09999604572567478
78.0	39.005143574862814	baseline	0.0		48.0		baseline	0.0	69.19046229086507	0.3999793532561853
78.0	39.20525157786096	pulse	0.0	t			baseline	0.0	69.39057029386322	
78.0	39.405122928119	ISI	1.0		11.0		baseline	0.0	69.59044164412126	0.09999393275484181
79.0	39.50511686087384	baseline	0.0		48.0		baseline	0.0	69.6904355768761	0.40000319964156006
79.0	39.9051200605154	ISI	1.0		11.0		baseline	0.0	70.09043877651766	0.09998185863560138
79.0	39.90968015355884	pulse	1.0	t			baseline	0.0	70.0949988695611	
80.0	40.005101919151	baseline	0.0		48.0		baseline	0.0	70.19042063515326	0.4000050107597417
80.0	40.405106929910744	ISI	1.0		11.0		baseline	0.0	70.590425645913	0.1000153643167323
81.0	40.505122294227476	baseline	0.0		48.0		baseline	0.0	70.69044101022973	0.3999612420766425
81.0	40.605212819937606	pulse	0.0	t			baseline	0.0	70.79053153593986	
81.0	40.90508353630412	ISI	1.0		11.0		baseline	0.0	71.09040225230638	0.10000751613961256
82.0	41.00509105244373	baseline	0.0		48.0		baseline	0.0	71.19040976844599	0.3999905218161075
82.0	41.305196308579525	pulse	0.0	t			baseline	0.0	71.49051502458178	
82.0	41.40508157425984	ISI	1.0		11.0		baseline	0.0	71.5904002902621	0.09998276419446483
83.0	41.505064338454304	baseline	0.0		48.0		baseline	0.0	71.69038305445656	0.3999808625208061
83.0	41.90504520097511	ISI	1.0		8.0		baseline	0.0	72.09036391697737	0.1166682916418722
84.0	42.02171349261698	car	0.0		45.0	object	car-59.jpg	0.0	72.20703220861924	0.38330439066294275
84.0	42.01342732632793	pulse	0.0	t		object	car-59.jpg	0.0	72.19874604233019	
84.0	42.405017883279925	ISI	1.0		6.0	object	car-59.jpg	0.0	72.59033659928218	0.11667070646581124
85.0	42.521688589745736	car	0.0		46.0	object	car-128.jpg	0.0	72.707007305748	0.3832672627459033
85.0	42.70509416152936	pulse	0.0	t		object	car-128.jpg	0.0	72.89041287753162	
85.0	42.90495585249164	ISI	1.0		6.0	object	car-128.jpg	0.0	73.0902745684939	0.11668459170323331
86.0	43.02164044419487	car	0.0		46.0	object	car-75.jpg	0.0	73.20695916019713	0.3833194833118796
86.0	43.40495992750675	ISI	1.0		6.0	object	car-75.jpg	0.0	73.59027864350901	0.11668549726209676
86.0	43.45370978827714	pulse	1.0	t		object	car-75.jpg	0.0	73.6390285042794	
87.0	43.52164542476885	car	0.0		46.0	object	car-136.jpg	0.0	73.7069641407711	0.3833001647212768
87.0	43.904945589490126	ISI	1.0		8.0	object	car-136.jpg	0.0	74.09026430549238	0.11668398799702118
88.0	44.02162957748715	car	0.0		46.0	object	car-117.jpg	0.0	74.2069482934894	0.3833028813983219
88.0	44.10510430378963	pulse	0.0	t		object	car-117.jpg	0.0	74.29042301979189	
88.0	44.40493245888547	ISI	1.0		5.0	object	car-117.jpg	0.0	74.59025117488773	0.11668278058505166
89.0	44.52161523947052	car	0.0		46.0	object	car-131.jpg	0.0	74.70693395547278	0.38330559807491227
89.0	44.80503527001201	pulse	0.0	t		object	car-131.jpg	0.0	74.99035398601427	
89.0	44.90492083754543	ISI	1.0		6.0	object	car-131.jpg	0.0	75.09023955354769	0.11668096946732476
90.0	45.02160180701276	car	0.0		46.0	object	car-54.jpg	0.0	75.20692052301501	0.3832868831896121
90.0	45.40488869020237	ISI	1.0		5.0	object	car-54.jpg	0.0	75.59020740620463	0.11669817508754932
91.0	45.52158686528992	car	0.0		45.0	object	car-111.jpg	0.0	75.70690558129218	0.38329080727862674
91.0	45.513294360088366	pulse	0.0	t		object	car-111.jpg	0.0	75.69861307609062	
91.0	45.904877672568546	ISI	1.0		6.0	object	car-111.jpg	0.0	76.0901963885708	0.11670028805838228
92.0	46.02157796062693	car	0.0		46.0	object	car-132.jpg	0.0	76.20689667662919	0.3832911091317328
92.0	46.20498413611631	pulse	0.0	t		object	car-132.jpg	0.0	76.39030285211857	
92.0	46.40486906975866	ISI	1.0		4.0	object	car-132.jpg	0.0	76.59018778576092	0.11668761023292973
93.0	46.52155667999159	car	0.0		46.0	object	car-39.jpg	0.0	76.70687539599385	0.38330318325097323
93.0	46.904859863242564	ISI	1.0		6.0	object	car-39.jpg	0.0	77.09017857924482	0.1166915343214896
93.0	46.94740845629076	pulse	1.0	t		object	car-39.jpg	0.0	77.13272717229302	
94.0	47.02155139756405	car	0.0		46.0	object	car-134.jpg	0.0	77.20687011356631	0.38328718504317294
94.0	47.404838582607226	ISI	1.0		6.0	object	car-134.jpg	0.0	77.59015729860948	0.11668579911474808
95.0	47.521524381721974	car	0.0		46.0	object	car-61.jpg	0.0	77.70684309772423	0.3833140499586989
95.0	47.60502959517589	pulse	0.0	t		object	car-61.jpg	0.0	77.79034831117815	
95.0	47.90483843168067	ISI	1.0		7.0	object	car-61.jpg	0.0	78.09015714768293	0.11668459170277856
96.0	48.02152302338345	house	0.0		46.0	place	house-17.jpg	0.0	78.20684173938571	0.38330378695718537
96.0	48.304937922424415	pulse	0.0	t		place	house-17.jpg	0.0	78.49025663842667	
96.0	48.40482681034064	ISI	1.0		6.0	place	house-17.jpg	0.0	78.5901455263429	0.11668549726209676
97.0	48.521512307602734	house	0.0		46.0	place	house-33.jpg	0.0	78.70683102360499	0.3833324629904382
97.0	48.90484477059317	ISI	1.0		6.0	place	house-33.jpg	0.0	79.09016348659543	0.11668157317308214
98.0	49.021526343766254	house	0.0		45.0	place	house-105.jpg	0.0	79.20684505976851	0.3833049943691549
98.0	49.01324440341932	pulse	0.0	t		place	house-105.jpg	0.0	79.19856311942158	
98.0	49.40483133813541	ISI	1.0		6.0	place	house-105.jpg	0.0	79.59015005413767	0.11667432870171979
99.0	49.52150566683713	house	0.0		46.0	place	house-54.jpg	0.0	79.70682438283939	0.3832793368651437
99.0	49.704907616384844	pulse	0.0	t		place	house-54.jpg	0.0	79.8902263323871	
99.0	49.90478500370227	ISI	1.0		7.0	place	house-54.jpg	0.0	80.09010371970453	0.11669032690952008
100.0	50.02147533061179	house	0.0		46.0	place	house-86.jpg	0.0	80.20679404661405	0.3832977498973378
100.0	50.40477308050913	ISI	1.0		7.0	place	house-86.jpg	0.0	80.59009179651139	0.11668398799747592
100.0	50.44151794621621	pulse	1.0	t		place	house-86.jpg	0.0	80.62683666221847	
101.0	50.521457068506606	house	0.0		46.0	place	house-61.jpg	0.0	80.70677578450886	0.38329110913127806
101.0	50.904748177637885	ISI	1.0		7.0	place	house-61.jpg	0.0	81.09006689364014	0.11669636396982241
102.0	51.02144454160771	house	0.0		46.0	place	house-15.jpg	0.0	81.20676325760996	0.3833025795447611
102.0	51.10490176043686	pulse	0.0	t		place	house-15.jpg	0.0	81.29022047643912	
102.0	51.40474712115247	ISI	1.0		7.0	place	house-15.jpg	0.0	81.59006583715473	0.11667010276005385
103.0	51.52141722391252	house	0.0		46.0	place	house-141.jpg	0.0	81.70673593991478	0.3833164647821832
103.0	51.80484842301439	pulse	0.0	t		place	house-141.jpg	0.0	81.99016713901665	
103.0	51.904733688694705	ISI	1.0		7.0	place	house-141.jpg	0.0	82.09005240469696	0.11668338429126379
104.0	52.02141707298597	house	0.0		46.0	place	house-79.jpg	0.0	82.20673578898823	0.38330167398589765
104.0	52.40471874697187	ISI	1.0		8.0	place	house-79.jpg	0.0	82.59003746297412	0.11669606211671635
105.0	52.52141480908858	house	0.0		45.0	place	house-6.jpg	0.0	82.70673352509084	0.3832923165437023
105.0	52.513674694849215	pulse	0.0	t		place	house-6.jpg	0.0	82.69899341085147	
105.0	52.904707125632285	ISI	1.0		5.0	place	house-6.jpg	0.0	83.09002584163454	0.11668459170277856
106.0	53.021391717335064	house	0.0		46.0	place	house-45.jpg	0.0	83.20671043333732	0.3832850720718852
106.0	53.20479064835308	pulse	0.0	t		place	house-45.jpg	0.0	83.39010936435534	
106.0	53.40467678940695	ISI	1.0		6.0	place	house-45.jpg	0.0	83.5899955054092	0.11670058991148835
107.0	53.52137737931844	house	0.0		46.0	place	house-51.jpg	0.0	83.7066960953207	0.3833034851040793
107.0	53.90468086442252	ISI	1.0		5.0	place	house-51.jpg	0.0	84.08999958042477	0.11668459170277856
107.0	53.954127703734684	pulse	1.0	t		place	house-51.jpg	0.0	84.13944641973694	
108.0	54.021365456125295	word	0.0		46.0	character	word-94.jpg	0.0	84.20668417212755	0.3832808461302193
108.0	54.404646302255514	ISI	1.0		5.0	character	word-94.jpg	0.0	84.58996501825777	0.1167042121473969
109.0	54.52135051440291	word	0.0		46.0	character	word-18.jpg	0.0	84.70666923040517	0.38329141098438413
109.0	54.60477392569783	pulse	0.0	t		character	word-18.jpg	0.0	84.79009264170008	
109.0	54.904641925387295	ISI	1.0		8.0	character	word-18.jpg	0.0	85.08996064138955	0.11669576026361028
110.0	55.021337685650906	word	0.0		46.0	character	word-18.jpg	1.0	85.20665640165316	0.38330288139786717
110.0	55.30474564207316	pulse	0.0	t		character	word-18.jpg	1.0	85.49006435807541	
110.0	55.40464056704877	ISI	1.0		5.0	character	word-18.jpg	1.0	85.58995928305103	0.11675582900761583
110.0	55.49641353375955	response	1.0	b		character	word-18.jpg	1.0	85.68173224976181	
111.0	55.52139639605639	word	0.0		46.0	character	word-130.jpg	0.0	85.70671511205865	0.38325126453764824
111.0	55.90464766059404	ISI	1.0		7.0	character	word-130.jpg	0.0	86.0899663765963	0.12502750635349003
112.0	56.02967516694753	word	0.0		44.0	character	word-118.jpg	0.0	86.21499388294978	0.374970229749124
112.0	56.01539691705466	pulse	0.0	t		character	word-118.jpg	0.0	86.20071563305692	
112.0	56.40464539669665	ISI	1.0		7.0	character	word-118.jpg	0.0	86.58996411269891	0.1250217711467485
113.0	56.5296671678434	word	0.0		45.0	character	word-52.jpg	0.0	86.71498588384566	0.37495483524708106
113.0	56.70474974727358	pulse	0.0	t		character	word-52.jpg	0.0	86.89006846327584	
113.0	56.90462200309048	ISI	1.0		6.0	character	word-52.jpg	0.0	87.08994071909274	0.11667704537831014
114.0	57.02129904846879	word	0.0		46.0	character	word-45.jpg	0.0	87.20661776447105	0.3832736016584022
114.0	57.40457265012719	ISI	1.0		7.0	character	word-45.jpg	0.0	87.58989136612945	0.11670451400004822
114.0	57.44105792226719	pulse	1.0	t		character	word-45.jpg	0.0	87.62637663826945	
115.0	57.52127716412724	word	0.0		46.0	character	word-133.jpg	0.0	87.7065958801295	0.38329533507339875
115.0	57.90457249920064	ISI	1.0		6.0	character	word-133.jpg	0.0	88.0898912152029	0.11666617867103923
116.0	58.02123867787168	word	0.0		46.0	character	word-100.jpg	0.0	88.20655739387394	0.3833200870185465
116.0	58.104683520728486	pulse	0.0	t		character	word-100.jpg	0.0	88.29000223673074	
116.0	58.404558764890226	ISI	1.0		7.0	character	word-100.jpg	0.0	88.58987748089248	0.11668791208558105
117.0	58.52124667697581	word	0.0		46.0	character	word-61.jpg	0.0	88.70656539297806	0.38328567577809736
117.0	58.80466429269336	pulse	0.0	t		character	word-61.jpg	0.0	88.98998300869562	
117.0	58.904532352753904	ISI	1.0		7.0	character	word-61.jpg	0.0	89.08985106875616	0.11669938249906409
118.0	59.02123173525297	word	0.0		46.0	character	word-48.jpg	0.0	89.20655045125523	0.3833046925160488
118.0	59.40453642776902	ISI	1.0		7.0	character	word-48.jpg	0.0	89.58985514377127	0.11667644167255276
119.0	59.52121286944157	word	0.0		45.0	character	word-9.jpg	0.0	89.70653158544383	0.38330771104574524
119.0	59.51321587831217	pulse	0.0	t		character	word-9.jpg	0.0	89.69853459431442	
119.0	59.904520580487315	ISI	1.0		6.0	character	word-9.jpg	0.0	90.08983929648957	0.11668428985012724
120.0	60.02120487033744	body	0.0		46.0	body	body-132.jpg	0.0	90.2065235863397	0.3833022776921098
120.0	60.204624931064245	pulse	0.0	t		body	body-132.jpg	0.0	90.3899436470665	
120.0	60.40450714802955	ISI	1.0		6.0	body	body-132.jpg	0.0	90.58982586403181	0.11668398799702118
121.0	60.52119113602657	body	0.0		46.0	body	body-138.jpg	0.0	90.70650985202883	0.38329533507339875
121.0	60.90448647109997	ISI	1.0		5.0	body	body-138.jpg	0.0	91.08980518710223	0.11669757138179193
121.0	60.95601005894878	pulse	1.0	t		body	body-138.jpg	0.0	91.14132877495103	
122.0	61.021184042481764	body	0.0		46.0	body	body-136.jpg	0.0	91.20650275848402	0.38329563692605007
122.0	61.404479679407814	ISI	1.0		6.0	body	body-136.jpg	0.0	91.58979839541007	0.11668730838027841
123.0	61.52116698778809	body	0.0		46.0	body	body-81.jpg	0.0	91.70648570379035	0.3832850720718852
123.0	61.60458798425907	pulse	0.0	t		body	body-81.jpg	0.0	91.78990670026133	
123.0	61.90445205985998	ISI	1.0		6.0	body	body-81.jpg	0.0	92.08977077586223	0.11670873994171416
124.0	62.02116079980169	body	0.0		46.0	body	body-114.jpg	0.0	92.20647951580395	0.3832917128374902
124.0	62.30456966178281	pulse	0.0	t		body	body-114.jpg	0.0	92.48988837778506	
124.0	62.40445251263918	ISI	1.0		8.0	body	body-114.jpg	0.0	92.58977122864144	0.11667040461315992
125.0	62.52112291725234	body	0.0		46.0	body	body-114.jpg	1.0	92.7064416332546	0.3833019758390037
125.0	62.904424893091345	ISI	1.0		6.0	body	body-114.jpg	1.0	93.0897436090936	0.11669515655739815
125.0	62.96288959032836	response	1.0	b		body	body-114.jpg	1.0	93.14820830633062	
126.0	63.021120049648744	body	0.0		45.0	body	body-55.jpg	0.0	93.206438765651	0.3833243129602124
126.0	63.015091139980996	pulse	0.0	t		body	body-55.jpg	0.0	93.20040985598325	
126.0	63.404444362608956	ISI	1.0		5.0	body	body-55.jpg	0.0	93.58976307861121	0.11669968435217015
127.0	63.521144046961126	body	0.0		46.0	body	body-13.jpg	0.0	93.70646276296338	0.3832630368037826
127.0	63.70454267612604	pulse	0.0	t		body	body-13.jpg	0.0	93.8898613921283	
127.0	63.90440708376491	ISI	1.0		5.0	body	body-13.jpg	0.0	94.08972579976717	0.11669213802770173
128.0	64.02109922179261	body	0.0		46.0	body	body-70.jpg	0.0	94.20641793779487	0.3832899017197633
128.0	64.40438912351237	ISI	1.0		6.0	body	body-70.jpg	0.0	94.58970783951463	0.11669847694065538
128.0	64.45296028731582	pulse	1.0	t		body	body-70.jpg	0.0	94.63827900331808	
129.0	64.52108760045303	body	0.0		46.0	body	body-99.jpg	0.0	94.70640631645529	0.38329835360309517
129.0	64.90438595405612	ISI	1.0		5.0	body	body-99.jpg	0.0	95.08970467005838	0.1166851954089907
130.0	65.02107114946512	body	0.0		46.0	body	body-121.jpg	0.0	95.20638986546737	0.3832859776312034
130.0	65.10449425890693	pulse	0.0	t		body	body-121.jpg	0.0	95.28981297490918	
130.0	65.40435712709632	ISI	1.0		6.0	body	body-121.jpg	0.0	95.58967584309858	0.1166987787933067
131.0	65.52105590588963	body	0.0		46.0	body	body-112.jpg	0.0	95.70637462189188	0.38330439066294275
131.0	65.80447593643112	pulse	0.0	t		body	body-112.jpg	0.0	95.98979465243337	
131.0	65.90436029655257	ISI	1.0		6.0	body	body-112.jpg	0.0	96.08967901255483	0.11668459170277856
132.0	66.02104488825535	word	0.0		46.0	character	word-116.jpg	0.0	96.2063636042576	0.38330137213324633
132.0	66.40434626038859	ISI	1.0		7.0	character	word-116.jpg	0.0	96.58966497639085	0.11666859349497827
133.0	66.52101485388357	word	0.0		45.0	character	word-108.jpg	0.0	96.70633356988583	0.3833037869567306
133.0	66.51366895964247	pulse	0.0	t		character	word-108.jpg	0.0	96.69898767564473	
133.0	66.9043186408403	ISI	1.0		7.0	character	word-108.jpg	0.0	97.08963735684256	0.11668821393914186
134.0	67.02100685477944	word	0.0		46.0	character	word-103.jpg	0.0	97.2063255707817	0.3833125406936233
134.0	67.20444019703746	pulse	0.0	t		character	word-103.jpg	0.0	97.38975891303971	
134.0	67.40431939547307	ISI	1.0		7.0	character	word-103.jpg	0.0	97.58963811147532	0.11668579911474808
135.0	67.52100519458781	word	0.0		46.0	character	word-13.jpg	0.0	97.70632391059007	0.3833028813983219
135.0	67.90430807598614	ISI	1.0		7.0	character	word-13.jpg	0.0	98.0896267919884	0.11668308243815773
135.0	67.93765649190664	pulse	1.0	t		character	word-13.jpg	0.0	98.1229752079089	
136.0	68.0209911584243	word	0.0		46.0	character	word-143.jpg	0.0	98.20630987442655	0.3833068054868818
136.0	68.40429796391118	ISI	1.0		7.0	character	word-143.jpg	0.0	98.58961667991343	0.1166915343214896
137.0	68.52098949823267	word	0.0		46.0	character	word-44.jpg	0.0	98.70630821423492	0.3832802424244619
137.0	68.60440385393804	pulse	0.0	t		character	word-44.jpg	0.0	98.7897225699403	
137.0	68.90426974065713	ISI	1.0		7.0	character	word-44.jpg	0.0	99.08958845665938	0.11669696767512505
138.0	69.02096670833225	word	0.0		46.0	character	word-107.jpg	0.0	99.20628542433451	0.38330137213324633
138.0	69.30438311663829	pulse	0.0	t		character	word-107.jpg	0.0	99.48970183264055	
138.0	69.4042680804655	ISI	1.0		7.0	character	word-107.jpg	0.0	99.58958679646776	0.11668187502618821
139.0	69.52094995549169	word	0.0		46.0	character	word-89.jpg	0.0	99.70626867149394	0.38332733148990883
139.0	69.9042772869816	ISI	1.0		7.0	character	word-89.jpg	0.0	100.08959600298385	0.11669304358656518
140.0	70.02097033056816	word	0.0		45.0	character	word-51.jpg	0.0	100.20628904657042	0.3833028813983219
140.0	70.01324108303652	pulse	0.0	t		character	word-51.jpg	0.0	100.19855979903878	
140.0	70.40427321196648	ISI	1.0		7.0	character	word-51.jpg	0.0	100.58959192796874	0.11668670467361153
141.0	70.5209599166401	word	0.0		46.0	character	word-98.jpg	0.0	100.70627863264235	0.38326816830476673
141.0	70.70434375500872	pulse	0.0	t		character	word-98.jpg	0.0	100.88966247101098	
141.0	70.90422808494486	ISI	1.0		6.0	character	word-98.jpg	0.0	101.08954680094712	0.11667191387778075
142.0	71.02089999882264	word	0.0		46.0	character	word-7.jpg	0.0	101.2062187148249	0.38331435181180495
142.0	71.40421435063445	ISI	1.0		7.0	character	word-7.jpg	0.0	101.5895330666367	0.1166851954089907
142.0	71.43730739892999	pulse	1.0	t		character	word-7.jpg	0.0	101.62262611493225	
143.0	71.52089954604344	word	0.0		46.0	character	word-136.jpg	0.0	101.7062182620457	0.38330167398589765
143.0	71.90420122002934	ISI	1.0		11.0	character	word-136.jpg	0.0	102.08951993603159	0.09999815869696249
144.0	72.0041993787263	baseline	0.0		48.0		baseline	0.0	102.18951809472856	0.399987201433305
144.0	72.10430952488059	pulse	0.0	t			baseline	0.0	102.28962824088285	
144.0	72.4041865801596	ISI	1.0		11.0		baseline	0.0	102.58950529616186	0.10001777914067134
145.0	72.50420435930027	baseline	0.0		48.0		baseline	0.0	102.68952307530253	0.3999705995192926
145.0	72.80429180611009	pulse	0.0	t			baseline	0.0	102.98961052211234	
145.0	72.90417495881957	ISI	1.0		11.0		baseline	0.0	103.08949367482182	0.09999936610893201
146.0	73.0041743249285	baseline	0.0		48.0		baseline	0.0	103.18949304093076	0.39997120322505
146.0	73.40414552815355	ISI	1.0		11.0		baseline	0.0	103.5894642441558	0.09999574387302346
147.0	73.50414127202657	baseline	0.0		47.0		baseline	0.0	103.68945998802883	0.40000772743633206
147.0	73.50845384562217	pulse	0.0	t			baseline	0.0	103.69377256162443	
147.0	73.9041489994629	ISI	1.0		11.0		baseline	0.0	104.08946771546516	0.09999634757878084
148.0	74.00414534704169	baseline	0.0		48.0		baseline	0.0	104.18946406304394	0.3999793532561853
148.0	74.20424097406749	pulse	0.0	t			baseline	0.0	104.38955969006975	
148.0	74.40412470029787	ISI	1.0		11.0		baseline	0.0	104.58944341630013	0.09999664943188691
149.0	74.50412134972976	baseline	0.0		48.0		baseline	0.0	104.68944006573201	0.4000013885233784
149.0	74.90412273825314	ISI	1.0		11.0		baseline	0.0	105.0894414542554	0.09998216048870745
149.0	74.90878063166338	pulse	1.0	t			baseline	0.0	105.09409934766563	
150.0	75.00410489874184	baseline	0.0		48.0		baseline	0.0	105.1894236147441	0.4000041052004235
150.0	75.40410900394227	ISI	1.0		11.0		baseline	0.0	105.58942771994452	0.09999544202037214
151.0	75.50410444596264	baseline	0.0		48.0		baseline	0.0	105.6894231619649	0.39997663657868543
151.0	75.60421730879352	pulse	0.0	t			baseline	0.0	105.78953602479578	
151.0	75.90408108254132	ISI	1.0		11.0		baseline	0.0	106.08939979854358	0.09999604572612952
152.0	76.00407712826745	baseline	0.0		48.0		baseline	0.0	106.18939584426971	0.4000035014946661
152.0	76.30419868446415	pulse	0.0	t			baseline	0.0	106.48951740046641	
152.0	76.40408062976212	ISI	1.0		11.0		baseline	0.0	106.58939934576438	0.09998246234135877
153.0	76.50406309210348	baseline	0.0		48.0		baseline	0.0	106.68938180810574	0.4000530053840521
153.0	76.90411609748753	ISI	1.0		11.0		baseline	0.0	107.08943481348979	0.10000751613961256
154.0	77.00412361362714	baseline	0.0		47.0		baseline	0.0	107.1894423296294	0.3999989736998941
154.0	77.00846124102009	pulse	0.0	t			baseline	0.0	107.19377995702234	
154.0	77.40412258732704	ISI	1.0		11.0		baseline	0.0	107.5894413033293	0.10000117722620416
155.0	77.50412376455324	baseline	0.0		48.0		baseline	0.0	107.6894424805555	0.39996909025467176
155.0	77.70422784346283	pulse	0.0	t			baseline	0.0	107.88954655946509	
155.0	77.90409285480791	ISI	1.0		11.0		baseline	0.0	108.08941157081017	0.0999921216371149
156.0	78.00408497644503	baseline	0.0		48.0		baseline	0.0	108.18940369244729	0.4000113496722406
156.0	78.40409632611727	ISI	1.0		11.0		baseline	0.0	108.58941504211953	0.09999936610847726
156.0	78.40885866066037	pulse	1.0	t			baseline	0.0	108.59417737666263	
157.0	78.50409569222575	baseline	0.0		48.0		baseline	0.0	108.689414408228	0.3999881069926232
157.0	78.90408379921837	ISI	1.0		11.0		baseline	0.0	109.08940251522063	0.09999604572567478
158.0	79.00407984494404	baseline	0.0		48.0		baseline	0.0	109.1893985609463	0.3999887106983806
158.0	79.10419150036341	pulse	0.0	t			baseline	0.0	109.28951021636567	
158.0	79.40406855564243	ISI	1.0		11.0		baseline	0.0	109.58938727164468	0.09998457531264648
159.0	79.50405313095507	baseline	0.0		48.0		baseline	0.0	109.68937184695733	0.40000652002436254
159.0	79.80417680012306	pulse	0.0	t			baseline	0.0	109.98949551612532	
159.0	79.90405965097943	ISI	1.0		11.0		baseline	0.0	110.08937836698169	0.09999936610893201
160.0	80.00405901708837	baseline	0.0		48.0		baseline	0.0	110.18937773309062	0.39998629587444157
160.0	80.40404531296281	ISI	1.0		11.0		baseline	0.0	110.58936402896506	0.09998517901840387
161.0	80.50403049198121	baseline	0.0		47.0		baseline	0.0	110.68934920798347	0.39999021996300144
161.0	80.50847195680126	pulse	0.0	t			baseline	0.0	110.69379067280352	
161.0	80.90402071194421	ISI	1.0		11.0		baseline	0.0	111.08933942794647	0.099990310519388
162.0	81.0040110224636	baseline	0.0		48.0		baseline	0.0	111.18932973846586	0.3999947477582282
162.0	81.20413592922887	pulse	0.0	t			baseline	0.0	111.38945464523113	
162.0	81.40400577022183	ISI	1.0		11.0		baseline	0.0	111.58932448622409	0.09999725313764429
163.0	81.50400302335947	baseline	0.0		48.0		baseline	0.0	111.68932173936173	0.4000022940826966
163.0	81.90400531744217	ISI	1.0		11.0		baseline	0.0	112.08932403344443	0.1000063087271883
163.0	81.90870697953505	pulse	1.0	t			baseline	0.0	112.09402569553731	
164.0	82.00401162616936	baseline	0.0		48.0		baseline	0.0	112.18933034217162	0.39997814584421576
164.0	82.40398977201357	ISI	1.0		11.0		baseline	0.0	112.58930848801583	0.09999574387256871
165.0	82.50398551588614	baseline	0.0		48.0		baseline	0.0	112.6893042318884	0.3999929366405013
165.0	82.60409837871748	pulse	0.0	t			baseline	0.0	112.78941709471974	
165.0	82.90397845252664	ISI	1.0		11.0		baseline	0.0	113.0892971685289	0.09999514016681132
166.0	83.00397359269346	baseline	0.0		48.0		baseline	0.0	113.18929230869571	0.3999902199634562
166.0	83.30464059723408	pulse	0.0	t			baseline	0.0	113.48995931323634	
166.0	83.40396381265691	ISI	1.0		11.0		baseline	0.0	113.58928252865917	0.09999695128453823
167.0	83.50396076394145	baseline	0.0		48.0		baseline	0.0	113.6892794799437	0.3999881069926232
167.0	83.90394887093407	ISI	1.0		4.0		baseline	0.0	114.08926758693633	0.11664716193308777
168.0	84.02059603286716	word	0.0		45.0	character	word-36.jpg	0.0	114.20591474886942	0.3833037869567306
168.0	84.01237536867575	pulse	0.0	t		character	word-36.jpg	0.0	114.197694084678	
168.0	84.40389981982389	ISI	1.0		7.0	character	word-36.jpg	0.0	114.58921853582615	0.11666859349497827
169.0	84.52056841331887	word	0.0		46.0	character	word-64.jpg	0.0	114.70588712932113	0.38328477021877916
169.0	84.70397338139628	pulse	0.0	t		character	word-64.jpg	0.0	114.88929209739854	
169.0	84.90385318353765	ISI	1.0		7.0	character	word-64.jpg	0.0	115.0891718995399	0.11668640282096021
170.0	85.02053958635861	word	0.0		46.0	character	word-122.jpg	0.0	115.20585830236087	0.38330197583945846
170.0	85.40384156219807	ISI	1.0		7.0	character	word-122.jpg	0.0	115.58916027820032	0.11668308243815773
170.0	85.44035792519526	pulse	1.0	t		character	word-122.jpg	0.0	115.62567664119751	
171.0	85.52052464463623	word	0.0		46.0	character	word-21.jpg	0.0	115.70584336063848	0.38330499436870014
171.0	85.90382963900493	ISI	1.0		7.0	character	word-21.jpg	0.0	116.08914835500718	0.11668278058505166
172.0	86.02051241958998	word	0.0		46.0	character	word-29.jpg	0.0	116.20583113559223	0.3833016739863524
172.0	86.10393462347292	pulse	0.0	t		character	word-29.jpg	0.0	116.28925333947518	
172.0	86.40381409357633	ISI	1.0		6.0	character	word-29.jpg	0.0	116.58913280957859	0.11667251758353814
173.0	86.52048661115987	word	0.0		46.0	character	word-53.jpg	0.0	116.70580532716212	0.3833158610764258
173.0	86.80392263990962	pulse	0.0	t		character	word-53.jpg	0.0	116.98924135591187	
173.0	86.9038024722363	ISI	1.0		7.0	character	word-53.jpg	0.0	117.08912118823855	0.11668278058505166
174.0	87.02048525282135	word	0.0		46.0	character	word-114.jpg	0.0	117.2058039688236	0.38328718504317294
174.0	87.40377243786452	ISI	1.0		7.0	character	word-114.jpg	0.0	117.58909115386678	0.11669485470429208
175.0	87.52046729256881	word	0.0		45.0	character	word-40.jpg	0.0	117.70578600857107	0.3833065036337757
175.0	87.51230730082762	pulse	0.0	t		character	word-40.jpg	0.0	117.69762601682987	
175.0	87.90377379620259	ISI	1.0		7.0	character	word-40.jpg	0.0	118.08909251220484	0.11668670467406628
176.0	88.02046050087665	word	0.0		46.0	character	word-88.jpg	0.0	118.20577921687891	0.3833016739863524
176.0	88.20386939304308	pulse	0.0	t		character	word-88.jpg	0.0	118.38918810904534	
176.0	88.403762174863	ISI	1.0		7.0	character	word-88.jpg	0.0	118.58908089086526	0.11668398799702118
177.0	88.52044616286003	word	0.0		46.0	character	word-12.jpg	0.0	118.70576487886228	0.3832932221025658
177.0	88.90373938496259	ISI	1.0		7.0	character	word-12.jpg	0.0	119.08905810096485	0.11669364729232257
177.0	88.93712553250634	pulse	1.0	t		character	word-12.jpg	0.0	119.1224442485086	
178.0	89.02043303225491	word	0.0		46.0	character	word-127.jpg	0.0	119.20575174825717	0.38330197583945846
178.0	89.40373500809437	ISI	1.0		7.0	character	word-127.jpg	0.0	119.58905372409663	0.11668398799702118
179.0	89.5204189960914	word	0.0		46.0	character	word-96.jpg	0.0	119.70573771209365	0.3833022776921098
179.0	89.603845425916	pulse	0.0	t		character	word-96.jpg	0.0	119.78916414191826	
179.0	89.9037212737835	ISI	1.0		6.0	character	word-96.jpg	0.0	120.08903998978576	0.1166851954089907
180.0	90.0204064691925	word	0.0		46.0	character	word-10.jpg	0.0	120.20572518519475	0.38330107028014027
180.0	90.30382770714596	pulse	0.0	t		character	word-10.jpg	0.0	120.48914642314821	
180.0	90.40370753947263	ISI	1.0		6.0	character	word-10.jpg	0.0	120.58902625547489	0.11667070646581124
181.0	90.52037824593845	word	0.0		46.0	character	word-135.jpg	0.0	120.7056969619407	0.3833496686106628
181.0	90.90372791454911	ISI	1.0		7.0	character	word-135.jpg	0.0	121.08904663055137	0.11667040461270517
182.0	91.02039831916181	word	0.0		45.0	character	word-16.jpg	0.0	121.20571703516407	0.3833155592233197
182.0	91.01216346788033	pulse	0.0	t		character	word-16.jpg	0.0	121.19748218388258	
182.0	91.40371387838513	ISI	1.0		6.0	character	word-16.jpg	0.0	121.58903259438739	0.11688924802683687
183.0	91.52060312641197	word	0.0		46.0	character	word-57.jpg	0.0	121.70592184241423	0.38305053230260455
183.0	91.7038140030204	pulse	0.0	t		character	word-57.jpg	0.0	121.88913271902265	
183.0	91.90365365871457	ISI	1.0		6.0	character	word-57.jpg	0.0	122.08897237471683	0.11668187502618821
184.0	92.02033553374076	word	0.0		46.0	character	word-34.jpg	0.0	122.20565424974302	0.38330559807491227
184.0	92.40364113181568	ISI	1.0		1.0	character	word-34.jpg	0.0	122.58895984781793	0.11669274173391386
184.0	92.47805906115855	pulse	1.0	t		character	word-34.jpg	0.0	122.6633777771608	
185.0	92.52033387354959	word	0.0		46.0	character	word-15.jpg	0.0	122.70565258955185	0.3833001647212768
185.0	92.90363403827087	ISI	1.0		1.0	character	word-15.jpg	0.0	123.08895275427312	0.11670632511777512
186.0	93.02034036338864	word	0.0		46.0	character	word-126.jpg	0.0	123.2056590793909	0.3832781294531742
186.0	93.10374958759348	pulse	0.0	t		character	word-126.jpg	0.0	123.28906830359574	
186.0	93.40361849284182	ISI	1.0		0.0	character	word-126.jpg	0.0	123.58893720884407	0.1250290156185656
187.0	93.52864750846038	word	0.0		45.0	character	word-41.jpg	0.0	123.71396622446264	0.37495664636480797
187.0	93.80372462435162	pulse	0.0	t		character	word-41.jpg	0.0	123.98904334035387	
187.0	93.90360415482519	ISI	1.0		7.0	character	word-41.jpg	0.0	124.08892287082745	0.11668489355588463
188.0	94.02028904838107	word	0.0		46.0	character	word-41.jpg	1.0	124.20560776438333	0.38329744804468646
188.0	94.40358649642576	ISI	1.0		4.0	character	word-41.jpg	1.0	124.58890521242802	0.1166870065267176
188.0	94.46576700390688	response	1.0	b		character	word-41.jpg	1.0	124.65108571990913	
189.0	94.52027350295248	word	0.0		45.0	character	word-30.jpg	0.0	124.70559221895473	0.3833007684270342
189.0	94.51234020280299	pulse	0.0	t		character	word-30.jpg	0.0	124.69765891880525	
189.0	94.90357427137951	ISI	1.0		0.0	character	word-30.jpg	0.0	125.08889298738177	0.15002998909403686
190.0	95.05360426047355	word	0.0		42.0	character	word-128.jpg	0.0	125.2389229764758	0.3499505413888073
190.0	95.20368737569333	pulse	0.0	t		character	word-128.jpg	0.0	125.38900609169559	
190.0	95.40355480186236	ISI	1.0		0.0	character	word-128.jpg	0.0	125.58887351786461	0.18335969012969144
191.0	95.58691449199205	word	0.0		38.0	character	word-144.jpg	0.0	125.7722332079943	0.3166317070599689
191.0	95.90354619905202	ISI	1.0		0.0	character	word-144.jpg	0.0	126.08886491505427	0.1500173112685843
192.0	96.0535635103206	car	0.0		41.0	object	car-1.jpg	0.0	126.23888222632286	0.34995989883100265
192.0	96.0473172665038	pulse	0.0	t		object	car-1.jpg	0.0	126.23263598250605	
192.0	96.4035234091516	ISI	1.0		0.0	object	car-1.jpg	0.0	126.58884212515386	0.16671068689356616
193.0	96.57023409604517	car	0.0		40.0	object	car-36.jpg	0.0	126.75555281204743	0.3332846343851088
193.0	96.60366733265482	pulse	0.0	t		object	car-36.jpg	0.0	126.78898604865708	
193.0	96.90351873043028	ISI	1.0		0.0	object	car-36.jpg	0.0	127.08883744643254	0.1583695833614911
194.0	97.06188831379177	car	0.0		41.0	object	car-47.jpg	0.0	127.24720702979403	0.34160913600317144
194.0	97.30362033414531	pulse	0.0	t		object	car-47.jpg	0.0	127.48893905014756	
194.0	97.40349744979494	ISI	1.0		0.0	object	car-47.jpg	0.0	127.5888161657972	0.22505705776075047
195.0	97.62855450755569	car	0.0		33.0	object	car-67.jpg	0.0	127.81387322355795	0.2749563746970125
195.0	97.9035108822527	ISI	1.0		0.0	object	car-67.jpg	0.0	128.08882959825496	0.35837435263874795
196.0	98.26188523489145	car	0.0		16.0	object	car-93.jpg	0.0	128.4472039508937	0.1416387779663637
196.0	98.24630599863394	pulse	0.0	t		object	car-93.jpg	0.0	128.4316247146362	
196.0	98.40352401285782	ISI	1.0		0.0	object	car-93.jpg	0.0	128.58884272886007	0.33334983462964374
197.0	98.73687384748746	car	0.0		19.0	object	car-102.jpg	0.0	128.92219256348972	0.16662858288191273
197.0	98.72535332646521	pulse	0.0	t		object	car-102.jpg	0.0	128.91067204246747	
197.0	98.90350243036937	ISI	1.0		0.0	object	car-102.jpg	0.0	129.08882114637163	0.11668579911474808
198.0	99.02018822948412	car	0.0		46.0	object	car-144.jpg	0.0	129.20550694548638	0.38330257954521585
198.0	99.40349080902934	ISI	1.0		0.0	object	car-144.jpg	0.0	129.5888095250316	0.1416934133567338
199.0	99.54518422238607	car	0.0		42.0	object	car-95.jpg	0.0	129.73050293838833	0.3582937578912606
199.0	99.53708218641759	pulse	0.0	t		object	car-95.jpg	0.0	129.72240090241985	
199.0	99.90347798027733	ISI	1.0		4.0	object	car-95.jpg	0.0	130.0887966962796	0.11669636396982241
200.0	100.02017434424715	car	0.0		46.0	object	car-96.jpg	0.0	130.2054930602494	0.38324643488977017
200.0	100.10354704424026	pulse	0.0	t		object	car-96.jpg	0.0	130.28886576024252	
200.0	100.40342077913692	ISI	1.0		2.0	object	car-96.jpg	0.0	130.58873949513918	0.11670843808906284
201.0	100.52012921722599	car	0.0		46.0	object	car-48.jpg	0.0	130.70544793322824	0.3832859776307487
201.0	100.80355981262164	pulse	0.0	t		object	car-48.jpg	0.0	130.9888785286239	
201.0	100.90341519485673	ISI	1.0		4.0	object	car-48.jpg	0.0	131.088733910859	0.10834711040661205
202.0	101.01176230526335	car	0.0		47.0	object	car-43.jpg	0.0	131.1970810212656	0.39163372192888346
202.0	101.40339602719223	ISI	1.0		0.0	object	car-43.jpg	0.0	131.5887147431945	0.15003391318259673
203.0	101.55342994037483	car	0.0		41.0	object	car-82.jpg	0.0	131.73874865637708	0.3499517488003221
203.0	101.54693225302162	pulse	0.0	t		object	car-82.jpg	0.0	131.73225096902388	
203.0	101.90338168917515	ISI	1.0		0.0	object	car-82.jpg	0.0	132.0887004051774	0.5916783358002249
204.0	102.49506002497537	body	0.0		0.0	body	body-134.jpg	0.0	132.68037874097763	0.004225036229854595
204.0	102.49928506120523	ISI	1.0		0.0	body	body-134.jpg	0.0	132.68460377720749	0.05412254204884448
205.0	102.55340760325407	body	0.0		41.0	body	body-134.jpg	1.0	132.73872631925633	0.3499541636242611
205.0	102.48793418156038	pulse	0.0	t		body	body-134.jpg	1.0	132.67325289756263	
205.0	102.90336176687833	ISI	1.0		0.0	body	body-134.jpg	1.0	133.0886804828806	0.9249988906904036
206.0	103.82836065756874	body	0.0		0.0	body	body-11.jpg	0.0	134.013679373571	0.004244656674018188
206.0	103.83260531424276	ISI	1.0		0.0	body	body-11.jpg	0.0	134.017924030245	0.1707283501227721
207.0	104.00333366436553	body	0.0		0.0	body	body-41.jpg	0.0	134.18865238036778	0.004255221528183029
207.0	104.00758888589371	ISI	1.0		0.0	body	body-41.jpg	0.0	134.19290760189597	0.15410711736149096
208.0	104.1616960032552	body	0.0		28.0	body	body-49.jpg	0.0	134.34701471925746	0.2416281829264335
208.0	103.81974939561496	pulse	0.0	t		body	body-49.jpg	0.0	134.00506811161722	
208.0	103.81990937769706	pulse	0.0	t		body	body-49.jpg	0.0	134.00522809369932	
208.0	104.30343046861753	pulse	0.0	t		body	body-49.jpg	0.0	134.4887491846198	
208.0	104.40332418618164	ISI	1.0		0.0	body	body-49.jpg	0.0	134.5886429021839	0.16668412383114628
209.0	104.57000831001278	body	0.0		40.0	body	body-111.jpg	0.0	134.75532702601504	0.33330304741684813
209.0	104.90331135742963	ISI	1.0		0.0	body	body-111.jpg	0.0	135.0886300734319	0.2500148662597894
210.0	105.15332622368942	body	0.0		29.0	body	body-48.jpg	0.0	135.33864493969168	0.2499717012824476
210.0	105.14491176988167	pulse	0.0	t		body	body-48.jpg	0.0	135.33023048588393	
210.0	105.40329792497187	ISI	1.0		0.0	body	body-48.jpg	0.0	135.58861664097412	0.6834005912091925
211.0	106.08669851618106	body	0.0		0.0	body	body-71.jpg	0.0	136.27201723218332	0.004260654882273229
211.0	106.09095917106333	ISI	1.0		0.0	body	body-71.jpg	0.0	136.2762778870656	0.262388725670462
212.0	106.3533478967338	body	0.0		5.0	body	body-86.jpg	0.0	136.53866661273605	0.049947009708375845
212.0	106.08173514755026	pulse	0.0	t		body	body-86.jpg	0.0	136.26705386355252	
212.0	106.40329490644217	ISI	1.0		1.0	body	body-86.jpg	0.0	136.58861362244443	0.11671296588383484
212.0	106.4818533531793	pulse	1.0	t		body	body-86.jpg	0.0	136.66717206918156	
213.0	106.520007872326	body	0.0		46.0	body	body-87.jpg	0.0	136.70532658832826	0.3832850720718852
213.0	106.90329294439789	ISI	1.0		4.0	body	body-87.jpg	0.0	137.08861166040015	0.11669787323444325
214.0	107.01999081763233	body	0.0		46.0	body	body-32.jpg	0.0	137.2053095336346	0.3832449256246946
214.0	107.10336623430248	pulse	0.0	t		body	body-32.jpg	0.0	137.28868495030474	
214.0	107.40323574325703	ISI	1.0		0.0	body	body-32.jpg	0.0	137.58855445925929	0.20835432469311854
215.0	107.61159006795015	body	0.0		35.0	body	body-92.jpg	0.0	137.7969087839524	0.29163314840798193
215.0	107.80336149521054	pulse	0.0	t		body	body-92.jpg	0.0	137.9886802112128	
215.0	107.90322321635813	ISI	1.0		11.0	body	body-92.jpg	0.0	138.08854193236039	0.10000842169847601
216.0	108.0032316380566	baseline	0.0		48.0		baseline	0.0	138.18855035405886	0.399973618048989
216.0	108.4032052561056	ISI	1.0		11.0		baseline	0.0	138.58852397210785	0.10000027166779546
217.0	108.50320552777339	baseline	0.0		47.0		baseline	0.0	138.68852424377565	0.3999808625208061
217.0	108.50763280550291	pulse	0.0	t			baseline	0.0	138.69295152150517	
217.0	108.9031863902942	ISI	1.0		11.0		baseline	0.0	139.08850510629645	0.10003438105468376
218.0	109.00322077134888	baseline	0.0		48.0		baseline	0.0	139.18853948735114	0.3999669772838388
218.0	109.20331005946218	pulse	0.0	t			baseline	0.0	139.38862877546444	
218.0	109.40318774863272	ISI	1.0		11.0		baseline	0.0	139.58850646463497	0.09999272534287229
219.0	109.50318047397559	baseline	0.0		48.0		baseline	0.0	139.68849918997785	0.3999995774056515
219.0	109.90318005138124	ISI	1.0		11.0		baseline	0.0	140.0884987673835	0.09998427345954042
219.0	109.9079553656029	pulse	1.0	t			baseline	0.0	140.09327408160516	
220.0	110.00316432484078	baseline	0.0		48.0		baseline	0.0	140.18848304084304	0.4000038033477722
220.0	110.40316812818855	ISI	1.0		11.0		baseline	0.0	140.5884868441908	0.10001657172870182
221.0	110.50318469991726	baseline	0.0		48.0		baseline	0.0	140.6885034159195	0.39995912910580955
221.0	110.60334072772548	pulse	0.0	t			baseline	0.0	140.78865944372774	
221.0	110.90314382902307	ISI	1.0		11.0		baseline	0.0	141.08846254502532	0.10000479946256746
222.0	111.00314862848563	baseline	0.0		48.0		baseline	0.0	141.1884673444879	0.4000062181717112
222.0	111.30324633829696	pulse	0.0	t			baseline	0.0	141.48856505429922	
222.0	111.40315484665734	ISI	1.0		11.0		baseline	0.0	141.5884735626596	0.10000419575635533
223.0	111.5031590424137	baseline	0.0		48.0		baseline	0.0	141.68847775841596	0.3999739199020951
223.0	111.9031329623158	ISI	1.0		11.0		baseline	0.0	142.08845167831805	0.09998970681317587
224.0	112.00312266912897	baseline	0.0		47.0		baseline	0.0	142.18844138513123	0.399991729228077
224.0	112.00742618713502	pulse	0.0	t			baseline	0.0	142.19274490313728	
224.0	112.40311439835705	ISI	1.0		11.0		baseline	0.0	142.5884331143593	0.09999423460794787
225.0	112.503108632965	baseline	0.0		48.0		baseline	0.0	142.68842734896725	0.3999784476968671
225.0	112.70325044349738	pulse	0.0	t			baseline	0.0	142.88856915949964	
225.0	112.90308708066186	ISI	1.0		11.0		baseline	0.0	143.08840579666412	0.10000147907976498
226.0	113.00308855974163	baseline	0.0		48.0		baseline	0.0	143.18840727574388	0.4000720221224583
226.0	113.40316058186409	ISI	1.0		11.0		baseline	0.0	143.58847929786634	0.09999514016681132
226.0	113.40782390862796	pulse	1.0	t			baseline	0.0	143.59314262463022	
227.0	113.5031557220309	baseline	0.0		48.0		baseline	0.0	143.68847443803315	0.3999796551088366
227.0	113.90313537713973	ISI	1.0		0.0		baseline	0.0	144.088454093142	0.34999672489493605
228.0	114.25313210203467	adult	0.0		17.0	face	adult-92.jpg	0.0	144.43845081803693	0.14995392214177627
228.0	114.24055901965403	pulse	0.0	t		face	adult-92.jpg	0.0	144.4258777356563	
228.0	114.40308602417645	ISI	1.0		0.0	face	adult-92.jpg	0.0	144.5884047401787	0.38334997046376884
229.0	114.78643599464021	adult	0.0		14.0	face	adult-117.jpg	0.0	144.97175471064247	0.11662995631286321
229.0	114.80321026686534	pulse	0.0	t		face	adult-117.jpg	0.0	144.9885289828676	
229.0	114.90306595095308	ISI	1.0		0.0	face	adult-117.jpg	0.0	145.08838466695533	0.22500604460583418
230.0	115.12807199555891	adult	0.0		33.0	face	adult-72.jpg	0.0	145.31339071156117	0.27499682299776396
230.0	115.40306881855668	ISI	1.0		0.0	face	adult-72.jpg	0.0	145.58838753455893	0.15834935921111537
231.0	115.56141817776779	adult	0.0		40.0	face	adult-83.jpg	0.0	145.74673689377005	0.3416341898009705
231.0	115.5475748980266	pulse	0.0	t		face	adult-83.jpg	0.0	145.73289361402885	
231.0	115.90305236756876	ISI	1.0		0.0	face	adult-83.jpg	0.0	146.08837108357102	0.37502033734472207
232.0	116.27807270491348	adult	0.0		14.0	face	adult-37.jpg	0.0	146.46339142091574	0.12496140054963689
232.0	116.26639884257474	pulse	0.0	t		face	adult-37.jpg	0.0	146.451717558577	
232.0	116.40303410546312	ISI	1.0		0.0	face	adult-37.jpg	0.0	146.58835282146538	0.3250325774833982
233.0	116.72806668294652	adult	0.0		21.0	face	adult-85.jpg	0.0	146.91338539894878	0.17495036782293027
233.0	116.90301705076945	ISI	1.0		0.0	face	adult-85.jpg	0.0	147.0883357667717	0.2833542265907454
234.0	117.1863712773602	adult	0.0		25.0	face	adult-53.jpg	0.0	147.37168999336245	0.21662630389164406
234.0	117.17673613008174	pulse	0.0	t		face	adult-53.jpg	0.0	147.362054846084	
234.0	117.40299758125184	ISI	1.0		3.0	face	adult-53.jpg	0.0	147.5883162972541	0.11670179732345787
235.0	117.5196993785753	adult	0.0		46.0	face	adult-21.jpg	0.0	147.70501809457755	0.3832672627459033
235.0	117.60318889567407	pulse	0.0	t		face	adult-21.jpg	0.0	147.78850761167632	
235.0	117.9029666413212	ISI	1.0		3.0	face	adult-21.jpg	0.0	148.08828535732346	0.11669304358656518
236.0	118.01965968490777	adult	0.0		46.0	face	adult-104.jpg	0.0	148.20497840091002	0.3832929202494597
236.0	118.30305979315199	pulse	0.0	t		face	adult-104.jpg	0.0	148.48837850915424	
236.0	118.40295260515722	ISI	1.0		0.0	face	adult-104.jpg	0.0	148.58827132115948	0.1583650555667191
237.0	118.56131766072394	adult	0.0		41.0	face	adult-69.jpg	0.0	148.7466363767262	0.34163298238900097
237.0	118.90295064311294	ISI	1.0		8.0	face	adult-69.jpg	0.0	149.0882693591152	0.1167060232651238
238.0	119.01965666637807	adult	0.0		45.0	face	adult-2.jpg	0.0	149.20497538238033	0.3832787331589316
238.0	119.01134061664334	pulse	0.0	t		face	adult-2.jpg	0.0	149.1966593326456	
238.0	119.402935399537	ISI	1.0		5.0	face	adult-2.jpg	0.0	149.58825411553926	0.11668610096830889
239.0	119.51962150050531	adult	0.0		46.0	face	adult-144.jpg	0.0	149.70494021650757	0.3833007684270342
239.0	119.703041259379	pulse	0.0	t		face	adult-144.jpg	0.0	149.88835997538126	
239.0	119.90292226893234	ISI	1.0		11.0	face	adult-144.jpg	0.0	150.0882409849346	0.10001717543491395
240.0	120.00293944436726	baseline	0.0		48.0		baseline	0.0	150.18825816036951	0.3999709013719439
240.0	120.4029103457392	ISI	1.0		11.0		baseline	0.0	150.58822906174146	0.1000026864917345
240.0	120.40753322420323	pulse	1.0	t			baseline	0.0	150.5928519402055	
241.0	120.50291303223094	baseline	0.0		48.0		baseline	0.0	150.6882317482332	0.3999687884015657
241.0	120.9028818206325	ISI	1.0		11.0		baseline	0.0	151.08820053663476	0.09999061237203932
242.0	121.00287243300454	baseline	0.0		48.0		baseline	0.0	151.1881911490068	0.40001044411337716
242.0	121.10300491627959	pulse	0.0	t			baseline	0.0	151.28832363228184	
242.0	121.40288287711792	ISI	1.0		11.0		baseline	0.0	151.58820159312017	0.1000017809324163
243.0	121.50288465805033	baseline	0.0		48.0		baseline	0.0	151.6882033740526	0.3999841829036086
243.0	121.80297482153674	pulse	0.0	t			baseline	0.0	151.988293537539	
243.0	121.90286884095394	ISI	1.0		11.0		baseline	0.0	152.0881875569562	0.09999815869696249
244.0	122.0028669996509	baseline	0.0		48.0		baseline	0.0	152.18818571565316	0.399973618048989
244.0	122.4028406176999	ISI	1.0		11.0		baseline	0.0	152.58815933370215	0.09999936610847726
245.0	122.50283998380837	baseline	0.0		47.0		baseline	0.0	152.68815869981063	0.4000065200248173
245.0	122.50707769786368	pulse	0.0	t			baseline	0.0	152.69239641386594	
245.0	122.90284650383319	ISI	1.0		11.0		baseline	0.0	153.08816521983545	0.09999453646105394
246.0	123.00284104029424	baseline	0.0		48.0		baseline	0.0	153.1881597562965	0.3999890125510319
246.0	123.2029469303211	pulse	0.0	t			baseline	0.0	153.38826564632336	
246.0	123.40283005284527	ISI	1.0		11.0		baseline	0.0	153.58814876884753	0.10000510131567353
247.0	123.50283515416095	baseline	0.0		48.0		baseline	0.0	153.6881538701632	0.4000496850012496
247.0	123.9028848391622	ISI	1.0		11.0		baseline	0.0	154.08820355516445	0.09999846054961381
247.0	123.90753216771782	pulse	1.0	t			baseline	0.0	154.09285088372008	
248.0	124.00288329971181	baseline	0.0		48.0		baseline	0.0	154.18820201571407	0.3999875032864111
248.0	124.40287080299822	ISI	1.0		11.0		baseline	0.0	154.58818951900048	0.09999634757923559
249.0	124.50286715057746	baseline	0.0		48.0		baseline	0.0	154.68818586657972	0.3999905218161075
249.0	124.6029809189672	pulse	0.0	t			baseline	0.0	154.78829963496946	
249.0	124.90285767239357	ISI	1.0		11.0		baseline	0.0	155.08817638839582	0.09999785684385643
250.0	125.00285552923742	baseline	0.0		48.0		baseline	0.0	155.18817424523968	0.3999887106983806
250.0	125.30295776684352	pulse	0.0	t			baseline	0.0	155.48827648284578	
250.0	125.4028442399358	ISI	1.0		11.0		baseline	0.0	155.58816295593806	0.09999423460794787
251.0	125.50283847454375	baseline	0.0		48.0		baseline	0.0	155.688157190546	0.39999142737497095
251.0	125.90282990191872	ISI	1.0		6.0		baseline	0.0	156.08814861792098	0.12497075799228696
252.0	126.02780065991101	body	0.0		44.0	body	body-2.jpg	0.0	156.21311937591327	0.37498290757457653
252.0	126.01337299279066	pulse	0.0	t		body	body-2.jpg	0.0	156.19869170879292	
252.0	126.40278356748559	ISI	1.0		5.0	body	body-2.jpg	0.0	156.58810228348784	0.11667070646581124
253.0	126.5194542739514	body	0.0		46.0	body	body-104.jpg	0.0	156.70477298995365	0.38328114798332535
253.0	126.70285622349911	pulse	0.0	t		body	body-104.jpg	0.0	156.88817493950137	
253.0	126.90273542193472	ISI	1.0		5.0	body	body-104.jpg	0.0	157.08805413793698	0.11668881764489925
254.0	127.01942423957962	body	0.0		46.0	body	body-96.jpg	0.0	157.20474295558188	0.3832992591619586
254.0	127.40272349874158	ISI	1.0		6.0	body	body-96.jpg	0.0	157.58804221474384	0.1166851954089907
254.0	127.44574841580015	pulse	1.0	t		body	body-96.jpg	0.0	157.6310671318024	
255.0	127.51940869415057	body	0.0		46.0	body	body-21.jpg	0.0	157.70472741015283	0.38329925916241336
255.0	127.90270795331298	ISI	1.0		5.0	body	body-21.jpg	0.0	158.08802666931524	0.10833292331653865
256.0	128.01104087662952	body	0.0		47.0	body	body-91.jpg	0.0	158.19635959263178	0.3916454941950178
256.0	128.10281806928197	pulse	0.0	t		body	body-91.jpg	0.0	158.28813678528422	
256.0	128.40268637082454	ISI	1.0		6.0	body	body-91.jpg	0.0	158.5880050868268	0.10834590299464253
257.0	128.51103227381918	body	0.0		47.0	body	body-91.jpg	1.0	158.69635098982144	0.3916503238428959
257.0	128.80277922080268	pulse	0.0	t		body	body-91.jpg	1.0	158.98809793680493	
257.0	128.85275551025097	response	0.0	b		body	body-91.jpg	1.0	159.03807422625323	
257.0	128.90268259766208	ISI	1.0		4.0	body	body-91.jpg	1.0	159.08800131366434	0.10831964178532871
258.0	129.0110022394474	body	0.0		47.0	body	body-77.jpg	0.0	159.19632095544966	0.3916669257569083
258.0	129.40266916520432	ISI	1.0		5.0	body	body-77.jpg	0.0	159.58798788120657	0.11667795093762834
259.0	129.51934711614194	body	0.0		45.0	body	body-125.jpg	0.0	159.7046658321442	0.38331223884051724
259.0	129.5080626441536	pulse	0.0	t		body	body-125.jpg	0.0	159.69338136015585	
259.0	129.90265935498246	ISI	1.0		6.0	body	body-125.jpg	0.0	160.08797807098472	0.10831239731351161
260.0	130.01097175229597	body	0.0		47.0	body	body-107.jpg	0.0	160.19629046829823	0.39165092754865327
260.0	130.2027489147631	pulse	0.0	t		body	body-107.jpg	0.0	160.38806763076536	
260.0	130.40262267984463	ISI	1.0		5.0	body	body-107.jpg	0.0	160.58794139584688	0.10833292331653865
261.0	130.51095560316116	body	0.0		47.0	body	body-76.jpg	0.0	160.69627431916342	0.39167356652296803
261.0	130.90262916968413	ISI	1.0		5.0	body	body-76.jpg	0.0	161.0879478856864	0.10831632140207148
261.0	130.95813450025662	pulse	1.0	t		body	body-76.jpg	0.0	161.14345321625888	
262.0	131.0109454910862	body	0.0		47.0	body	body-115.jpg	0.0	161.19626420708846	0.39167054799281686
262.0	131.40261603907902	ISI	1.0		4.0	body	body-115.jpg	0.0	161.58793475508128	0.1166851954089907
263.0	131.519301234488	body	0.0		46.0	body	body-53.jpg	0.0	161.70461995049027	0.3832853739249913
263.0	131.60272675875376	pulse	0.0	t		body	body-53.jpg	0.0	161.78804547475602	
263.0	131.902586608413	ISI	1.0		5.0	body	body-53.jpg	0.0	162.08790532441526	0.11668942135111138
264.0	132.01927602976411	adult	0.0		46.0	face	adult-40.jpg	0.0	162.20459474576637	0.3833065036337757
264.0	132.3026957584525	pulse	0.0	t		face	adult-40.jpg	0.0	162.48801447445476	
264.0	132.4025825333979	ISI	1.0		7.0	face	adult-40.jpg	0.0	162.58790124940015	0.11668127131997608
265.0	132.51926380471787	adult	0.0		46.0	face	adult-121.jpg	0.0	162.70458252072012	0.38332733148990883
265.0	132.90259113620777	ISI	1.0		5.0	face	adult-121.jpg	0.0	163.08790985221003	0.11668459170323331
266.0	133.019275727911	adult	0.0		45.0	face	adult-55.jpg	0.0	163.20459444391327	0.38331012586968427
266.0	133.01146739489695	pulse	0.0	t		face	adult-55.jpg	0.0	163.1967861108992	
266.0	133.4025858537807	ISI	1.0		7.0	face	adult-55.jpg	0.0	163.58790456978295	0.1166942509985347
267.0	133.51928010477923	adult	0.0		46.0	face	adult-55.jpg	1.0	163.70459882078148	0.38325428306734466
267.0	133.70266696167755	pulse	0.0	t		face	adult-55.jpg	1.0	163.8879856776798	
267.0	133.90253438784657	ISI	1.0		6.0	face	adult-55.jpg	1.0	164.08785310384883	0.1166996843526249
268.0	134.0192340721992	adult	0.0		46.0	face	adult-17.jpg	0.0	164.20455278820145	0.38330016472082207
268.0	134.07765560445887	response	0.0	b		face	adult-17.jpg	0.0	164.26297432046113	
268.0	134.40253423692002	ISI	1.0		5.0	face	adult-17.jpg	0.0	164.58785295292228	0.11667131017202337
268.0	134.45181626450267	pulse	1.0	t		face	adult-17.jpg	0.0	164.63713498050492	
269.0	134.51920554709204	adult	0.0		46.0	face	adult-120.jpg	0.0	164.7045242630943	0.3833182759003648
269.0	134.9025238229924	ISI	1.0		7.0	face	adult-120.jpg	0.0	165.08784253899466	0.11668308243815773
270.0	135.01920690543056	adult	0.0		46.0	face	adult-143.jpg	0.0	165.20452562143282	0.3833019758390037
270.0	135.10263273154897	pulse	0.0	t		face	adult-143.jpg	0.0	165.28795144755122	
270.0	135.40250888126957	ISI	1.0		5.0	face	adult-143.jpg	0.0	165.58782759727183	0.11669002505686876
271.0	135.51919890632644	adult	0.0		46.0	face	adult-26.jpg	0.0	165.7045176223287	0.3832962406322622
271.0	135.80260957942528	pulse	0.0	t		face	adult-26.jpg	0.0	165.98792829542754	
271.0	135.9024951469587	ISI	1.0		6.0	face	adult-26.jpg	0.0	166.08781386296096	0.11668549726209676
272.0	136.0191806442208	adult	0.0		46.0	face	adult-4.jpg	0.0	166.20449936022305	0.38330107028014027
272.0	136.40248171450094	ISI	1.0		7.0	face	adult-4.jpg	0.0	166.5878004305032	0.11667885649603704
273.0	136.51916057099697	adult	0.0		45.0	face	adult-94.jpg	0.0	166.70447928699923	0.3833074091930939
273.0	136.50944784750163	pulse	0.0	t		face	adult-94.jpg	0.0	166.6947665635039	
273.0	136.90246798019007	ISI	1.0		3.0	face	adult-94.jpg	0.0	167.08778669619232	0.11667040461270517
274.0	137.01913838480277	adult	0.0		46.0	face	adult-126.jpg	0.0	167.20445710080503	0.3833182759003648
274.0	137.20258742341593	pulse	0.0	t		face	adult-126.jpg	0.0	167.3879061394182	
274.0	137.40245666070314	ISI	1.0		6.0	face	adult-126.jpg	0.0	167.5877753767054	0.11668368614391511
275.0	137.51914034684705	adult	0.0		46.0	face	adult-31.jpg	0.0	167.7044590628493	0.3833028813983219
275.0	137.90244322824537	ISI	1.0		6.0	face	adult-31.jpg	0.0	168.08776194424763	0.1166682916418722
275.0	137.94801427523134	pulse	1.0	t		face	adult-31.jpg	0.0	168.1333329912336	
276.0	138.01911151988725	car	0.0		46.0	object	car-81.jpg	0.0	168.2044302358895	0.3833019758390037
276.0	138.40241349572625	ISI	1.0		6.0	object	car-81.jpg	0.0	168.5877322117285	0.11670028805838228
277.0	138.51911378378463	car	0.0		46.0	object	car-116.jpg	0.0	168.7044324997869	0.38330318325097323
277.0	138.6025396099035	pulse	0.0	t		object	car-116.jpg	0.0	168.78785832590575	
277.0	138.9024169670356	ISI	1.0		5.0	object	car-116.jpg	0.0	169.08773568303786	0.11668308243815773
278.0	139.01910004947376	car	0.0		46.0	object	car-8.jpg	0.0	169.20441876547602	0.38330167398589765
278.0	139.30254634122502	pulse	0.0	t		object	car-8.jpg	0.0	169.48786505722728	
278.0	139.40240172345966	ISI	1.0		6.0	object	car-8.jpg	0.0	169.58772043946192	0.11667161202467469
279.0	139.51907333548434	car	0.0		46.0	object	car-41.jpg	0.0	169.7043920514866	0.3833472537871785
279.0	139.90242058927151	ISI	1.0		7.0	object	car-41.jpg	0.0	170.08773930527377	0.1166701027595991
280.0	140.0190906920311	car	0.0		45.0	object	car-85.jpg	0.0	170.20440940803337	0.3833164647821832
280.0	140.00923670133852	pulse	0.0	t		object	car-85.jpg	0.0	170.19455541734078	
280.0	140.4024071568133	ISI	1.0		6.0	object	car-85.jpg	0.0	170.58772587281555	0.11668761023338448
281.0	140.51909476704668	car	0.0		46.0	object	car-13.jpg	0.0	170.70441348304894	0.38329986286817075
281.0	140.70251241294955	pulse	0.0	t		object	car-13.jpg	0.0	170.8878311289518	
281.0	140.90239462991485	ISI	1.0		5.0	object	car-13.jpg	0.0	171.0877133459171	0.116671913877326
282.0	141.01906654379218	car	0.0		46.0	object	car-115.jpg	0.0	171.20438525979444	0.38331012586968427
282.0	141.40237666966186	ISI	1.0		7.0	object	car-115.jpg	0.0	171.58769538566412	0.11670964550103236
282.0	141.4383303786958	pulse	1.0	t		object	car-115.jpg	0.0	171.62364909469807	
283.0	141.5190863151629	car	0.0		46.0	object	car-115.jpg	1.0	171.70440503116515	0.3832820535421888
283.0	141.90236836870508	ISI	1.0		5.0	object	car-115.jpg	1.0	172.08768708470734	0.11666949905384172
284.0	142.01903786775893	car	0.0		46.0	object	car-79.jpg	0.0	172.20435658376118	0.38331676663528924
284.0	142.1024688253783	pulse	0.0	t		object	car-79.jpg	0.0	172.28778754138057	
284.0	142.10709834460795	response	0.0	b		object	car-79.jpg	0.0	172.2924170606102	
284.0	142.40235463439421	ISI	1.0		5.0	object	car-79.jpg	0.0	172.58767335039647	0.11669002505686876
285.0	142.51904465945108	car	0.0		46.0	object	car-101.jpg	0.0	172.70436337545334	0.3832968443380196
285.0	142.80245714366765	pulse	0.0	t		object	car-101.jpg	0.0	172.9877758596699	
285.0	142.9023415037891	ISI	1.0		5.0	object	car-101.jpg	0.0	173.08766021979136	0.11667161202512943
286.0	143.01901311581423	car	0.0		46.0	object	car-17.jpg	0.0	173.2043318318165	0.3833155592233197
286.0	143.40232867503755	ISI	1.0		7.0	object	car-17.jpg	0.0	173.5876473910398	0.1166682916418722
287.0	143.51899696667942	car	0.0		45.0	object	car-119.jpg	0.0	173.70431568268168	0.3833170684883953
287.0	143.50924651156038	pulse	0.0	t		object	car-119.jpg	0.0	173.69456522756263	
287.0	143.90231403516782	ISI	1.0		4.0	object	car-119.jpg	0.0	174.08763275117008	0.11668821393868711
288.0	144.0190022491065	adult	0.0		46.0	face	adult-65.jpg	0.0	174.20432096510876	0.3832977498973378
288.0	144.20241959315672	pulse	0.0	t		face	adult-65.jpg	0.0	174.38773830915898	
288.0	144.40229999900384	ISI	1.0		7.0	face	adult-65.jpg	0.0	174.5876187150061	0.11669002505686876
289.0	144.5189900240607	adult	0.0		46.0	face	adult-61.jpg	0.0	174.70430874006297	0.3832995610150647
289.0	144.90228958507578	ISI	1.0		7.0	face	adult-61.jpg	0.0	175.08760830107803	0.11668761023292973
289.0	144.93931789073577	pulse	1.0	t		face	adult-61.jpg	0.0	175.12463660673802	
290.0	145.0189771953087	adult	0.0		46.0	face	adult-7.jpg	0.0	175.20429591131096	0.3832989573093073
290.0	145.40227615261801	ISI	1.0		4.0	face	adult-7.jpg	0.0	175.58759486862027	0.11668640282096021
291.0	145.51896255543897	adult	0.0		46.0	face	adult-10.jpg	0.0	175.70428127144123	0.38329986286817075
291.0	145.60238566488079	pulse	0.0	t		face	adult-10.jpg	0.0	175.78770438088304	
291.0	145.90226241830715	ISI	1.0		3.0	face	adult-10.jpg	0.0	176.0875811343094	0.11667402684861372
292.0	146.01893644515576	adult	0.0		46.0	face	adult-115.jpg	0.0	176.20425516115802	0.38331163513475985
292.0	146.3023658331399	pulse	0.0	t		face	adult-115.jpg	0.0	176.48768454914216	
292.0	146.40224808029052	ISI	1.0		7.0	face	adult-115.jpg	0.0	176.58756679629278	0.1166897232037627
293.0	146.51893780349428	adult	0.0		46.0	face	adult-6.jpg	0.0	176.70425651949654	0.38329714619112565
293.0	146.9022349496854	ISI	1.0		6.0	face	adult-6.jpg	0.0	177.08755366568766	0.11666738608300875
294.0	147.01890233576842	adult	0.0		45.0	face	adult-99.jpg	0.0	177.20422105177067	0.38331797404725876
294.0	147.00945826142924	pulse	0.0	t		face	adult-99.jpg	0.0	177.1947769774315	
294.0	147.40222030981568	ISI	1.0		6.0	face	adult-99.jpg	0.0	177.58753902581793	0.11669666582247373
295.0	147.51891697563815	adult	0.0		46.0	face	adult-109.jpg	0.0	177.7042356916404	0.38329201469059626
295.0	147.70231560480306	pulse	0.0	t		face	adult-109.jpg	0.0	177.88763432080532	
295.0	147.90220899032875	ISI	1.0		7.0	face	adult-109.jpg	0.0	178.087527706331	0.11667010276005385
296.0	148.0188790930888	adult	0.0		46.0	face	adult-66.jpg	0.0	178.20419780909106	0.3833110314285477
296.0	148.40219012451735	ISI	1.0		7.0	face	adult-66.jpg	0.0	178.5875088405196	0.11669304358656518
296.0	148.43778825073468	pulse	1.0	t		face	adult-66.jpg	0.0	178.62310696673694	
297.0	148.5188831681039	adult	0.0		46.0	face	adult-66.jpg	1.0	178.70420188410617	0.3832690738636302
297.0	148.90215224196754	ISI	1.0		7.0	face	adult-66.jpg	1.0	179.0874709579698	0.11671507885466781
297.0	148.96065889676947	response	1.0	b		face	adult-66.jpg	1.0	179.14597761277173	
298.0	149.0188673208222	adult	0.0		46.0	face	adult-78.jpg	0.0	179.20418603682447	0.38329412766142923
298.0	149.10226779129016	pulse	0.0	t		face	adult-78.jpg	0.0	179.28758650729242	
298.0	149.40216144848364	ISI	1.0		7.0	face	adult-78.jpg	0.0	179.5874801644859	0.1166782527907344
299.0	149.51883970127437	adult	0.0		46.0	face	adult-82.jpg	0.0	179.70415841727663	0.3833221999889247
299.0	149.8022718059351	pulse	0.0	t		face	adult-82.jpg	0.0	179.98759052193736	
299.0	149.9021619012633	ISI	1.0		7.0	face	adult-82.jpg	0.0	180.08748061726556	0.11667795093717359
300.0	150.01883985220047	adult	0.0		46.0	face	adult-9.jpg	0.0	180.20415856820273	0.38329624063271694
300.0	150.4021360928332	ISI	1.0		7.0	face	adult-9.jpg	0.0	180.58745480883545	0.11668308243815773
301.0	150.51881917527135	adult	0.0		45.0	face	adult-9.jpg	1.0	180.7041378912736	0.3833086166046087
301.0	150.5114159289633	pulse	0.0	t		face	adult-9.jpg	1.0	180.69673464496555	
301.0	150.90212779187596	ISI	1.0		4.0	face	adult-9.jpg	1.0	181.0874465078782	0.11670451400004822
302.0	151.018832305876	adult	0.0		45.0	face	adult-43.jpg	0.0	181.20415102187826	0.38328175168908274
302.0	151.00894873359084	response	0.0	b		face	adult-43.jpg	0.0	181.1942674495931	
302.0	151.20220950347903	pulse	0.0	t		face	adult-43.jpg	0.0	181.38752821948128	
302.0	151.4021140575651	ISI	1.0		7.0	face	adult-43.jpg	0.0	181.58743277356734	0.1166879120860358
303.0	151.51880196965112	adult	0.0		46.0	face	adult-130.jpg	0.0	181.70412068565338	0.3832995610150647
303.0	151.9021015306662	ISI	1.0		7.0	face	adult-130.jpg	0.0	182.08742024666844	0.11668640282096021
303.0	151.93938399653962	pulse	1.0	t		face	adult-130.jpg	0.0	182.12470271254188	
304.0	152.01878793348715	adult	0.0		46.0	face	adult-96.jpg	0.0	182.2041066494894	0.38330257954521585
304.0	152.40209051303236	ISI	1.0		5.0	face	adult-96.jpg	0.0	182.58740922903462	0.1166851954089907
305.0	152.51877570844135	adult	0.0		46.0	face	adult-49.jpg	0.0	182.7040944244436	0.38326937571673625
305.0	152.60216833073173	pulse	0.0	t		face	adult-49.jpg	0.0	182.787487046734	
305.0	152.9020450841581	ISI	1.0		6.0	face	adult-49.jpg	0.0	183.08736380016035	0.11666949905384172
306.0	153.01871458321193	adult	0.0		46.0	face	adult-35.jpg	0.0	183.2040332992142	0.38331495551756234
306.0	153.3021276711347	pulse	0.0	t		face	adult-35.jpg	0.0	183.48744638713697	
306.0	153.4020295387295	ISI	1.0		6.0	face	adult-35.jpg	0.0	183.58734825473175	0.11668217687929427
307.0	153.5187117156088	adult	0.0		46.0	face	adult-81.jpg	0.0	183.70403043161105	0.38328295910105226
307.0	153.90199467470984	ISI	1.0		6.0	face	adult-81.jpg	0.0	184.0873133907121	0.11668851579179318
308.0	154.01868319050163	adult	0.0		45.0	face	adult-39.jpg	0.0	184.2040019065039	0.3833194833118796
308.0	154.00866197325513	pulse	0.0	t		face	adult-39.jpg	0.0	184.1939806892574	
308.0	154.4020026738135	ISI	1.0		7.0	face	adult-39.jpg	0.0	184.58732138981577	0.1166879120860358
309.0	154.51869058589955	adult	0.0		46.0	face	adult-90.jpg	0.0	184.7040093019018	0.38329956101551943
309.0	154.70210853365552	pulse	0.0	t		face	adult-90.jpg	0.0	184.88742724965778	
309.0	154.90199014691507	ISI	1.0		6.0	face	adult-90.jpg	0.0	185.08730886291733	0.11667040461270517
310.0	155.01866055152777	adult	0.0		46.0	face	adult-70.jpg	0.0	185.20397926753003	0.3833170684883953
310.0	155.40197762001617	ISI	1.0		7.0	face	adult-70.jpg	0.0	185.58729633601843	0.11668368614391511
310.0	155.4384369327995	pulse	1.0	t		face	adult-70.jpg	0.0	185.62375564880176	
311.0	155.51866130616008	adult	0.0		46.0	face	adult-59.jpg	0.0	185.70398002216234	0.3833016739863524
311.0	155.90196298014644	ISI	1.0		5.0	face	adult-59.jpg	0.0	186.0872816961487	0.1166701027595991
312.0	156.01863308290604	body	0.0		46.0	body	body-124.jpg	0.0	186.2039517989083	0.3833146536644563
312.0	156.10206977573216	pulse	0.0	t		body	body-124.jpg	0.0	186.28738849173442	
312.0	156.4019477365705	ISI	1.0		7.0	body	body-124.jpg	0.0	186.58726645257275	0.11668579911520283
313.0	156.5186335356857	body	0.0		46.0	body	body-124.jpg	1.0	186.70395225168795	0.3832856757776426
313.0	156.8020420958137	pulse	0.0	t		body	body-124.jpg	1.0	186.98736081181596	
313.0	156.90191921146334	ISI	1.0		6.0	body	body-124.jpg	1.0	187.0872379274656	0.11671779553171291
313.0	156.9500288420527	response	1.0	b		body	body-124.jpg	1.0	187.13534755805495	
314.0	157.01863700699505	body	0.0		46.0	body	body-88.jpg	0.0	187.2039557229973	0.38328477021877916
314.0	157.40192177721383	ISI	1.0		5.0	body	body-88.jpg	0.0	187.5872404932161	0.11667855464338572
315.0	157.51860033185721	body	0.0		45.0	body	body-110.jpg	0.0	187.70391904785947	0.38330771104574524
315.0	157.5085459107827	pulse	0.0	t		body	body-110.jpg	0.0	187.69386462678494	
315.0	157.90190804290296	ISI	1.0		5.0	body	body-110.jpg	0.0	188.08722675890522	0.11667191387778075
316.0	158.01857995678074	body	0.0		46.0	body	body-7.jpg	0.0	188.203898672783	0.38331525737021366
316.0	158.2020160157158	pulse	0.0	t		body	body-7.jpg	0.0	188.38733473171806	
316.0	158.40189521415095	ISI	1.0		5.0	body	body-7.jpg	0.0	188.5872139301532	0.11668489355633938
317.0	158.5185801077073	body	0.0		46.0	body	body-106.jpg	0.0	188.70389882370955	0.38333367040240773
317.0	158.9019137781097	ISI	1.0		5.0	body	body-106.jpg	0.0	189.08723249411196	0.11667251758353814
317.0	158.9566620613964	pulse	1.0	t		body	body-106.jpg	0.0	189.14198077739866	
318.0	159.01858629569324	body	0.0		46.0	body	body-25.jpg	0.0	189.2039050116955	0.38330589992801833
318.0	159.40189219562126	ISI	1.0		5.0	body	body-25.jpg	0.0	189.58721091162352	0.11669364729277731
319.0	159.51858584291404	body	0.0		46.0	body	body-36.jpg	0.0	189.7039045589163	0.38330167398589765
319.0	159.60200925420895	pulse	0.0	t		body	body-36.jpg	0.0	189.7873279702112	
319.0	159.90188751689993	ISI	1.0		5.0	body	body-36.jpg	0.0	190.0872062329022	0.1166773472314162
320.0	160.01856486413135	body	0.0		46.0	body	body-64.jpg	0.0	190.2038835801336	0.38331163513475985
320.0	160.3019891206145	pulse	0.0	t		body	body-64.jpg	0.0	190.48730783661676	
320.0	160.4018764992661	ISI	1.0		5.0	body	body-64.jpg	0.0	190.58719521526837	0.11669545841050422
321.0	160.5185719576766	body	0.0		46.0	body	body-4.jpg	0.0	190.70389067367887	0.38328929801355116
321.0	160.90186125569016	ISI	1.0		7.0	body	body-4.jpg	0.0	191.08717997169242	0.11666859349497827
322.0	161.01852984918514	body	0.0		45.0	body	body-139.jpg	0.0	191.2038485651874	0.3833176721941527
322.0	161.0084370927816	pulse	0.0	t		body	body-139.jpg	0.0	191.19375580878386	
322.0	161.4018475213793	ISI	1.0		6.0	body	body-139.jpg	0.0	191.58716623738155	0.11668881764489925
323.0	161.5185363390242	body	0.0		46.0	body	body-140.jpg	0.0	191.70385505502645	0.3832666590401459
323.0	161.70192229036365	pulse	0.0	t		body	body-140.jpg	0.0	191.8872410063659	
323.0	161.90180299806434	ISI	1.0		6.0	body	body-140.jpg	0.0	192.0871217140666	0.1166824787319456
324.0	162.0184854767963	car	0.0		46.0	object	car-26.jpg	0.0	192.20380419279854	0.3832895998666572
324.0	162.40177507666294	ISI	1.0		6.0	object	car-26.jpg	0.0	192.5870937926652	0.1166969676755798
324.0	162.4462633769922	pulse	1.0	t		object	car-26.jpg	0.0	192.63158209299445	
325.0	162.51847204433852	car	0.0		46.0	object	car-139.jpg	0.0	192.70379076034078	0.3833040888098367
325.0	162.90177613314836	ISI	1.0		5.0	object	car-139.jpg	0.0	193.08709484915062	0.11668278058550641
326.0	163.01845891373387	car	0.0		46.0	object	car-142.jpg	0.0	193.20377762973612	0.38330559807491227
326.0	163.10188292873454	pulse	0.0	t		object	car-142.jpg	0.0	193.2872016447368	
326.0	163.40176451180878	ISI	1.0		6.0	object	car-142.jpg	0.0	193.58708322781104	0.11668368614391511
327.0	163.5184481979527	car	0.0		46.0	object	car-124.jpg	0.0	193.70376691395495	0.38330107028014027
327.0	163.80186581367025	pulse	0.0	t		object	car-124.jpg	0.0	193.9871845296725	
327.0	163.90174926823283	ISI	1.0		5.0	object	car-124.jpg	0.0	194.0870679842351	0.1166879120860358
328.0	164.01843718031887	car	0.0		46.0	object	car-107.jpg	0.0	194.20375589632113	0.38329714619112565
328.0	164.40173432651	ISI	1.0		6.0	object	car-107.jpg	0.0	194.58705304251225	0.11666889534808433
329.0	164.51840322185808	car	0.0		45.0	object	car-80.jpg	0.0	194.70372193786034	0.38331948331233434
329.0	164.5083361229581	pulse	0.0	t		object	car-80.jpg	0.0	194.69365483896036	
329.0	164.9017227051704	ISI	1.0		6.0	object	car-80.jpg	0.0	195.08704142117267	0.11668308243815773
330.0	165.01840578760857	car	0.0		46.0	object	car-135.jpg	0.0	195.20372450361083	0.38330288139786717
330.0	165.20183248910098	pulse	0.0	t		object	car-135.jpg	0.0	195.38715120510324	
330.0	165.40170866900644	ISI	1.0		5.0	object	car-135.jpg	0.0	195.5870273850087	0.11668489355588463
331.0	165.51839356256232	car	0.0		46.0	object	car-97.jpg	0.0	195.70371227856458	0.38327028127605445
331.0	165.90166384383838	ISI	1.0		7.0	object	car-97.jpg	0.0	196.08698255984064	0.11671628626618258
331.0	165.93755838968673	pulse	1.0	t		object	car-97.jpg	0.0	196.12287710568899	
332.0	166.01838013010456	car	0.0		46.0	object	car-104.jpg	0.0	196.20369884610682	0.38329654248536826
332.0	166.40167667258993	ISI	1.0		5.0	object	car-104.jpg	0.0	196.5869953885922	0.11668881764489925
333.0	166.51836549023483	car	0.0		46.0	object	car-140.jpg	0.0	196.70368420623709	0.3832835628072644
333.0	166.60180097564898	pulse	0.0	t		object	car-140.jpg	0.0	196.78711969165124	
333.0	166.9016490530421	ISI	1.0		6.0	object	car-140.jpg	0.0	197.08696776904435	0.11670541955891167
334.0	167.018354472601	car	0.0		46.0	object	car-20.jpg	0.0	197.20367318860326	0.3832859776307487
334.0	167.3017711827597	pulse	0.0	t		object	car-20.jpg	0.0	197.48708989876195	
334.0	167.40164045023175	ISI	1.0		7.0	object	car-20.jpg	0.0	197.586959166234	0.11669847694065538
335.0	167.5183389271724	car	0.0		46.0	object	car-127.jpg	0.0	197.70365764317467	0.38333517966702857
335.0	167.90167410683944	ISI	1.0		5.0	object	car-127.jpg	0.0	198.0869928228417	0.11667915834959786
336.0	168.01835326518903	word	0.0		45.0	character	word-42.jpg	0.0	198.2036719811913	0.3833065036337757
336.0	168.00816814177188	pulse	0.0	t		character	word-42.jpg	0.0	198.19348685777413	
336.0	168.4016597688228	ISI	1.0		6.0	character	word-42.jpg	0.0	198.58697848482507	0.11668700652717234
337.0	168.51834677534998	word	0.0		46.0	character	word-70.jpg	0.0	198.70366549135224	0.38328990171930855
337.0	168.70176713792944	pulse	0.0	t		character	word-70.jpg	0.0	198.8870858539317	
337.0	168.9016366770693	ISI	1.0		7.0	character	word-70.jpg	0.0	199.08695539307155	0.11669576026361028
338.0	169.0183324373329	word	0.0		46.0	character	word-70.jpg	1.0	199.20365115333516	0.3832696775698423
338.0	169.40160211490274	ISI	1.0		5.0	character	word-70.jpg	1.0	199.586920830905	0.11668308243815773
338.0	169.4570676008816	pulse	1.0	t		character	word-70.jpg	1.0	199.64238631688386	
339.0	169.5182851973409	word	0.0		45.0	character	word-2.jpg	0.0	199.70360391334316	0.3833019758390037
339.0	169.52281057729078	response	0.0	b		character	word-2.jpg	0.0	199.70812929329304	
339.0	169.9015871731799	ISI	1.0		6.0	character	word-2.jpg	0.0	200.08690588918216	0.11670391029429084
340.0	170.0182910834742	word	0.0		46.0	character	word-1.jpg	0.0	200.20360979947645	0.3832841665130218
340.0	170.10169668544313	pulse	0.0	t		character	word-1.jpg	0.0	200.2870154014454	
340.0	170.40157524998722	ISI	1.0		7.0	character	word-1.jpg	0.0	200.58689396598947	0.11668368614391511
341.0	170.51825893613113	word	0.0		46.0	character	word-91.jpg	0.0	200.7035776521334	0.38330257954521585
341.0	170.8016771555549	pulse	0.0	t		character	word-91.jpg	0.0	200.98699587155716	
341.0	170.90156151567635	ISI	1.0		6.0	character	word-91.jpg	0.0	201.0868802316786	0.11668368614391511
342.0	171.01824520182026	word	0.0		46.0	character	word-5.jpg	0.0	201.20356391782252	0.3833062017811244
342.0	171.4015514036014	ISI	1.0		7.0	character	word-5.jpg	0.0	201.58687011960365	0.11667764908452227
343.0	171.5182290526859	word	0.0		45.0	character	word-132.jpg	0.0	201.70354776868817	0.3833065036337757
343.0	171.51003283858608	pulse	0.0	t		character	word-132.jpg	0.0	201.69535155458834	
343.0	171.9015355563197	ISI	1.0		7.0	character	word-132.jpg	0.0	202.08685427232194	0.11668368614391511
344.0	172.0182192424636	word	0.0		46.0	character	word-84.jpg	0.0	202.20353795846586	0.38330439066294275
344.0	172.2016396050435	pulse	0.0	t		character	word-84.jpg	0.0	202.38695832104577	
344.0	172.40152363312654	ISI	1.0		6.0	character	word-84.jpg	0.0	202.5868423491288	0.11668066761421869
345.0	172.51820430074076	word	0.0		46.0	character	word-6.jpg	0.0	202.70352301674302	0.3832892980140059
345.0	172.90149359875477	ISI	1.0		7.0	character	word-6.jpg	0.0	203.08681231475703	0.11670360844118477
345.0	172.93509708044758	pulse	1.0	t		character	word-6.jpg	0.0	203.12041579644983	
346.0	173.01819720719595	word	0.0		46.0	character	word-32.jpg	0.0	203.2035159231982	0.38329714619112565
346.0	173.40149435338708	ISI	1.0		7.0	character	word-32.jpg	0.0	203.58681306938934	0.11669274173391386
347.0	173.518187095121	word	0.0		46.0	character	word-24.jpg	0.0	203.70350581112325	0.38329322210211103
347.0	173.60160114897326	pulse	0.0	t		character	word-24.jpg	0.0	203.78691986497552	
347.0	173.9014803172231	ISI	1.0		8.0	character	word-24.jpg	0.0	204.08679903322536	0.11668579911520283
348.0	174.0181661163383	adult	0.0		46.0	face	adult-77.jpg	0.0	204.20348483234056	0.38330288139786717
348.0	174.30157467646632	pulse	0.0	t		face	adult-77.jpg	0.0	204.48689339246857	
348.0	174.40146899773617	ISI	1.0		8.0	face	adult-77.jpg	0.0	204.58678771373843	0.11668640282141496
349.0	174.5181554005576	adult	0.0		46.0	face	adult-77.jpg	1.0	204.70347411655985	0.38330107028014027
349.0	174.90145647083773	ISI	1.0		5.0	face	adult-77.jpg	1.0	205.08677518684	0.12499641549538865
349.0	174.99322068381161	response	1.0	b		face	adult-77.jpg	1.0	205.17853939981387	
350.0	175.02645288633312	adult	0.0		44.0	face	adult-118.jpg	0.0	205.21177160233538	0.3750203373451768
350.0	175.01441348002982	pulse	0.0	t		face	adult-118.jpg	0.0	205.19973219603207	
350.0	175.4014732236783	ISI	1.0		7.0	face	adult-118.jpg	0.0	205.58679193968055	0.11668911949755056
351.0	175.51816234317585	adult	0.0		46.0	face	adult-32.jpg	0.0	205.7034810591781	0.38325217009696644
351.0	175.70154678525068	pulse	0.0	t		face	adult-32.jpg	0.0	205.88686550125294	
351.0	175.9014145132728	ISI	1.0		6.0	face	adult-32.jpg	0.0	206.08673322927507	0.11668640282096021
352.0	176.01810091609377	adult	0.0		46.0	face	adult-107.jpg	0.0	206.20341963209603	0.3833131443993807
352.0	176.40141406049315	ISI	1.0		6.0	face	adult-107.jpg	0.0	206.5867327764954	0.11668459170323331
352.0	176.44308335579626	pulse	1.0	t		face	adult-107.jpg	0.0	206.62840207179852	
353.0	176.5180986521964	adult	0.0		46.0	face	adult-86.jpg	0.0	206.70341736819864	0.3833022776921098
353.0	176.9014009298885	ISI	1.0		7.0	face	adult-86.jpg	0.0	207.08671964589075	0.11668217687883953
354.0	177.01808310676734	adult	0.0		46.0	face	adult-57.jpg	0.0	207.2034018227696	0.38328899616089984
354.0	177.1015095365924	pulse	0.0	t		face	adult-57.jpg	0.0	207.28682825259466	
354.0	177.40137210292824	ISI	1.0		7.0	face	adult-57.jpg	0.0	207.5866908189305	0.1166728194366442
355.0	177.51804492236488	adult	0.0		46.0	face	adult-123.jpg	0.0	207.70336363836714	0.3833309537258174
355.0	177.8014918178219	pulse	0.0	t		face	adult-123.jpg	0.0	207.98681053382415	
355.0	177.9013758760907	ISI	1.0		6.0	face	adult-123.jpg	0.0	208.08669459209295	0.11667885649603704
356.0	178.01805473258673	adult	0.0		46.0	face	adult-11.jpg	0.0	208.203373448589	0.3833080128988513
356.0	178.40136274548559	ISI	1.0		7.0	face	adult-11.jpg	0.0	208.58668146148784	0.11666497125906972
357.0	178.51802771674465	adult	0.0		45.0	face	adult-41.jpg	0.0	208.7033464327469	0.3833197851654404
357.0	178.50772124842752	pulse	0.0	t		face	adult-41.jpg	0.0	208.69303996442977	
357.0	178.9013475019101	ISI	1.0		5.0	face	adult-41.jpg	0.0	209.08666621791235	0.10835163820138405
358.0	179.00969914011148	adult	0.0		47.0	face	adult-100.jpg	0.0	209.19501785611374	0.39163704231168595
358.0	179.2016263235123	pulse	0.0	t		face	adult-100.jpg	0.0	209.38694503951456	
358.0	179.40133618242317	ISI	1.0		5.0	face	adult-100.jpg	0.0	209.58665489842542	0.10836039193782199
359.0	179.509696574361	adult	0.0		47.0	face	adult-137.jpg	0.0	209.69501529036324	0.3916068570133575
359.0	179.90130343137434	ISI	1.0		6.0	face	adult-137.jpg	0.0	210.0866221473766	0.1083507326425206
359.0	179.94953169018663	pulse	1.0	t		face	adult-137.jpg	0.0	210.1348504061889	
360.0	180.00965416401687	word	0.0		47.0	character	word-25.jpg	0.0	210.19497288001912	0.39165243681372885
360.0	180.4013066008306	ISI	1.0		5.0	character	word-25.jpg	0.0	210.58662531683285	0.11668821393868711
361.0	180.51799481476928	word	0.0		46.0	character	word-82.jpg	0.0	210.70331353077154	0.38330137213324633
361.0	180.60141430197564	pulse	0.0	t		character	word-82.jpg	0.0	210.7867330179779	
361.0	180.90129618690253	ISI	1.0		6.0	character	word-82.jpg	0.0	211.08661490290478	0.10831511399010196
362.0	181.00961130089263	word	0.0		47.0	character	word-80.jpg	0.0	211.1949300168949	0.3916696424339534
362.0	181.3013950739405	pulse	0.0	t		character	word-80.jpg	0.0	211.48671378994277	
362.0	181.40128094332658	ISI	1.0		5.0	character	word-80.jpg	0.0	211.58659965932884	0.10834107334721921
363.0	181.5096220166738	word	0.0		47.0	character	word-62.jpg	0.0	211.69494073267606	0.39167779246463397
363.0	181.90129980913844	ISI	1.0		5.0	character	word-62.jpg	0.0	212.0866185251407	0.11667131017156862
364.0	182.01797111931	word	0.0		45.0	character	word-110.jpg	0.0	212.20328983531226	0.3833152573706684
364.0	182.00481998846317	pulse	0.0	t		character	word-110.jpg	0.0	212.19013870446543	
364.0	182.40128637668067	ISI	1.0		5.0	character	word-110.jpg	0.0	212.58660509268293	0.1166870065267176
365.0	182.5179733832074	word	0.0		46.0	character	word-58.jpg	0.0	212.70329209920965	0.3832654516281764
365.0	182.70139193466912	pulse	0.0	t		character	word-58.jpg	0.0	212.88671065067138	
365.0	182.90123883483557	ISI	1.0		7.0	character	word-58.jpg	0.0	213.08655755083782	0.11671417329534961
366.0	183.01795300813092	word	0.0		46.0	character	word-58.jpg	1.0	213.20327172413317	0.38329986286817075
366.0	183.4012528709991	ISI	1.0		5.0	character	word-58.jpg	1.0	213.58657158700134	0.11668127132043082
366.0	183.4562227143765	pulse	1.0	t		character	word-58.jpg	1.0	213.64154143037877	
367.0	183.51793414231952	word	0.0		46.0	character	word-46.jpg	0.0	213.70325285832178	0.3832651497750703
367.0	183.5513691900469	response	0.0	b		character	word-46.jpg	0.0	213.73668790604916	
367.0	183.9011992920946	ISI	1.0		7.0	character	word-46.jpg	0.0	214.08651800809685	0.11668579911474808
368.0	184.01788509120934	word	0.0		46.0	character	word-71.jpg	0.0	214.2032038072116	0.3833155592233197
368.0	184.10139332319295	pulse	0.0	t		character	word-71.jpg	0.0	214.2867120391952	
368.0	184.40120065043266	ISI	1.0		7.0	character	word-71.jpg	0.0	214.5865193664349	0.11668489355633938
369.0	184.517885543989	word	0.0		46.0	character	word-138.jpg	0.0	214.70320425999125	0.38328658133650606
369.0	184.80130255600034	pulse	0.0	t		character	word-138.jpg	0.0	214.9866212720026	
369.0	184.9011721253255	ISI	1.0		7.0	character	word-138.jpg	0.0	215.08649084132776	0.11668942135111138
370.0	185.0178615466766	word	0.0		46.0	character	word-101.jpg	0.0	215.20318026267887	0.3833110314285477
370.0	185.40117257810516	ISI	1.0		7.0	character	word-101.jpg	0.0	215.58649129410742	0.11668036576156737
371.0	185.51785294386673	word	0.0		45.0	character	word-73.jpg	0.0	215.70317165986899	0.38329080727862674
371.0	185.51022693005552	pulse	0.0	t		character	word-73.jpg	0.0	215.69554564605778	
371.0	185.90114375114536	ISI	1.0		6.0	character	word-73.jpg	0.0	216.0864624671476	0.11670481585269954
372.0	186.01784856699805	house	0.0		46.0	place	house-58.jpg	0.0	216.2031672830003	0.38330197583945846
372.0	186.20126651475402	pulse	0.0	t		place	house-58.jpg	0.0	216.38658523075628	
372.0	186.4011505428375	ISI	1.0		7.0	place	house-58.jpg	0.0	216.58646925883977	0.1166824787319456
373.0	186.51783302156946	house	0.0		46.0	place	house-56.jpg	0.0	216.70315173757172	0.3833004665743829
373.0	186.90113348814384	ISI	1.0		6.0	place	house-56.jpg	0.0	217.0864522041461	0.1166870065267176
373.0	186.94430691687057	pulse	1.0	t		place	house-56.jpg	0.0	217.12962563287283	
374.0	187.01782049467056	house	0.0		46.0	place	house-116.jpg	0.0	217.20313921067282	0.3832793368651437
374.0	187.4010998315357	ISI	1.0		7.0	place	house-116.jpg	0.0	217.58641854753796	0.11668761023292973
375.0	187.51778744176863	house	0.0		46.0	place	house-116.jpg	1.0	217.7031061577709	0.38330408881029143
375.0	187.60129416448763	pulse	0.0	t		place	house-116.jpg	1.0	217.78661288048988	
375.0	187.90109153057892	ISI	1.0		5.0	place	house-116.jpg	1.0	218.08641024658118	0.1166851954089907
376.0	188.01777672598791	house	0.0		46.0	place	house-130.jpg	0.0	218.20309544199017	0.3832868831896121
376.0	188.12620503484732	response	0.0	b		place	house-130.jpg	0.0	218.31152375084957	
376.0	188.30117381570244	pulse	0.0	t		place	house-130.jpg	0.0	218.4864925317047	
376.0	188.40106360917753	ISI	1.0		6.0	place	house-130.jpg	0.0	218.58638232517978	0.11670179732345787
377.0	188.51776540650098	house	0.0		46.0	place	house-87.jpg	0.0	218.70308412250324	0.3833149555171076
377.0	188.9010803620181	ISI	1.0		8.0	place	house-87.jpg	0.0	219.08639907802035	0.11666859349497827
378.0	189.01774895551307	house	0.0		45.0	place	house-101.jpg	0.0	219.20306767151533	0.38331797404725876
378.0	189.00962669539513	pulse	0.0	t		place	house-101.jpg	0.0	219.19494541139738	
378.0	189.40106692956033	ISI	1.0		5.0	place	house-101.jpg	0.0	219.5863856455626	0.1166710083189173
379.0	189.51773793787925	house	0.0		46.0	place	house-75.jpg	0.0	219.7030566538815	0.38334846119869326
379.0	189.70120599323081	pulse	0.0	t		place	house-75.jpg	0.0	219.88652470923307	
379.0	189.90108639907794	ISI	1.0		6.0	place	house-75.jpg	0.0	220.0864051150802	0.125020563734779
380.0	190.02610696281272	house	0.0		45.0	place	house-24.jpg	0.0	220.21142567881498	0.37495362783511155
380.0	190.40106059064783	ISI	1.0		7.0	place	house-24.jpg	0.0	220.5863793066501	0.11669455285164076
380.0	190.4352587227213	pulse	1.0	t		place	house-24.jpg	0.0	220.62057743872356	
381.0	190.51775514349947	house	0.0		46.0	place	house-88.jpg	0.0	220.70307385950173	0.38325760345014714
381.0	190.90101274694962	ISI	1.0		7.0	place	house-88.jpg	0.0	221.08633146295188	0.11668459170323331
382.0	191.01769733865285	house	0.0		46.0	place	house-139.jpg	0.0	221.2030160546551	0.38331797404725876
382.0	191.10112678700762	pulse	0.0	t		place	house-139.jpg	0.0	221.28644550300987	
382.0	191.4010153127001	ISI	1.0		7.0	place	house-139.jpg	0.0	221.58633402870237	0.11667131017156862
383.0	191.51768662287168	house	0.0		46.0	place	house-124.jpg	0.0	221.70300533887394	0.3832989573093073
383.0	191.801113897885	pulse	0.0	t		place	house-124.jpg	0.0	221.98643261388725	
383.0	191.900985580181	ISI	1.0		8.0	place	house-124.jpg	0.0	222.08630429618324	0.11668489355633938
384.0	192.01767047373733	house	0.0		46.0	place	house-25.jpg	0.0	222.20298918973958	0.3833007684270342
384.0	192.40097124216436	ISI	1.0		4.0	place	house-25.jpg	0.0	222.58628995816662	0.11669032690952008
385.0	192.51766156907388	house	0.0		45.0	place	house-52.jpg	0.0	222.70298028507614	0.3833137481055928
385.0	192.50970110215576	pulse	0.0	t		place	house-52.jpg	0.0	222.69501981815802	
385.0	192.90097531717947	ISI	1.0		6.0	place	house-52.jpg	0.0	223.08629403318173	0.11668278058505166
386.0	193.01765809776452	house	0.0		46.0	place	house-84.jpg	0.0	223.20297681376678	0.38330197583945846
386.0	193.20107785663868	pulse	0.0	t		place	house-84.jpg	0.0	223.38639657264093	
386.0	193.40096007360398	ISI	1.0		7.0	place	house-84.jpg	0.0	223.58627878960624	0.11668730837982366
387.0	193.5176473819838	house	0.0		46.0	place	house-92.jpg	0.0	223.70296609798606	0.3833001647212768
387.0	193.90094754670508	ISI	1.0		6.0	place	house-92.jpg	0.0	224.08626626270734	0.11666889534762959
387.0	193.94827417065153	pulse	1.0	t		place	house-92.jpg	0.0	224.1335928866538	
388.0	194.0176164420527	house	0.0		46.0	place	house-16.jpg	0.0	224.20293515805497	0.38329986286817075
388.0	194.40091630492088	ISI	1.0		6.0	place	house-16.jpg	0.0	224.58623502092314	0.10845336265765582
389.0	194.50936966757854	house	0.0		47.0	place	house-125.jpg	0.0	224.6946883835808	0.39155191976988135
389.0	194.60104543762782	pulse	0.0	t		place	house-125.jpg	0.0	224.78636415363007	
389.0	194.90092158734842	ISI	1.0		6.0	place	house-125.jpg	0.0	225.08624030335068	0.10833563999312901
390.0	195.00925722734155	house	0.0		47.0	place	house-49.jpg	0.0	225.1945759433438	0.39164941828403244
390.0	195.30102198365103	pulse	0.0	t		place	house-49.jpg	0.0	225.48634069965328	
390.0	195.40090664562558	ISI	1.0		6.0	place	house-49.jpg	0.0	225.58622536162784	0.10833896037593149
