trial_nr	onset	event_type	phase	response	nr_frames	face_age	face_sex	face_eth	attractiveness	expression	face_id	sub_id	ses	run	trial_type	catch	rating_type	onset_abs	duration
-1.0	0.06209298296153065	fix	0.0		713													25.320518579024338	5.958005289749963
-1.0	0.7036315262334938	pulse	0.0	t														25.9620571222963	
-1.0	1.4036214441948687	pulse	0.0	t														26.662047040257676	
-1.0	2.1036312847477348	pulse	0.0	t														27.36205688081054	
-1.0	2.803607015408943	pulse	0.0	t														28.06203261147175	
-1.0	3.503618667106366	pulse	0.0	t														28.762044263169173	
-1.0	4.203609490639792	pulse	0.0	t														29.4620350867026	
-1.0	4.903580391581727	pulse	0.0	t														30.162005987644534	
-1.0	5.603574837404722	pulse	0.0	t														30.86200043346753	
0.0	6.020098272711493	face	0.0		144	30.0	female	black	2.7345801830481498	neutral	062	sub-17	1.0	2.0	062_neutral	0.0		31.2785238687743	1.2333457698600796
0.0	6.303571094372273	pulse	0.0	t		30.0	female	black	2.7345801830481498	neutral	062	sub-17	1.0	2.0	062_neutral	0.0		31.56199669043508	
0.0	7.003563427193058	pulse	0.0	t		30.0	female	black	2.7345801830481498	neutral	062	sub-17	1.0	2.0	062_neutral	0.0		32.261989023255865	
0.0	7.253444042571573	fix	1.0		445	30.0	female	black	2.7345801830481498	neutral	062	sub-17	1.0	2.0	062_neutral	0.0		32.51186963863438	3.7582710450487866
0.0	7.703558476730905	pulse	1.0	t		30.0	female	black	2.7345801830481498	neutral	062	sub-17	1.0	2.0	062_neutral	0.0		32.96198407279371	
0.0	8.403550809551689	pulse	1.0	t		30.0	female	black	2.7345801830481498	neutral	062	sub-17	1.0	2.0	062_neutral	0.0		33.661976405614496	
0.0	9.10354948137865	pulse	1.0	t		30.0	female	black	2.7345801830481498	neutral	062	sub-17	1.0	2.0	062_neutral	0.0		34.36197507744146	
0.0	9.80354030491253	pulse	1.0	t		30.0	female	black	2.7345801830481498	neutral	062	sub-17	1.0	2.0	062_neutral	0.0		35.06196590097534	
0.0	10.503540184169196	pulse	1.0	t		30.0	female	black	2.7345801830481498	neutral	062	sub-17	1.0	2.0	062_neutral	0.0		35.761965780232	
1.0	11.01171508762036	face	0.0		146	20.0	male	black	2.609629924393156	smiling	043	sub-17	1.0	2.0	043_smiling	0.0		36.27014068368317	1.241676129897769
1.0	11.203511386968785	pulse	0.0	t		20.0	male	black	2.609629924393156	smiling	043	sub-17	1.0	2.0	043_smiling	0.0		36.46193698303159	
1.0	11.903498588212642	pulse	0.0	t		20.0	male	black	2.609629924393156	smiling	043	sub-17	1.0	2.0	043_smiling	0.0		37.16192418427545	
1.0	12.253391217518129	fix	1.0		444	20.0	male	black	2.609629924393156	smiling	043	sub-17	1.0	2.0	043_smiling	0.0		37.511816813580936	3.766598386511305
1.0	12.603507825050656	pulse	1.0	t		20.0	male	black	2.609629924393156	smiling	043	sub-17	1.0	2.0	043_smiling	0.0		37.86193342111346	
1.0	13.303497139297178	pulse	1.0	t		20.0	male	black	2.609629924393156	smiling	043	sub-17	1.0	2.0	043_smiling	0.0		38.561922735359985	
1.0	14.003484944255888	pulse	1.0	t		20.0	male	black	2.609629924393156	smiling	043	sub-17	1.0	2.0	043_smiling	0.0		39.261910540318695	
1.0	14.703479390078883	pulse	1.0	t		20.0	male	black	2.609629924393156	smiling	043	sub-17	1.0	2.0	043_smiling	0.0		39.96190498614169	
1.0	15.403469006182604	pulse	1.0	t		20.0	male	black	2.609629924393156	smiling	043	sub-17	1.0	2.0	043_smiling	0.0		40.66189460224541	
2.0	16.019989604029433	face	0.0		145	31.0	female	west_asian	2.364902506963788	smiling	006	sub-17	1.0	2.0	006_smiling	0.0		41.27841520009224	1.233335808564334
2.0	16.10345439628236	pulse	0.0	t		31.0	female	west_asian	2.364902506963788	smiling	006	sub-17	1.0	2.0	006_smiling	0.0		41.361879992345166	
2.0	16.80344189938387	pulse	0.0	t		31.0	female	west_asian	2.364902506963788	smiling	006	sub-17	1.0	2.0	006_smiling	0.0		42.06186749544668	
2.0	17.253325412593767	fix	1.0		444	31.0	female	west_asian	2.364902506963788	smiling	006	sub-17	1.0	2.0	006_smiling	0.0		42.511751008656574	3.7582719506212925
2.0	17.503449626934525	pulse	1.0	t		31.0	female	west_asian	2.364902506963788	smiling	006	sub-17	1.0	2.0	006_smiling	0.0		42.76187522299733	
2.0	18.203424452023228	pulse	1.0	t		31.0	female	west_asian	2.364902506963788	smiling	006	sub-17	1.0	2.0	006_smiling	0.0		43.461850048086035	
2.0	18.903446065016396	pulse	1.0	t		31.0	female	west_asian	2.364902506963788	smiling	006	sub-17	1.0	2.0	006_smiling	0.0		44.1618716610792	
2.0	19.603440208982192	pulse	1.0	t		31.0	female	west_asian	2.364902506963788	smiling	006	sub-17	1.0	2.0	006_smiling	0.0		44.861865805045	
2.0	20.303405374632348	pulse	1.0	t		31.0	female	west_asian	2.364902506963788	smiling	006	sub-17	1.0	2.0	006_smiling	0.0		45.561830970695155	
3.0	21.01159736321506	face	0.0		147	25.0	female	black	3.858336649423	smiling	126	sub-17	1.0	2.0	126_smiling	0.0		46.27002295927787	1.241667376031728
3.0	21.004784138719515	pulse	0.0	t		25.0	female	black	3.858336649423	smiling	126	sub-17	1.0	2.0	126_smiling	0.0		46.26320973478232	
3.0	21.70339064398877	pulse	0.0	t		25.0	female	black	3.858336649423	smiling	126	sub-17	1.0	2.0	126_smiling	0.0		46.961816240051576	
3.0	22.253264739246788	fix	1.0		443	25.0	female	black	3.858336649423	smiling	126	sub-17	1.0	2.0	126_smiling	0.0		47.511690335309595	3.758270139475826
3.0	22.403382071237047	pulse	1.0	t		25.0	female	black	3.858336649423	smiling	126	sub-17	1.0	2.0	126_smiling	0.0		47.661807667299854	
3.0	23.103386478356242	pulse	1.0	t		25.0	female	black	3.858336649423	smiling	126	sub-17	1.0	2.0	126_smiling	0.0		48.36181207441905	
3.0	23.803360699729637	pulse	1.0	t		25.0	female	black	3.858336649423	smiling	126	sub-17	1.0	2.0	126_smiling	0.0		49.061786295792444	
3.0	24.503401933457553	pulse	1.0	t		25.0	female	black	3.858336649423	smiling	126	sub-17	1.0	2.0	126_smiling	0.0		49.76182752952036	
3.0	25.203361665673583	pulse	1.0	t		25.0	female	black	3.858336649423	smiling	126	sub-17	1.0	2.0	126_smiling	0.0		50.46178726173639	
3.0	25.90333528333258	pulse	1.0	t		25.0	female	black	3.858336649423	smiling	126	sub-17	1.0	2.0	126_smiling	0.0		51.16176087939539	
4.0	26.011534878722614	face	0.0		147	31.0	female	white	2.1822522881018704	neutral	102	sub-17	1.0	2.0	102_neutral	0.0		51.26996047478542	1.2416827707620541
4.0	26.603330634727627	pulse	0.0	t		31.0	female	white	2.1822522881018704	neutral	102	sub-17	1.0	2.0	102_neutral	0.0		51.861756230790434	
4.0	27.253217649484668	fix	1.0		443	31.0	female	white	2.1822522881018704	neutral	102	sub-17	1.0	2.0	102_neutral	0.0		52.511643245547475	3.758297004789256
4.0	27.303340777138146	pulse	1.0	t		31.0	female	white	2.1822522881018704	neutral	102	sub-17	1.0	2.0	102_neutral	0.0		52.56176637320095	
4.0	28.003312583652132	pulse	1.0	t		31.0	female	white	2.1822522881018704	neutral	102	sub-17	1.0	2.0	102_neutral	0.0		53.26173817971494	
4.0	28.70330974619219	pulse	1.0	t		31.0	female	white	2.1822522881018704	neutral	102	sub-17	1.0	2.0	102_neutral	0.0		53.961735342255	
4.0	29.403300267868417	pulse	1.0	t		31.0	female	white	2.1822522881018704	neutral	102	sub-17	1.0	2.0	102_neutral	0.0		54.661725863931224	
4.0	30.103294411833758	pulse	1.0	t		31.0	female	white	2.1822522881018704	neutral	102	sub-17	1.0	2.0	102_neutral	0.0		55.361720007896565	
4.0	30.803280103790712	pulse	1.0	t		31.0	female	white	2.1822522881018704	neutral	102	sub-17	1.0	2.0	102_neutral	0.0		56.06170569985352	
5.0	31.011514654273924	face	0.0		146	22.0	female	west_asian	3.8205332272184642	neutral	066	sub-17	1.0	2.0	066_neutral	0.0		56.26994025033673	1.2416359828566783
5.0	31.503729448790182	pulse	0.0	t		22.0	female	west_asian	3.8205332272184642	neutral	066	sub-17	1.0	2.0	066_neutral	0.0		56.76215504485299	
5.0	32.20325993971301	pulse	0.0	t		22.0	female	west_asian	3.8205332272184642	neutral	066	sub-17	1.0	2.0	066_neutral	0.0		57.461685535775814	
5.0	32.2531506371306	fix	1.0		445	22.0	female	west_asian	3.8205332272184642	neutral	066	sub-17	1.0	2.0	066_neutral	0.0		57.51157623319341	3.7666089515223575
5.0	32.903263743116895	pulse	1.0	t		22.0	female	west_asian	3.8205332272184642	neutral	066	sub-17	1.0	2.0	066_neutral	0.0		58.1616893391797	
5.0	33.60326271680151	pulse	1.0	t		22.0	female	west_asian	3.8205332272184642	neutral	066	sub-17	1.0	2.0	066_neutral	0.0		58.86168831286432	
5.0	34.303249012473316	pulse	1.0	t		22.0	female	west_asian	3.8205332272184642	neutral	066	sub-17	1.0	2.0	066_neutral	0.0		59.56167460853612	
5.0	35.003218705985546	pulse	1.0	t		22.0	female	west_asian	3.8205332272184642	neutral	066	sub-17	1.0	2.0	066_neutral	0.0		60.26164430204835	
5.0	35.70322432053399	pulse	1.0	t		22.0	female	west_asian	3.8205332272184642	neutral	066	sub-17	1.0	2.0	066_neutral	0.0		60.9616499165968	
6.0	36.01975958865296	face	0.0		145	31.0	female	east_asian	3.395941106247513	neutral	087	sub-17	1.0	2.0	087_neutral	0.0		61.27818518471577	1.2333370159940387
6.0	36.40322299236141	pulse	0.0	t		31.0	female	east_asian	3.395941106247513	neutral	087	sub-17	1.0	2.0	087_neutral	0.0		61.661648588424214	
6.0	37.103233436629125	pulse	0.0	t		31.0	female	east_asian	3.395941106247513	neutral	087	sub-17	1.0	2.0	087_neutral	0.0		62.36165903269193	
6.0	37.253096604647	fix	1.0		445	31.0	female	east_asian	3.395941106247513	neutral	087	sub-17	1.0	2.0	087_neutral	0.0		62.511522200709805	3.7666228369653254
6.0	37.80320463942826	pulse	1.0	t		31.0	female	east_asian	3.395941106247513	neutral	087	sub-17	1.0	2.0	087_neutral	0.0		63.061630235491066	
6.0	38.50319123695772	pulse	1.0	t		31.0	female	east_asian	3.395941106247513	neutral	087	sub-17	1.0	2.0	087_neutral	0.0		63.761616833020526	
6.0	39.2031835697785	pulse	1.0	t		31.0	female	east_asian	3.395941106247513	neutral	087	sub-17	1.0	2.0	087_neutral	0.0		64.46160916584131	
6.0	39.9031795248884	pulse	1.0	t		31.0	female	east_asian	3.395941106247513	neutral	087	sub-17	1.0	2.0	087_neutral	0.0		65.16160512095121	
6.0	40.60316702798991	pulse	1.0	t		31.0	female	east_asian	3.395941106247513	neutral	087	sub-17	1.0	2.0	087_neutral	0.0		65.86159262405272	
7.0	41.019719441612324	face	0.0		145	21.0	male	east_asian/white	3.501790688420215	smiling	036	sub-17	1.0	2.0	036_smiling	0.0		66.27814503767513	1.2333243379812302
7.0	41.30315453109188	pulse	0.0	t		21.0	male	east_asian/white	3.501790688420215	smiling	036	sub-17	1.0	2.0	036_smiling	0.0		66.56158012715468	
7.0	42.00318127566197	pulse	0.0	t		21.0	male	east_asian/white	3.501790688420215	smiling	036	sub-17	1.0	2.0	036_smiling	0.0		67.26160687172478	
7.0	42.253043779593554	fix	1.0		444	21.0	male	east_asian/white	3.501790688420215	smiling	036	sub-17	1.0	2.0	036_smiling	0.0		67.51146937565636	3.7665778602049613
7.0	42.70314342273741	pulse	1.0	t		21.0	male	east_asian/white	3.501790688420215	smiling	036	sub-17	1.0	2.0	036_smiling	0.0		67.96156901880022	
7.0	43.403134849986145	pulse	1.0	t		21.0	male	east_asian/white	3.501790688420215	smiling	036	sub-17	1.0	2.0	036_smiling	0.0		68.66156044604895	
7.0	44.103130503238845	pulse	1.0	t		21.0	male	east_asian/white	3.501790688420215	smiling	036	sub-17	1.0	2.0	036_smiling	0.0		69.36155609930165	
7.0	44.803120421199765	pulse	1.0	t		21.0	male	east_asian/white	3.501790688420215	smiling	036	sub-17	1.0	2.0	036_smiling	0.0		70.06154601726257	
7.0	45.50312784689322	pulse	1.0	t		21.0	male	east_asian/white	3.501790688420215	smiling	036	sub-17	1.0	2.0	036_smiling	0.0		70.76155344295603	
8.0	46.019621639798515	face	0.0		145	27.0	female	white	4.181058495821727	neutral	039	sub-17	1.0	2.0	039_neutral	0.0		71.27804723586132	1.2333533162964159
8.0	46.203107803558396	pulse	0.0	t		27.0	female	white	4.181058495821727	neutral	039	sub-17	1.0	2.0	039_neutral	0.0		71.4615333996212	
8.0	46.90344244272728	pulse	0.0	t		27.0	female	white	4.181058495821727	neutral	039	sub-17	1.0	2.0	039_neutral	0.0		72.16186803879009	
8.0	47.25297495609493	fix	1.0		444	27.0	female	white	4.181058495821727	neutral	039	sub-17	1.0	2.0	039_neutral	0.0		72.51140055215774	3.7666107626669145
8.0	47.60309337477247	pulse	1.0	t		27.0	female	white	4.181058495821727	neutral	039	sub-17	1.0	2.0	039_neutral	0.0		72.86151897083528	
8.0	48.303079066729424	pulse	1.0	t		27.0	female	white	4.181058495821727	neutral	039	sub-17	1.0	2.0	039_neutral	0.0		73.56150466279223	
8.0	49.0030704939777	pulse	1.0	t		27.0	female	white	4.181058495821727	neutral	039	sub-17	1.0	2.0	039_neutral	0.0		74.26149609004051	
8.0	49.70306312865614	pulse	1.0	t		27.0	female	white	4.181058495821727	neutral	039	sub-17	1.0	2.0	039_neutral	0.0		74.96148872471895	
8.0	50.403056367048976	pulse	1.0	t		27.0	female	white	4.181058495821727	neutral	039	sub-17	1.0	2.0	039_neutral	0.0		75.66148196311178	
9.0	51.019585718761846	face	0.0		145	32.0	male	white	2.389176283326701	smiling	092	sub-17	1.0	2.0	092_smiling	0.0		76.27801131482465	1.2333189045471045
9.0	51.10304779429771	pulse	0.0	t		32.0	male	white	2.389176283326701	smiling	092	sub-17	1.0	2.0	092_smiling	0.0		76.36147339036052	
9.0	51.803040730833345	pulse	0.0	t		32.0	male	white	2.389176283326701	smiling	092	sub-17	1.0	2.0	092_smiling	0.0		77.06146632689615	
9.0	52.25290462330895	fix	1.0		444	32.0	male	white	2.389176283326701	smiling	092	sub-17	1.0	2.0	092_smiling	0.0		77.51133021937176	3.7666174035311997
9.0	52.50304604352414	pulse	1.0	t		32.0	male	white	2.389176283326701	smiling	092	sub-17	1.0	2.0	092_smiling	0.0		77.76147163958694	
9.0	53.20301875561108	pulse	1.0	t		32.0	male	white	2.389176283326701	smiling	092	sub-17	1.0	2.0	092_smiling	0.0		78.46144435167389	
9.0	53.90302557758923	pulse	1.0	t		32.0	male	white	2.389176283326701	smiling	092	sub-17	1.0	2.0	092_smiling	0.0		79.16145117365204	
9.0	54.60301851412487	pulse	1.0	t		32.0	male	white	2.389176283326701	smiling	092	sub-17	1.0	2.0	092_smiling	0.0		79.86144411018768	
9.0	55.303008432086244	pulse	1.0	t		32.0	male	white	2.389176283326701	smiling	092	sub-17	1.0	2.0	092_smiling	0.0		80.56143402814905	
10.0	56.01952202684015	face	0.0		146	22.0	male	black	2.767608436132113	neutral	044	sub-17	1.0	2.0	044_neutral	0.0		81.27794762290296	1.2333382234237433
10.0	56.00590070942553	pulse	0.0	t		22.0	male	black	2.767608436132113	neutral	044	sub-17	1.0	2.0	044_neutral	0.0		81.26432630548834	
10.0	56.702982834574414	pulse	0.0	t		22.0	male	black	2.767608436132113	neutral	044	sub-17	1.0	2.0	044_neutral	0.0		81.96140843063722	
10.0	57.25286025026389	fix	1.0		443	22.0	male	black	2.767608436132113	neutral	044	sub-17	1.0	2.0	044_neutral	0.0		82.5112858463267	3.766608347807505
10.0	57.40296731910166	pulse	1.0	t		22.0	male	black	2.767608436132113	neutral	044	sub-17	1.0	2.0	044_neutral	0.0		82.66139291516447	
10.0	58.10296327421156	pulse	1.0	t		22.0	male	black	2.767608436132113	neutral	044	sub-17	1.0	2.0	044_neutral	0.0		83.36138887027437	
10.0	58.802953192172936	pulse	1.0	t		22.0	male	black	2.767608436132113	neutral	044	sub-17	1.0	2.0	044_neutral	0.0		84.06137878823574	
10.0	59.50298235160244	pulse	1.0	t		22.0	male	black	2.767608436132113	neutral	044	sub-17	1.0	2.0	044_neutral	0.0		84.76140794766525	
10.0	60.202940876388766	pulse	1.0	t		22.0	male	black	2.767608436132113	neutral	044	sub-17	1.0	2.0	044_neutral	0.0		85.46136647245157	
10.0	60.90293109620734	pulse	1.0	t		22.0	male	black	2.767608436132113	neutral	044	sub-17	1.0	2.0	044_neutral	0.0		86.16135669227015	
11.0	61.0194685980714	face	0.0		146	31.0	male	west_asian	1.9538400318344609	smiling	070	sub-17	1.0	2.0	070_smiling	1.0	attractiveness	86.2778941941342	1.2333330918472711
11.0	61.60292433460063	pulse	0.0	t		31.0	male	west_asian	1.9538400318344609	smiling	070	sub-17	1.0	2.0	070_smiling	1.0	attractiveness	86.86134993066344	
11.0	62.25280168991867	fix	1.0		176	31.0	male	west_asian	1.9538400318344609	smiling	070	sub-17	1.0	2.0	070_smiling	1.0	attractiveness	87.51122728598148	1.5083457547675607
11.0	62.30293025100673	pulse	1.0	t		31.0	male	west_asian	1.9538400318344609	smiling	070	sub-17	1.0	2.0	070_smiling	1.0	attractiveness	87.56135584706954	
11.0	63.00289692594424	pulse	1.0	t		31.0	male	west_asian	1.9538400318344609	smiling	070	sub-17	1.0	2.0	070_smiling	1.0	attractiveness	88.26132252200705	
11.0	63.70289620148651	pulse	1.0	t		31.0	male	west_asian	1.9538400318344609	smiling	070	sub-17	1.0	2.0	070_smiling	1.0	attractiveness	88.96132179754932	
11.0	63.76114744468623	rating	2.0		294	31.0	male	west_asian	1.9538400318344609	smiling	070	sub-17	1.0	2.0	070_smiling	1.0	attractiveness	89.01957304074904	2.4916104759022346
11.0	64.40289638260083	pulse	2.0	t		31.0	male	west_asian	1.9538400318344609	smiling	070	sub-17	1.0	2.0	070_smiling	1.0	attractiveness	89.66132197866364	
11.0	65.10288720613426	pulse	2.0	t		31.0	male	west_asian	1.9538400318344609	smiling	070	sub-17	1.0	2.0	070_smiling	1.0	attractiveness	90.36131280219706	
11.0	65.26954572265004	response	2.0	n		31.0	male	west_asian	1.9538400318344609	smiling	070	sub-17	1.0	2.0	070_smiling	1.0	attractiveness	90.52797131871284	
11.0	65.80286414422517	pulse	2.0	t		31.0	male	west_asian	1.9538400318344609	smiling	070	sub-17	1.0	2.0	070_smiling	1.0	attractiveness	91.06128974028798	
11.0	66.25275792058846	fix	3.0		444	31.0	male	west_asian	1.9538400318344609	smiling	070	sub-17	1.0	2.0	070_smiling	1.0	attractiveness	91.51118351665127	3.766605932948096
11.0	66.50287126806097	pulse	3.0	t		31.0	male	west_asian	1.9538400318344609	smiling	070	sub-17	1.0	2.0	070_smiling	1.0	attractiveness	91.76129686412378	
11.0	67.20284186714525	pulse	3.0	t		31.0	male	west_asian	1.9538400318344609	smiling	070	sub-17	1.0	2.0	070_smiling	1.0	attractiveness	92.46126746320806	
11.0	67.90286649871314	pulse	3.0	t		31.0	male	west_asian	1.9538400318344609	smiling	070	sub-17	1.0	2.0	070_smiling	1.0	attractiveness	93.16129209477594	
11.0	68.60284072008699	pulse	3.0	t		31.0	male	west_asian	1.9538400318344609	smiling	070	sub-17	1.0	2.0	070_smiling	1.0	attractiveness	93.8612663161498	
11.0	69.30283275105057	pulse	3.0	t		31.0	male	west_asian	1.9538400318344609	smiling	070	sub-17	1.0	2.0	070_smiling	1.0	attractiveness	94.56125834711338	
12.0	70.01936385353656	face	0.0		146	40.0	male	white	1.868682849184242	neutral	172	sub-17	1.0	2.0	172_neutral	0.0		95.27778944959937	1.2333285639856513
12.0	70.00559673897351	pulse	0.0	t		40.0	male	white	1.868682849184242	neutral	172	sub-17	1.0	2.0	172_neutral	0.0		95.26402233503632	
12.0	70.70282496312802	pulse	0.0	t		40.0	male	white	1.868682849184242	neutral	172	sub-17	1.0	2.0	172_neutral	0.0		95.96125055919083	
12.0	71.25269241752221	fix	1.0		443	40.0	male	white	1.868682849184242	neutral	172	sub-17	1.0	2.0	172_neutral	0.0		96.51111801358502	3.7666143849564833
12.0	71.40281337180204	pulse	1.0	t		40.0	male	white	1.868682849184242	neutral	172	sub-17	1.0	2.0	172_neutral	0.0		96.66123896786485	
12.0	72.10280057304635	pulse	1.0	t		40.0	male	white	1.868682849184242	neutral	172	sub-17	1.0	2.0	172_neutral	0.0		97.36122616910916	
12.0	72.80279139657978	pulse	1.0	t		40.0	male	white	1.868682849184242	neutral	172	sub-17	1.0	2.0	172_neutral	0.0		98.06121699264258	
12.0	73.50278735169013	pulse	1.0	t		40.0	male	white	1.868682849184242	neutral	172	sub-17	1.0	2.0	172_neutral	0.0		98.76121294775294	
12.0	74.20277908079606	pulse	1.0	t		40.0	male	white	1.868682849184242	neutral	172	sub-17	1.0	2.0	172_neutral	0.0		99.46120467685887	
12.0	74.90277594147847	pulse	1.0	t		40.0	male	white	1.868682849184242	neutral	172	sub-17	1.0	2.0	172_neutral	0.0		100.16120153754127	
13.0	75.0193068024787	face	0.0		146	22.0	female	white	4.614007162753682	smiling	009	sub-17	1.0	2.0	009_smiling	0.0		100.2777323985415	1.2333336955621235
13.0	75.60276827429925	pulse	0.0	t		22.0	female	white	4.614007162753682	smiling	009	sub-17	1.0	2.0	009_smiling	0.0		100.86119387036206	
13.0	76.25264049804082	fix	1.0		443	22.0	female	white	4.614007162753682	smiling	009	sub-17	1.0	2.0	009_smiling	0.0		101.51106609410363	3.758269837618627
13.0	76.30275758854532	pulse	1.0	t		22.0	female	white	4.614007162753682	smiling	009	sub-17	1.0	2.0	009_smiling	0.0		101.56118318460813	
13.0	77.00274418607478	pulse	1.0	t		22.0	female	white	4.614007162753682	smiling	009	sub-17	1.0	2.0	009_smiling	0.0		102.26116978213759	
13.0	77.70273470775055	pulse	1.0	t		22.0	female	white	4.614007162753682	smiling	009	sub-17	1.0	2.0	009_smiling	0.0		102.96116030381336	
13.0	78.4027297572884	pulse	1.0	t		22.0	female	white	4.614007162753682	smiling	009	sub-17	1.0	2.0	009_smiling	0.0		103.6611553533512	
13.0	79.10271907153492	pulse	1.0	t		22.0	female	white	4.614007162753682	smiling	009	sub-17	1.0	2.0	009_smiling	0.0		104.36114466759773	
13.0	79.8027117062129	pulse	1.0	t		22.0	female	white	4.614007162753682	smiling	009	sub-17	1.0	2.0	009_smiling	0.0		105.06113730227571	
14.0	80.01091033565945	face	0.0		146	23.0	male	white	2.6275368085953046	smiling	141	sub-17	1.0	2.0	141_smiling	0.0		105.26933593172225	1.2416722057510015
14.0	80.50270917061061	pulse	0.0	t		23.0	male	white	2.6275368085953046	smiling	141	sub-17	1.0	2.0	141_smiling	0.0		105.76113476667342	
14.0	81.20269456070992	pulse	0.0	t		23.0	male	white	2.6275368085953046	smiling	141	sub-17	1.0	2.0	141_smiling	0.0		106.46112015677272	
14.0	81.25258254141045	fix	1.0		444	23.0	male	white	2.6275368085953046	smiling	141	sub-17	1.0	2.0	141_smiling	0.0		106.51100813747325	3.76660955523721
14.0	81.9027077216947	pulse	1.0	t		23.0	male	white	2.6275368085953046	smiling	141	sub-17	1.0	2.0	141_smiling	0.0		107.1611333177575	
14.0	82.60268073563884	pulse	1.0	t		23.0	male	white	2.6275368085953046	smiling	141	sub-17	1.0	2.0	141_smiling	0.0		107.86110633170165	
14.0	83.30266099416167	pulse	1.0	t		23.0	male	white	2.6275368085953046	smiling	141	sub-17	1.0	2.0	141_smiling	0.0		108.56108659022448	
14.0	84.00266268456335	pulse	1.0	t		23.0	male	white	2.6275368085953046	smiling	141	sub-17	1.0	2.0	141_smiling	0.0		109.26108828062615	
14.0	84.70266648796724	pulse	1.0	t		23.0	male	white	2.6275368085953046	smiling	141	sub-17	1.0	2.0	141_smiling	0.0		109.96109208403004	
15.0	85.01919209664766	face	0.0		145	20.0	male	black	3.1070433744528456	neutral	082	sub-17	1.0	2.0	082_neutral	0.0		110.27761769271046	1.2333346011346293
15.0	85.40265278363904	pulse	0.0	t		20.0	male	black	3.1070433744528456	neutral	082	sub-17	1.0	2.0	082_neutral	0.0		110.66107837970185	
15.0	86.102651455466	pulse	0.0	t		20.0	male	black	3.1070433744528456	neutral	082	sub-17	1.0	2.0	082_neutral	0.0		111.36107705152881	
15.0	86.25252669778229	fix	1.0		444	20.0	male	black	3.1070433744528456	neutral	082	sub-17	1.0	2.0	082_neutral	0.0		111.5109522938451	3.766606838520147
15.0	86.80263261956134	pulse	1.0	t		20.0	male	black	3.1070433744528456	neutral	082	sub-17	1.0	2.0	082_neutral	0.0		112.06105821562414	
15.0	87.5026321969608	pulse	1.0	t		20.0	male	black	3.1070433744528456	neutral	082	sub-17	1.0	2.0	082_neutral	0.0		112.76105779302361	
15.0	88.20262302049423	pulse	1.0	t		20.0	male	black	3.1070433744528456	neutral	082	sub-17	1.0	2.0	082_neutral	0.0		113.46104861655704	
15.0	88.90262712575577	pulse	1.0	t		20.0	male	black	3.1070433744528456	neutral	082	sub-17	1.0	2.0	082_neutral	0.0		114.16105272181858	
15.0	89.60259108397622	pulse	1.0	t		20.0	male	black	3.1070433744528456	neutral	082	sub-17	1.0	2.0	082_neutral	0.0		114.86101668003903	
16.0	90.01913353630243	face	0.0		145	32.0	male	white	2.389176283326701	neutral	092	sub-17	1.0	2.0	092_neutral	0.0		115.27755913236524	1.2333330918472711
16.0	90.3025939818076	pulse	0.0	t		32.0	male	white	2.389176283326701	neutral	092	sub-17	1.0	2.0	092_neutral	0.0		115.56101957787041	
16.0	91.0025995963565	pulse	0.0	t		32.0	male	white	2.389176283326701	neutral	092	sub-17	1.0	2.0	092_neutral	0.0		116.26102519241931	
16.0	91.2524666281497	fix	1.0		444	32.0	male	white	2.389176283326701	neutral	092	sub-17	1.0	2.0	092_neutral	0.0		116.51089222421251	3.758369752434646
16.0	91.70257683630462	pulse	1.0	t		32.0	male	white	2.389176283326701	neutral	092	sub-17	1.0	2.0	092_neutral	0.0		116.96100243236742	
16.0	92.4025682635529	pulse	1.0	t		32.0	male	white	2.389176283326701	neutral	092	sub-17	1.0	2.0	092_neutral	0.0		117.6609938596157	
16.0	93.10256663352266	pulse	1.0	t		32.0	male	white	2.389176283326701	neutral	092	sub-17	1.0	2.0	092_neutral	0.0		118.36099222958546	
16.0	93.8025601737736	pulse	1.0	t		32.0	male	white	2.389176283326701	neutral	092	sub-17	1.0	2.0	092_neutral	0.0		119.0609857698364	
16.0	94.50256488274954	pulse	1.0	t		32.0	male	white	2.389176283326701	neutral	092	sub-17	1.0	2.0	092_neutral	0.0		119.76099047881235	
17.0	95.01083638058435	face	0.0		146	20.0	female	white	3.9502586549940313	smiling	091	sub-17	1.0	2.0	091_smiling	0.0		120.26926197664716	1.2415734983646871
17.0	95.20253940598104	pulse	0.0	t		20.0	female	white	3.9502586549940313	smiling	091	sub-17	1.0	2.0	091_smiling	0.0		120.46096500204385	
17.0	95.9025253997952	pulse	0.0	t		20.0	female	white	3.9502586549940313	smiling	091	sub-17	1.0	2.0	091_smiling	0.0		121.160950995858	
17.0	96.25240987894904	fix	1.0		444	20.0	female	white	3.9502586549940313	smiling	091	sub-17	1.0	2.0	091_smiling	0.0		121.51083547501185	3.7666098570948634
17.0	96.60251924190334	pulse	1.0	t		20.0	female	white	3.9502586549940313	smiling	091	sub-17	1.0	2.0	091_smiling	0.0		121.86094483796614	
17.0	97.30250765057735	pulse	1.0	t		20.0	female	white	3.9502586549940313	smiling	091	sub-17	1.0	2.0	091_smiling	0.0		122.56093324664016	
17.0	98.00250088897019	pulse	1.0	t		20.0	female	white	3.9502586549940313	smiling	091	sub-17	1.0	2.0	091_smiling	0.0		123.260926485033	
17.0	98.70250107008496	pulse	1.0	t		20.0	female	white	3.9502586549940313	smiling	091	sub-17	1.0	2.0	091_smiling	0.0		123.96092666614777	
17.0	99.40248857318647	pulse	1.0	t		20.0	female	white	3.9502586549940313	smiling	091	sub-17	1.0	2.0	091_smiling	0.0		124.66091416924928	
18.0	100.0190197360439	face	0.0		145	21.0	male	east_asian/white	3.501790688420215	neutral	036	sub-17	1.0	2.0	036_neutral	0.0		125.27744533210671	1.2333333937049247
18.0	100.1024803022924	pulse	0.0	t		21.0	male	east_asian/white	3.501790688420215	neutral	036	sub-17	1.0	2.0	036_neutral	0.0		125.36090589835521	
18.0	100.80246991839613	pulse	0.0	t		21.0	male	east_asian/white	3.501790688420215	neutral	036	sub-17	1.0	2.0	036_neutral	0.0		126.06089551445893	
18.0	101.25235312974883	fix	1.0		444	21.0	male	east_asian/white	3.501790688420215	neutral	036	sub-17	1.0	2.0	036_neutral	0.0		126.51077872581163	3.766604121803084
18.0	101.50244595091453	pulse	1.0	t		21.0	male	east_asian/white	3.501790688420215	neutral	036	sub-17	1.0	2.0	036_neutral	0.0		126.76087154697734	
18.0	102.20246001747182	pulse	1.0	t		21.0	male	east_asian/white	3.501790688420215	neutral	036	sub-17	1.0	2.0	036_neutral	0.0		127.46088561353463	
18.0	102.90246442459056	pulse	1.0	t		21.0	male	east_asian/white	3.501790688420215	neutral	036	sub-17	1.0	2.0	036_neutral	0.0		128.16089002065337	
18.0	103.60243291067263	pulse	1.0	t		21.0	male	east_asian/white	3.501790688420215	neutral	036	sub-17	1.0	2.0	036_neutral	0.0		128.86085850673544	
18.0	104.30242856392533	pulse	1.0	t		21.0	male	east_asian/white	3.501790688420215	neutral	036	sub-17	1.0	2.0	036_neutral	0.0		129.56085415998814	
19.0	105.01895725155191	face	0.0		145	22.0	female	west_asian	3.8205332272184642	smiling	066	sub-17	1.0	2.0	066_smiling	1.0	trustworthiness	130.27738284761472	1.233335808564334
19.0	105.00541139849975	pulse	0.0	t		22.0	female	west_asian	3.8205332272184642	smiling	066	sub-17	1.0	2.0	066_smiling	1.0	trustworthiness	130.26383699456255	
19.0	105.70241654999882	pulse	0.0	t		22.0	female	west_asian	3.8205332272184642	smiling	066	sub-17	1.0	2.0	066_smiling	1.0	trustworthiness	130.96084214606162	
19.0	106.25229306011624	fix	1.0		177	22.0	female	west_asian	3.8205332272184642	smiling	066	sub-17	1.0	2.0	066_smiling	1.0	trustworthiness	131.51071865617905	1.4999864164146857
19.0	106.40241099582181	pulse	1.0	t		22.0	female	west_asian	3.8205332272184642	smiling	066	sub-17	1.0	2.0	066_smiling	1.0	trustworthiness	131.66083659188462	
19.0	107.10239698963596	pulse	1.0	t		22.0	female	west_asian	3.8205332272184642	smiling	066	sub-17	1.0	2.0	066_smiling	1.0	trustworthiness	132.36082258569877	
19.0	107.75227947653093	rating	2.0		294	22.0	female	west_asian	3.8205332272184642	smiling	066	sub-17	1.0	2.0	066_smiling	1.0	trustworthiness	133.01070507259374	2.4999716253996667
19.0	107.80239475589087	pulse	2.0	t		22.0	female	west_asian	3.8205332272184642	smiling	066	sub-17	1.0	2.0	066_smiling	1.0	trustworthiness	133.06082035195368	
19.0	108.50238739056931	pulse	2.0	t		22.0	female	west_asian	3.8205332272184642	smiling	066	sub-17	1.0	2.0	066_smiling	1.0	trustworthiness	133.76081298663212	
19.0	109.20237459181317	pulse	2.0	t		22.0	female	west_asian	3.8205332272184642	smiling	066	sub-17	1.0	2.0	066_smiling	1.0	trustworthiness	134.46080018787598	
19.0	109.86071512444687	response	2.0	e		22.0	female	west_asian	3.8205332272184642	smiling	066	sub-17	1.0	2.0	066_smiling	1.0	trustworthiness	135.11914072050968	
19.0	109.90237054692352	pulse	2.0	t		22.0	female	west_asian	3.8205332272184642	smiling	066	sub-17	1.0	2.0	066_smiling	1.0	trustworthiness	135.16079614298633	
19.0	110.2522511019306	fix	3.0		444	22.0	female	west_asian	3.8205332272184642	smiling	066	sub-17	1.0	2.0	066_smiling	1.0	trustworthiness	135.5106766979934	3.766606536662948
19.0	110.60236016302724	pulse	3.0	t		22.0	female	west_asian	3.8205332272184642	smiling	066	sub-17	1.0	2.0	066_smiling	1.0	trustworthiness	135.86078575909005	
19.0	111.3023467605567	pulse	3.0	t		22.0	female	west_asian	3.8205332272184642	smiling	066	sub-17	1.0	2.0	066_smiling	1.0	trustworthiness	136.5607723566195	
19.0	112.00234090452204	pulse	3.0	t		22.0	female	west_asian	3.8205332272184642	smiling	066	sub-17	1.0	2.0	066_smiling	1.0	trustworthiness	137.26076650058485	
19.0	112.70233685963194	pulse	3.0	t		22.0	female	west_asian	3.8205332272184642	smiling	066	sub-17	1.0	2.0	066_smiling	1.0	trustworthiness	137.96076245569475	
19.0	113.40232285344655	pulse	3.0	t		22.0	female	west_asian	3.8205332272184642	smiling	066	sub-17	1.0	2.0	066_smiling	1.0	trustworthiness	138.66074844950936	
20.0	114.01885763859354	face	0.0		145	24.0	female	east_asian	2.9076800636689217	neutral	034	sub-17	1.0	2.0	034_neutral	0.0		139.27728323465635	1.2333312807027141
20.0	114.10231850669925	pulse	0.0	t		24.0	female	east_asian	2.9076800636689217	neutral	034	sub-17	1.0	2.0	034_neutral	0.0		139.36074410276206	
20.0	114.80230902837548	pulse	0.0	t		24.0	female	east_asian	2.9076800636689217	neutral	034	sub-17	1.0	2.0	034_neutral	0.0		140.06073462443828	
20.0	115.25218891929626	fix	1.0		1185	24.0	female	east_asian	2.9076800636689217	neutral	034	sub-17	1.0	2.0	034_neutral	0.0		140.51061451535907	10.016517941501206
20.0	115.50231494478112	pulse	1.0	t		24.0	female	east_asian	2.9076800636689217	neutral	034	sub-17	1.0	2.0	034_neutral	0.0		140.76074054084393	
20.0	116.20229007172748	pulse	1.0	t		24.0	female	east_asian	2.9076800636689217	neutral	034	sub-17	1.0	2.0	034_neutral	0.0		141.46071566779028	
20.0	116.90229749742093	pulse	1.0	t		24.0	female	east_asian	2.9076800636689217	neutral	034	sub-17	1.0	2.0	034_neutral	0.0		142.16072309348374	
20.0	117.60227292622449	pulse	1.0	t		24.0	female	east_asian	2.9076800636689217	neutral	034	sub-17	1.0	2.0	034_neutral	0.0		142.8606985222873	
20.0	118.3022731073388	pulse	1.0	t		24.0	female	east_asian	2.9076800636689217	neutral	034	sub-17	1.0	2.0	034_neutral	0.0		143.5606987034016	
20.0	119.00225306400398	pulse	1.0	t		24.0	female	east_asian	2.9076800636689217	neutral	034	sub-17	1.0	2.0	034_neutral	0.0		144.2606786600668	
20.0	119.70226652684642	pulse	1.0	t		24.0	female	east_asian	2.9076800636689217	neutral	034	sub-17	1.0	2.0	034_neutral	0.0		144.96069212290922	
20.0	120.40225191694572	pulse	1.0	t		24.0	female	east_asian	2.9076800636689217	neutral	034	sub-17	1.0	2.0	034_neutral	0.0		145.66067751300852	
20.0	121.1022439479093	pulse	1.0	t		24.0	female	east_asian	2.9076800636689217	neutral	034	sub-17	1.0	2.0	034_neutral	0.0		146.3606695439721	
20.0	121.8022305454383	pulse	1.0	t		24.0	female	east_asian	2.9076800636689217	neutral	034	sub-17	1.0	2.0	034_neutral	0.0		147.0606561415011	
20.0	122.50223072655308	pulse	1.0	t		24.0	female	east_asian	2.9076800636689217	neutral	034	sub-17	1.0	2.0	034_neutral	0.0		147.7606563226159	
20.0	123.20221249436281	pulse	1.0	t		24.0	female	east_asian	2.9076800636689217	neutral	034	sub-17	1.0	2.0	034_neutral	0.0		148.46063809042562	
20.0	123.9022159959095	pulse	1.0	t		24.0	female	east_asian	2.9076800636689217	neutral	034	sub-17	1.0	2.0	034_neutral	0.0		149.1606415919723	
20.0	124.60219685814718	pulse	1.0	t		24.0	female	east_asian	2.9076800636689217	neutral	034	sub-17	1.0	2.0	034_neutral	0.0		149.86062245421	
21.0	125.26870686079747	face	0.0		145	34.0	male	white	2.651014723438122	smiling	121	sub-17	1.0	2.0	121_smiling	0.0		150.52713245686027	1.2333533162964159
21.0	125.30219764297635	pulse	0.0	t		34.0	male	white	2.651014723438122	smiling	121	sub-17	1.0	2.0	121_smiling	0.0		150.56062323903916	
21.0	126.00217729778433	pulse	0.0	t		34.0	male	white	2.651014723438122	smiling	121	sub-17	1.0	2.0	121_smiling	0.0		151.26060289384714	
21.0	126.50206017709388	fix	1.0		443	34.0	male	white	2.651014723438122	smiling	121	sub-17	1.0	2.0	121_smiling	0.0		151.7604857731567	3.7666029143733795
21.0	126.70219649591809	pulse	1.0	t		34.0	male	white	2.651014723438122	smiling	121	sub-17	1.0	2.0	121_smiling	0.0		151.9606220919809	
21.0	127.40219879003462	pulse	1.0	t		34.0	male	white	2.651014723438122	smiling	121	sub-17	1.0	2.0	121_smiling	0.0		152.66062438609742	
21.0	128.1021817652745	pulse	1.0	t		34.0	male	white	2.651014723438122	smiling	121	sub-17	1.0	2.0	121_smiling	0.0		153.36060736133732	
21.0	128.802162325655	pulse	1.0	t		34.0	male	white	2.651014723438122	smiling	121	sub-17	1.0	2.0	121_smiling	0.0		154.0605879217178	
21.0	129.50216552534357	pulse	1.0	t		34.0	male	white	2.651014723438122	smiling	121	sub-17	1.0	2.0	121_smiling	0.0		154.76059112140638	
21.0	130.20213340771124	pulse	1.0	t		34.0	male	white	2.651014723438122	smiling	121	sub-17	1.0	2.0	121_smiling	0.0		155.46055900377405	
22.0	130.26866309146726	face	0.0		146	47.0	male	east_asian	2.171110226820533	smiling	024	sub-17	1.0	2.0	024_smiling	1.0	dominance	155.52708868753007	1.2333460717177331
22.0	130.90212483495952	pulse	0.0	t		47.0	male	east_asian	2.171110226820533	smiling	024	sub-17	1.0	2.0	024_smiling	1.0	dominance	156.16055043102233	
22.0	131.502009163185	fix	1.0		177	47.0	male	east_asian	2.171110226820533	smiling	024	sub-17	1.0	2.0	024_smiling	1.0	dominance	156.7604347592478	1.499972229114519
22.0	131.6021159603506	pulse	1.0	t		47.0	male	east_asian	2.171110226820533	smiling	024	sub-17	1.0	2.0	024_smiling	1.0	dominance	156.8605415564134	
22.0	132.30209863373284	pulse	1.0	t		47.0	male	east_asian	2.171110226820533	smiling	024	sub-17	1.0	2.0	024_smiling	1.0	dominance	157.56052422979565	
22.0	133.0019813922995	rating	2.0		294	47.0	male	east_asian	2.171110226820533	smiling	024	sub-17	1.0	2.0	024_smiling	1.0	dominance	158.26040698836232	2.499990340561453
22.0	133.00979135009356	pulse	2.0	t		47.0	male	east_asian	2.171110226820533	smiling	024	sub-17	1.0	2.0	024_smiling	1.0	dominance	158.26821694615637	
22.0	133.70210563682576	pulse	2.0	t		47.0	male	east_asian	2.171110226820533	smiling	024	sub-17	1.0	2.0	024_smiling	1.0	dominance	158.96053123288857	
22.0	134.40208529163374	pulse	2.0	t		47.0	male	east_asian	2.171110226820533	smiling	024	sub-17	1.0	2.0	024_smiling	1.0	dominance	159.66051088769655	
22.0	134.69691942398367	response	2.0	w		47.0	male	east_asian	2.171110226820533	smiling	024	sub-17	1.0	2.0	024_smiling	1.0	dominance	159.95534502004648	
22.0	135.10206887058848	pulse	2.0	t		47.0	male	east_asian	2.171110226820533	smiling	024	sub-17	1.0	2.0	024_smiling	1.0	dominance	160.3604944666513	
22.0	135.50197173286097	fix	3.0		444	47.0	male	east_asian	2.171110226820533	smiling	024	sub-17	1.0	2.0	024_smiling	1.0	dominance	160.76039732892377	3.766592047505128
22.0	135.80207689999634	pulse	3.0	t		47.0	male	east_asian	2.171110226820533	smiling	024	sub-17	1.0	2.0	024_smiling	1.0	dominance	161.06050249605914	
22.0	136.50207164767698	pulse	3.0	t		47.0	male	east_asian	2.171110226820533	smiling	024	sub-17	1.0	2.0	024_smiling	1.0	dominance	161.7604972437398	
22.0	137.20204224676127	pulse	3.0	t		47.0	male	east_asian	2.171110226820533	smiling	024	sub-17	1.0	2.0	024_smiling	1.0	dominance	162.46046784282407	
22.0	137.90203940930132	pulse	3.0	t		47.0	male	east_asian	2.171110226820533	smiling	024	sub-17	1.0	2.0	024_smiling	1.0	dominance	163.16046500536413	
22.0	138.6020320439793	pulse	3.0	t		47.0	male	east_asian	2.171110226820533	smiling	024	sub-17	1.0	2.0	024_smiling	1.0	dominance	163.8604576400421	
23.0	139.2685637803661	face	0.0		145	25.0	female	black	3.858336649423	neutral	126	sub-17	1.0	2.0	126_neutral	1.0	dominance	164.5269893764289	1.233330375130663
23.0	139.30203313066613	pulse	0.0	t		25.0	female	black	3.858336649423	neutral	126	sub-17	1.0	2.0	126_neutral	1.0	dominance	164.56045872672894	
23.0	140.0020218411978	pulse	0.0	t		25.0	female	black	3.858336649423	neutral	126	sub-17	1.0	2.0	126_neutral	1.0	dominance	165.2604474372606	
23.0	140.50189415549676	fix	1.0		177	25.0	female	black	3.858336649423	neutral	126	sub-17	1.0	2.0	126_neutral	1.0	dominance	165.76031975155956	1.4999918498488114
23.0	140.70201326844608	pulse	1.0	t		25.0	female	black	3.858336649423	neutral	126	sub-17	1.0	2.0	126_neutral	1.0	dominance	165.9604388645089	
23.0	141.40202401457145	pulse	1.0	t		25.0	female	black	3.858336649423	neutral	126	sub-17	1.0	2.0	126_neutral	1.0	dominance	166.66044961063426	
23.0	142.00188600534557	rating	2.0		294	25.0	female	black	3.858336649423	neutral	126	sub-17	1.0	2.0	126_neutral	1.0	dominance	167.26031160140838	2.499973134687025
23.0	142.10202691240283	pulse	2.0	t		25.0	female	black	3.858336649423	neutral	126	sub-17	1.0	2.0	126_neutral	1.0	dominance	167.36045250846564	
23.0	142.8019960022002	pulse	2.0	t		25.0	female	black	3.858336649423	neutral	126	sub-17	1.0	2.0	126_neutral	1.0	dominance	168.06042159826302	
23.0	143.39365471492283	response	2.0	b		25.0	female	black	3.858336649423	neutral	126	sub-17	1.0	2.0	126_neutral	1.0	dominance	168.65208031098564	
23.0	143.50197777000994	pulse	2.0	t		25.0	female	black	3.858336649423	neutral	126	sub-17	1.0	2.0	126_neutral	1.0	dominance	168.76040336607275	
23.0	144.20196497125426	pulse	2.0	t		25.0	female	black	3.858336649423	neutral	126	sub-17	1.0	2.0	126_neutral	1.0	dominance	169.46039056731706	
23.0	144.5018591400326	fix	3.0		444	25.0	female	black	3.858336649423	neutral	126	sub-17	1.0	2.0	126_neutral	1.0	dominance	169.7602847360954	3.7582616874674386
23.0	144.90197783038138	pulse	3.0	t		25.0	female	black	3.858336649423	neutral	126	sub-17	1.0	2.0	126_neutral	1.0	dominance	170.1604034264442	
23.0	145.60194963689582	pulse	3.0	t		25.0	female	black	3.858336649423	neutral	126	sub-17	1.0	2.0	126_neutral	1.0	dominance	170.86037523295863	
23.0	146.30196430716796	pulse	3.0	t		25.0	female	black	3.858336649423	neutral	126	sub-17	1.0	2.0	126_neutral	1.0	dominance	171.56038990323077	
23.0	147.0019376229693	pulse	3.0	t		25.0	female	black	3.858336649423	neutral	126	sub-17	1.0	2.0	126_neutral	1.0	dominance	172.26036321903212	
23.0	147.70192572978567	pulse	3.0	t		25.0	female	black	3.858336649423	neutral	126	sub-17	1.0	2.0	126_neutral	1.0	dominance	172.96035132584848	
24.0	148.26012082750003	face	0.0		146	28.0	male	east_asian	1.5563072025467568	neutral	005	sub-17	1.0	2.0	005_neutral	0.0		173.51854642356284	1.2416685834614327
24.0	148.40193043876207	pulse	0.0	t		28.0	male	east_asian	1.5563072025467568	neutral	005	sub-17	1.0	2.0	005_neutral	0.0		173.66035603482487	
24.0	149.10192880873183	pulse	0.0	t		28.0	male	east_asian	1.5563072025467568	neutral	005	sub-17	1.0	2.0	005_neutral	0.0		174.36035440479463	
24.0	149.50178941096146	fix	1.0		444	28.0	male	east_asian	1.5563072025467568	neutral	005	sub-17	1.0	2.0	005_neutral	0.0		174.76021500702427	3.766613781241631
24.0	149.80190453939258	pulse	1.0	t		28.0	male	east_asian	1.5563072025467568	neutral	005	sub-17	1.0	2.0	005_neutral	0.0		175.0603301354554	
24.0	150.50191951152237	pulse	1.0	t		28.0	male	east_asian	1.5563072025467568	neutral	005	sub-17	1.0	2.0	005_neutral	0.0		175.76034510758518	
24.0	151.20188377160048	pulse	1.0	t		28.0	male	east_asian	1.5563072025467568	neutral	005	sub-17	1.0	2.0	005_neutral	0.0		176.46030936766329	
24.0	151.9018715765592	pulse	1.0	t		28.0	male	east_asian	1.5563072025467568	neutral	005	sub-17	1.0	2.0	005_neutral	0.0		177.160297172622	
24.0	152.60186994652895	pulse	1.0	t		28.0	male	east_asian	1.5563072025467568	neutral	005	sub-17	1.0	2.0	005_neutral	0.0		177.86029554259176	
25.0	153.2684031922031	face	0.0		145	24.0	female	east_asian	4.409868682849185	neutral	030	sub-17	1.0	2.0	030_neutral	0.0		178.5268287882659	1.2333373178516922
25.0	153.30185714777326	pulse	0.0	t		24.0	female	east_asian	4.409868682849185	neutral	030	sub-17	1.0	2.0	030_neutral	0.0		178.56028274383607	
25.0	154.00185672517273	pulse	0.0	t		24.0	female	east_asian	4.409868682849185	neutral	030	sub-17	1.0	2.0	030_neutral	0.0		179.26028232123554	
25.0	154.5017405100548	fix	1.0		443	24.0	female	east_asian	4.409868682849185	neutral	030	sub-17	1.0	2.0	030_neutral	0.0		179.7601661061176	3.766583595496286
25.0	154.70184845427866	pulse	1.0	t		24.0	female	east_asian	4.409868682849185	neutral	030	sub-17	1.0	2.0	030_neutral	0.0		179.96027405034147	
25.0	155.40185708740182	pulse	1.0	t		24.0	female	east_asian	4.409868682849185	neutral	030	sub-17	1.0	2.0	030_neutral	0.0		180.66028268346463	
25.0	156.10230250825452	pulse	1.0	t		24.0	female	east_asian	4.409868682849185	neutral	030	sub-17	1.0	2.0	030_neutral	0.0		181.36072810431733	
25.0	156.80182726388557	pulse	1.0	t		24.0	female	east_asian	4.409868682849185	neutral	030	sub-17	1.0	2.0	030_neutral	0.0		182.06025285994838	
25.0	157.5018165781321	pulse	1.0	t		24.0	female	east_asian	4.409868682849185	neutral	030	sub-17	1.0	2.0	030_neutral	0.0		182.7602421741949	
25.0	158.20180589237816	pulse	1.0	t		24.0	female	east_asian	4.409868682849185	neutral	030	sub-17	1.0	2.0	030_neutral	0.0		183.46023148844097	
26.0	158.26832410555107	face	0.0		146	34.0	male	white	2.651014723438122	neutral	121	sub-17	1.0	2.0	121_neutral	0.0		183.52674970161388	1.2333545237265753
26.0	158.9018021493457	pulse	0.0	t		34.0	male	white	2.651014723438122	neutral	121	sub-17	1.0	2.0	121_neutral	0.0		184.16022774540852	
26.0	159.50167862927765	fix	1.0		443	34.0	male	white	2.651014723438122	neutral	121	sub-17	1.0	2.0	121_neutral	0.0		184.76010422534046	3.766624346252229
26.0	159.6018059527496	pulse	1.0	t		34.0	male	white	2.651014723438122	neutral	121	sub-17	1.0	2.0	121_neutral	0.0		184.8602315488124	
26.0	160.30177987226625	pulse	1.0	t		34.0	male	white	2.651014723438122	neutral	121	sub-17	1.0	2.0	121_neutral	0.0		185.56020546832906	
26.0	161.001776431091	pulse	1.0	t		34.0	male	white	2.651014723438122	neutral	121	sub-17	1.0	2.0	121_neutral	0.0		186.2602020271538	
26.0	161.70177480106076	pulse	1.0	t		34.0	male	white	2.651014723438122	neutral	121	sub-17	1.0	2.0	121_neutral	0.0		186.96020039712357	
26.0	162.40175022986477	pulse	1.0	t		34.0	male	white	2.651014723438122	neutral	121	sub-17	1.0	2.0	121_neutral	0.0		187.66017582592758	
26.0	163.10175312769616	pulse	1.0	t		34.0	male	white	2.651014723438122	neutral	121	sub-17	1.0	2.0	121_neutral	0.0		188.36017872375896	
27.0	163.26830297552988	face	0.0		146	26.0	female	white	4.854755272582572	smiling	027	sub-17	1.0	2.0	027_smiling	0.0		188.52672857159268	1.2333204138344627
27.0	163.80174334751473	pulse	0.0	t		26.0	female	white	4.854755272582572	smiling	027	sub-17	1.0	2.0	027_smiling	0.0		189.06016894357754	
27.0	164.50162338936434	fix	1.0		444	26.0	female	white	4.854755272582572	smiling	027	sub-17	1.0	2.0	027_smiling	0.0		189.76004898542715	3.766607140377346
27.0	164.5092751738548	pulse	1.0	t		26.0	female	white	4.854755272582572	smiling	027	sub-17	1.0	2.0	027_smiling	0.0		189.7677007699176	
27.0	165.20172439086673	pulse	1.0	t		26.0	female	white	4.854755272582572	smiling	027	sub-17	1.0	2.0	027_smiling	0.0		190.46014998692954	
27.0	165.90172728869857	pulse	1.0	t		26.0	female	white	4.854755272582572	smiling	027	sub-17	1.0	2.0	027_smiling	0.0		191.16015288476137	
27.0	166.6017184140892	pulse	1.0	t		26.0	female	white	4.854755272582572	smiling	027	sub-17	1.0	2.0	027_smiling	0.0		191.860144010152	
27.0	167.30171014319512	pulse	1.0	t		26.0	female	white	4.854755272582572	smiling	027	sub-17	1.0	2.0	027_smiling	0.0		192.56013573925793	
27.0	168.00169432586472	pulse	1.0	t		26.0	female	white	4.854755272582572	smiling	027	sub-17	1.0	2.0	027_smiling	0.0		193.26011992192753	
28.0	168.2682305297417	face	0.0		145	22.0	male	black	2.767608436132113	smiling	044	sub-17	1.0	2.0	044_smiling	1.0	attractiveness	193.5266561258045	1.2333294695581571
28.0	168.70168696054316	pulse	0.0	t		22.0	male	black	2.767608436132113	smiling	044	sub-17	1.0	2.0	044_smiling	1.0	attractiveness	193.96011255660596	
28.0	169.40167506735952	pulse	0.0	t		22.0	male	black	2.767608436132113	smiling	044	sub-17	1.0	2.0	044_smiling	1.0	attractiveness	194.66010066342233	
28.0	169.50155999929984	fix	1.0		177	22.0	male	black	2.767608436132113	smiling	044	sub-17	1.0	2.0	044_smiling	1.0	attractiveness	194.75998559536265	1.4999861145574869
28.0	170.101653816595	pulse	1.0	t		22.0	male	black	2.767608436132113	smiling	044	sub-17	1.0	2.0	044_smiling	1.0	attractiveness	195.3600794126578	
28.0	170.8016733165864	pulse	1.0	t		22.0	male	black	2.767608436132113	smiling	044	sub-17	1.0	2.0	044_smiling	1.0	attractiveness	196.0600989126492	
28.0	171.00154611385733	rating	2.0		295	22.0	male	black	2.767608436132113	smiling	044	sub-17	1.0	2.0	044_smiling	1.0	attractiveness	196.25997170992014	2.499991246133959
28.0	171.5016759125606	pulse	2.0	t		22.0	male	black	2.767608436132113	smiling	044	sub-17	1.0	2.0	044_smiling	1.0	attractiveness	196.7601015086234	
28.0	172.20164741721737	pulse	2.0	t		22.0	male	black	2.767608436132113	smiling	044	sub-17	1.0	2.0	044_smiling	1.0	attractiveness	197.46007301328018	
28.0	172.90164608904433	pulse	2.0	t		22.0	male	black	2.767608436132113	smiling	044	sub-17	1.0	2.0	044_smiling	1.0	attractiveness	198.16007168510714	
28.0	173.12665183942863	response	2.0	b		22.0	male	black	2.767608436132113	smiling	044	sub-17	1.0	2.0	044_smiling	1.0	attractiveness	198.38507743549144	
28.0	173.5015373599913	fix	3.0		443	22.0	male	black	2.767608436132113	smiling	044	sub-17	1.0	2.0	044_smiling	1.0	attractiveness	198.7599629560541	3.7665863122133487
28.0	173.6016547221675	pulse	3.0	t		22.0	male	black	2.767608436132113	smiling	044	sub-17	1.0	2.0	044_smiling	1.0	attractiveness	198.8600803182303	
28.0	174.30161203952412	pulse	3.0	t		22.0	male	black	2.767608436132113	smiling	044	sub-17	1.0	2.0	044_smiling	1.0	attractiveness	199.56003763558692	
28.0	175.00161523921315	pulse	3.0	t		22.0	male	black	2.767608436132113	smiling	044	sub-17	1.0	2.0	044_smiling	1.0	attractiveness	200.26004083527596	
28.0	175.70159821445304	pulse	3.0	t		22.0	male	black	2.767608436132113	smiling	044	sub-17	1.0	2.0	044_smiling	1.0	attractiveness	200.96002381051585	
28.0	176.4015989992822	pulse	3.0	t		22.0	male	black	2.767608436132113	smiling	044	sub-17	1.0	2.0	044_smiling	1.0	attractiveness	201.66002459534502	
28.0	177.10158257823696	pulse	3.0	t		22.0	male	black	2.767608436132113	smiling	044	sub-17	1.0	2.0	044_smiling	1.0	attractiveness	202.36000817429976	
29.0	177.26812367220464	face	0.0		146	27.0	male	black	3.5523278949462798	smiling	042	sub-17	1.0	2.0	042_smiling	0.0		202.52654926826744	1.2333312807027141
29.0	177.80160238008557	pulse	0.0	t		27.0	male	black	3.5523278949462798	smiling	042	sub-17	1.0	2.0	042_smiling	0.0		203.06002797614838	
29.0	178.50145495290735	fix	1.0		444	27.0	male	black	3.5523278949462798	smiling	042	sub-17	1.0	2.0	042_smiling	0.0		203.75988054897016	3.766612875669125
29.0	178.50890388919197	pulse	1.0	t		27.0	male	black	3.5523278949462798	smiling	042	sub-17	1.0	2.0	042_smiling	0.0		203.76732948525478	
29.0	179.20157738628905	pulse	1.0	t		27.0	male	black	3.5523278949462798	smiling	042	sub-17	1.0	2.0	042_smiling	0.0		204.46000298235185	
29.0	179.90156519124776	pulse	1.0	t		27.0	male	black	3.5523278949462798	smiling	042	sub-17	1.0	2.0	042_smiling	0.0		205.15999078731056	
29.0	180.60154454419853	pulse	1.0	t		27.0	male	black	3.5523278949462798	smiling	042	sub-17	1.0	2.0	042_smiling	0.0		205.85997014026134	
29.0	181.30154080116608	pulse	1.0	t		27.0	male	black	3.5523278949462798	smiling	042	sub-17	1.0	2.0	042_smiling	0.0		206.5599663972289	
29.0	182.00154611385733	pulse	1.0	t		27.0	male	black	3.5523278949462798	smiling	042	sub-17	1.0	2.0	042_smiling	0.0		207.25997170992014	
30.0	182.26806782857648	face	0.0		145	28.0	female	white	5.676880222841227	smiling	124	sub-17	1.0	2.0	124_smiling	0.0		207.52649342463928	1.23333218627522
30.0	182.70152576866485	pulse	0.0	t		28.0	female	white	5.676880222841227	smiling	124	sub-17	1.0	2.0	124_smiling	0.0		207.95995136472766	
30.0	183.40175204100933	pulse	0.0	t		28.0	female	white	5.676880222841227	smiling	124	sub-17	1.0	2.0	124_smiling	0.0		208.66017763707214	
30.0	183.5014000148517	fix	1.0		444	28.0	female	white	5.676880222841227	smiling	124	sub-17	1.0	2.0	124_smiling	0.0		208.7598256109145	3.7666038199454306
30.0	184.1015185844576	pulse	1.0	t		28.0	female	white	5.676880222841227	smiling	124	sub-17	1.0	2.0	124_smiling	0.0		209.35994418052042	
30.0	184.80151755814222	pulse	1.0	t		28.0	female	white	5.676880222841227	smiling	124	sub-17	1.0	2.0	124_smiling	0.0		210.05994315420503	
30.0	185.50150355195683	pulse	1.0	t		28.0	female	white	5.676880222841227	smiling	124	sub-17	1.0	2.0	124_smiling	0.0		210.75992914801964	
30.0	186.20147747147303	pulse	1.0	t		28.0	female	white	5.676880222841227	smiling	124	sub-17	1.0	2.0	124_smiling	0.0		211.45990306753583	
30.0	186.9014695024366	pulse	1.0	t		28.0	female	white	5.676880222841227	smiling	124	sub-17	1.0	2.0	124_smiling	0.0		212.15989509849942	
31.0	187.26800383479713	face	0.0		145	24.0	female	black	3.0955033824114606	smiling	099	sub-17	1.0	2.0	099_smiling	0.0		212.52642943085993	1.2333342992769758
31.0	187.60146485383166	pulse	0.0	t		24.0	female	black	3.0955033824114606	smiling	099	sub-17	1.0	2.0	099_smiling	0.0		212.85989044989446	
31.0	188.30145839408215	pulse	0.0	t		24.0	female	black	3.0955033824114606	smiling	099	sub-17	1.0	2.0	099_smiling	0.0		213.55988399014495	
31.0	188.5013381340741	fix	1.0		444	24.0	female	black	3.0955033824114606	smiling	099	sub-17	1.0	2.0	099_smiling	0.0		213.7597637301369	3.76661287566958
31.0	189.00144982133088	pulse	1.0	t		24.0	female	black	3.0955033824114606	smiling	099	sub-17	1.0	2.0	099_smiling	0.0		214.2598754173937	
31.0	189.70144124857916	pulse	1.0	t		24.0	female	black	3.0955033824114606	smiling	099	sub-17	1.0	2.0	099_smiling	0.0		214.95986684464197	
31.0	190.40143992040612	pulse	1.0	t		24.0	female	black	3.0955033824114606	smiling	099	sub-17	1.0	2.0	099_smiling	0.0		215.65986551646893	
31.0	191.10141625478218	pulse	1.0	t		24.0	female	black	3.0955033824114606	smiling	099	sub-17	1.0	2.0	099_smiling	0.0		216.359841850845	
31.0	191.80141311546458	pulse	1.0	t		24.0	female	black	3.0955033824114606	smiling	099	sub-17	1.0	2.0	099_smiling	0.0		217.0598387115274	
32.0	192.26795100974368	face	0.0		145	27.0	female	white	4.181058495821727	smiling	039	sub-17	1.0	2.0	039_smiling	0.0		217.5263766058065	1.2333309788450606
32.0	192.50142718202187	pulse	0.0	t		27.0	female	white	4.181058495821727	smiling	039	sub-17	1.0	2.0	039_smiling	0.0		217.75985277808468	
32.0	193.20138932909776	pulse	0.0	t		27.0	female	white	4.181058495821727	smiling	039	sub-17	1.0	2.0	039_smiling	0.0		218.45981492516057	
32.0	193.50128198858874	fix	1.0		444	27.0	female	white	4.181058495821727	smiling	039	sub-17	1.0	2.0	039_smiling	0.0		218.75970758465155	3.766611064524568
32.0	193.901392830644	pulse	1.0	t		27.0	female	white	4.181058495821727	smiling	039	sub-17	1.0	2.0	039_smiling	0.0		219.1598184267068	
32.0	194.60138546532244	pulse	1.0	t		27.0	female	white	4.181058495821727	smiling	039	sub-17	1.0	2.0	039_smiling	0.0		219.85981106138524	
32.0	195.30136904427718	pulse	1.0	t		27.0	female	white	4.181058495821727	smiling	039	sub-17	1.0	2.0	039_smiling	0.0		220.55979464034	
32.0	196.00136741424694	pulse	1.0	t		27.0	female	white	4.181058495821727	smiling	039	sub-17	1.0	2.0	039_smiling	0.0		221.25979301030975	
32.0	196.70136125635509	pulse	1.0	t		27.0	female	white	4.181058495821727	smiling	039	sub-17	1.0	2.0	039_smiling	0.0		221.9597868524179	
33.0	197.2678930531133	face	0.0		145	27.0	male	black	3.5523278949462798	neutral	042	sub-17	1.0	2.0	042_neutral	0.0		222.52631864917612	1.2333252435532813
33.0	197.40135509846277	pulse	0.0	t		27.0	male	black	3.5523278949462798	neutral	042	sub-17	1.0	2.0	042_neutral	0.0		222.65978069452558	
33.0	198.10136192044138	pulse	0.0	t		27.0	male	black	3.5523278949462798	neutral	042	sub-17	1.0	2.0	042_neutral	0.0		223.35978751650418	
33.0	198.5012182966666	fix	1.0		444	27.0	male	black	3.5523278949462798	neutral	042	sub-17	1.0	2.0	042_neutral	0.0		223.7596438927294	3.7583860527370234
33.0	198.80131984151285	pulse	1.0	t		27.0	male	black	3.5523278949462798	neutral	042	sub-17	1.0	2.0	042_neutral	0.0		224.05974543757566	
33.0	199.5013462842253	pulse	1.0	t		27.0	male	black	3.5523278949462798	neutral	042	sub-17	1.0	2.0	042_neutral	0.0		224.7597718802881	
33.0	200.2013232223162	pulse	1.0	t		27.0	male	black	3.5523278949462798	neutral	042	sub-17	1.0	2.0	042_neutral	0.0		225.459748818379	
33.0	200.90131132913257	pulse	1.0	t		27.0	male	black	3.5523278949462798	neutral	042	sub-17	1.0	2.0	042_neutral	0.0		226.15973692519538	
33.0	201.60131030281764	pulse	1.0	t		27.0	male	black	3.5523278949462798	neutral	042	sub-17	1.0	2.0	042_neutral	0.0		226.85973589888044	
34.0	202.25960434940362	face	0.0		146	54.0	female	white	2.286908077994429	neutral	136	sub-17	1.0	2.0	136_neutral	0.0		227.51802994546642	1.2415641407837938
34.0	202.301319237798	pulse	0.0	t		54.0	female	white	2.286908077994429	neutral	136	sub-17	1.0	2.0	136_neutral	0.0		227.5597448338608	
34.0	203.00128651645036	pulse	0.0	t		54.0	female	white	2.286908077994429	neutral	136	sub-17	1.0	2.0	136_neutral	0.0		228.25971211251317	
34.0	203.5011684901874	fix	1.0		443	54.0	female	white	2.286908077994429	neutral	136	sub-17	1.0	2.0	136_neutral	0.0		228.75959408625022	3.766611970097074
34.0	203.70128367899042	pulse	1.0	t		54.0	female	white	2.286908077994429	neutral	136	sub-17	1.0	2.0	136_neutral	0.0		228.95970927505323	
34.0	204.40126635237266	pulse	1.0	t		54.0	female	white	2.286908077994429	neutral	136	sub-17	1.0	2.0	136_neutral	0.0		229.65969194843547	
34.0	205.10127770221288	pulse	1.0	t		54.0	female	white	2.286908077994429	neutral	136	sub-17	1.0	2.0	136_neutral	0.0		230.3597032982757	
34.0	205.80125011244218	pulse	1.0	t		54.0	female	white	2.286908077994429	neutral	136	sub-17	1.0	2.0	136_neutral	0.0		231.05967570850498	
34.0	206.5012397285459	pulse	1.0	t		54.0	female	white	2.286908077994429	neutral	136	sub-17	1.0	2.0	136_neutral	0.0		231.7596653246087	
34.0	207.20124564495154	pulse	1.0	t		54.0	female	white	2.286908077994429	neutral	136	sub-17	1.0	2.0	136_neutral	0.0		232.45967124101435	
35.0	207.26778046028448	face	0.0		146	24.0	male	white	3.1153999204138483	neutral	012	sub-17	1.0	2.0	012_neutral	0.0		232.5262060563473	1.233327054698293
35.0	207.90123526105526	pulse	0.0	t		24.0	male	white	3.1153999204138483	neutral	012	sub-17	1.0	2.0	012_neutral	0.0		233.15966085711807	
35.0	208.50110751498278	fix	1.0		443	24.0	male	white	3.1153999204138483	neutral	012	sub-17	1.0	2.0	012_neutral	0.0		233.75953311104558	3.7666177053883985
35.0	208.6012254808743	pulse	1.0	t		24.0	male	white	3.1153999204138483	neutral	012	sub-17	1.0	2.0	012_neutral	0.0		233.8596510769371	
35.0	209.3012235489864	pulse	1.0	t		24.0	male	white	3.1153999204138483	neutral	012	sub-17	1.0	2.0	012_neutral	0.0		234.5596491450492	
35.0	210.0012089390857	pulse	1.0	t		24.0	male	white	3.1153999204138483	neutral	012	sub-17	1.0	2.0	012_neutral	0.0		235.2596345351485	
35.0	210.70119674404486	pulse	1.0	t		24.0	male	white	3.1153999204138483	neutral	012	sub-17	1.0	2.0	012_neutral	0.0		235.95962234010767	
35.0	211.4011914917255	pulse	1.0	t		24.0	male	white	3.1153999204138483	neutral	012	sub-17	1.0	2.0	012_neutral	0.0		236.65961708778832	
35.0	212.10116601495656	pulse	1.0	t		24.0	male	white	3.1153999204138483	neutral	012	sub-17	1.0	2.0	012_neutral	0.0		237.35959161101937	
36.0	212.26772522037118	face	0.0		146	20.0	male	black	3.1070433744528456	smiling	082	sub-17	1.0	2.0	082_smiling	0.0		237.52615081643398	1.2333312807027141
36.0	212.80116468678398	pulse	0.0	t		20.0	male	black	3.1070433744528456	smiling	082	sub-17	1.0	2.0	082_smiling	0.0		238.05959028284678	
36.0	213.5010565010739	fix	1.0		444	20.0	male	black	3.1070433744528456	smiling	082	sub-17	1.0	2.0	082_smiling	0.0		238.7594820971367	3.7666062348052947
36.0	213.5085555456949	pulse	1.0	t		20.0	male	black	3.1070433744528456	smiling	082	sub-17	1.0	2.0	082_smiling	0.0		238.7669811417577	
36.0	214.20114482456347	pulse	1.0	t		20.0	male	black	3.1070433744528456	smiling	082	sub-17	1.0	2.0	082_smiling	0.0		239.45957042062628	
36.0	214.90116583384224	pulse	1.0	t		20.0	male	black	3.1070433744528456	smiling	082	sub-17	1.0	2.0	082_smiling	0.0		240.15959142990505	
36.0	215.6011400552161	pulse	1.0	t		20.0	male	black	3.1070433744528456	smiling	082	sub-17	1.0	2.0	082_smiling	0.0		240.8595656512789	
36.0	216.30112604903024	pulse	1.0	t		20.0	male	black	3.1070433744528456	smiling	082	sub-17	1.0	2.0	082_smiling	0.0		241.55955164509305	
36.0	217.0011232115703	pulse	1.0	t		20.0	male	black	3.1070433744528456	smiling	082	sub-17	1.0	2.0	082_smiling	0.0		242.2595488076331	
37.0	217.26766273587918	face	0.0		145	22.0	female	white	4.614007162753682	neutral	009	sub-17	1.0	2.0	009_neutral	0.0		242.526088331942	1.2333502977216995
37.0	217.70112248711212	pulse	0.0	t		22.0	female	white	4.614007162753682	neutral	009	sub-17	1.0	2.0	009_neutral	0.0		242.95954808317492	
37.0	218.40112538494395	pulse	0.0	t		22.0	female	white	4.614007162753682	neutral	009	sub-17	1.0	2.0	009_neutral	0.0		243.65955098100676	
37.0	218.50101303360088	fix	1.0		444	22.0	female	white	4.614007162753682	neutral	009	sub-17	1.0	2.0	009_neutral	0.0		243.7594386296637	3.766589934503372
37.0	219.10113703664138	pulse	1.0	t		22.0	female	white	4.614007162753682	neutral	009	sub-17	1.0	2.0	009_neutral	0.0		244.35956263270418	
37.0	219.80109858000242	pulse	1.0	t		22.0	female	white	4.614007162753682	neutral	009	sub-17	1.0	2.0	009_neutral	0.0		245.05952417606522	
37.0	220.50108457381657	pulse	1.0	t		22.0	female	white	4.614007162753682	neutral	009	sub-17	1.0	2.0	009_neutral	0.0		245.75951016987938	
37.0	221.20107449177794	pulse	1.0	t		22.0	female	white	4.614007162753682	neutral	009	sub-17	1.0	2.0	009_neutral	0.0		246.45950008784075	
37.0	221.90107618217962	pulse	1.0	t		22.0	female	white	4.614007162753682	neutral	009	sub-17	1.0	2.0	009_neutral	0.0		247.15950177824243	
38.0	222.26760296810426	face	0.0		145	31.0	female	east_asian	3.395941106247513	smiling	087	sub-17	1.0	2.0	087_smiling	0.0		247.52602856416706	1.2333312807022594
38.0	222.60106247785143	pulse	0.0	t		31.0	female	east_asian	3.395941106247513	smiling	087	sub-17	1.0	2.0	087_smiling	0.0		247.85948807391424	
38.0	223.30104484937647	pulse	0.0	t		31.0	female	east_asian	3.395941106247513	smiling	087	sub-17	1.0	2.0	087_smiling	0.0		248.55947044543927	
38.0	223.50093424880652	fix	1.0		444	31.0	female	east_asian	3.395941106247513	smiling	087	sub-17	1.0	2.0	087_smiling	0.0		248.75935984486932	3.7666113663822216
38.0	224.00104352120343	pulse	1.0	t		31.0	female	east_asian	3.395941106247513	smiling	087	sub-17	1.0	2.0	087_smiling	0.0		249.25946911726624	
38.0	224.70103615588187	pulse	1.0	t		31.0	female	east_asian	3.395941106247513	smiling	087	sub-17	1.0	2.0	087_smiling	0.0		249.95946175194467	
38.0	225.4010302998472	pulse	1.0	t		31.0	female	east_asian	3.395941106247513	smiling	087	sub-17	1.0	2.0	087_smiling	0.0		250.65945589591	
38.0	226.10101931223608	pulse	1.0	t		31.0	female	east_asian	3.395941106247513	smiling	087	sub-17	1.0	2.0	087_smiling	0.0		251.35944490829888	
38.0	226.80101375805907	pulse	1.0	t		31.0	female	east_asian	3.395941106247513	smiling	087	sub-17	1.0	2.0	087_smiling	0.0		252.05943935412188	
39.0	227.26754561518874	face	0.0		145	23.0	male	white	2.6275368085953046	neutral	141	sub-17	1.0	2.0	141_neutral	0.0		252.52597121125154	1.2333303751302083
39.0	227.5009964314413	pulse	0.0	t		23.0	male	white	2.6275368085953046	neutral	141	sub-17	1.0	2.0	141_neutral	0.0		252.75942202750412	
39.0	228.2010002348452	pulse	0.0	t		23.0	male	white	2.6275368085953046	neutral	141	sub-17	1.0	2.0	141_neutral	0.0		253.459425830908	
39.0	228.50087599031895	fix	1.0		444	23.0	male	white	2.6275368085953046	neutral	141	sub-17	1.0	2.0	141_neutral	0.0		253.75930158638175	3.7499578908859803
39.0	228.90101007539806	pulse	1.0	t		23.0	male	white	2.6275368085953046	neutral	141	sub-17	1.0	2.0	141_neutral	0.0		254.15943567146087	
39.0	229.60097825962293	pulse	1.0	t		23.0	male	white	2.6275368085953046	neutral	141	sub-17	1.0	2.0	141_neutral	0.0		254.85940385568574	
39.0	230.30098508160108	pulse	1.0	t		23.0	male	white	2.6275368085953046	neutral	141	sub-17	1.0	2.0	141_neutral	0.0		255.5594106776639	
39.0	231.00096443455186	pulse	1.0	t		23.0	male	white	2.6275368085953046	neutral	141	sub-17	1.0	2.0	141_neutral	0.0		256.25939003061467	
39.0	231.70095012650836	pulse	1.0	t		23.0	male	white	2.6275368085953046	neutral	141	sub-17	1.0	2.0	141_neutral	0.0		256.95937572257117	
40.0	232.25083388120493	fix	0.0		720													257.50925947726773	5.999935100648145
40.0	232.40095875963152	pulse	0.0	t														257.6593843556943	
40.0	233.10093479214993	pulse	0.0	t														258.35936038821274	
40.0	233.8009268231135	pulse	0.0	t														259.0593524191763	
40.0	234.50092096707886	pulse	0.0	t														259.75934656314166	
40.0	235.20091118689743	pulse	0.0	t														260.45933678296024	
40.0	235.90090442529072	pulse	0.0	t														261.1593300213535	
40.0	236.6009049082627	pulse	0.0	t														261.8593305043255	
40.0	237.3009041838045	pulse	0.0	t														262.5593297798673	
40.0	238.0008651234507	pulse	0.0	t														263.2592907195135	
