trial_nr	onset	event_type	phase	response	nr_frames	face_age	face_sex	face_eth	attractiveness	expression	face_id	sub_id	ses	run	trial_type	catch	rating_type	onset_abs	duration
-1.0	0.05565987930094707	fix	0.0		714													25.208952899161886	5.966329808797127
-1.0	0.7055819559527663	pulse	0.0	t														25.858874975813706	
-1.0	1.4055524649165818	pulse	0.0	t														26.55884548477752	
-1.0	2.105538972087743	pulse	0.0	t														27.258831991948682	
-1.0	2.805526384818222	pulse	0.0	t														27.95881940467916	
-1.0	3.5054950826643108	pulse	0.0	t														28.65878810252525	
-1.0	4.205476156482291	pulse	0.0	t														29.35876917634323	
-1.0	4.905472926654511	pulse	0.0	t														30.05876594651545	
-1.0	5.605438605970448	pulse	0.0	t														30.758731625831388	
0.0	6.021989688098074	face	0.0		144	24.0	female	black	3.0955033824114606	smiling	099	sub-12	1.0	6.0	099_smiling	1.0	attractiveness	31.175282707959013	1.2332952294254937
0.0	6.305455298440393	pulse	0.0	t		24.0	female	black	3.0955033824114606	smiling	099	sub-12	1.0	6.0	099_smiling	1.0	attractiveness	31.458748318301332	
0.0	7.005436674111479	pulse	0.0	t		24.0	female	black	3.0955033824114606	smiling	099	sub-12	1.0	6.0	099_smiling	1.0	attractiveness	32.15872969397242	
0.0	7.255284917523568	fix	1.0		177	24.0	female	black	3.0955033824114606	smiling	099	sub-12	1.0	6.0	099_smiling	1.0	attractiveness	32.40857793738451	1.5082947690989386
0.0	7.705394505249387	pulse	1.0	t		24.0	female	black	3.0955033824114606	smiling	099	sub-12	1.0	6.0	099_smiling	1.0	attractiveness	32.85868752511033	
0.0	8.405355958623659	pulse	1.0	t		24.0	female	black	3.0955033824114606	smiling	099	sub-12	1.0	6.0	099_smiling	1.0	attractiveness	33.5586489784846	
0.0	8.763579686622506	rating	2.0		293	24.0	female	black	3.0955033824114606	smiling	099	sub-12	1.0	6.0	099_smiling	1.0	attractiveness	33.916872706483446	2.4916013934744115
0.0	9.100162064867618	pulse	2.0	t		24.0	female	black	3.0955033824114606	smiling	099	sub-12	1.0	6.0	099_smiling	1.0	attractiveness	34.25345508472856	
0.0	9.800262672467397	pulse	2.0	t		24.0	female	black	3.0955033824114606	smiling	099	sub-12	1.0	6.0	099_smiling	1.0	attractiveness	34.95355569232834	
0.0	9.921994547931718	response	2.0	y		24.0	female	black	3.0955033824114606	smiling	099	sub-12	1.0	6.0	099_smiling	1.0	attractiveness	35.07528756779266	
0.0	10.505304009724568	pulse	2.0	t		24.0	female	black	3.0955033824114606	smiling	099	sub-12	1.0	6.0	099_smiling	1.0	attractiveness	35.65859702958551	
0.0	11.205297761367547	pulse	2.0	t		24.0	female	black	3.0955033824114606	smiling	099	sub-12	1.0	6.0	099_smiling	1.0	attractiveness	36.358590781228486	
0.0	11.255181080096918	fix	3.0		444	24.0	female	black	3.0955033824114606	smiling	099	sub-12	1.0	6.0	099_smiling	1.0	attractiveness	36.40847409995786	3.758228135052377
0.0	11.905312642719764	pulse	3.0	t		24.0	female	black	3.0955033824114606	smiling	099	sub-12	1.0	6.0	099_smiling	1.0	attractiveness	37.0586056625807	
0.0	12.605264134945173	pulse	3.0	t		24.0	female	black	3.0955033824114606	smiling	099	sub-12	1.0	6.0	099_smiling	1.0	attractiveness	37.75855715480611	
0.0	13.305238567997549	pulse	3.0	t		24.0	female	black	3.0955033824114606	smiling	099	sub-12	1.0	6.0	099_smiling	1.0	attractiveness	38.45853158785849	
0.0	14.005218132549999	pulse	3.0	t		24.0	female	black	3.0955033824114606	smiling	099	sub-12	1.0	6.0	099_smiling	1.0	attractiveness	39.15851115241094	
0.0	14.705201319338812	pulse	3.0	t		24.0	female	black	3.0955033824114606	smiling	099	sub-12	1.0	6.0	099_smiling	1.0	attractiveness	39.85849433919975	
1.0	15.013409215149295	face	0.0		146	24.0	female	east_asian	2.9076800636689217	smiling	034	sub-12	1.0	6.0	034_smiling	1.0	trustworthiness	40.166702235010234	1.2416465959586276
1.0	15.405167904214068	pulse	0.0	t		24.0	female	east_asian	2.9076800636689217	smiling	034	sub-12	1.0	6.0	034_smiling	1.0	trustworthiness	40.55846092407501	
1.0	16.10517222071121	pulse	0.0	t		24.0	female	east_asian	2.9076800636689217	smiling	034	sub-12	1.0	6.0	034_smiling	1.0	trustworthiness	41.25846524057215	
1.0	16.255055811107923	fix	1.0		177	24.0	female	east_asian	2.9076800636689217	smiling	034	sub-12	1.0	6.0	034_smiling	1.0	trustworthiness	41.40834883096886	1.4999515525960305
1.0	16.80514242782192	pulse	1.0	t		24.0	female	east_asian	2.9076800636689217	smiling	034	sub-12	1.0	6.0	034_smiling	1.0	trustworthiness	41.95843544768286	
1.0	17.50512893499308	pulse	1.0	t		24.0	female	east_asian	2.9076800636689217	smiling	034	sub-12	1.0	6.0	034_smiling	1.0	trustworthiness	42.65842195485402	
1.0	17.755007363703953	rating	2.0		295	24.0	female	east_asian	2.9076800636689217	smiling	034	sub-12	1.0	6.0	034_smiling	1.0	trustworthiness	42.90830038356489	2.4999325358576243
1.0	18.199915722646438	pulse	2.0	t		24.0	female	east_asian	2.9076800636689217	smiling	034	sub-12	1.0	6.0	034_smiling	1.0	trustworthiness	43.35320874250738	
1.0	18.899907059466386	pulse	2.0	t		24.0	female	east_asian	2.9076800636689217	smiling	034	sub-12	1.0	6.0	034_smiling	1.0	trustworthiness	44.053200079327326	
1.0	19.37487907014838	response	2.0	y		24.0	female	east_asian	2.9076800636689217	smiling	034	sub-12	1.0	6.0	034_smiling	1.0	trustworthiness	44.52817209000932	
1.0	19.599858853543992	pulse	2.0	t		24.0	female	east_asian	2.9076800636689217	smiling	034	sub-12	1.0	6.0	034_smiling	1.0	trustworthiness	44.75315187340493	
1.0	20.254939899561577	fix	3.0		443	24.0	female	east_asian	2.9076800636689217	smiling	034	sub-12	1.0	6.0	034_smiling	1.0	trustworthiness	45.40823291942252	3.7582275313470745
1.0	20.30505262655879	pulse	3.0	t		24.0	female	east_asian	2.9076800636689217	smiling	034	sub-12	1.0	6.0	034_smiling	1.0	trustworthiness	45.45834564641973	
1.0	21.005039435583058	pulse	3.0	t		24.0	female	east_asian	2.9076800636689217	smiling	034	sub-12	1.0	6.0	034_smiling	1.0	trustworthiness	46.158332455444	
1.0	21.70501477419475	pulse	3.0	t		24.0	female	east_asian	2.9076800636689217	smiling	034	sub-12	1.0	6.0	034_smiling	1.0	trustworthiness	46.85830779405569	
1.0	22.404993131335686	pulse	3.0	t		24.0	female	east_asian	2.9076800636689217	smiling	034	sub-12	1.0	6.0	034_smiling	1.0	trustworthiness	47.558286151196626	
1.0	23.10497541256518	pulse	3.0	t		24.0	female	east_asian	2.9076800636689217	smiling	034	sub-12	1.0	6.0	034_smiling	1.0	trustworthiness	48.25826843242612	
1.0	23.8049528641468	pulse	3.0	t		24.0	female	east_asian	2.9076800636689217	smiling	034	sub-12	1.0	6.0	034_smiling	1.0	trustworthiness	48.95824588400774	
2.0	24.013167430908652	face	0.0		146	34.0	male	white	2.651014723438122	smiling	121	sub-12	1.0	6.0	121_smiling	0.0		49.16646045076959	1.2416393514868105
2.0	24.50494088058349	pulse	0.0	t		34.0	male	white	2.651014723438122	smiling	121	sub-12	1.0	6.0	121_smiling	0.0		49.65823390044443	
2.0	25.204917728459804	pulse	0.0	t		34.0	male	white	2.651014723438122	smiling	121	sub-12	1.0	6.0	121_smiling	0.0		50.358210748320744	
2.0	25.254806782395463	fix	1.0		445	34.0	male	white	2.651014723438122	smiling	121	sub-12	1.0	6.0	121_smiling	0.0		50.4080998022564	3.758212136844122
2.0	25.904925365340205	pulse	1.0	t		34.0	male	white	2.651014723438122	smiling	121	sub-12	1.0	6.0	121_smiling	0.0		51.058218385201144	
2.0	26.60488651686137	pulse	1.0	t		34.0	male	white	2.651014723438122	smiling	121	sub-12	1.0	6.0	121_smiling	0.0		51.75817953672231	
2.0	27.30486759067935	pulse	1.0	t		34.0	male	white	2.651014723438122	smiling	121	sub-12	1.0	6.0	121_smiling	0.0		52.45816061054029	
2.0	28.00484806079112	pulse	1.0	t		34.0	male	white	2.651014723438122	smiling	121	sub-12	1.0	6.0	121_smiling	0.0		53.15814108065206	
2.0	28.704833360550765	pulse	1.0	t		34.0	male	white	2.651014723438122	smiling	121	sub-12	1.0	6.0	121_smiling	0.0		53.858126380411704	
3.0	29.013018919239585	face	0.0		146	26.0	female	white	4.854755272582572	neutral	027	sub-12	1.0	6.0	027_neutral	0.0		54.166311939100524	1.2416526330180204
3.0	29.404822282545865	pulse	0.0	t		26.0	female	white	4.854755272582572	neutral	027	sub-12	1.0	6.0	027_neutral	0.0		54.558115302406804	
3.0	30.10479218780347	pulse	0.0	t		26.0	female	white	4.854755272582572	neutral	027	sub-12	1.0	6.0	027_neutral	0.0		55.25808520766441	
3.0	30.254671552257605	fix	1.0		445	26.0	female	white	4.854755272582572	neutral	027	sub-12	1.0	6.0	027_neutral	0.0		55.407964572118544	3.7582604333219933
3.0	30.804774469032964	pulse	1.0	t		26.0	female	white	4.854755272582572	neutral	027	sub-12	1.0	6.0	027_neutral	0.0		55.9580674888939	
3.0	31.504755240997838	pulse	1.0	t		26.0	female	white	4.854755272582572	neutral	027	sub-12	1.0	6.0	027_neutral	0.0		56.65804826085878	
3.0	32.20473903149286	pulse	1.0	t		26.0	female	white	4.854755272582572	neutral	027	sub-12	1.0	6.0	027_neutral	0.0		57.3580320513538	
3.0	32.904709842308876	pulse	1.0	t		26.0	female	white	4.854755272582572	neutral	027	sub-12	1.0	6.0	027_neutral	0.0		58.058002862169815	
3.0	33.60469816059867	pulse	1.0	t		26.0	female	white	4.854755272582572	neutral	027	sub-12	1.0	6.0	027_neutral	0.0		58.75799118045961	
4.0	34.0129319855796	face	0.0		146	31.0	female	east_asian	3.395941106247513	smiling	087	sub-12	1.0	6.0	087_smiling	0.0		59.16622500544054	1.2415989031869685
4.0	34.30468406406453	pulse	0.0	t		31.0	female	east_asian	3.395941106247513	smiling	087	sub-12	1.0	6.0	087_smiling	0.0		59.45797708392547	
4.0	35.00465970452842	pulse	0.0	t		31.0	female	east_asian	3.395941106247513	smiling	087	sub-12	1.0	6.0	087_smiling	0.0		60.15795272438936	
4.0	35.25453088876657	fix	1.0		444	31.0	female	east_asian	3.395941106247513	smiling	087	sub-12	1.0	6.0	087_smiling	0.0		60.407823908627506	3.7665713515561947
4.0	35.70464470243496	pulse	1.0	t		31.0	female	east_asian	3.395941106247513	smiling	087	sub-12	1.0	6.0	087_smiling	0.0		60.8579377222959	
4.0	36.40462456884052	pulse	1.0	t		31.0	female	east_asian	3.395941106247513	smiling	087	sub-12	1.0	6.0	087_smiling	0.0		61.55791758870146	
4.0	37.10461771677819	pulse	1.0	t		31.0	female	east_asian	3.395941106247513	smiling	087	sub-12	1.0	6.0	087_smiling	0.0		62.25791073663913	
4.0	37.8045818868286	pulse	1.0	t		31.0	female	east_asian	3.395941106247513	smiling	087	sub-12	1.0	6.0	087_smiling	0.0		62.95787490668954	
4.0	38.504562658793475	pulse	1.0	t		31.0	female	east_asian	3.395941106247513	smiling	087	sub-12	1.0	6.0	087_smiling	0.0		63.657855678654414	
5.0	39.02110224032276	face	0.0		145	24.0	female	east_asian	4.409868682849185	neutral	030	sub-12	1.0	6.0	030_neutral	0.0		64.1743952601837	1.2333009646317805
5.0	39.204552788201	pulse	0.0	t		24.0	female	east_asian	4.409868682849185	neutral	030	sub-12	1.0	6.0	030_neutral	0.0		64.35784580806194	
5.0	39.90452782495959	pulse	0.0	t		24.0	female	east_asian	4.409868682849185	neutral	030	sub-12	1.0	6.0	030_neutral	0.0		65.05782084482053	
5.0	40.25440320495454	fix	1.0		444	24.0	female	east_asian	4.409868682849185	neutral	030	sub-12	1.0	6.0	030_neutral	0.0		65.40769622481548	3.7582694889115373
5.0	40.604514633983854	pulse	1.0	t		24.0	female	east_asian	4.409868682849185	neutral	030	sub-12	1.0	6.0	030_neutral	0.0		65.7578076538448	
5.0	41.304506574509105	pulse	1.0	t		24.0	female	east_asian	4.409868682849185	neutral	030	sub-12	1.0	6.0	030_neutral	0.0		66.45779959437004	
5.0	42.004488553885494	pulse	1.0	t		24.0	female	east_asian	4.409868682849185	neutral	030	sub-12	1.0	6.0	030_neutral	0.0		67.15778157374643	
5.0	42.70445362949522	pulse	1.0	t		24.0	female	east_asian	4.409868682849185	neutral	030	sub-12	1.0	6.0	030_neutral	0.0		67.85774664935616	
5.0	43.40443862740176	pulse	1.0	t		24.0	female	east_asian	4.409868682849185	neutral	030	sub-12	1.0	6.0	030_neutral	0.0		68.5577316472627	
6.0	44.01267269386608	face	0.0		146	37.0	male	white	3.898925586947871	neutral	101	sub-12	1.0	6.0	101_neutral	0.0		69.16596571372702	1.2415998087453772
6.0	44.10442181419057	pulse	0.0	t		37.0	male	white	3.898925586947871	neutral	101	sub-12	1.0	6.0	101_neutral	0.0		69.25771483405151	
6.0	44.804399567626206	pulse	0.0	t		37.0	male	white	3.898925586947871	neutral	101	sub-12	1.0	6.0	101_neutral	0.0		69.95769258748714	
6.0	45.25427250261146	fix	1.0		444	37.0	male	white	3.898925586947871	neutral	101	sub-12	1.0	6.0	101_neutral	0.0		70.4075655224724	3.7665580700249848
6.0	45.50438275441502	pulse	1.0	t		37.0	male	white	3.898925586947871	neutral	101	sub-12	1.0	6.0	101_neutral	0.0		70.65767577427596	
6.0	46.20437861902883	pulse	1.0	t		37.0	male	white	3.898925586947871	neutral	101	sub-12	1.0	6.0	101_neutral	0.0		71.35767163888977	
6.0	46.9043464113156	pulse	1.0	t		37.0	male	white	3.898925586947871	neutral	101	sub-12	1.0	6.0	101_neutral	0.0		72.05763943117654	
6.0	47.6043229573379	pulse	1.0	t		37.0	male	white	3.898925586947871	neutral	101	sub-12	1.0	6.0	101_neutral	0.0		72.75761597719884	
6.0	48.304304333008986	pulse	1.0	t		37.0	male	white	3.898925586947871	neutral	101	sub-12	1.0	6.0	101_neutral	0.0		73.45759735286993	
7.0	49.02083057263644	face	0.0		146	28.0	male	white	3.9076800636689217	neutral	033	sub-12	1.0	6.0	033_neutral	0.0		74.17412359249738	1.2333073035442794
7.0	49.00689251105814	pulse	0.0	t		28.0	male	white	3.9076800636689217	neutral	033	sub-12	1.0	6.0	033_neutral	0.0		74.16018553091908	
7.0	49.70424927502427	pulse	0.0	t		28.0	male	white	3.9076800636689217	neutral	033	sub-12	1.0	6.0	033_neutral	0.0		74.8575422948852	
7.0	50.25413787618072	fix	1.0		443	28.0	male	white	3.9076800636689217	neutral	033	sub-12	1.0	6.0	033_neutral	0.0		75.40743089604166	3.7665484107292286
7.0	50.404262647111864	pulse	1.0	t		28.0	male	white	3.9076800636689217	neutral	033	sub-12	1.0	6.0	033_neutral	0.0		75.5575556669728	
7.0	51.1042346653403	pulse	1.0	t		28.0	male	white	3.9076800636689217	neutral	033	sub-12	1.0	6.0	033_neutral	0.0		76.25752768520124	
7.0	51.804211513216615	pulse	1.0	t		28.0	male	white	3.9076800636689217	neutral	033	sub-12	1.0	6.0	033_neutral	0.0		76.95750453307755	
7.0	52.50419530371073	pulse	1.0	t		28.0	male	white	3.9076800636689217	neutral	033	sub-12	1.0	6.0	033_neutral	0.0		77.65748832357167	
7.0	53.204182414588104	pulse	1.0	t		28.0	male	white	3.9076800636689217	neutral	033	sub-12	1.0	6.0	033_neutral	0.0		78.35747543444904	
7.0	53.90416529952472	pulse	1.0	t		28.0	male	white	3.9076800636689217	neutral	033	sub-12	1.0	6.0	033_neutral	0.0		79.05745831938566	
8.0	54.02068628690995	face	0.0		146	28.0	male	east_asian	1.5563072025467568	neutral	005	sub-12	1.0	6.0	005_neutral	0.0		79.17397930677089	1.233327829546397
8.0	54.60414154369482	pulse	0.0	t		28.0	male	east_asian	1.5563072025467568	neutral	005	sub-12	1.0	6.0	005_neutral	0.0		79.75743456355576	
8.0	55.25401411645635	fix	1.0		443	28.0	male	east_asian	1.5563072025467568	neutral	005	sub-12	1.0	6.0	005_neutral	0.0		80.40730713631729	3.7582227016991965
8.0	55.30412050454106	pulse	1.0	t		28.0	male	east_asian	1.5563072025467568	neutral	005	sub-12	1.0	6.0	005_neutral	0.0		80.457413524402	
8.0	56.00410701171313	pulse	1.0	t		28.0	male	east_asian	1.5563072025467568	neutral	005	sub-12	1.0	6.0	005_neutral	0.0		81.15740003157407	
8.0	56.70407721882293	pulse	1.0	t		28.0	male	east_asian	1.5563072025467568	neutral	005	sub-12	1.0	6.0	005_neutral	0.0		81.85737023868387	
8.0	57.40406674452515	pulse	1.0	t		28.0	male	east_asian	1.5563072025467568	neutral	005	sub-12	1.0	6.0	005_neutral	0.0		82.55735976438609	
8.0	58.10404087572351	pulse	1.0	t		28.0	male	east_asian	1.5563072025467568	neutral	005	sub-12	1.0	6.0	005_neutral	0.0		83.25733389558445	
8.0	58.80402436436543	pulse	1.0	t		28.0	male	east_asian	1.5563072025467568	neutral	005	sub-12	1.0	6.0	005_neutral	0.0		83.95731738422637	
9.0	59.01223681815554	face	0.0		146	22.0	female	west_asian	3.8205332272184642	smiling	066	sub-12	1.0	6.0	066_smiling	0.0		84.16552983801648	1.2416369366628714
9.0	59.50400664559584	pulse	0.0	t		22.0	female	west_asian	3.8205332272184642	smiling	066	sub-12	1.0	6.0	066_smiling	0.0		84.65729966545678	
9.0	60.204001906503436	pulse	0.0	t		22.0	female	west_asian	3.8205332272184642	smiling	066	sub-12	1.0	6.0	066_smiling	0.0		85.35729492636437	
9.0	60.253873754818414	fix	1.0		445	22.0	female	west_asian	3.8205332272184642	smiling	066	sub-12	1.0	6.0	066_smiling	0.0		85.40716677467935	3.7583588373954626
9.0	60.90397332102566	pulse	1.0	t		22.0	female	west_asian	3.8205332272184642	smiling	066	sub-12	1.0	6.0	066_smiling	0.0		86.0572663408866	
9.0	61.603955602256065	pulse	1.0	t		22.0	female	west_asian	3.8205332272184642	smiling	066	sub-12	1.0	6.0	066_smiling	0.0		86.757248622117	
9.0	62.30393033716064	pulse	1.0	t		22.0	female	west_asian	3.8205332272184642	smiling	066	sub-12	1.0	6.0	066_smiling	0.0		87.45722335702158	
9.0	63.00392831474619	pulse	1.0	t		22.0	female	west_asian	3.8205332272184642	smiling	066	sub-12	1.0	6.0	066_smiling	0.0		88.15722133460713	
9.0	63.70389157923728	pulse	1.0	t		22.0	female	west_asian	3.8205332272184642	smiling	066	sub-12	1.0	6.0	066_smiling	0.0		88.85718459909822	
10.0	64.01223259221388	face	0.0		146	24.0	male	white	3.1153999204138483	neutral	012	sub-12	1.0	6.0	012_neutral	0.0		89.16552561207482	1.2415089509977406
10.0	64.40387808640935	pulse	0.0	t		24.0	male	white	3.1153999204138483	neutral	012	sub-12	1.0	6.0	012_neutral	0.0		89.55717110627029	
10.0	65.1038570472565	pulse	0.0	t		24.0	male	white	3.1153999204138483	neutral	012	sub-12	1.0	6.0	012_neutral	0.0		90.25715006711744	
10.0	65.25374154321162	fix	1.0		444	24.0	male	white	3.1153999204138483	neutral	012	sub-12	1.0	6.0	012_neutral	0.0		90.40703456307256	3.7582746204125215
10.0	65.80383842292667	pulse	1.0	t		24.0	male	white	3.1153999204138483	neutral	012	sub-12	1.0	6.0	012_neutral	0.0		90.95713144278761	
10.0	66.50382432639253	pulse	1.0	t		24.0	male	white	3.1153999204138483	neutral	012	sub-12	1.0	6.0	012_neutral	0.0		91.65711734625347	
10.0	67.20381596506468	pulse	1.0	t		24.0	male	white	3.1153999204138483	neutral	012	sub-12	1.0	6.0	012_neutral	0.0		92.35710898492562	
10.0	67.90378556846917	pulse	1.0	t		24.0	male	white	3.1153999204138483	neutral	012	sub-12	1.0	6.0	012_neutral	0.0		93.05707858833011	
10.0	68.60377449046428	pulse	1.0	t		24.0	male	white	3.1153999204138483	neutral	012	sub-12	1.0	6.0	012_neutral	0.0		93.75706751032521	
11.0	69.01201616362414	face	0.0		146	31.0	male	west_asian	1.9538400318344609	smiling	070	sub-12	1.0	6.0	070_smiling	0.0		94.16530918348508	1.2415883383318942
11.0	69.30375073463438	pulse	0.0	t		31.0	male	west_asian	1.9538400318344609	smiling	070	sub-12	1.0	6.0	070_smiling	0.0		94.45704375449532	
11.0	70.00373512883561	pulse	0.0	t		31.0	male	west_asian	1.9538400318344609	smiling	070	sub-12	1.0	6.0	070_smiling	0.0		95.15702814869655	
11.0	70.25360450195603	fix	1.0		444	31.0	male	west_asian	1.9538400318344609	smiling	070	sub-12	1.0	6.0	070_smiling	0.0		95.40689752181697	3.7665686348791496
11.0	70.70371529709428	pulse	1.0	t		31.0	male	west_asian	1.9538400318344609	smiling	070	sub-12	1.0	6.0	070_smiling	0.0		95.85700831695522	
11.0	71.40369455979453	pulse	1.0	t		31.0	male	west_asian	1.9538400318344609	smiling	070	sub-12	1.0	6.0	070_smiling	0.0		96.55698757965547	
11.0	72.10367442620009	pulse	1.0	t		31.0	male	west_asian	1.9538400318344609	smiling	070	sub-12	1.0	6.0	070_smiling	0.0		97.25696744606103	
11.0	72.80365640557739	pulse	1.0	t		31.0	male	west_asian	1.9538400318344609	smiling	070	sub-12	1.0	6.0	070_smiling	0.0		97.95694942543832	
11.0	73.50363747939446	pulse	1.0	t		31.0	male	west_asian	1.9538400318344609	smiling	070	sub-12	1.0	6.0	070_smiling	0.0		98.6569304992554	
12.0	74.02017313683518	face	0.0		145	27.0	female	white	4.181058495821727	smiling	039	sub-12	1.0	6.0	039_smiling	1.0	attractiveness	99.17346615669612	1.2333018701901892
12.0	74.20362036433016	pulse	0.0	t		27.0	female	white	4.181058495821727	smiling	039	sub-12	1.0	6.0	039_smiling	1.0	attractiveness	99.3569133841911	
12.0	74.90360113629504	pulse	0.0	t		27.0	female	white	4.181058495821727	smiling	039	sub-12	1.0	6.0	039_smiling	1.0	attractiveness	100.05689415615598	
12.0	75.25347500702537	fix	1.0		177	27.0	female	white	4.181058495821727	smiling	039	sub-12	1.0	6.0	039_smiling	1.0	attractiveness	100.40676802688631	1.4999624193033014
12.0	75.60359790646817	pulse	1.0	t		27.0	female	white	4.181058495821727	smiling	039	sub-12	1.0	6.0	039_smiling	1.0	attractiveness	100.7568909263291	
12.0	76.30356237837259	pulse	1.0	t		27.0	female	white	4.181058495821727	smiling	039	sub-12	1.0	6.0	039_smiling	1.0	attractiveness	101.45685539823353	
12.0	76.75343742632867	rating	2.0		294	27.0	female	white	4.181058495821727	smiling	039	sub-12	1.0	6.0	039_smiling	1.0	attractiveness	101.90673044618961	2.4999292154752766
12.0	76.99836365496867	pulse	2.0	t		27.0	female	white	4.181058495821727	smiling	039	sub-12	1.0	6.0	039_smiling	1.0	attractiveness	102.15165667482961	
12.0	77.69831907128264	pulse	2.0	t		27.0	female	white	4.181058495821727	smiling	039	sub-12	1.0	6.0	039_smiling	1.0	attractiveness	102.85161209114358	
12.0	78.39832670816395	pulse	2.0	t		27.0	female	white	4.181058495821727	smiling	039	sub-12	1.0	6.0	039_smiling	1.0	attractiveness	103.55161972802489	
12.0	79.09831140421738	pulse	2.0	t		27.0	female	white	4.181058495821727	smiling	039	sub-12	1.0	6.0	039_smiling	1.0	attractiveness	104.25160442407832	
12.0	79.22327250291346	response	2.0	e		27.0	female	white	4.181058495821727	smiling	039	sub-12	1.0	6.0	039_smiling	1.0	attractiveness	104.3765655227744	
12.0	79.25336664180395	fix	3.0		444	27.0	female	white	4.181058495821727	smiling	039	sub-12	1.0	6.0	039_smiling	1.0	attractiveness	104.40665966166489	3.7665671256145288
12.0	79.80346110669598	pulse	3.0	t		27.0	female	white	4.181058495821727	smiling	039	sub-12	1.0	6.0	039_smiling	1.0	attractiveness	104.95675412655692	
12.0	80.50346149910456	pulse	3.0	t		27.0	female	white	4.181058495821727	smiling	039	sub-12	1.0	6.0	039_smiling	1.0	attractiveness	105.6567545189655	
12.0	81.20343140436216	pulse	3.0	t		27.0	female	white	4.181058495821727	smiling	039	sub-12	1.0	6.0	039_smiling	1.0	attractiveness	106.3567244242231	
12.0	81.90341096891461	pulse	3.0	t		27.0	female	white	4.181058495821727	smiling	039	sub-12	1.0	6.0	039_smiling	1.0	attractiveness	107.05670398877555	
12.0	82.60339958905752	pulse	3.0	t		27.0	female	white	4.181058495821727	smiling	039	sub-12	1.0	6.0	039_smiling	1.0	attractiveness	107.75669260891846	
13.0	83.01993376741848	face	0.0		145	32.0	male	white	2.389176283326701	smiling	092	sub-12	1.0	6.0	092_smiling	0.0		108.17322678727942	1.2332949275714782
13.0	83.30337915360997	pulse	0.0	t		32.0	male	white	2.389176283326701	smiling	092	sub-12	1.0	6.0	092_smiling	0.0		108.4566721734709	
13.0	84.00336083113416	pulse	0.0	t		32.0	male	white	2.389176283326701	smiling	092	sub-12	1.0	6.0	092_smiling	0.0		109.1566538509951	
13.0	84.25322869498996	fix	1.0		444	32.0	male	white	2.389176283326701	smiling	092	sub-12	1.0	6.0	092_smiling	0.0		109.4065217148509	3.7665689367322557
13.0	84.70335518648335	pulse	1.0	t		32.0	male	white	2.389176283326701	smiling	092	sub-12	1.0	6.0	092_smiling	0.0		109.85664820634429	
13.0	85.40331422503368	pulse	1.0	t		32.0	male	white	2.389176283326701	smiling	092	sub-12	1.0	6.0	092_smiling	0.0		110.55660724489462	
13.0	86.10328684696742	pulse	1.0	t		32.0	male	white	2.389176283326701	smiling	092	sub-12	1.0	6.0	092_smiling	0.0		111.25657986682836	
13.0	86.80328935234775	pulse	1.0	t		32.0	male	white	2.389176283326701	smiling	092	sub-12	1.0	6.0	092_smiling	0.0		111.95658237220869	
13.0	87.50326378539921	pulse	1.0	t		32.0	male	white	2.389176283326701	smiling	092	sub-12	1.0	6.0	092_smiling	0.0		112.65655680526015	
14.0	88.01979763172221	face	0.0		145	25.0	female	black	3.858336649423	neutral	126	sub-12	1.0	6.0	126_neutral	0.0		113.17309065158315	1.2333039831610222
14.0	88.20325451851295	pulse	0.0	t		25.0	female	black	3.858336649423	neutral	126	sub-12	1.0	6.0	126_neutral	0.0		113.35654753837389	
14.0	88.90322653674139	pulse	0.0	t		25.0	female	black	3.858336649423	neutral	126	sub-12	1.0	6.0	126_neutral	0.0		114.05651955660232	
14.0	89.25310161488324	fix	1.0		444	25.0	female	black	3.858336649423	neutral	126	sub-12	1.0	6.0	126_neutral	0.0		114.40639463474417	3.7665628996719533
14.0	89.60320700685315	pulse	1.0	t		25.0	female	black	3.858336649423	neutral	126	sub-12	1.0	6.0	126_neutral	0.0		114.7565000267141	
14.0	90.3031859677003	pulse	1.0	t		25.0	female	black	3.858336649423	neutral	126	sub-12	1.0	6.0	126_neutral	0.0		115.45647898756124	
14.0	91.0031685507829	pulse	1.0	t		25.0	female	black	3.858336649423	neutral	126	sub-12	1.0	6.0	126_neutral	0.0		116.15646157064384	
14.0	91.7031511338655	pulse	1.0	t		25.0	female	black	3.858336649423	neutral	126	sub-12	1.0	6.0	126_neutral	0.0		116.85644415372644	
14.0	92.403133415095	pulse	1.0	t		25.0	female	black	3.858336649423	neutral	126	sub-12	1.0	6.0	126_neutral	0.0		117.55642643495594	
15.0	93.01966451455519	face	0.0		145	28.0	male	white	3.9076800636689217	smiling	033	sub-12	1.0	6.0	033_smiling	1.0	dominance	118.17295753441613	1.2333036813088256
15.0	93.10312022412018	pulse	0.0	t		28.0	male	white	3.9076800636689217	smiling	033	sub-12	1.0	6.0	033_smiling	1.0	dominance	118.25641324398111	
15.0	93.80309314790702	pulse	0.0	t		28.0	male	white	3.9076800636689217	smiling	033	sub-12	1.0	6.0	033_smiling	1.0	dominance	118.95638616776796	
15.0	94.25296819586401	fix	1.0		177	28.0	male	white	3.9076800636689217	smiling	033	sub-12	1.0	6.0	033_smiling	1.0	dominance	119.40626121572495	1.4999621174501954
15.0	94.50307693840205	pulse	1.0	t		28.0	male	white	3.9076800636689217	smiling	033	sub-12	1.0	6.0	033_smiling	1.0	dominance	119.65636995826299	
15.0	95.20305438998366	pulse	1.0	t		28.0	male	white	3.9076800636689217	smiling	033	sub-12	1.0	6.0	033_smiling	1.0	dominance	120.3563474098446	
15.0	95.75293031331421	rating	2.0		294	28.0	male	white	3.9076800636689217	smiling	033	sub-12	1.0	6.0	033_smiling	1.0	dominance	120.90622333317515	2.4999274043575497
15.0	95.89784661099111	pulse	2.0	t		28.0	male	white	3.9076800636689217	smiling	033	sub-12	1.0	6.0	033_smiling	1.0	dominance	121.05113963085205	
15.0	96.59784700339969	pulse	2.0	t		28.0	male	white	3.9076800636689217	smiling	033	sub-12	1.0	6.0	033_smiling	1.0	dominance	121.75114002326063	
15.0	97.17801266635524	response	2.0	b		28.0	male	white	3.9076800636689217	smiling	033	sub-12	1.0	6.0	033_smiling	1.0	dominance	122.33130568621618	
15.0	97.29788935337365	pulse	2.0	t		28.0	male	white	3.9076800636689217	smiling	033	sub-12	1.0	6.0	033_smiling	1.0	dominance	122.45118237323459	
15.0	98.0029801945202	pulse	2.0	t		28.0	male	white	3.9076800636689217	smiling	033	sub-12	1.0	6.0	033_smiling	1.0	dominance	123.15627321438114	
15.0	98.25285771767176	fix	3.0		444	28.0	male	white	3.9076800636689217	smiling	033	sub-12	1.0	6.0	033_smiling	1.0	dominance	123.4061507375327	3.766559881141802
15.0	98.70296730539758	pulse	3.0	t		28.0	male	white	3.9076800636689217	smiling	033	sub-12	1.0	6.0	033_smiling	1.0	dominance	123.85626032525852	
15.0	99.40294566253851	pulse	3.0	t		28.0	male	white	3.9076800636689217	smiling	033	sub-12	1.0	6.0	033_smiling	1.0	dominance	124.55623868239945	
15.0	100.10292311412104	pulse	3.0	t		28.0	male	white	3.9076800636689217	smiling	033	sub-12	1.0	6.0	033_smiling	1.0	dominance	125.25621613398198	
15.0	100.80290660276205	pulse	3.0	t		28.0	male	white	3.9076800636689217	smiling	033	sub-12	1.0	6.0	033_smiling	1.0	dominance	125.95619962262299	
15.0	101.50289733587579	pulse	3.0	t		28.0	male	white	3.9076800636689217	smiling	033	sub-12	1.0	6.0	033_smiling	1.0	dominance	126.65619035573673	
16.0	102.01941759881356	face	0.0		145	36.0	female	white	2.7548746518105847	smiling	011	sub-12	1.0	6.0	011_smiling	0.0		127.1727106186745	1.2333109257806427
16.0	102.20287358004589	pulse	0.0	t		36.0	female	white	2.7548746518105847	smiling	011	sub-12	1.0	6.0	011_smiling	0.0		127.35616659990683	
16.0	102.90286461501182	pulse	0.0	t		36.0	female	white	2.7548746518105847	smiling	011	sub-12	1.0	6.0	011_smiling	0.0		128.05615763487276	
16.0	103.2527285245942	fix	1.0		444	36.0	female	white	2.7548746518105847	smiling	011	sub-12	1.0	6.0	011_smiling	0.0		128.40602154445514	3.7582897130614583
16.0	103.60283572768185	pulse	1.0	t		36.0	female	white	2.7548746518105847	smiling	011	sub-12	1.0	6.0	011_smiling	0.0		128.7561287475428	
16.0	104.30282525338316	pulse	1.0	t		36.0	female	white	2.7548746518105847	smiling	011	sub-12	1.0	6.0	011_smiling	0.0		129.4561182732441	
16.0	105.00279968643554	pulse	1.0	t		36.0	female	white	2.7548746518105847	smiling	011	sub-12	1.0	6.0	011_smiling	0.0		130.15609270629648	
16.0	105.70277261022238	pulse	1.0	t		36.0	female	white	2.7548746518105847	smiling	011	sub-12	1.0	6.0	011_smiling	0.0		130.85606563008332	
16.0	106.4027627396299	pulse	1.0	t		36.0	female	white	2.7548746518105847	smiling	011	sub-12	1.0	6.0	011_smiling	0.0		131.55605575949085	
17.0	107.01101823765566	face	0.0		146	24.0	female	east_asian	4.409868682849185	smiling	030	sub-12	1.0	6.0	030_smiling	0.0		132.1643112575166	1.2415699253006096
17.0	107.10274653012493	pulse	0.0	t		24.0	female	east_asian	4.409868682849185	smiling	030	sub-12	1.0	6.0	030_smiling	0.0		132.25603954998587	
17.0	107.80272790579511	pulse	0.0	t		24.0	female	east_asian	4.409868682849185	smiling	030	sub-12	1.0	6.0	030_smiling	0.0		132.95602092565605	
17.0	108.25258816295627	fix	1.0		444	24.0	female	east_asian	4.409868682849185	smiling	030	sub-12	1.0	6.0	030_smiling	0.0		133.4058811828172	3.7665559570532423
17.0	108.50270716849536	pulse	1.0	t		24.0	female	east_asian	4.409868682849185	smiling	030	sub-12	1.0	6.0	030_smiling	0.0		133.6560001883563	
17.0	109.20268160154774	pulse	1.0	t		24.0	female	east_asian	4.409868682849185	smiling	030	sub-12	1.0	6.0	030_smiling	0.0		134.35597462140868	
17.0	109.9026678068658	pulse	1.0	t		24.0	female	east_asian	4.409868682849185	smiling	030	sub-12	1.0	6.0	030_smiling	0.0		135.05596082672673	
17.0	110.60264556030143	pulse	1.0	t		24.0	female	east_asian	4.409868682849185	smiling	030	sub-12	1.0	6.0	030_smiling	0.0		135.75593858016236	
17.0	111.30263599156115	pulse	1.0	t		24.0	female	east_asian	4.409868682849185	smiling	030	sub-12	1.0	6.0	030_smiling	0.0		136.45592901142209	
18.0	112.01914412000951	face	0.0		146	21.0	male	east_asian/white	3.501790688420215	neutral	036	sub-12	1.0	6.0	036_neutral	0.0		137.17243713987045	1.2333184721046564
18.0	112.00533887374422	pulse	0.0	t		21.0	male	east_asian/white	3.501790688420215	neutral	036	sub-12	1.0	6.0	036_neutral	0.0		137.15863189360516	
18.0	112.70259421510855	pulse	0.0	t		21.0	male	east_asian/white	3.501790688420215	neutral	036	sub-12	1.0	6.0	036_neutral	0.0		137.8558872349695	
18.0	113.25246259211417	fix	1.0		443	21.0	male	east_asian/white	3.501790688420215	neutral	036	sub-12	1.0	6.0	036_neutral	0.0		138.4057556119751	3.7582103257263952
18.0	113.40257770375047	pulse	1.0	t		21.0	male	east_asian/white	3.501790688420215	neutral	036	sub-12	1.0	6.0	036_neutral	0.0		138.5558707236114	
18.0	114.10255304236125	pulse	1.0	t		21.0	male	east_asian/white	3.501790688420215	neutral	036	sub-12	1.0	6.0	036_neutral	0.0		139.2558460622222	
18.0	114.80253894582711	pulse	1.0	t		21.0	male	east_asian/white	3.501790688420215	neutral	036	sub-12	1.0	6.0	036_neutral	0.0		139.95583196568805	
18.0	115.50251247332017	pulse	1.0	t		21.0	male	east_asian/white	3.501790688420215	neutral	036	sub-12	1.0	6.0	036_neutral	0.0		140.6558054931811	
18.0	116.20250018790375	pulse	1.0	t		21.0	male	east_asian/white	3.501790688420215	neutral	036	sub-12	1.0	6.0	036_neutral	0.0		141.3557932077647	
18.0	116.90248367654567	pulse	1.0	t		21.0	male	east_asian/white	3.501790688420215	neutral	036	sub-12	1.0	6.0	036_neutral	0.0		142.0557766964066	
19.0	117.01067291784057	face	0.0		147	28.0	male	east_asian	1.5563072025467568	smiling	005	sub-12	1.0	6.0	005_smiling	0.0		142.1639659377015	1.2416387477815078
19.0	117.6024556947732	pulse	0.0	t		28.0	male	east_asian	1.5563072025467568	smiling	005	sub-12	1.0	6.0	005_smiling	0.0		142.75574871463414	
19.0	118.25231166562207	fix	1.0		443	28.0	male	east_asian	1.5563072025467568	smiling	005	sub-12	1.0	6.0	005_smiling	0.0		143.405604685483	3.7665849349396012
19.0	118.30244582418072	pulse	1.0	t		28.0	male	east_asian	1.5563072025467568	smiling	005	sub-12	1.0	6.0	005_smiling	0.0		143.45573884404166	
19.0	119.00242267205704	pulse	1.0	t		28.0	male	east_asian	1.5563072025467568	smiling	005	sub-12	1.0	6.0	005_smiling	0.0		144.15571569191798	
19.0	119.70240133105108	pulse	1.0	t		28.0	male	east_asian	1.5563072025467568	smiling	005	sub-12	1.0	6.0	005_smiling	0.0		144.85569435091202	
19.0	120.40238451783989	pulse	1.0	t		28.0	male	east_asian	1.5563072025467568	smiling	005	sub-12	1.0	6.0	005_smiling	0.0		145.55567753770083	
19.0	121.10237343983499	pulse	1.0	t		28.0	male	east_asian	1.5563072025467568	smiling	005	sub-12	1.0	6.0	005_smiling	0.0		146.25566645969593	
19.0	121.80235270253525	pulse	1.0	t		28.0	male	east_asian	1.5563072025467568	smiling	005	sub-12	1.0	6.0	005_smiling	0.0		146.95564572239618	
20.0	122.01889660056167	face	0.0		145	40.0	male	black	2.408674890569041	neutral	061	sub-12	1.0	6.0	061_neutral	0.0		147.1721896204226	1.2333009646317805
20.0	122.50233377635323	pulse	0.0	t		40.0	male	black	2.408674890569041	neutral	061	sub-12	1.0	6.0	061_neutral	0.0		147.65562679621416	
20.0	123.20231334090568	pulse	0.0	t		40.0	male	black	2.408674890569041	neutral	061	sub-12	1.0	6.0	061_neutral	0.0		148.35560636076661	
20.0	123.25219756519346	fix	1.0		1186	40.0	male	black	2.408674890569041	neutral	061	sub-12	1.0	6.0	061_neutral	0.0		148.4054905850544	10.01638790040397
20.0	123.90229471657676	pulse	1.0	t		40.0	male	black	2.408674890569041	neutral	061	sub-12	1.0	6.0	061_neutral	0.0		149.0555877364377	
20.0	124.60227428113012	pulse	1.0	t		40.0	male	black	2.408674890569041	neutral	061	sub-12	1.0	6.0	061_neutral	0.0		149.75556730099106	
20.0	125.30225294012325	pulse	1.0	t		40.0	male	black	2.408674890569041	neutral	061	sub-12	1.0	6.0	061_neutral	0.0		150.4555459599842	
20.0	126.00225514365047	pulse	1.0	t		40.0	male	black	2.408674890569041	neutral	061	sub-12	1.0	6.0	061_neutral	0.0		151.1555481635114	
20.0	126.70223018040815	pulse	1.0	t		40.0	male	black	2.408674890569041	neutral	061	sub-12	1.0	6.0	061_neutral	0.0		151.8555232002691	
20.0	127.40220038751886	pulse	1.0	t		40.0	male	black	2.408674890569041	neutral	061	sub-12	1.0	6.0	061_neutral	0.0		152.5554934073798	
20.0	128.10218357430767	pulse	1.0	t		40.0	male	black	2.408674890569041	neutral	061	sub-12	1.0	6.0	061_neutral	0.0		153.2554765941686	
20.0	128.80216283700793	pulse	1.0	t		40.0	male	black	2.408674890569041	neutral	061	sub-12	1.0	6.0	061_neutral	0.0		153.95545585686887	
20.0	129.5021556830916	pulse	1.0	t		40.0	male	black	2.408674890569041	neutral	061	sub-12	1.0	6.0	061_neutral	0.0		154.65544870295253	
20.0	130.2021264939085	pulse	1.0	t		40.0	male	black	2.408674890569041	neutral	061	sub-12	1.0	6.0	061_neutral	0.0		155.35541951376945	
20.0	130.90209971954846	pulse	1.0	t		40.0	male	black	2.408674890569041	neutral	061	sub-12	1.0	6.0	061_neutral	0.0		156.0553927394094	
20.0	131.6021094693997	pulse	1.0	t		40.0	male	black	2.408674890569041	neutral	061	sub-12	1.0	6.0	061_neutral	0.0		156.75540248926063	
20.0	132.30210352289578	pulse	1.0	t		40.0	male	black	2.408674890569041	neutral	061	sub-12	1.0	6.0	061_neutral	0.0		157.45539654275672	
20.0	133.0020740318596	pulse	1.0	t		40.0	male	black	2.408674890569041	neutral	061	sub-12	1.0	6.0	061_neutral	0.0		158.15536705172053	
21.0	133.26858546559743	face	0.0		145	26.0	male	white	2.7966573816155993	smiling	117	sub-12	1.0	6.0	117_smiling	0.0		158.42187848545836	1.2333115294859454
21.0	133.70203276855682	pulse	0.0	t		26.0	male	white	2.7966573816155993	smiling	117	sub-12	1.0	6.0	117_smiling	0.0		158.85532578841776	
21.0	134.40201142754995	pulse	0.0	t		26.0	male	white	2.7966573816155993	smiling	117	sub-12	1.0	6.0	117_smiling	0.0		159.5553044474109	
21.0	134.50189699508337	fix	1.0		445	26.0	male	white	2.7966573816155993	smiling	117	sub-12	1.0	6.0	117_smiling	0.0		159.6551900149443	3.766558673731197
21.0	135.10197589945437	pulse	1.0	t		26.0	male	white	2.7966573816155993	smiling	117	sub-12	1.0	6.0	117_smiling	0.0		160.2552689193153	
21.0	135.80197085850887	pulse	1.0	t		26.0	male	white	2.7966573816155993	smiling	117	sub-12	1.0	6.0	117_smiling	0.0		160.9552638783698	
21.0	136.50195917679866	pulse	1.0	t		26.0	male	white	2.7966573816155993	smiling	117	sub-12	1.0	6.0	117_smiling	0.0		161.6552521966596	
21.0	137.20195383400096	pulse	1.0	t		26.0	male	white	2.7966573816155993	smiling	117	sub-12	1.0	6.0	117_smiling	0.0		162.3552468538619	
21.0	137.9019394356137	pulse	1.0	t		26.0	male	white	2.7966573816155993	smiling	117	sub-12	1.0	6.0	117_smiling	0.0		163.05523245547465	
22.0	138.26845566881457	face	0.0		145	30.0	female	black	2.7345801830481498	neutral	062	sub-12	1.0	6.0	062_neutral	0.0		163.4217486886755	1.233307907249582
22.0	138.60192533907866	pulse	0.0	t		30.0	female	black	2.7345801830481498	neutral	062	sub-12	1.0	6.0	062_neutral	0.0		163.7552183589396	
22.0	139.30188045354043	pulse	0.0	t		30.0	female	black	2.7345801830481498	neutral	062	sub-12	1.0	6.0	062_neutral	0.0		164.45517347340137	
22.0	139.50176357606415	fix	1.0		444	30.0	female	black	2.7345801830481498	neutral	062	sub-12	1.0	6.0	062_neutral	0.0		164.6550565959251	3.7582423221429053
22.0	140.0018666588585	pulse	1.0	t		30.0	female	black	2.7345801830481498	neutral	062	sub-12	1.0	6.0	062_neutral	0.0		165.15515967871943	
22.0	140.7018438085879	pulse	1.0	t		30.0	female	black	2.7345801830481498	neutral	062	sub-12	1.0	6.0	062_neutral	0.0		165.85513682844885	
22.0	141.40182729722983	pulse	1.0	t		30.0	female	black	2.7345801830481498	neutral	062	sub-12	1.0	6.0	062_neutral	0.0		166.55512031709077	
22.0	142.10181501181341	pulse	1.0	t		30.0	female	black	2.7345801830481498	neutral	062	sub-12	1.0	6.0	062_neutral	0.0		167.25510803167435	
22.0	142.80179155783662	pulse	1.0	t		30.0	female	black	2.7345801830481498	neutral	062	sub-12	1.0	6.0	062_neutral	0.0		167.95508457769756	
23.0	143.26000589820705	face	0.0		146	40.0	male	white	1.868682849184242	neutral	172	sub-12	1.0	6.0	172_neutral	0.0		168.413298918068	1.2416194291899956
23.0	143.5017729335068	pulse	0.0	t		40.0	male	white	1.868682849184242	neutral	172	sub-12	1.0	6.0	172_neutral	0.0		168.65506595336774	
23.0	144.2017479702654	pulse	0.0	t		40.0	male	white	1.868682849184242	neutral	172	sub-12	1.0	6.0	172_neutral	0.0		169.35504099012633	
23.0	144.50162532739705	fix	1.0		444	40.0	male	white	1.868682849184242	neutral	172	sub-12	1.0	6.0	172_neutral	0.0		169.654918347258	3.7582984667988057
23.0	144.90174534414382	pulse	1.0	t		40.0	male	white	1.868682849184242	neutral	172	sub-12	1.0	6.0	172_neutral	0.0		170.05503836400476	
23.0	145.60171585310763	pulse	1.0	t		40.0	male	white	1.868682849184242	neutral	172	sub-12	1.0	6.0	172_neutral	0.0		170.75500887296857	
23.0	146.3016951158079	pulse	1.0	t		40.0	male	white	1.868682849184242	neutral	172	sub-12	1.0	6.0	172_neutral	0.0		171.45498813566883	
23.0	147.00167739703738	pulse	1.0	t		40.0	male	white	1.868682849184242	neutral	172	sub-12	1.0	6.0	172_neutral	0.0		172.15497041689832	
23.0	147.70165665973764	pulse	1.0	t		40.0	male	white	1.868682849184242	neutral	172	sub-12	1.0	6.0	172_neutral	0.0		172.85494967959858	
24.0	148.25992379419586	face	0.0		146	20.0	male	black	2.609629924393156	neutral	043	sub-12	1.0	6.0	043_neutral	0.0		173.4132168140568	1.2415759623600024
24.0	148.40164497802652	pulse	0.0	t		20.0	male	black	2.609629924393156	neutral	043	sub-12	1.0	6.0	043_neutral	0.0		173.55493799788746	
24.0	149.10166589643813	pulse	0.0	t		20.0	male	black	2.609629924393156	neutral	043	sub-12	1.0	6.0	043_neutral	0.0		174.25495891629907	
24.0	149.50149975655586	fix	1.0		444	20.0	male	black	2.609629924393156	neutral	043	sub-12	1.0	6.0	043_neutral	0.0		174.6547927764168	3.758293335296912
24.0	149.80161195531036	pulse	1.0	t		20.0	male	black	2.609629924393156	neutral	043	sub-12	1.0	6.0	043_neutral	0.0		174.9549049751713	
24.0	150.5015845772441	pulse	1.0	t		20.0	male	black	2.609629924393156	neutral	043	sub-12	1.0	6.0	043_neutral	0.0		175.65487759710504	
24.0	151.20157591406405	pulse	1.0	t		20.0	male	black	2.609629924393156	neutral	043	sub-12	1.0	6.0	043_neutral	0.0		176.354868933925	
24.0	151.9015624212352	pulse	1.0	t		20.0	male	black	2.609629924393156	neutral	043	sub-12	1.0	6.0	043_neutral	0.0		177.05485544109615	
24.0	152.60152327090327	pulse	1.0	t		20.0	male	black	2.609629924393156	neutral	043	sub-12	1.0	6.0	043_neutral	0.0		177.7548162907642	
25.0	153.25979309185277	face	0.0		146	21.0	male	black	2.969757262236371	smiling	137	sub-12	1.0	6.0	137_smiling	0.0		178.4130861117137	1.2415720382714426
25.0	153.3015146077223	pulse	0.0	t		21.0	male	black	2.969757262236371	smiling	137	sub-12	1.0	6.0	137_smiling	0.0		178.45480762758325	
25.0	154.00150111489438	pulse	0.0	t		21.0	male	black	2.969757262236371	smiling	137	sub-12	1.0	6.0	137_smiling	0.0		179.15479413475532	
25.0	154.5013651301242	fix	1.0		443	21.0	male	black	2.969757262236371	smiling	137	sub-12	1.0	6.0	137_smiling	0.0		179.65465814998515	3.7582223998460904
25.0	154.70148037759373	pulse	1.0	t		21.0	male	black	2.969757262236371	smiling	137	sub-12	1.0	6.0	137_smiling	0.0		179.85477339745466	
25.0	155.40145269767527	pulse	1.0	t		21.0	male	black	2.969757262236371	smiling	137	sub-12	1.0	6.0	137_smiling	0.0		180.5547457175362	
25.0	156.1014364881703	pulse	1.0	t		21.0	male	black	2.969757262236371	smiling	137	sub-12	1.0	6.0	137_smiling	0.0		181.25472950803123	
25.0	156.80144593616842	pulse	1.0	t		21.0	male	black	2.969757262236371	smiling	137	sub-12	1.0	6.0	137_smiling	0.0		181.95473895602936	
25.0	157.50139773024694	pulse	1.0	t		21.0	male	black	2.969757262236371	smiling	137	sub-12	1.0	6.0	137_smiling	0.0		182.65469075010787	
25.0	158.20138152074105	pulse	1.0	t		21.0	male	black	2.969757262236371	smiling	137	sub-12	1.0	6.0	137_smiling	0.0		183.354674540602	
26.0	158.2595875299703	face	0.0		147	31.0	female	white	2.1822522881018704	smiling	102	sub-12	1.0	6.0	102_smiling	0.0		183.41288054983124	1.2416432755753704
26.0	158.9013725557079	pulse	0.0	t		31.0	female	white	2.1822522881018704	smiling	102	sub-12	1.0	6.0	102_smiling	0.0		184.05466557556883	
26.0	159.50123080554567	fix	1.0		443	31.0	female	white	2.1822522881018704	smiling	102	sub-12	1.0	6.0	102_smiling	0.0		184.6545238254066	3.7582302480241196
26.0	159.60133431093436	pulse	1.0	t		31.0	female	white	2.1822522881018704	smiling	102	sub-12	1.0	6.0	102_smiling	0.0		184.7546273307953	
26.0	160.30135824787612	pulse	1.0	t		31.0	female	white	2.1822522881018704	smiling	102	sub-12	1.0	6.0	102_smiling	0.0		185.45465126773706	
26.0	161.00132453089827	pulse	1.0	t		31.0	female	white	2.1822522881018704	smiling	102	sub-12	1.0	6.0	102_smiling	0.0		186.1546175507592	
26.0	161.7012905120664	pulse	1.0	t		31.0	female	white	2.1822522881018704	smiling	102	sub-12	1.0	6.0	102_smiling	0.0		186.85458353192735	
26.0	162.4012715858844	pulse	1.0	t		31.0	female	white	2.1822522881018704	smiling	102	sub-12	1.0	6.0	102_smiling	0.0		187.55456460574533	
26.0	163.10124722634828	pulse	1.0	t		31.0	female	white	2.1822522881018704	smiling	102	sub-12	1.0	6.0	102_smiling	0.0		188.25454024620922	
27.0	163.2594610535698	face	0.0		147	40.0	female	west_asian	1.5777954635893354	neutral	038	sub-12	1.0	6.0	038_neutral	0.0		188.41275407343073	1.2416459922524155
27.0	163.80122860201936	pulse	0.0	t		40.0	female	west_asian	1.5777954635893354	neutral	038	sub-12	1.0	6.0	038_neutral	0.0		188.9545216218803	
27.0	164.5011070458222	fix	1.0		444	40.0	female	west_asian	1.5777954635893354	neutral	038	sub-12	1.0	6.0	038_neutral	0.0		189.65440006568315	3.7583105409175914
27.0	164.50854742004776	pulse	1.0	t		40.0	female	west_asian	1.5777954635893354	neutral	038	sub-12	1.0	6.0	038_neutral	0.0		189.6618404399087	
27.0	165.2011958811554	pulse	1.0	t		40.0	female	west_asian	1.5777954635893354	neutral	038	sub-12	1.0	6.0	038_neutral	0.0		190.35448890101634	
27.0	165.90117454014944	pulse	1.0	t		40.0	female	west_asian	1.5777954635893354	neutral	038	sub-12	1.0	6.0	038_neutral	0.0		191.05446756001038	
27.0	166.60116466955697	pulse	1.0	t		40.0	female	west_asian	1.5777954635893354	neutral	038	sub-12	1.0	6.0	038_neutral	0.0		191.7544576894179	
27.0	167.30115147858123	pulse	1.0	t		40.0	female	west_asian	1.5777954635893354	neutral	038	sub-12	1.0	6.0	038_neutral	0.0		192.45444449844217	
27.0	168.00111776160338	pulse	1.0	t		40.0	female	west_asian	1.5777954635893354	neutral	038	sub-12	1.0	6.0	038_neutral	0.0		193.15441078146432	
28.0	168.2594175867398	face	0.0		146	40.0	male	black	2.408674890569041	smiling	061	sub-12	1.0	6.0	061_smiling	0.0		193.41271060660074	1.2415394381487204
28.0	168.7011072873047	pulse	0.0	t		40.0	male	black	2.408674890569041	smiling	061	sub-12	1.0	6.0	061_smiling	0.0		193.85440030716563	
28.0	169.40106572214881	pulse	0.0	t		40.0	male	black	2.408674890569041	smiling	061	sub-12	1.0	6.0	061_smiling	0.0		194.55435874200975	
28.0	169.50095702488852	fix	1.0		444	40.0	male	black	2.408674890569041	smiling	061	sub-12	1.0	6.0	061_smiling	0.0		194.65425004474946	3.7583192946540294
28.0	170.1010857350011	pulse	1.0	t		40.0	male	black	2.408674890569041	smiling	061	sub-12	1.0	6.0	061_smiling	0.0		195.25437875486205	
28.0	170.80104024575667	pulse	1.0	t		40.0	male	black	2.408674890569041	smiling	061	sub-12	1.0	6.0	061_smiling	0.0		195.9543332656176	
28.0	171.50102675292874	pulse	1.0	t		40.0	male	black	2.408674890569041	smiling	061	sub-12	1.0	6.0	061_smiling	0.0		196.65431977278968	
28.0	172.20102201383634	pulse	1.0	t		40.0	male	black	2.408674890569041	smiling	061	sub-12	1.0	6.0	061_smiling	0.0		197.35431503369728	
28.0	172.90100338950742	pulse	1.0	t		40.0	male	black	2.408674890569041	smiling	061	sub-12	1.0	6.0	061_smiling	0.0		198.05429640936836	
29.0	173.25927631954255	face	0.0		146	25.0	female	west_asian	2.6756864305610826	smiling	064	sub-12	1.0	6.0	064_smiling	0.0		198.4125693394035	1.2415518141215216
29.0	173.60097057808798	pulse	0.0	t		25.0	female	west_asian	2.6756864305610826	smiling	064	sub-12	1.0	6.0	064_smiling	0.0		198.75426359794892	
29.0	174.30095889637687	pulse	0.0	t		25.0	female	west_asian	2.6756864305610826	smiling	064	sub-12	1.0	6.0	064_smiling	0.0		199.4542519162378	
29.0	174.50082813366407	fix	1.0		444	25.0	female	west_asian	2.6756864305610826	smiling	064	sub-12	1.0	6.0	064_smiling	0.0		199.654121153525	3.7583211057717563
29.0	175.0009674388166	pulse	1.0	t		25.0	female	west_asian	2.6756864305610826	smiling	064	sub-12	1.0	6.0	064_smiling	0.0		200.15426045867753	
29.0	175.70091108286488	pulse	1.0	t		25.0	female	west_asian	2.6756864305610826	smiling	064	sub-12	1.0	6.0	064_smiling	0.0		200.85420410272582	
29.0	176.40089336409437	pulse	1.0	t		25.0	female	west_asian	2.6756864305610826	smiling	064	sub-12	1.0	6.0	064_smiling	0.0		201.5541863839553	
29.0	177.10087353235303	pulse	1.0	t		25.0	female	west_asian	2.6756864305610826	smiling	064	sub-12	1.0	6.0	064_smiling	0.0		202.25416655221397	
29.0	177.8008606432304	pulse	1.0	t		25.0	female	west_asian	2.6756864305610826	smiling	064	sub-12	1.0	6.0	064_smiling	0.0		202.95415366309135	
30.0	178.25914923943583	face	0.0		146	27.0	male	black	3.5523278949462798	smiling	042	sub-12	1.0	6.0	042_smiling	0.0		203.41244225929677	1.2415493992975826
30.0	178.5008420189015	pulse	0.0	t		27.0	male	black	3.5523278949462798	smiling	042	sub-12	1.0	6.0	042_smiling	0.0		203.65413503876243	
30.0	179.2008236964257	pulse	0.0	t		27.0	male	black	3.5523278949462798	smiling	042	sub-12	1.0	6.0	042_smiling	0.0		204.35411671628663	
30.0	179.5006986387334	fix	1.0		444	27.0	male	black	3.5523278949462798	smiling	042	sub-12	1.0	6.0	042_smiling	0.0		204.65399165859435	3.766549316288547
30.0	179.90081835362707	pulse	1.0	t		27.0	male	black	3.5523278949462798	smiling	042	sub-12	1.0	6.0	042_smiling	0.0		205.054111373488	
30.0	180.6007825236784	pulse	1.0	t		27.0	male	black	3.5523278949462798	smiling	042	sub-12	1.0	6.0	042_smiling	0.0		205.75407554353933	
30.0	181.30076269193705	pulse	1.0	t		27.0	male	black	3.5523278949462798	smiling	042	sub-12	1.0	6.0	042_smiling	0.0		206.454055711798	
30.0	182.00075131207996	pulse	1.0	t		27.0	male	black	3.5523278949462798	smiling	042	sub-12	1.0	6.0	042_smiling	0.0		207.1540443319409	
30.0	182.70072574513142	pulse	1.0	t		27.0	male	black	3.5523278949462798	smiling	042	sub-12	1.0	6.0	042_smiling	0.0		207.85401876499236	
31.0	183.26724795502196	face	0.0		145	23.0	male	white	2.6275368085953046	neutral	141	sub-12	1.0	6.0	141_neutral	0.0		208.4205409748829	1.2333184721046564
31.0	183.40070863006713	pulse	0.0	t		23.0	male	white	2.6275368085953046	neutral	141	sub-12	1.0	6.0	141_neutral	0.0		208.55400164992807	
31.0	184.1006884964736	pulse	0.0	t		23.0	male	white	2.6275368085953046	neutral	141	sub-12	1.0	6.0	141_neutral	0.0		209.25398151633453	
31.0	184.5005664271266	fix	1.0		444	23.0	male	white	2.6275368085953046	neutral	141	sub-12	1.0	6.0	141_neutral	0.0		209.65385944698755	3.7665453921990775
31.0	184.80067349438013	pulse	1.0	t		23.0	male	white	2.6275368085953046	neutral	141	sub-12	1.0	6.0	141_neutral	0.0		209.95396651424107	
31.0	185.50065064410865	pulse	1.0	t		23.0	male	white	2.6275368085953046	neutral	141	sub-12	1.0	6.0	141_neutral	0.0		210.65394366396959	
31.0	186.20062205863178	pulse	1.0	t		23.0	male	white	2.6275368085953046	neutral	141	sub-12	1.0	6.0	141_neutral	0.0		211.35391507849272	
31.0	186.90064026036634	pulse	1.0	t		23.0	male	white	2.6275368085953046	neutral	141	sub-12	1.0	6.0	141_neutral	0.0		212.05393328022728	
31.0	187.60059688409274	pulse	1.0	t		23.0	male	white	2.6275368085953046	neutral	141	sub-12	1.0	6.0	141_neutral	0.0		212.75388990395368	
32.0	188.2671118193257	face	0.0		145	36.0	female	white	2.7548746518105847	neutral	011	sub-12	1.0	6.0	011_neutral	0.0		213.42040483918663	1.233323905457837
32.0	188.30058791905867	pulse	0.0	t		36.0	female	white	2.7548746518105847	neutral	011	sub-12	1.0	6.0	011_neutral	0.0		213.4538809389196	
32.0	189.00055812616938	pulse	0.0	t		36.0	female	white	2.7548746518105847	neutral	011	sub-12	1.0	6.0	011_neutral	0.0		214.15385114603032	
32.0	189.50043572478353	fix	1.0		443	36.0	female	white	2.7548746518105847	neutral	011	sub-12	1.0	6.0	011_neutral	0.0		214.65372874464447	3.7582631499990384
32.0	189.7005473500176	pulse	1.0	t		36.0	female	white	2.7548746518105847	neutral	011	sub-12	1.0	6.0	011_neutral	0.0		214.85384036987853	
32.0	190.4005308386595	pulse	1.0	t		36.0	female	white	2.7548746518105847	neutral	011	sub-12	1.0	6.0	011_neutral	0.0		215.55382385852045	
32.0	191.10050315874105	pulse	1.0	t		36.0	female	white	2.7548746518105847	neutral	011	sub-12	1.0	6.0	011_neutral	0.0		216.253796178602	
32.0	191.80048725108827	pulse	1.0	t		36.0	female	white	2.7548746518105847	neutral	011	sub-12	1.0	6.0	011_neutral	0.0		216.9537802709492	
32.0	192.5004656082292	pulse	1.0	t		36.0	female	white	2.7548746518105847	neutral	011	sub-12	1.0	6.0	011_neutral	0.0		217.65375862809015	
32.0	193.20045030428264	pulse	1.0	t		36.0	female	white	2.7548746518105847	neutral	011	sub-12	1.0	6.0	011_neutral	0.0		218.35374332414358	
33.0	193.25869887478257	face	0.0		147	26.0	male	white	2.7966573816155993	neutral	117	sub-12	1.0	6.0	117_neutral	1.0	dominance	218.4119918946435	1.2416016198640136
33.0	193.90044013183706	pulse	0.0	t		26.0	male	white	2.7966573816155993	neutral	117	sub-12	1.0	6.0	117_neutral	1.0	dominance	219.053733151698	
33.0	194.50030049464658	fix	1.0		177	26.0	male	white	2.7966573816155993	neutral	117	sub-12	1.0	6.0	117_neutral	1.0	dominance	219.65359351450752	1.4999594007731503
33.0	194.6004130556248	pulse	1.0	t		26.0	male	white	2.7966573816155993	neutral	117	sub-12	1.0	6.0	117_neutral	1.0	dominance	219.75370607548575	
33.0	195.30039111091264	pulse	1.0	t		26.0	male	white	2.7966573816155993	neutral	117	sub-12	1.0	6.0	117_neutral	1.0	dominance	220.45368413077358	
33.0	196.00025989541973	rating	2.0		294	26.0	male	white	2.7966573816155993	neutral	117	sub-12	1.0	6.0	117_neutral	1.0	dominance	221.15355291528067	2.4999334414169425
33.0	195.9954039864515	pulse	2.0	t		26.0	male	white	2.7966573816155993	neutral	117	sub-12	1.0	6.0	117_neutral	1.0	dominance	221.14869700631243	
33.0	196.6952993340219	pulse	2.0	t		26.0	male	white	2.7966573816155993	neutral	117	sub-12	1.0	6.0	117_neutral	1.0	dominance	221.84859235388285	
33.0	197.3951497054968	pulse	2.0	t		26.0	male	white	2.7966573816155993	neutral	117	sub-12	1.0	6.0	117_neutral	1.0	dominance	222.54844272535775	
33.0	198.0419838261132	response	2.0	y		26.0	male	white	2.7966573816155993	neutral	117	sub-12	1.0	6.0	117_neutral	1.0	dominance	223.19527684597415	
33.0	198.09515311643554	pulse	2.0	t		26.0	male	white	2.7966573816155993	neutral	117	sub-12	1.0	6.0	117_neutral	1.0	dominance	223.24844613629648	
33.0	198.50019333683667	fix	3.0		444	26.0	male	white	2.7966573816155993	neutral	117	sub-12	1.0	6.0	117_neutral	1.0	dominance	223.6534863566976	3.766547203317714
33.0	198.80029768741406	pulse	3.0	t		26.0	male	white	2.7966573816155993	neutral	117	sub-12	1.0	6.0	117_neutral	1.0	dominance	223.953590707275	
33.0	199.50027755381961	pulse	3.0	t		26.0	male	white	2.7966573816155993	neutral	117	sub-12	1.0	6.0	117_neutral	1.0	dominance	224.65357057368055	
33.0	200.20026224987305	pulse	3.0	t		26.0	male	white	2.7966573816155993	neutral	117	sub-12	1.0	6.0	117_neutral	1.0	dominance	225.353555269734	
33.0	200.90027592381375	pulse	3.0	t		26.0	male	white	2.7966573816155993	neutral	117	sub-12	1.0	6.0	117_neutral	1.0	dominance	226.0535689436747	
33.0	201.60022560492143	pulse	3.0	t		26.0	male	white	2.7966573816155993	neutral	117	sub-12	1.0	6.0	117_neutral	1.0	dominance	226.75351862478237	
34.0	202.2667405401544	face	0.0		145	31.0	female	west_asian	2.364902506963788	neutral	006	sub-12	1.0	6.0	006_neutral	0.0		227.42003356001533	1.233300662777765
34.0	202.30020366020926	pulse	0.0	t		31.0	female	west_asian	2.364902506963788	neutral	006	sub-12	1.0	6.0	006_neutral	0.0		227.4534966800702	
34.0	203.0002007322355	pulse	0.0	t		31.0	female	west_asian	2.364902506963788	neutral	006	sub-12	1.0	6.0	006_neutral	0.0		228.15349375209644	
34.0	203.50004120293215	fix	1.0		443	31.0	female	west_asian	2.364902506963788	neutral	006	sub-12	1.0	6.0	006_neutral	0.0		228.6533342227931	3.7582483592032077
34.0	203.70016369487348	pulse	1.0	t		31.0	female	west_asian	2.364902506963788	neutral	006	sub-12	1.0	6.0	006_neutral	0.0		228.85345671473442	
34.0	204.40015623910494	pulse	1.0	t		31.0	female	west_asian	2.364902506963788	neutral	006	sub-12	1.0	6.0	006_neutral	0.0		229.55344925896588	
34.0	205.10012010730316	pulse	1.0	t		31.0	female	west_asian	2.364902506963788	neutral	006	sub-12	1.0	6.0	006_neutral	0.0		230.2534131271641	
34.0	205.8001126515337	pulse	1.0	t		31.0	female	west_asian	2.364902506963788	neutral	006	sub-12	1.0	6.0	006_neutral	0.0		230.95340567139465	
34.0	206.5000940272048	pulse	1.0	t		31.0	female	west_asian	2.364902506963788	neutral	006	sub-12	1.0	6.0	006_neutral	0.0		231.65338704706573	
34.0	207.2000772139936	pulse	1.0	t		31.0	female	west_asian	2.364902506963788	neutral	006	sub-12	1.0	6.0	006_neutral	0.0		232.35337023385455	
35.0	207.25828956213536	face	0.0		147	22.0	male	black	2.767608436132113	smiling	044	sub-12	1.0	6.0	044_smiling	0.0		232.4115825819963	1.2416378422221896
35.0	207.90007881381462	pulse	0.0	t		22.0	male	black	2.767608436132113	smiling	044	sub-12	1.0	6.0	044_smiling	0.0		233.05337183367556	
35.0	208.49992740435755	fix	1.0		443	22.0	male	black	2.767608436132113	smiling	044	sub-12	1.0	6.0	044_smiling	0.0		233.6532204242185	3.7665638052312715
35.0	208.60013323790736	pulse	1.0	t		22.0	male	black	2.767608436132113	smiling	044	sub-12	1.0	6.0	044_smiling	0.0		233.7534262577683	
35.0	209.30001651135808	pulse	1.0	t		22.0	male	black	2.767608436132113	smiling	044	sub-12	1.0	6.0	044_smiling	0.0		234.45330953121902	
35.0	210.00000090555932	pulse	1.0	t		22.0	male	black	2.767608436132113	smiling	044	sub-12	1.0	6.0	044_smiling	0.0		235.15329392542026	
35.0	210.6999813756711	pulse	1.0	t		22.0	male	black	2.767608436132113	smiling	044	sub-12	1.0	6.0	044_smiling	0.0		235.85327439553203	
35.0	211.39996667543073	pulse	1.0	t		22.0	male	black	2.767608436132113	smiling	044	sub-12	1.0	6.0	044_smiling	0.0		236.55325969529167	
35.0	212.09994201404152	pulse	1.0	t		22.0	male	black	2.767608436132113	smiling	044	sub-12	1.0	6.0	044_smiling	0.0		237.25323503390246	
36.0	212.26649120958882	face	0.0		146	54.0	female	white	2.286908077994429	smiling	136	sub-12	1.0	6.0	136_smiling	0.0		237.41978422944976	1.23330337945481
36.0	212.79992761565427	pulse	0.0	t		54.0	female	white	2.286908077994429	smiling	136	sub-12	1.0	6.0	136_smiling	0.0		237.9532206355152	
36.0	213.49979458904363	fix	1.0		443	54.0	female	white	2.286908077994429	smiling	136	sub-12	1.0	6.0	136_smiling	0.0		238.65308760890457	3.7583223131841805
36.0	213.50794341222445	pulse	1.0	t		54.0	female	white	2.286908077994429	smiling	136	sub-12	1.0	6.0	136_smiling	0.0		238.6612364320854	
36.0	214.1998873484663	pulse	1.0	t		54.0	female	white	2.286908077994429	smiling	136	sub-12	1.0	6.0	136_smiling	0.0		239.35318036832723	
36.0	214.89987838343222	pulse	1.0	t		54.0	female	white	2.286908077994429	smiling	136	sub-12	1.0	6.0	136_smiling	0.0		240.05317140329316	
36.0	215.59984768498362	pulse	1.0	t		54.0	female	white	2.286908077994429	smiling	136	sub-12	1.0	6.0	136_smiling	0.0		240.75314070484455	
36.0	216.2998360032734	pulse	1.0	t		54.0	female	white	2.286908077994429	smiling	136	sub-12	1.0	6.0	136_smiling	0.0		241.45312902313435	
36.0	216.99982884935798	pulse	1.0	t		54.0	female	white	2.286908077994429	smiling	136	sub-12	1.0	6.0	136_smiling	0.0		242.15312186921892	
37.0	217.2581169022278	face	0.0		146	28.0	female	white	5.676880222841227	neutral	124	sub-12	1.0	6.0	124_neutral	0.0		242.41140992208875	1.2415207232643297
37.0	217.69979694349695	pulse	0.0	t		28.0	female	white	5.676880222841227	neutral	124	sub-12	1.0	6.0	124_neutral	0.0		242.8530899633579	
37.0	218.39977258396084	pulse	0.0	t		28.0	female	white	5.676880222841227	neutral	124	sub-12	1.0	6.0	124_neutral	0.0		243.55306560382178	
37.0	218.49963762549214	fix	1.0		444	28.0	female	white	5.676880222841227	neutral	124	sub-12	1.0	6.0	124_neutral	0.0		243.65293064535308	3.758238699906542
37.0	219.09976150595685	pulse	1.0	t		28.0	female	white	5.676880222841227	neutral	124	sub-12	1.0	6.0	124_neutral	0.0		244.2530545258178	
37.0	219.79974227792172	pulse	1.0	t		28.0	female	white	5.676880222841227	neutral	124	sub-12	1.0	6.0	124_neutral	0.0		244.95303529778266	
37.0	220.49971972950334	pulse	1.0	t		28.0	female	white	5.676880222841227	neutral	124	sub-12	1.0	6.0	124_neutral	0.0		245.65301274936428	
37.0	221.19972163117745	pulse	1.0	t		28.0	female	white	5.676880222841227	neutral	124	sub-12	1.0	6.0	124_neutral	0.0		246.3530146510384	
37.0	221.89969063087574	pulse	1.0	t		28.0	female	white	5.676880222841227	neutral	124	sub-12	1.0	6.0	124_neutral	0.0		247.05298365073668	
38.0	222.25787632539868	face	0.0		146	22.0	female	west_asian	3.8205332272184642	neutral	066	sub-12	1.0	6.0	066_neutral	0.0		247.41116934525962	1.2416532367242326
38.0	222.59966778060516	pulse	0.0	t		22.0	female	west_asian	3.8205332272184642	neutral	066	sub-12	1.0	6.0	066_neutral	0.0		247.7529608004661	
38.0	223.29964130809822	pulse	0.0	t		22.0	female	west_asian	3.8205332272184642	neutral	066	sub-12	1.0	6.0	066_neutral	0.0		248.45293432795916	
38.0	223.49952956212292	fix	1.0		444	22.0	female	west_asian	3.8205332272184642	neutral	066	sub-12	1.0	6.0	066_neutral	0.0		248.65282258198386	3.7665638052312715
38.0	223.99963113565263	pulse	1.0	t		22.0	female	west_asian	3.8205332272184642	neutral	066	sub-12	1.0	6.0	066_neutral	0.0		249.15292415551357	
38.0	224.6995998334978	pulse	1.0	t		22.0	female	west_asian	3.8205332272184642	neutral	066	sub-12	1.0	6.0	066_neutral	0.0		249.85289285335875	
38.0	225.39959479255322	pulse	1.0	t		22.0	female	west_asian	3.8205332272184642	neutral	066	sub-12	1.0	6.0	066_neutral	0.0		250.55288781241416	
38.0	226.0995692256056	pulse	1.0	t		22.0	female	west_asian	3.8205332272184642	neutral	066	sub-12	1.0	6.0	066_neutral	0.0		251.25286224546653	
38.0	226.79955573277675	pulse	1.0	t		22.0	female	west_asian	3.8205332272184642	neutral	066	sub-12	1.0	6.0	066_neutral	0.0		251.9528487526377	
39.0	227.2660933673542	face	0.0		145	54.0	female	white	2.286908077994429	neutral	136	sub-12	1.0	6.0	136_neutral	0.0		252.41938638721513	1.2332994553671597
39.0	227.49953559918322	pulse	0.0	t		54.0	female	white	2.286908077994429	neutral	136	sub-12	1.0	6.0	136_neutral	0.0		252.65282861904416	
39.0	228.19953086009082	pulse	0.0	t		54.0	female	white	2.286908077994429	neutral	136	sub-12	1.0	6.0	136_neutral	0.0		253.35282387995176	
39.0	228.49939282272135	fix	1.0		444	54.0	female	white	2.286908077994429	neutral	136	sub-12	1.0	6.0	136_neutral	0.0		253.6526858425823	3.749901520463027
39.0	228.89950167090774	pulse	1.0	t		54.0	female	white	2.286908077994429	neutral	136	sub-12	1.0	6.0	136_neutral	0.0		254.05279469076868	
39.0	229.59947761322474	pulse	1.0	t		54.0	female	white	2.286908077994429	neutral	136	sub-12	1.0	6.0	136_neutral	0.0		254.75277063308567	
39.0	230.29945989445423	pulse	1.0	t		54.0	female	white	2.286908077994429	neutral	136	sub-12	1.0	6.0	136_neutral	0.0		255.45275291431517	
39.0	230.9994536460972	pulse	1.0	t		54.0	female	white	2.286908077994429	neutral	136	sub-12	1.0	6.0	136_neutral	0.0		256.15274666595815	
39.0	231.6994229476486	pulse	1.0	t		54.0	female	white	2.286908077994429	neutral	136	sub-12	1.0	6.0	136_neutral	0.0		256.85271596750954	
40.0	232.24929434318437	fix	0.0		720													257.4025873630453	5.999839414212147
40.0	232.39940945482067	pulse	0.0	t														257.5527024746816	
40.0	233.0993875101085	pulse	0.0	t														258.25268052996944	
40.0	233.79936254686618	pulse	0.0	t														258.9526555667271	
40.0	234.49935116700908	pulse	0.0	t														259.65264418687	
40.0	235.19933012785623	pulse	0.0	t														260.35262314771717	
40.0	235.89931995541065	pulse	0.0	t														261.0526129752716	
40.0	236.59929680328605	pulse	0.0	t														261.752589823147	
40.0	237.29927757525093	pulse	0.0	t														262.45257059511187	
40.0	237.9992586490689	pulse	0.0	t														263.15255166892985	
