trial_nr	onset	event_type	phase	response	nr_frames	face_age	face_sex	face_eth	attractiveness	expression	face_id	sub_id	ses	run	trial_type	catch	rating_type	onset_abs	duration
-1.0	0.05821068073692004	fix	0.0		713													31.600174470551792	5.957873210017169
-1.0	0.6998871072901238	pulse	0.0	t														32.241850897104996	
-1.0	1.3998780517258638	pulse	0.0	t														32.941841841540736	
-1.0	2.099697242279035	pulse	0.0	t														33.64166103209391	
-1.0	2.7998182849969453	pulse	0.0	t														34.34178207481182	
-1.0	3.4996516626015364	pulse	0.0	t														35.04161545241641	
-1.0	4.199632645915699	pulse	0.0	t														35.74159643573057	
-1.0	4.899753688633609	pulse	0.0	t														36.44171747844848	
-1.0	5.599736483060042	pulse	0.0	t														37.141700272874914	
0.0	6.016083890754089	face	0.0		144	27.0	male	black	3.5523278949462798	smiling	042	sub-07	2.0	4.0	042_smiling	0.0		37.55804768056896	1.2333024437948552
0.0	6.299657397792544	pulse	0.0	t		27.0	male	black	3.5523278949462798	smiling	042	sub-07	2.0	4.0	042_smiling	0.0		37.841621187607416	
0.0	6.999640192219886	pulse	0.0	t		27.0	male	black	3.5523278949462798	smiling	042	sub-07	2.0	4.0	042_smiling	0.0		38.54160398203476	
0.0	7.249386334548944	fix	1.0		444	27.0	male	black	3.5523278949462798	smiling	042	sub-07	2.0	4.0	042_smiling	0.0		38.79135012436382	3.758209473327952
0.0	7.699702675618028	pulse	1.0	t		27.0	male	black	3.5523278949462798	smiling	042	sub-07	2.0	4.0	042_smiling	0.0		39.2416664654329	
0.0	8.399537562483602	pulse	1.0	t		27.0	male	black	3.5523278949462798	smiling	042	sub-07	2.0	4.0	042_smiling	0.0		39.941501352298474	
0.0	9.099543901378638	pulse	1.0	t		27.0	male	black	3.5523278949462798	smiling	042	sub-07	2.0	4.0	042_smiling	0.0		40.64150769119351	
0.0	9.799579218082727	pulse	1.0	t		27.0	male	black	3.5523278949462798	smiling	042	sub-07	2.0	4.0	042_smiling	0.0		41.3415430078976	
0.0	10.499437045712511	pulse	1.0	t		27.0	male	black	3.5523278949462798	smiling	042	sub-07	2.0	4.0	042_smiling	0.0		42.041400835527384	
1.0	11.007595807876896	face	0.0		146	19.0	male	white	2.243931555909272	neutral	130	sub-07	2.0	4.0	130_neutral	1.0	attractiveness	42.54955959769177	1.2416347709549882
1.0	11.199512810606393	pulse	0.0	t		19.0	male	white	2.243931555909272	neutral	130	sub-07	2.0	4.0	130_neutral	1.0	attractiveness	42.741476600421265	
1.0	11.899356753036955	pulse	0.0	t		19.0	male	white	2.243931555909272	neutral	130	sub-07	2.0	4.0	130_neutral	1.0	attractiveness	43.44132054285183	
1.0	12.249230578831884	fix	1.0		177	19.0	male	white	2.243931555909272	neutral	130	sub-07	2.0	4.0	130_neutral	1.0	attractiveness	43.79119436864676	1.508317234551214
1.0	12.599333510420365	pulse	1.0	t		19.0	male	white	2.243931555909272	neutral	130	sub-07	2.0	4.0	130_neutral	1.0	attractiveness	44.14129730023524	
1.0	13.299326265968375	pulse	1.0	t		19.0	male	white	2.243931555909272	neutral	130	sub-07	2.0	4.0	130_neutral	1.0	attractiveness	44.84129005578325	
1.0	13.757547813383098	rating	2.0		294	19.0	male	white	2.243931555909272	neutral	130	sub-07	2.0	4.0	130_neutral	1.0	attractiveness	45.29951160319797	2.4998967665596865
1.0	13.999317210403206	pulse	2.0	t		19.0	male	white	2.243931555909272	neutral	130	sub-07	2.0	4.0	130_neutral	1.0	attractiveness	45.54128100021808	
1.0	14.69926438627408	pulse	2.0	t		19.0	male	white	2.243931555909272	neutral	130	sub-07	2.0	4.0	130_neutral	1.0	attractiveness	46.24122817608895	
1.0	15.360683755524406	response	2.0	e		19.0	male	white	2.243931555909272	neutral	130	sub-07	2.0	4.0	130_neutral	1.0	attractiveness	46.90264754533928	
1.0	15.399236012171059	pulse	2.0	t		19.0	male	white	2.243931555909272	neutral	130	sub-07	2.0	4.0	130_neutral	1.0	attractiveness	46.94119980198593	
1.0	16.099221221415064	pulse	2.0	t		19.0	male	white	2.243931555909272	neutral	130	sub-07	2.0	4.0	130_neutral	1.0	attractiveness	47.641185011229936	
1.0	16.257444579942785	fix	3.0		444	19.0	male	white	2.243931555909272	neutral	130	sub-07	2.0	4.0	130_neutral	1.0	attractiveness	47.79940836975766	3.75821671777976
1.0	16.79922061771049	pulse	3.0	t		19.0	male	white	2.243931555909272	neutral	130	sub-07	2.0	4.0	130_neutral	1.0	attractiveness	48.34118440752536	
1.0	17.499186508415733	pulse	3.0	t		19.0	male	white	2.243931555909272	neutral	130	sub-07	2.0	4.0	130_neutral	1.0	attractiveness	49.041150298230605	
1.0	18.199172925068524	pulse	3.0	t		19.0	male	white	2.243931555909272	neutral	130	sub-07	2.0	4.0	130_neutral	1.0	attractiveness	49.741136714883396	
1.0	18.89914666392997	pulse	3.0	t		19.0	male	white	2.243931555909272	neutral	130	sub-07	2.0	4.0	130_neutral	1.0	attractiveness	50.44111045374484	
1.0	19.59916236024219	pulse	3.0	t		19.0	male	white	2.243931555909272	neutral	130	sub-07	2.0	4.0	130_neutral	1.0	attractiveness	51.14112615005706	
2.0	20.015661297722545	face	0.0		146	40.0	male	black	2.408674890569041	smiling	061	sub-07	2.0	4.0	061_smiling	0.0		51.55762508753742	1.2416447320765656
2.0	20.299115573156996	pulse	0.0	t		40.0	male	black	2.408674890569041	smiling	061	sub-07	2.0	4.0	061_smiling	0.0		51.84107936297187	
2.0	20.999087199053065	pulse	0.0	t		40.0	male	black	2.408674890569041	smiling	061	sub-07	2.0	4.0	061_smiling	0.0		52.54105098886794	
2.0	21.25730602979911	fix	1.0		444	40.0	male	black	2.408674890569041	smiling	061	sub-07	2.0	4.0	061_smiling	0.0		52.79926981961398	3.7582112844411313
2.0	21.69907784163661	pulse	1.0	t		40.0	male	black	2.408674890569041	smiling	061	sub-07	2.0	4.0	061_smiling	0.0		53.24104163145148	
2.0	22.399050674941464	pulse	1.0	t		40.0	male	black	2.408674890569041	smiling	061	sub-07	2.0	4.0	061_smiling	0.0		53.941014464756336	
2.0	23.099017471203297	pulse	1.0	t		40.0	male	black	2.408674890569041	smiling	061	sub-07	2.0	4.0	061_smiling	0.0		54.64098126101817	
2.0	23.799007510081537	pulse	1.0	t		40.0	male	black	2.408674890569041	smiling	061	sub-07	2.0	4.0	061_smiling	0.0		55.34097129989641	
2.0	24.498990002656683	pulse	1.0	t		40.0	male	black	2.408674890569041	smiling	061	sub-07	2.0	4.0	061_smiling	0.0		56.040953792471555	
3.0	25.015517314240242	face	0.0		146	34.0	male	white	2.651014723438122	neutral	121	sub-07	2.0	4.0	121_neutral	0.0		56.557481104055114	1.2416329598418088
3.0	25.198968269300167	pulse	0.0	t		34.0	male	white	2.651014723438122	neutral	121	sub-07	2.0	4.0	121_neutral	0.0		56.74093205911504	
3.0	25.898948648909936	pulse	0.0	t		34.0	male	white	2.651014723438122	neutral	121	sub-07	2.0	4.0	121_neutral	0.0		57.44091243872481	
3.0	26.25715027408205	fix	1.0		444	34.0	male	white	2.651014723438122	neutral	121	sub-07	2.0	4.0	121_neutral	0.0		57.79911406389692	3.75821762333635
3.0	26.59891997295381	pulse	1.0	t		34.0	male	white	2.651014723438122	neutral	121	sub-07	2.0	4.0	121_neutral	0.0		58.14088376276868	
3.0	27.298909709980762	pulse	1.0	t		34.0	male	white	2.651014723438122	neutral	121	sub-07	2.0	4.0	121_neutral	0.0		58.840873499795634	
3.0	27.99888948588523	pulse	1.0	t		34.0	male	white	2.651014723438122	neutral	121	sub-07	2.0	4.0	121_neutral	0.0		59.5408532757001	
3.0	28.698865941416443	pulse	1.0	t		34.0	male	white	2.651014723438122	neutral	121	sub-07	2.0	4.0	121_neutral	0.0		60.240829731231315	
3.0	29.398835454348045	pulse	1.0	t		34.0	male	white	2.651014723438122	neutral	121	sub-07	2.0	4.0	121_neutral	0.0		60.94079924416292	
4.0	30.0153678974184	face	0.0		146	31.0	male	west_asian	1.9538400318344609	neutral	070	sub-07	2.0	4.0	070_neutral	0.0		61.55733168723327	1.2416323561374156
4.0	30.098816135809102	pulse	0.0	t		31.0	male	west_asian	1.9538400318344609	neutral	070	sub-07	2.0	4.0	070_neutral	0.0		61.640779925623974	
4.0	30.79878081910647	pulse	0.0	t		31.0	male	west_asian	1.9538400318344609	neutral	070	sub-07	2.0	4.0	070_neutral	0.0		62.34074460892134	
4.0	31.257000253555816	fix	1.0		444	31.0	male	west_asian	1.9538400318344609	neutral	070	sub-07	2.0	4.0	070_neutral	0.0		62.79896404337069	3.7665384801139226
4.0	31.498766632053957	pulse	1.0	t		31.0	male	west_asian	1.9538400318344609	neutral	070	sub-07	2.0	4.0	070_neutral	0.0		63.04073042186883	
4.0	32.19879168578427	pulse	1.0	t		31.0	male	west_asian	1.9538400318344609	neutral	070	sub-07	2.0	4.0	070_neutral	0.0		63.740755475599144	
4.0	32.89872950423796	pulse	1.0	t		31.0	male	west_asian	1.9538400318344609	neutral	070	sub-07	2.0	4.0	070_neutral	0.0		64.44069329405283	
4.0	33.59870897829114	pulse	1.0	t		31.0	male	west_asian	1.9538400318344609	neutral	070	sub-07	2.0	4.0	070_neutral	0.0		65.14067276810601	
4.0	34.29867909492623	pulse	1.0	t		31.0	male	west_asian	1.9538400318344609	neutral	070	sub-07	2.0	4.0	070_neutral	0.0		65.8406428847411	
4.0	34.99865373934517	pulse	1.0	t		31.0	male	west_asian	1.9538400318344609	neutral	070	sub-07	2.0	4.0	070_neutral	0.0		66.54061752916004	
5.0	35.02353873366974	face	0.0		146	20.0	male	black	2.609629924393156	smiling	043	sub-07	2.0	4.0	043_smiling	0.0		66.56550252348461	1.2333217623336168
5.0	35.698680000483364	pulse	0.0	t		20.0	male	black	2.609629924393156	smiling	043	sub-07	2.0	4.0	043_smiling	0.0		67.24064379029824	
5.0	36.256860496003355	fix	1.0		443	20.0	male	black	2.609629924393156	smiling	043	sub-07	2.0	4.0	043_smiling	0.0		67.79882428581823	3.766543007896871
5.0	36.39866400231858	pulse	1.0	t		20.0	male	black	2.609629924393156	smiling	043	sub-07	2.0	4.0	043_smiling	0.0		67.94062779213345	
5.0	37.09862325227641	pulse	1.0	t		20.0	male	black	2.609629924393156	smiling	043	sub-07	2.0	4.0	043_smiling	0.0		68.64058704209128	
5.0	37.79860997078049	pulse	1.0	t		20.0	male	black	2.609629924393156	smiling	043	sub-07	2.0	4.0	043_smiling	0.0		69.34057376059536	
5.0	38.49857495593005	pulse	1.0	t		20.0	male	black	2.609629924393156	smiling	043	sub-07	2.0	4.0	043_smiling	0.0		70.04053874574493	
5.0	39.19856016517406	pulse	1.0	t		20.0	male	black	2.609629924393156	smiling	043	sub-07	2.0	4.0	043_smiling	0.0		70.74052395498893	
5.0	39.898552317017675	pulse	1.0	t		20.0	male	black	2.609629924393156	smiling	043	sub-07	2.0	4.0	043_smiling	0.0		71.44051610683255	
6.0	40.02340350390023	face	0.0		146	30.0	female	black	2.7345801830481498	smiling	062	sub-07	2.0	4.0	062_smiling	0.0		71.5653672937151	1.2333130086208257
6.0	40.59852152809617	pulse	0.0	t		30.0	female	black	2.7345801830481498	smiling	062	sub-07	2.0	4.0	062_smiling	0.0		72.14048531791104	
6.0	41.25671651252105	fix	1.0		444	30.0	female	black	2.7345801830481498	smiling	062	sub-07	2.0	4.0	062_smiling	0.0		72.79868030233592	3.7665405930792986
6.0	41.29850281326253	pulse	1.0	t		30.0	female	black	2.7345801830481498	smiling	062	sub-07	2.0	4.0	062_smiling	0.0		72.8404666030774	
6.0	41.998473835454206	pulse	1.0	t		30.0	female	black	2.7345801830481498	smiling	062	sub-07	2.0	4.0	062_smiling	0.0		73.54043762526908	
6.0	42.69843972615945	pulse	1.0	t		30.0	female	black	2.7345801830481498	smiling	062	sub-07	2.0	4.0	062_smiling	0.0		74.24040351597432	
6.0	43.398423124291185	pulse	1.0	t		30.0	female	black	2.7345801830481498	smiling	062	sub-07	2.0	4.0	062_smiling	0.0		74.94038691410606	
6.0	44.09839656130043	pulse	1.0	t		30.0	female	black	2.7345801830481498	smiling	062	sub-07	2.0	4.0	062_smiling	0.0		75.6403603511153	
6.0	44.79836365941446	pulse	1.0	t		30.0	female	black	2.7345801830481498	smiling	062	sub-07	2.0	4.0	062_smiling	0.0		76.34032744922933	
7.0	45.02325710560035	face	0.0		145	26.0	female	white	4.854755272582572	smiling	027	sub-07	2.0	4.0	027_smiling	0.0		76.56522089541522	1.2333075752812874
7.0	45.49835158532733	pulse	0.0	t		26.0	female	white	4.854755272582572	smiling	027	sub-07	2.0	4.0	027_smiling	0.0		77.0403153751422	
7.0	46.198319890850144	pulse	0.0	t		26.0	female	white	4.854755272582572	smiling	027	sub-07	2.0	4.0	027_smiling	0.0		77.74028368066502	
7.0	46.25656468088164	fix	1.0		445	26.0	female	white	4.854755272582572	smiling	027	sub-07	2.0	4.0	027_smiling	0.0		77.79852847069651	3.766566552365475
7.0	46.89831325010255	pulse	1.0	t		26.0	female	white	4.854755272582572	smiling	027	sub-07	2.0	4.0	027_smiling	0.0		78.44027703991742	
7.0	47.5983029871295	pulse	1.0	t		26.0	female	white	4.854755272582572	smiling	027	sub-07	2.0	4.0	027_smiling	0.0		79.14026677694437	
7.0	48.29826193523513	pulse	1.0	t		26.0	female	white	4.854755272582572	smiling	027	sub-07	2.0	4.0	027_smiling	0.0		79.84022572505	
7.0	48.998249861148	pulse	1.0	t		26.0	female	white	4.854755272582572	smiling	027	sub-07	2.0	4.0	027_smiling	0.0		80.54021365096287	
7.0	49.698236579652985	pulse	1.0	t		26.0	female	white	4.854755272582572	smiling	027	sub-07	2.0	4.0	027_smiling	0.0		81.24020036946786	
8.0	50.02313123324711	face	0.0		145	31.0	male	west_asian	1.9538400318344609	smiling	070	sub-07	2.0	4.0	070_smiling	0.0		81.56509502306199	1.2332788993262511
8.0	50.398184962932646	pulse	0.0	t		31.0	male	west_asian	1.9538400318344609	smiling	070	sub-07	2.0	4.0	070_smiling	0.0		81.94014875274752	
8.0	51.09820065924487	pulse	0.0	t		31.0	male	west_asian	1.9538400318344609	smiling	070	sub-07	2.0	4.0	070_smiling	0.0		82.64016444905974	
8.0	51.256410132573365	fix	1.0		444	31.0	male	west_asian	1.9538400318344609	smiling	070	sub-07	2.0	4.0	070_smiling	0.0		82.79837392238824	3.766549950496483
8.0	51.79817741662828	pulse	1.0	t		31.0	male	west_asian	1.9538400318344609	smiling	070	sub-07	2.0	4.0	070_smiling	0.0		83.34014120644315	
8.0	52.49812368694347	pulse	1.0	t		31.0	male	west_asian	1.9538400318344609	smiling	070	sub-07	2.0	4.0	070_smiling	0.0		84.04008747675834	
8.0	53.19812640361306	pulse	1.0	t		31.0	male	west_asian	1.9538400318344609	smiling	070	sub-07	2.0	4.0	070_smiling	0.0		84.74009019342793	
8.0	53.89814149622089	pulse	1.0	t		31.0	male	west_asian	1.9538400318344609	smiling	070	sub-07	2.0	4.0	070_smiling	0.0		85.44010528603576	
8.0	54.59808354060533	pulse	1.0	t		31.0	male	west_asian	1.9538400318344609	smiling	070	sub-07	2.0	4.0	070_smiling	0.0		86.1400473304202	
9.0	55.02296008306985	face	0.0		145	36.0	female	white	2.7548746518105847	smiling	011	sub-07	2.0	4.0	011_smiling	0.0		86.56492387288472	1.2332936900820641
9.0	55.29807901282311	pulse	0.0	t		36.0	female	white	2.7548746518105847	smiling	011	sub-07	2.0	4.0	011_smiling	0.0		86.84004280263798	
9.0	55.99806120354515	pulse	0.0	t		36.0	female	white	2.7548746518105847	smiling	011	sub-07	2.0	4.0	011_smiling	0.0		87.54002499336002	
9.0	56.25625377315191	fix	1.0		444	36.0	female	white	2.7548746518105847	smiling	011	sub-07	2.0	4.0	011_smiling	0.0		87.79821756296678	3.7665623264356327
9.0	56.69803192388554	pulse	1.0	t		36.0	female	white	2.7548746518105847	smiling	011	sub-07	2.0	4.0	011_smiling	0.0		88.23999571370041	
9.0	57.39801351090318	pulse	1.0	t		36.0	female	white	2.7548746518105847	smiling	011	sub-07	2.0	4.0	011_smiling	0.0		88.93997730071806	
9.0	58.09797728864305	pulse	1.0	t		36.0	female	white	2.7548746518105847	smiling	011	sub-07	2.0	4.0	011_smiling	0.0		89.63994107845792	
9.0	58.797957366400624	pulse	1.0	t		36.0	female	white	2.7548746518105847	smiling	011	sub-07	2.0	4.0	011_smiling	0.0		90.3399211562155	
9.0	59.497942877496826	pulse	1.0	t		36.0	female	white	2.7548746518105847	smiling	011	sub-07	2.0	4.0	011_smiling	0.0		91.0399066673117	
10.0	60.022816099587544	face	0.0		145	31.0	female	west_asian	2.364902506963788	neutral	006	sub-07	2.0	4.0	006_neutral	0.0		91.56477988940242	1.2333048586124278
10.0	60.19793140711408	pulse	0.0	t		31.0	female	west_asian	2.364902506963788	neutral	006	sub-07	2.0	4.0	006_neutral	0.0		91.73989519692896	
10.0	60.897905447827725	pulse	0.0	t		31.0	female	west_asian	2.364902506963788	neutral	006	sub-07	2.0	4.0	006_neutral	0.0		92.4398692376426	
10.0	61.25612095819997	fix	1.0		444	31.0	female	west_asian	2.364902506963788	neutral	006	sub-07	2.0	4.0	006_neutral	0.0		92.79808474801484	3.766544215304748
10.0	61.59788431817651	pulse	1.0	t		31.0	female	west_asian	2.364902506963788	neutral	006	sub-07	2.0	4.0	006_neutral	0.0		93.13984810799138	
10.0	62.29785956629894	pulse	1.0	t		31.0	female	west_asian	2.364902506963788	neutral	006	sub-07	2.0	4.0	006_neutral	0.0		93.83982335611381	
10.0	62.99784869962059	pulse	1.0	t		31.0	female	west_asian	2.364902506963788	neutral	006	sub-07	2.0	4.0	006_neutral	0.0		94.53981248943546	
10.0	63.69782817367377	pulse	1.0	t		31.0	female	west_asian	2.364902506963788	neutral	006	sub-07	2.0	4.0	006_neutral	0.0		95.23979196348864	
10.0	64.3977711236148	pulse	1.0	t		31.0	female	west_asian	2.364902506963788	neutral	006	sub-07	2.0	4.0	006_neutral	0.0		95.93973491342967	
11.0	65.02266517350472	face	0.0		145	37.0	male	white	3.898925586947871	smiling	101	sub-07	2.0	4.0	101_smiling	0.0		96.56462896331959	1.2332970104562264
11.0	65.09777957547522	pulse	0.0	t		37.0	male	white	3.898925586947871	smiling	101	sub-07	2.0	4.0	101_smiling	0.0		96.63974336529009	
11.0	65.79775784211961	pulse	0.0	t		37.0	male	white	3.898925586947871	smiling	101	sub-07	2.0	4.0	101_smiling	0.0		97.33972163193448	
11.0	66.25596218396095	fix	1.0		444	37.0	male	white	3.898925586947871	smiling	101	sub-07	2.0	4.0	101_smiling	0.0		97.79792597377582	3.766538781966119
11.0	66.49774667358906	pulse	1.0	t		37.0	male	white	3.898925586947871	smiling	101	sub-07	2.0	4.0	101_smiling	0.0		98.03971046340394	
11.0	67.19772584579005	pulse	1.0	t		37.0	male	white	3.898925586947871	smiling	101	sub-07	2.0	4.0	101_smiling	0.0		98.73968963560492	
11.0	67.8976986790949	pulse	1.0	t		37.0	male	white	3.898925586947871	smiling	101	sub-07	2.0	4.0	101_smiling	0.0		99.43966246890977	
11.0	68.59767513462612	pulse	1.0	t		37.0	male	white	3.898925586947871	smiling	101	sub-07	2.0	4.0	101_smiling	0.0		100.13963892444099	
11.0	69.29764977904415	pulse	1.0	t		37.0	male	white	3.898925586947871	smiling	101	sub-07	2.0	4.0	101_smiling	0.0		100.83961356885902	
11.0	69.99762714013195	pulse	1.0	t		37.0	male	white	3.898925586947871	smiling	101	sub-07	2.0	4.0	101_smiling	0.0		101.53959092994683	
12.0	70.02250096592707	face	0.0		146	34.0	male	white	2.651014723438122	smiling	121	sub-07	2.0	4.0	121_smiling	1.0	dominance	101.56446475574194	1.2333166308471846
12.0	70.69761899012337	pulse	0.0	t		34.0	male	white	2.651014723438122	smiling	121	sub-07	2.0	4.0	121_smiling	1.0	dominance	102.23958277993825	
12.0	71.25581759677425	fix	1.0		177	34.0	male	white	2.651014723438122	smiling	121	sub-07	2.0	4.0	121_smiling	1.0	dominance	102.79778138658912	1.4999604573658871
12.0	71.3976023882542	pulse	1.0	t		34.0	male	white	2.651014723438122	smiling	121	sub-07	2.0	4.0	121_smiling	1.0	dominance	102.93956617806907	
12.0	72.09756918451603	pulse	1.0	t		34.0	male	white	2.651014723438122	smiling	121	sub-07	2.0	4.0	121_smiling	1.0	dominance	103.6395329743309	
12.0	72.75577805414014	rating	2.0		293	34.0	male	white	2.651014723438122	smiling	121	sub-07	2.0	4.0	121_smiling	1.0	dominance	104.29774184395501	2.4999275554810083
12.0	72.79755288449905	pulse	2.0	t		34.0	male	white	2.651014723438122	smiling	121	sub-07	2.0	4.0	121_smiling	1.0	dominance	104.33951667431393	
12.0	73.49753960300404	pulse	2.0	t		34.0	male	white	2.651014723438122	smiling	121	sub-07	2.0	4.0	121_smiling	1.0	dominance	105.03950339281892	
12.0	74.19751786964844	pulse	2.0	t		34.0	male	white	2.651014723438122	smiling	121	sub-07	2.0	4.0	121_smiling	1.0	dominance	105.73948165946331	
12.0	74.7672384752841	response	2.0	b		34.0	male	white	2.651014723438122	smiling	121	sub-07	2.0	4.0	121_smiling	1.0	dominance	106.30920226509897	
12.0	74.89748345850148	pulse	2.0	t		34.0	male	white	2.651014723438122	smiling	121	sub-07	2.0	4.0	121_smiling	1.0	dominance	106.43944724831636	
12.0	74.95580944676567	response	2.0	g		34.0	male	white	2.651014723438122	smiling	121	sub-07	2.0	4.0	121_smiling	1.0	dominance	106.49777323658054	
12.0	75.25570560962115	fix	3.0		444	34.0	male	white	2.651014723438122	smiling	121	sub-07	2.0	4.0	121_smiling	1.0	dominance	106.79766939943602	3.7665445171569445
12.0	75.59746444181474	pulse	3.0	t		34.0	male	white	2.651014723438122	smiling	121	sub-07	2.0	4.0	121_smiling	1.0	dominance	107.13942823162961	
12.0	76.29744904735435	pulse	3.0	t		34.0	male	white	2.651014723438122	smiling	121	sub-07	2.0	4.0	121_smiling	1.0	dominance	107.83941283716922	
12.0	76.99742610658996	pulse	3.0	t		34.0	male	white	2.651014723438122	smiling	121	sub-07	2.0	4.0	121_smiling	1.0	dominance	108.53938989640483	
12.0	77.69741312694714	pulse	3.0	t		34.0	male	white	2.651014723438122	smiling	121	sub-07	2.0	4.0	121_smiling	1.0	dominance	109.23937691676201	
12.0	78.39738958247835	pulse	3.0	t		34.0	male	white	2.651014723438122	smiling	121	sub-07	2.0	4.0	121_smiling	1.0	dominance	109.93935337229323	
13.0	79.02225012677809	face	0.0		145	27.0	female	white	3.504576203740549	neutral	144	sub-07	2.0	4.0	144_neutral	0.0		110.56421391659296	1.2333006326816758
13.0	79.09736483060078	pulse	0.0	t		27.0	female	white	3.504576203740549	neutral	144	sub-07	2.0	4.0	144_neutral	0.0		110.63932862041565	
13.0	79.79730778054181	pulse	0.0	t		27.0	female	white	3.504576203740549	neutral	144	sub-07	2.0	4.0	144_neutral	0.0		111.33927157035669	
13.0	80.25555075945977	fix	1.0		444	27.0	female	white	3.504576203740549	neutral	144	sub-07	2.0	4.0	144_neutral	0.0		111.79751454927464	3.7665671560698684
13.0	80.49733223056683	pulse	1.0	t		27.0	female	white	3.504576203740549	neutral	144	sub-07	2.0	4.0	144_neutral	0.0		112.0392960203817	
13.0	81.19730566757607	pulse	1.0	t		27.0	female	white	3.504576203740549	neutral	144	sub-07	2.0	4.0	144_neutral	0.0		112.73926945739095	
13.0	81.89728695274243	pulse	1.0	t		27.0	female	white	3.504576203740549	neutral	144	sub-07	2.0	4.0	144_neutral	0.0		113.4392507425573	
13.0	82.5972830286637	pulse	1.0	t		27.0	female	white	3.504576203740549	neutral	144	sub-07	2.0	4.0	144_neutral	0.0		114.13924681847857	
13.0	83.29725073048212	pulse	1.0	t		27.0	female	white	3.504576203740549	neutral	144	sub-07	2.0	4.0	144_neutral	0.0		114.83921452029699	
13.0	83.9972139045185	pulse	1.0	t		27.0	female	white	3.504576203740549	neutral	144	sub-07	2.0	4.0	144_neutral	0.0		115.53917769433338	
14.0	84.02211791552963	face	0.0		146	31.0	female	east_asian	3.395941106247513	neutral	087	sub-07	2.0	4.0	087_neutral	0.0		115.5640817053445	1.2332788993262511
14.0	84.69719307671858	pulse	0.0	t		31.0	female	east_asian	3.395941106247513	neutral	087	sub-07	2.0	4.0	087_neutral	0.0		116.23915686653345	
14.0	85.25539681485589	fix	1.0		443	31.0	female	east_asian	3.395941106247513	neutral	087	sub-07	2.0	4.0	087_neutral	0.0		116.79736060467076	3.766558704209274
14.0	85.39717828596258	pulse	1.0	t		31.0	female	east_asian	3.395941106247513	neutral	087	sub-07	2.0	4.0	087_neutral	0.0		116.93914207577745	
14.0	86.09715051556395	pulse	1.0	t		31.0	female	east_asian	3.395941106247513	neutral	087	sub-07	2.0	4.0	087_neutral	0.0		117.63911430537883	
14.0	86.7971324044338	pulse	1.0	t		31.0	female	east_asian	3.395941106247513	neutral	087	sub-07	2.0	4.0	087_neutral	0.0		118.33909619424867	
14.0	87.49711942479098	pulse	1.0	t		31.0	female	east_asian	3.395941106247513	neutral	087	sub-07	2.0	4.0	087_neutral	0.0		119.03908321460585	
14.0	88.19710131366082	pulse	1.0	t		31.0	female	east_asian	3.395941106247513	neutral	087	sub-07	2.0	4.0	087_neutral	0.0		119.7390651034757	
14.0	88.89707354326129	pulse	1.0	t		31.0	female	east_asian	3.395941106247513	neutral	087	sub-07	2.0	4.0	087_neutral	0.0		120.43903733307616	
15.0	89.02195551906516	face	0.0		146	36.0	female	white	2.7548746518105847	neutral	011	sub-07	2.0	4.0	011_neutral	0.0		120.56391930888003	1.2332846345170765
15.0	89.59705694139211	pulse	0.0	t		36.0	female	white	2.7548746518105847	neutral	011	sub-07	2.0	4.0	011_neutral	0.0		121.13902073120698	
15.0	90.25524015358224	fix	1.0		443	36.0	female	white	2.7548746518105847	neutral	011	sub-07	2.0	4.0	011_neutral	0.0		121.79720394339711	3.766568061626458
15.0	90.29703400062772	pulse	1.0	t		36.0	female	white	2.7548746518105847	neutral	011	sub-07	2.0	4.0	011_neutral	0.0		121.83899779044259	
15.0	90.99700260800273	pulse	1.0	t		36.0	female	white	2.7548746518105847	neutral	011	sub-07	2.0	4.0	011_neutral	0.0		122.5389663978176	
15.0	91.69698872280333	pulse	1.0	t		36.0	female	white	2.7548746518105847	neutral	011	sub-07	2.0	4.0	011_neutral	0.0		123.2389525126182	
15.0	92.39697363019513	pulse	1.0	t		36.0	female	white	2.7548746518105847	neutral	011	sub-07	2.0	4.0	011_neutral	0.0		123.93893742001	
15.0	93.09695038757854	pulse	1.0	t		36.0	female	white	2.7548746518105847	neutral	011	sub-07	2.0	4.0	011_neutral	0.0		124.63891417739342	
15.0	93.79692623940537	pulse	1.0	t		36.0	female	white	2.7548746518105847	neutral	011	sub-07	2.0	4.0	011_neutral	0.0		125.33889002922024	
16.0	94.0218082152087	face	0.0		145	28.0	male	white	3.9076800636689217	neutral	033	sub-07	2.0	4.0	033_neutral	0.0		125.56377200502357	1.2332997271259956
16.0	94.49690752457082	pulse	0.0	t		28.0	male	white	3.9076800636689217	neutral	033	sub-07	2.0	4.0	033_neutral	0.0		126.03887131438569	
16.0	95.1968543985895	pulse	0.0	t		28.0	male	white	3.9076800636689217	neutral	033	sub-07	2.0	4.0	033_neutral	0.0		126.73881818840437	
16.0	95.25510794233469	fix	1.0		444	28.0	male	white	3.9076800636689217	neutral	033	sub-07	2.0	4.0	033_neutral	0.0		126.79707173214956	3.766569269034335
16.0	95.89687552824125	pulse	1.0	t		28.0	male	white	3.9076800636689217	neutral	033	sub-07	2.0	4.0	033_neutral	0.0		127.43883931805613	
16.0	96.59683990968551	pulse	1.0	t		28.0	male	white	3.9076800636689217	neutral	033	sub-07	2.0	4.0	033_neutral	0.0		128.1388036995004	
16.0	97.2968272318949	pulse	1.0	t		28.0	male	white	3.9076800636689217	neutral	033	sub-07	2.0	4.0	033_neutral	0.0		128.83879102170977	
16.0	97.9968124411389	pulse	1.0	t		28.0	male	white	3.9076800636689217	neutral	033	sub-07	2.0	4.0	033_neutral	0.0		129.53877623095377	
16.0	98.69678014295732	pulse	1.0	t		28.0	male	white	3.9076800636689217	neutral	033	sub-07	2.0	4.0	033_neutral	0.0		130.2387439327722	
17.0	99.02167721136902	face	0.0		145	19.0	male	white	3.2522881018702745	neutral	018	sub-07	2.0	4.0	018_neutral	0.0		130.5636410011839	1.2332822197004134
17.0	99.39676595590572	pulse	0.0	t		19.0	male	white	3.2522881018702745	neutral	018	sub-07	2.0	4.0	018_neutral	0.0		130.9387297457206	
17.0	100.09673788365399	pulse	0.0	t		19.0	male	white	3.2522881018702745	neutral	018	sub-07	2.0	4.0	018_neutral	0.0		131.63870167346886	
17.0	100.25495943106944	fix	1.0		444	19.0	male	white	3.2522881018702745	neutral	018	sub-07	2.0	4.0	018_neutral	0.0		131.7969232208843	3.7582855400733024
17.0	100.79672520586337	pulse	1.0	t		19.0	male	white	3.2522881018702745	neutral	018	sub-07	2.0	4.0	018_neutral	0.0		132.33868899567824	
17.0	101.49668022989044	pulse	1.0	t		19.0	male	white	3.2522881018702745	neutral	018	sub-07	2.0	4.0	018_neutral	0.0		133.03864401970532	
17.0	102.19668868175177	pulse	1.0	t		19.0	male	white	3.2522881018702745	neutral	018	sub-07	2.0	4.0	018_neutral	0.0		133.73865247156664	
17.0	102.896671174326	pulse	1.0	t		19.0	male	white	3.2522881018702745	neutral	018	sub-07	2.0	4.0	018_neutral	0.0		134.43863496414087	
17.0	103.59664310207427	pulse	1.0	t		19.0	male	white	3.2522881018702745	neutral	018	sub-07	2.0	4.0	018_neutral	0.0		135.13860689188914	
18.0	104.01324497114274	face	0.0		146	22.0	male	black	2.767608436132113	neutral	044	sub-07	2.0	4.0	044_neutral	0.0		135.5552087609576	1.2415662505136424
18.0	104.29662770761388	pulse	0.0	t		22.0	male	black	2.767608436132113	neutral	044	sub-07	2.0	4.0	044_neutral	0.0		135.83859149742875	
18.0	104.99659239091034	pulse	0.0	t		22.0	male	black	2.767608436132113	neutral	044	sub-07	2.0	4.0	044_neutral	0.0		136.5385561807252	
18.0	105.25481122165638	fix	1.0		444	22.0	male	black	2.767608436132113	neutral	044	sub-07	2.0	4.0	044_neutral	0.0		136.79677501147125	3.7665532708697356
18.0	105.69658665571933	pulse	1.0	t		22.0	male	black	2.767608436132113	neutral	044	sub-07	2.0	4.0	044_neutral	0.0		137.2385504455342	
18.0	106.39654922605132	pulse	1.0	t		22.0	male	black	2.767608436132113	neutral	044	sub-07	2.0	4.0	044_neutral	0.0		137.9385130158662	
18.0	107.09654288715592	pulse	1.0	t		22.0	male	black	2.767608436132113	neutral	044	sub-07	2.0	4.0	044_neutral	0.0		138.6385066769708	
18.0	107.79652085194812	pulse	1.0	t		22.0	male	black	2.767608436132113	neutral	044	sub-07	2.0	4.0	044_neutral	0.0		139.338484641763	
18.0	108.49650425007894	pulse	1.0	t		22.0	male	black	2.767608436132113	neutral	044	sub-07	2.0	4.0	044_neutral	0.0		140.03846803989381	
19.0	109.02136449252612	face	0.0		145	40.0	female	west_asian	1.5777954635893354	neutral	038	sub-07	2.0	4.0	038_neutral	0.0		140.563328282341	1.2333000289781921
19.0	109.19647406486183	pulse	0.0	t		40.0	female	west_asian	1.5777954635893354	neutral	038	sub-07	2.0	4.0	038_neutral	0.0		140.7384378546767	
19.0	109.89645263335842	pulse	0.0	t		40.0	female	west_asian	1.5777954635893354	neutral	038	sub-07	2.0	4.0	038_neutral	0.0		141.4384164231733	
19.0	110.25466452150431	fix	1.0		444	40.0	female	west_asian	1.5777954635893354	neutral	038	sub-07	2.0	4.0	038_neutral	0.0		141.79662831131918	3.766551459756556
19.0	110.5964396537156	pulse	1.0	t		40.0	female	west_asian	1.5777954635893354	neutral	038	sub-07	2.0	4.0	038_neutral	0.0		142.13840344353048	
19.0	111.29640735553403	pulse	1.0	t		40.0	female	west_asian	1.5777954635893354	neutral	038	sub-07	2.0	4.0	038_neutral	0.0		142.8383711453489	
19.0	111.9963865277341	pulse	1.0	t		40.0	female	west_asian	1.5777954635893354	neutral	038	sub-07	2.0	4.0	038_neutral	0.0		143.53835031754897	
19.0	112.69637052956932	pulse	1.0	t		40.0	female	west_asian	1.5777954635893354	neutral	038	sub-07	2.0	4.0	038_neutral	0.0		144.2383343193842	
19.0	113.39634819250932	pulse	1.0	t		40.0	female	west_asian	1.5777954635893354	neutral	038	sub-07	2.0	4.0	038_neutral	0.0		144.9383119823242	
20.0	114.02121598126087	face	0.0		145	19.0	female	white	4.298846000795861	neutral	100	sub-07	2.0	4.0	100_neutral	0.0		145.56317977107574	1.2333021419435681
20.0	114.09633370360552	pulse	0.0	t		19.0	female	white	4.298846000795861	neutral	100	sub-07	2.0	4.0	100_neutral	0.0		145.6382974934204	
20.0	114.79629989616296	pulse	0.0	t		19.0	female	white	4.298846000795861	neutral	100	sub-07	2.0	4.0	100_neutral	0.0		146.33826368597784	
20.0	115.25451812320443	fix	1.0		1185	19.0	female	white	4.298846000795861	neutral	100	sub-07	2.0	4.0	100_neutral	0.0		146.7964819130193	10.016364613266887
20.0	115.49629959431059	pulse	1.0	t		19.0	female	white	4.298846000795861	neutral	100	sub-07	2.0	4.0	100_neutral	0.0		147.03826338412546	
20.0	116.19626699427681	pulse	1.0	t		19.0	female	white	4.298846000795861	neutral	100	sub-07	2.0	4.0	100_neutral	0.0		147.73823078409168	
20.0	116.89624284610363	pulse	1.0	t		19.0	female	white	4.298846000795861	neutral	100	sub-07	2.0	4.0	100_neutral	0.0		148.4382066359185	
20.0	117.59625129796405	pulse	1.0	t		19.0	female	white	4.298846000795861	neutral	100	sub-07	2.0	4.0	100_neutral	0.0		149.13821508777892	
20.0	118.29620451087885	pulse	1.0	t		19.0	female	white	4.298846000795861	neutral	100	sub-07	2.0	4.0	100_neutral	0.0		149.83816830069372	
20.0	118.9961541015673	pulse	1.0	t		19.0	female	white	4.298846000795861	neutral	100	sub-07	2.0	4.0	100_neutral	0.0		150.53811789138217	
20.0	119.69615712008908	pulse	1.0	t		19.0	female	white	4.298846000795861	neutral	100	sub-07	2.0	4.0	100_neutral	0.0		151.23812090990396	
20.0	120.39613538673348	pulse	1.0	t		19.0	female	white	4.298846000795861	neutral	100	sub-07	2.0	4.0	100_neutral	0.0		151.93809917654835	
20.0	121.09611425708135	pulse	1.0	t		19.0	female	white	4.298846000795861	neutral	100	sub-07	2.0	4.0	100_neutral	0.0		152.63807804689623	
20.0	121.7960961459521	pulse	1.0	t		19.0	female	white	4.298846000795861	neutral	100	sub-07	2.0	4.0	100_neutral	0.0		153.33805993576698	
20.0	122.49608346816058	pulse	1.0	t		19.0	female	white	4.298846000795861	neutral	100	sub-07	2.0	4.0	100_neutral	0.0		154.03804725797545	
20.0	123.19606022554399	pulse	1.0	t		19.0	female	white	4.298846000795861	neutral	100	sub-07	2.0	4.0	100_neutral	0.0		154.73802401535886	
20.0	123.89604030330156	pulse	1.0	t		19.0	female	white	4.298846000795861	neutral	100	sub-07	2.0	4.0	100_neutral	0.0		155.43800409311643	
20.0	124.59601011808445	pulse	1.0	t		19.0	female	white	4.298846000795861	neutral	100	sub-07	2.0	4.0	100_neutral	0.0		156.13797390789932	
21.0	125.27088273647132	face	0.0		145	19.0	male	white	2.243931555909272	smiling	130	sub-07	2.0	4.0	130_smiling	1.0	trustworthiness	156.8128465262862	1.233297312308423
21.0	125.29601977735365	pulse	0.0	t		19.0	male	white	2.243931555909272	smiling	130	sub-07	2.0	4.0	130_smiling	1.0	trustworthiness	156.83798356716852	
21.0	125.99598687546768	pulse	0.0	t		19.0	male	white	2.243931555909272	smiling	130	sub-07	2.0	4.0	130_smiling	1.0	trustworthiness	157.53795066528255	
21.0	126.50418004877974	fix	1.0		177	19.0	male	white	2.243931555909272	smiling	130	sub-07	2.0	4.0	130_smiling	1.0	trustworthiness	158.04614383859462	1.4999610610702803
21.0	126.69595699210367	pulse	1.0	t		19.0	male	white	2.243931555909272	smiling	130	sub-07	2.0	4.0	130_smiling	1.0	trustworthiness	158.23792078191855	
21.0	127.39593676800905	pulse	1.0	t		19.0	male	white	2.243931555909272	smiling	130	sub-07	2.0	4.0	130_smiling	1.0	trustworthiness	158.93790055782392	
21.0	128.00414110985002	rating	2.0		294	19.0	male	white	2.243931555909272	smiling	130	sub-07	2.0	4.0	130_smiling	1.0	trustworthiness	159.5461048996649	2.499921518437077
21.0	128.09594823839052	pulse	2.0	t		19.0	male	white	2.243931555909272	smiling	130	sub-07	2.0	4.0	130_smiling	1.0	trustworthiness	159.6379120282054	
21.0	128.79589420685352	pulse	2.0	t		19.0	male	white	2.243931555909272	smiling	130	sub-07	2.0	4.0	130_smiling	1.0	trustworthiness	160.3378579966684	
21.0	129.49587609572336	pulse	2.0	t		19.0	male	white	2.243931555909272	smiling	130	sub-07	2.0	4.0	130_smiling	1.0	trustworthiness	161.03783988553823	
21.0	130.11571321629526	response	2.0	w		19.0	male	white	2.243931555909272	smiling	130	sub-07	2.0	4.0	130_smiling	1.0	trustworthiness	161.65767700611013	
21.0	130.1958498345848	pulse	2.0	t		19.0	male	white	2.243931555909272	smiling	130	sub-07	2.0	4.0	130_smiling	1.0	trustworthiness	161.73781362439968	
21.0	130.5040626282871	fix	3.0		444	19.0	male	white	2.243931555909272	smiling	130	sub-07	2.0	4.0	130_smiling	1.0	trustworthiness	162.04602641810197	3.7665541764263253
21.0	130.89583051604677	pulse	3.0	t		19.0	male	white	2.243931555909272	smiling	130	sub-07	2.0	4.0	130_smiling	1.0	trustworthiness	162.43779430586164	
21.0	131.59580697157799	pulse	3.0	t		19.0	male	white	2.243931555909272	smiling	130	sub-07	2.0	4.0	130_smiling	1.0	trustworthiness	163.13777076139286	
21.0	132.29578765303904	pulse	3.0	t		19.0	male	white	2.243931555909272	smiling	130	sub-07	2.0	4.0	130_smiling	1.0	trustworthiness	163.83775144285391	
21.0	132.99576984376108	pulse	3.0	t		19.0	male	white	2.243931555909272	smiling	130	sub-07	2.0	4.0	130_smiling	1.0	trustworthiness	164.53773363357595	
21.0	133.6957462992923	pulse	3.0	t		19.0	male	white	2.243931555909272	smiling	130	sub-07	2.0	4.0	130_smiling	1.0	trustworthiness	165.23771008910717	
22.0	134.27061680471343	face	0.0		145	22.0	female	west_asian	3.8205332272184642	smiling	066	sub-07	2.0	4.0	066_smiling	1.0	dominance	165.8125805945283	1.2333012363869784
22.0	134.39594612542533	pulse	0.0	t		22.0	female	west_asian	3.8205332272184642	smiling	066	sub-07	2.0	4.0	066_smiling	1.0	dominance	165.9379099152402	
22.0	135.09570283258108	pulse	0.0	t		22.0	female	west_asian	3.8205332272184642	smiling	066	sub-07	2.0	4.0	066_smiling	1.0	dominance	166.63766662239595	
22.0	135.5039180411004	fix	1.0		177	22.0	female	west_asian	3.8205332272184642	smiling	066	sub-07	2.0	4.0	066_smiling	1.0	dominance	167.04588183091528	1.4999550240272583
22.0	135.7956859288597	pulse	1.0	t		22.0	female	west_asian	3.8205332272184642	smiling	066	sub-07	2.0	4.0	066_smiling	1.0	dominance	167.33764971867458	
22.0	136.49565815846017	pulse	1.0	t		22.0	female	west_asian	3.8205332272184642	smiling	066	sub-07	2.0	4.0	066_smiling	1.0	dominance	168.03762194827505	
22.0	137.00387306512766	rating	2.0		294	22.0	female	west_asian	3.8205332272184642	smiling	066	sub-07	2.0	4.0	066_smiling	1.0	dominance	168.54583685494254	2.499924838811239
22.0	137.19565966772097	pulse	2.0	t		22.0	female	west_asian	3.8205332272184642	smiling	066	sub-07	2.0	4.0	066_smiling	1.0	dominance	168.73762345753585	
22.0	137.89563340658333	pulse	2.0	t		22.0	female	west_asian	3.8205332272184642	smiling	066	sub-07	2.0	4.0	066_smiling	1.0	dominance	169.4375971963982	
22.0	138.59560352321841	pulse	2.0	t		22.0	female	west_asian	3.8205332272184642	smiling	066	sub-07	2.0	4.0	066_smiling	1.0	dominance	170.1375673130333	
22.0	138.72367335973559	response	2.0	y		22.0	female	west_asian	3.8205332272184642	smiling	066	sub-07	2.0	4.0	066_smiling	1.0	dominance	170.26563714955046	
22.0	139.29557635652418	pulse	2.0	t		22.0	female	west_asian	3.8205332272184642	smiling	066	sub-07	2.0	4.0	066_smiling	1.0	dominance	170.83754014633905	
22.0	139.5037979039389	fix	3.0		444	22.0	female	west_asian	3.8205332272184642	smiling	066	sub-07	2.0	4.0	066_smiling	1.0	dominance	171.04576169375378	3.7665511579043596
22.0	139.99556669725462	pulse	3.0	t		22.0	female	west_asian	3.8205332272184642	smiling	066	sub-07	2.0	4.0	066_smiling	1.0	dominance	171.5375304870695	
22.0	140.69554858612446	pulse	3.0	t		22.0	female	west_asian	3.8205332272184642	smiling	066	sub-07	2.0	4.0	066_smiling	1.0	dominance	172.23751237593933	
22.0	141.3955307768465	pulse	3.0	t		22.0	female	west_asian	3.8205332272184642	smiling	066	sub-07	2.0	4.0	066_smiling	1.0	dominance	172.93749456666137	
22.0	142.09549878051712	pulse	3.0	t		22.0	female	west_asian	3.8205332272184642	smiling	066	sub-07	2.0	4.0	066_smiling	1.0	dominance	173.637462570332	
22.0	142.79548006568348	pulse	3.0	t		22.0	female	west_asian	3.8205332272184642	smiling	066	sub-07	2.0	4.0	066_smiling	1.0	dominance	174.33744385549835	
23.0	143.27034906184326	face	0.0		145	21.0	male	east_asian/white	3.501790688420215	smiling	036	sub-07	2.0	4.0	036_smiling	0.0		174.81231285165813	1.2333099900997695
23.0	143.49545863417916	pulse	0.0	t		21.0	male	east_asian/white	3.501790688420215	smiling	036	sub-07	2.0	4.0	036_smiling	0.0		175.03742242399403	
23.0	144.1954332785972	pulse	0.0	t		21.0	male	east_asian/white	3.501790688420215	smiling	036	sub-07	2.0	4.0	036_smiling	0.0		175.73739706841206	
23.0	144.50365905194303	fix	1.0		444	21.0	male	east_asian/white	3.501790688420215	smiling	036	sub-07	2.0	4.0	036_smiling	0.0		176.0456228417579	3.766544819009141
23.0	144.8954175822846	pulse	1.0	t		21.0	male	east_asian/white	3.501790688420215	smiling	036	sub-07	2.0	4.0	036_smiling	0.0		176.43738137209948	
23.0	145.59539252855575	pulse	1.0	t		21.0	male	east_asian/white	3.501790688420215	smiling	036	sub-07	2.0	4.0	036_smiling	0.0		177.13735631837062	
23.0	146.29536988964264	pulse	1.0	t		21.0	male	east_asian/white	3.501790688420215	smiling	036	sub-07	2.0	4.0	036_smiling	0.0		177.83733367945752	
23.0	146.99534936369582	pulse	1.0	t		21.0	male	east_asian/white	3.501790688420215	smiling	036	sub-07	2.0	4.0	036_smiling	0.0		178.5373131535107	
23.0	147.69533547849642	pulse	1.0	t		21.0	male	east_asian/white	3.501790688420215	smiling	036	sub-07	2.0	4.0	036_smiling	0.0		179.2372992683113	
24.0	148.27020387095217	face	0.0		145	40.0	male	white	1.868682849184242	neutral	172	sub-07	2.0	4.0	172_neutral	0.0		179.81216766076705	1.2333000289781921
24.0	148.39531887662724	pulse	0.0	t		40.0	male	white	1.868682849184242	neutral	172	sub-07	2.0	4.0	172_neutral	0.0		179.93728266644212	
24.0	149.09528838955885	pulse	0.0	t		40.0	male	white	1.868682849184242	neutral	172	sub-07	2.0	4.0	172_neutral	0.0		180.63725217937372	
24.0	149.50350389993037	fix	1.0		444	40.0	male	white	1.868682849184242	neutral	172	sub-07	2.0	4.0	172_neutral	0.0		181.04546768974524	3.766554478278522
24.0	149.7952449228469	pulse	1.0	t		40.0	male	white	1.868682849184242	neutral	172	sub-07	2.0	4.0	172_neutral	0.0		181.33720871266178	
24.0	150.49524884692528	pulse	1.0	t		40.0	male	white	1.868682849184242	neutral	172	sub-07	2.0	4.0	172_neutral	0.0		182.03721263674015	
24.0	151.19522590615998	pulse	1.0	t		40.0	male	white	1.868682849184242	neutral	172	sub-07	2.0	4.0	172_neutral	0.0		182.73718969597485	
24.0	151.8952093042908	pulse	1.0	t		40.0	male	white	1.868682849184242	neutral	172	sub-07	2.0	4.0	172_neutral	0.0		183.43717309410567	
24.0	152.5951785153702	pulse	1.0	t		40.0	male	white	1.868682849184242	neutral	172	sub-07	2.0	4.0	172_neutral	0.0		184.13714230518508	
25.0	153.2700583782089	face	0.0		145	31.0	female	east_asian	3.395941106247513	smiling	087	sub-07	2.0	4.0	087_smiling	0.0		184.81202216802376	1.2333096882466634
25.0	153.29519541909212	pulse	0.0	t		31.0	female	east_asian	3.395941106247513	smiling	087	sub-07	2.0	4.0	087_smiling	0.0		184.837159208907	
25.0	153.99514833015382	pulse	0.0	t		31.0	female	east_asian	3.395941106247513	smiling	087	sub-07	2.0	4.0	087_smiling	0.0		185.5371121199687	
25.0	154.50336806645555	fix	1.0		443	31.0	female	east_asian	3.395941106247513	smiling	087	sub-07	2.0	4.0	087_smiling	0.0		186.04533185627042	3.7665393856705123
25.0	154.69512961531927	pulse	1.0	t		31.0	female	east_asian	3.395941106247513	smiling	087	sub-07	2.0	4.0	087_smiling	0.0		186.23709340513415	
25.0	155.39510365603383	pulse	1.0	t		31.0	female	east_asian	3.395941106247513	smiling	087	sub-07	2.0	4.0	087_smiling	0.0		186.9370674458487	
25.0	156.09507709304307	pulse	1.0	t		31.0	female	east_asian	3.395941106247513	smiling	087	sub-07	2.0	4.0	087_smiling	0.0		187.63704088285795	
25.0	156.79507165970426	pulse	1.0	t		31.0	female	east_asian	3.395941106247513	smiling	087	sub-07	2.0	4.0	087_smiling	0.0		188.33703544951913	
25.0	157.49504781338328	pulse	1.0	t		31.0	female	east_asian	3.395941106247513	smiling	087	sub-07	2.0	4.0	087_smiling	0.0		189.03701160319815	
25.0	158.19502064668814	pulse	1.0	t		31.0	female	east_asian	3.395941106247513	smiling	087	sub-07	2.0	4.0	087_smiling	0.0		189.736984436503	
26.0	158.26990745212606	face	0.0		146	24.0	female	east_asian	2.9076800636689217	smiling	034	sub-07	2.0	4.0	034_smiling	0.0		189.81187124194093	1.2332991234216024
26.0	158.89500344111457	pulse	0.0	t		24.0	female	east_asian	2.9076800636689217	smiling	034	sub-07	2.0	4.0	034_smiling	0.0		190.43696723092944	
26.0	159.50320657554767	fix	1.0		443	24.0	female	east_asian	2.9076800636689217	smiling	034	sub-07	2.0	4.0	034_smiling	0.0		191.04517036536254	3.7582124918499176
26.0	159.59498532998532	pulse	1.0	t		24.0	female	east_asian	2.9076800636689217	smiling	034	sub-07	2.0	4.0	034_smiling	0.0		191.1369491198002	
26.0	160.29496148366434	pulse	1.0	t		24.0	female	east_asian	2.9076800636689217	smiling	034	sub-07	2.0	4.0	034_smiling	0.0		191.8369252734792	
26.0	160.99493944845563	pulse	1.0	t		24.0	female	east_asian	2.9076800636689217	smiling	034	sub-07	2.0	4.0	034_smiling	0.0		192.5369032382705	
26.0	161.69490865953503	pulse	1.0	t		24.0	female	east_asian	2.9076800636689217	smiling	034	sub-07	2.0	4.0	034_smiling	0.0		193.2368724493499	
26.0	162.3948971891532	pulse	1.0	t		24.0	female	east_asian	2.9076800636689217	smiling	034	sub-07	2.0	4.0	034_smiling	0.0		193.93686097896807	
26.0	163.09488119098842	pulse	1.0	t		24.0	female	east_asian	2.9076800636689217	smiling	034	sub-07	2.0	4.0	034_smiling	0.0		194.6368449808033	
27.0	163.26141906739758	face	0.0		147	20.0	male	black	3.1070433744528456	smiling	082	sub-07	2.0	4.0	082_smiling	0.0		194.80338285721245	1.2499906425828158
27.0	163.7948594576319	pulse	0.0	t		20.0	male	black	3.1070433744528456	smiling	082	sub-07	2.0	4.0	082_smiling	0.0		195.33682324744677	
27.0	164.49483349834554	pulse	0.0	t		20.0	male	black	3.1070433744528456	smiling	082	sub-07	2.0	4.0	082_smiling	0.0		196.03679728816041	
27.0	164.5114097099804	fix	1.0		443	20.0	male	black	3.1070433744528456	smiling	082	sub-07	2.0	4.0	082_smiling	0.0		196.05337349979527	3.758201927023947
27.0	165.1948147835119	pulse	1.0	t		20.0	male	black	3.1070433744528456	smiling	082	sub-07	2.0	4.0	082_smiling	0.0		196.73677857332677	
27.0	165.8948018038691	pulse	1.0	t		20.0	male	black	3.1070433744528456	smiling	082	sub-07	2.0	4.0	082_smiling	0.0		197.43676559368396	
27.0	166.59477161865198	pulse	1.0	t		20.0	male	black	3.1070433744528456	smiling	082	sub-07	2.0	4.0	082_smiling	0.0		198.13673540846685	
27.0	167.2947544130784	pulse	1.0	t		20.0	male	black	3.1070433744528456	smiling	082	sub-07	2.0	4.0	082_smiling	0.0		198.83671820289328	
27.0	167.99473117046182	pulse	1.0	t		20.0	male	black	3.1070433744528456	smiling	082	sub-07	2.0	4.0	082_smiling	0.0		199.5366949602767	
28.0	168.26961163700435	face	0.0		145	31.0	female	west_asian	2.364902506963788	smiling	006	sub-07	2.0	4.0	006_smiling	0.0		199.81157542681922	1.2333009345347818
28.0	168.69471698341022	pulse	0.0	t		31.0	female	west_asian	2.364902506963788	smiling	006	sub-07	2.0	4.0	006_smiling	0.0		200.2366807732251	
28.0	169.39469977783665	pulse	0.0	t		31.0	female	west_asian	2.364902506963788	smiling	006	sub-07	2.0	4.0	006_smiling	0.0		200.93666356765152	
28.0	169.50291257153913	fix	1.0		444	31.0	female	west_asian	2.364902506963788	smiling	006	sub-07	2.0	4.0	006_smiling	0.0		201.044876361354	3.7665526671653424
28.0	170.09467713892445	pulse	1.0	t		31.0	female	west_asian	2.364902506963788	smiling	006	sub-07	2.0	4.0	006_smiling	0.0		201.63664092873933	
28.0	170.7946436333341	pulse	1.0	t		31.0	female	west_asian	2.364902506963788	smiling	006	sub-07	2.0	4.0	006_smiling	0.0		202.33660742314896	
28.0	171.4946285407259	pulse	1.0	t		31.0	female	west_asian	2.364902506963788	smiling	006	sub-07	2.0	4.0	006_smiling	0.0		203.03659233054077	
28.0	172.19462672961345	pulse	1.0	t		31.0	female	west_asian	2.364902506963788	smiling	006	sub-07	2.0	4.0	006_smiling	0.0		203.73659051942832	
28.0	172.8946007703271	pulse	1.0	t		31.0	female	west_asian	2.364902506963788	smiling	006	sub-07	2.0	4.0	006_smiling	0.0		204.43656456014196	
29.0	173.26946523870447	face	0.0		145	20.0	male	black	2.609629924393156	neutral	043	sub-07	2.0	4.0	043_neutral	1.0	trustworthiness	204.81142902851934	1.2332991234216024
29.0	173.5945446258238	pulse	0.0	t		20.0	male	black	2.609629924393156	neutral	043	sub-07	2.0	4.0	043_neutral	1.0	trustworthiness	205.13650841563867	
29.0	174.29454281471135	pulse	0.0	t		20.0	male	black	2.609629924393156	neutral	043	sub-07	2.0	4.0	043_neutral	1.0	trustworthiness	205.83650660452622	
29.0	174.50276436212607	fix	1.0		177	20.0	male	black	2.609629924393156	neutral	043	sub-07	2.0	4.0	043_neutral	1.0	trustworthiness	206.04472815194094	1.4999577406970275
29.0	174.99452591098998	pulse	1.0	t		20.0	male	black	2.609629924393156	neutral	043	sub-07	2.0	4.0	043_neutral	1.0	trustworthiness	206.53648970080485	
29.0	175.69450538504316	pulse	1.0	t		20.0	male	black	2.609629924393156	neutral	043	sub-07	2.0	4.0	043_neutral	1.0	trustworthiness	207.23646917485803	
29.0	176.0027221028231	rating	2.0		295	20.0	male	black	2.609629924393156	neutral	043	sub-07	2.0	4.0	043_neutral	1.0	trustworthiness	207.54468589263797	2.508259882640232
29.0	176.39448938687838	pulse	2.0	t		20.0	male	black	2.609629924393156	neutral	043	sub-07	2.0	4.0	043_neutral	1.0	trustworthiness	207.93645317669325	
29.0	177.09443837386243	pulse	2.0	t		20.0	male	black	2.609629924393156	neutral	043	sub-07	2.0	4.0	043_neutral	1.0	trustworthiness	208.6364021636773	
29.0	177.79444863683602	pulse	2.0	t		20.0	male	black	2.609629924393156	neutral	043	sub-07	2.0	4.0	043_neutral	1.0	trustworthiness	209.3364124266509	
29.0	178.03917377025482	response	2.0	w		20.0	male	black	2.609629924393156	neutral	043	sub-07	2.0	4.0	043_neutral	1.0	trustworthiness	209.5811375600697	
29.0	178.49440486827189	pulse	2.0	t		20.0	male	black	2.609629924393156	neutral	043	sub-07	2.0	4.0	043_neutral	1.0	trustworthiness	210.03636865808676	
29.0	178.51098198546333	fix	3.0		443	20.0	male	black	2.609629924393156	neutral	043	sub-07	2.0	4.0	043_neutral	1.0	trustworthiness	210.0529457752782	3.749885598029323
29.0	179.19440335901072	pulse	3.0	t		20.0	male	black	2.609629924393156	neutral	043	sub-07	2.0	4.0	043_neutral	1.0	trustworthiness	210.7363671488256	
29.0	179.89438675714155	pulse	3.0	t		20.0	male	black	2.609629924393156	neutral	043	sub-07	2.0	4.0	043_neutral	1.0	trustworthiness	211.43635054695642	
29.0	180.59436291082056	pulse	3.0	t		20.0	male	black	2.609629924393156	neutral	043	sub-07	2.0	4.0	043_neutral	1.0	trustworthiness	212.13632670063544	
29.0	181.29433544227413	pulse	3.0	t		20.0	male	black	2.609629924393156	neutral	043	sub-07	2.0	4.0	043_neutral	1.0	trustworthiness	212.836299232089	
29.0	181.9943161237352	pulse	3.0	t		20.0	male	black	2.609629924393156	neutral	043	sub-07	2.0	4.0	043_neutral	1.0	trustworthiness	213.53627991355006	
30.0	182.26086758349265	face	0.0		146	23.0	male	white	2.6275368085953046	smiling	141	sub-07	2.0	4.0	141_smiling	0.0		213.80283137330753	1.2416290357632533
30.0	182.6942998237182	pulse	0.0	t		23.0	male	white	2.6275368085953046	smiling	141	sub-07	2.0	4.0	141_smiling	0.0		214.23626361353308	
30.0	183.39427386443185	pulse	0.0	t		23.0	male	white	2.6275368085953046	smiling	141	sub-07	2.0	4.0	141_smiling	0.0		214.93623765424672	
30.0	183.5024966192559	fix	1.0		444	23.0	male	white	2.6275368085953046	smiling	141	sub-07	2.0	4.0	141_smiling	0.0		215.04446040907078	3.7665574968004876
30.0	184.09425937552805	pulse	1.0	t		23.0	male	white	2.6275368085953046	smiling	141	sub-07	2.0	4.0	141_smiling	0.0		215.63622316534293	
30.0	184.79423069957284	pulse	1.0	t		23.0	male	white	2.6275368085953046	smiling	141	sub-07	2.0	4.0	141_smiling	0.0		216.3361944893877	
30.0	185.49422285141645	pulse	1.0	t		23.0	male	white	2.6275368085953046	smiling	141	sub-07	2.0	4.0	141_smiling	0.0		217.03618664123132	
30.0	186.1941884402695	pulse	1.0	t		23.0	male	white	2.6275368085953046	smiling	141	sub-07	2.0	4.0	141_smiling	0.0		217.73615223008437	
30.0	186.89417878099994	pulse	1.0	t		23.0	male	white	2.6275368085953046	smiling	141	sub-07	2.0	4.0	141_smiling	0.0		218.4361425708148	
31.0	187.2690541160564	face	0.0		145	31.0	female	white	2.1822522881018704	neutral	102	sub-07	2.0	4.0	102_neutral	0.0		218.81101790587127	1.2332961048996367
31.0	187.59415493467895	pulse	0.0	t		31.0	female	white	2.1822522881018704	neutral	102	sub-07	2.0	4.0	102_neutral	0.0		219.13611872449383	
31.0	188.29412776798472	pulse	0.0	t		31.0	female	white	2.1822522881018704	neutral	102	sub-07	2.0	4.0	102_neutral	0.0		219.8360915577996	
31.0	188.50235022095603	fix	1.0		444	31.0	female	white	2.1822522881018704	neutral	102	sub-07	2.0	4.0	102_neutral	0.0		220.0443140107709	3.7665532708697356
31.0	188.99448274613042	pulse	1.0	t		31.0	female	white	2.1822522881018704	neutral	102	sub-07	2.0	4.0	102_neutral	0.0		220.5364465359453	
31.0	189.69411478834172	pulse	1.0	t		31.0	female	white	2.1822522881018704	neutral	102	sub-07	2.0	4.0	102_neutral	0.0		221.2360785781566	
31.0	190.39406558643896	pulse	1.0	t		31.0	female	white	2.1822522881018704	neutral	102	sub-07	2.0	4.0	102_neutral	0.0		221.93602937625383	
31.0	191.09404324937805	pulse	1.0	t		31.0	female	white	2.1822522881018704	neutral	102	sub-07	2.0	4.0	102_neutral	0.0		222.63600703919292	
31.0	191.7940338919616	pulse	1.0	t		31.0	female	white	2.1822522881018704	neutral	102	sub-07	2.0	4.0	102_neutral	0.0		223.33599768177646	
32.0	192.26890349182577	face	0.0		145	40.0	male	black	2.408674890569041	neutral	061	sub-07	2.0	4.0	061_neutral	0.0		223.81086728164064	1.2333051604646244
32.0	192.49401457342265	pulse	0.0	t		40.0	male	black	2.408674890569041	neutral	061	sub-07	2.0	4.0	061_neutral	0.0		224.03597836323752	
32.0	193.1939877085797	pulse	0.0	t		40.0	male	black	2.408674890569041	neutral	061	sub-07	2.0	4.0	061_neutral	0.0		224.73595149839457	
32.0	193.5022086522904	fix	1.0		444	40.0	male	black	2.408674890569041	neutral	061	sub-07	2.0	4.0	061_neutral	0.0		225.04417244210526	3.7582161140762764
32.0	193.89396989930265	pulse	1.0	t		40.0	male	black	2.408674890569041	neutral	061	sub-07	2.0	4.0	061_neutral	0.0		225.43593368911752	
32.0	194.59394001593773	pulse	1.0	t		40.0	male	black	2.408674890569041	neutral	061	sub-07	2.0	4.0	061_neutral	0.0		226.1359038057526	
32.0	195.2939285455559	pulse	1.0	t		40.0	male	black	2.408674890569041	neutral	061	sub-07	2.0	4.0	061_neutral	0.0		226.83589233537077	
32.0	195.99391254739112	pulse	1.0	t		40.0	male	black	2.408674890569041	neutral	061	sub-07	2.0	4.0	061_neutral	0.0		227.535876337206	
32.0	196.69389292699998	pulse	1.0	t		40.0	male	black	2.408674890569041	neutral	061	sub-07	2.0	4.0	061_neutral	0.0		228.23585671681485	
33.0	197.26042476636667	face	0.0		146	25.0	female	black	3.858336649423	smiling	126	sub-07	2.0	4.0	126_smiling	0.0		228.80238855618154	1.2416290357632533
33.0	197.39386606215794	pulse	0.0	t		25.0	female	black	3.858336649423	smiling	126	sub-07	2.0	4.0	126_smiling	0.0		228.9358298519728	
33.0	198.0938382917584	pulse	0.0	t		25.0	female	black	3.858336649423	smiling	126	sub-07	2.0	4.0	126_smiling	0.0		229.63580208157327	
33.0	198.50205380212992	fix	1.0		444	25.0	female	black	3.858336649423	smiling	126	sub-07	2.0	4.0	126_smiling	0.0		230.0440175919448	3.758198002946301
33.0	198.7938250102634	pulse	1.0	t		25.0	female	black	3.858336649423	smiling	126	sub-07	2.0	4.0	126_smiling	0.0		230.33578880007826	
33.0	199.49380720098543	pulse	1.0	t		25.0	female	black	3.858336649423	smiling	126	sub-07	2.0	4.0	126_smiling	0.0		231.0357709908003	
33.0	200.19377671391703	pulse	1.0	t		25.0	female	black	3.858336649423	smiling	126	sub-07	2.0	4.0	126_smiling	0.0		231.7357405037319	
33.0	200.89373022868313	pulse	1.0	t		25.0	female	black	3.858336649423	smiling	126	sub-07	2.0	4.0	126_smiling	0.0		232.435694018498	
33.0	201.5937344546137	pulse	1.0	t		25.0	female	black	3.858336649423	smiling	126	sub-07	2.0	4.0	126_smiling	0.0		233.13569824442857	
34.0	202.26025180507622	face	0.0		146	28.0	female	white	5.676880222841227	neutral	124	sub-07	2.0	4.0	124_neutral	0.0		233.8022155948911	1.2416525802318574
34.0	202.29372328608315	pulse	0.0	t		28.0	female	white	5.676880222841227	neutral	124	sub-07	2.0	4.0	124_neutral	0.0		233.83568707589802	
34.0	202.99370245828413	pulse	0.0	t		28.0	female	white	5.676880222841227	neutral	124	sub-07	2.0	4.0	124_neutral	0.0		234.535666248099	
34.0	203.50190438530808	fix	1.0		443	28.0	female	white	5.676880222841227	neutral	124	sub-07	2.0	4.0	124_neutral	0.0		235.04386817512295	3.766555081982915
34.0	203.69367619714558	pulse	1.0	t		28.0	female	white	5.676880222841227	neutral	124	sub-07	2.0	4.0	124_neutral	0.0		235.23563998696045	
34.0	204.39365416193777	pulse	1.0	t		28.0	female	white	5.676880222841227	neutral	124	sub-07	2.0	4.0	124_neutral	0.0		235.93561795175265	
34.0	205.09363997488617	pulse	1.0	t		28.0	female	white	5.676880222841227	neutral	124	sub-07	2.0	4.0	124_neutral	0.0		236.63560376470105	
34.0	205.79361341189542	pulse	1.0	t		28.0	female	white	5.676880222841227	neutral	124	sub-07	2.0	4.0	124_neutral	0.0		237.3355772017103	
34.0	206.49358986742664	pulse	1.0	t		28.0	female	white	5.676880222841227	neutral	124	sub-07	2.0	4.0	124_neutral	0.0		238.0355536572415	
34.0	207.19358533964441	pulse	1.0	t		28.0	female	white	5.676880222841227	neutral	124	sub-07	2.0	4.0	124_neutral	0.0		238.7355491294593	
35.0	207.268459467291	face	0.0		146	28.0	male	east_asian	1.5563072025467568	neutral	005	sub-07	2.0	4.0	005_neutral	0.0		238.81042325710587	1.233299425273799
35.0	207.89356511554888	pulse	0.0	t		28.0	male	east_asian	1.5563072025467568	neutral	005	sub-07	2.0	4.0	005_neutral	0.0		239.43552890536375	
35.0	208.5017588925648	fix	1.0		443	28.0	male	east_asian	1.5563072025467568	neutral	005	sub-07	2.0	4.0	005_neutral	0.0		240.04372268237967	3.7582743715438482
35.0	208.59353553403707	pulse	1.0	t		28.0	male	east_asian	1.5563072025467568	neutral	005	sub-07	2.0	4.0	005_neutral	0.0		240.13549932385195	
35.0	209.29350504696868	pulse	1.0	t		28.0	male	east_asian	1.5563072025467568	neutral	005	sub-07	2.0	4.0	005_neutral	0.0		240.83546883678355	
35.0	209.99349025621268	pulse	1.0	t		28.0	male	east_asian	1.5563072025467568	neutral	005	sub-07	2.0	4.0	005_neutral	0.0		241.53545404602755	
35.0	210.69346278766534	pulse	1.0	t		28.0	male	east_asian	1.5563072025467568	neutral	005	sub-07	2.0	4.0	005_neutral	0.0		242.2354265774802	
35.0	211.39345856173532	pulse	1.0	t		28.0	male	east_asian	1.5563072025467568	neutral	005	sub-07	2.0	4.0	005_neutral	0.0		242.9354223515502	
35.0	212.09342686725722	pulse	1.0	t		28.0	male	east_asian	1.5563072025467568	neutral	005	sub-07	2.0	4.0	005_neutral	0.0		243.6353906570721	
36.0	212.26003326410864	face	0.0		147	22.0	female	west_asian	3.8205332272184642	neutral	066	sub-07	2.0	4.0	066_neutral	0.0		243.80199705392351	1.2499091424988364
36.0	212.79341026538896	pulse	0.0	t		22.0	female	west_asian	3.8205332272184642	neutral	066	sub-07	2.0	4.0	066_neutral	0.0		244.33537405520383	
36.0	213.493384909807	pulse	0.0	t		22.0	female	west_asian	3.8205332272184642	neutral	066	sub-07	2.0	4.0	066_neutral	0.0		245.03534869962186	
36.0	213.50994240660748	fix	1.0		443	22.0	female	west_asian	3.8205332272184642	neutral	066	sub-07	2.0	4.0	066_neutral	0.0		245.05190619642235	3.7582206418583155
36.0	214.19336740238123	pulse	1.0	t		22.0	female	west_asian	3.8205332272184642	neutral	066	sub-07	2.0	4.0	066_neutral	0.0		245.7353311921961	
36.0	214.89334536717342	pulse	1.0	t		22.0	female	west_asian	3.8205332272184642	neutral	066	sub-07	2.0	4.0	066_neutral	0.0		246.4353091569883	
36.0	215.5933248412257	pulse	1.0	t		22.0	female	west_asian	3.8205332272184642	neutral	066	sub-07	2.0	4.0	066_neutral	0.0		247.13528863104057	
36.0	216.2932789596971	pulse	1.0	t		22.0	female	west_asian	3.8205332272184642	neutral	066	sub-07	2.0	4.0	066_neutral	0.0		247.83524274951196	
36.0	216.99327805414032	pulse	1.0	t		22.0	female	west_asian	3.8205332272184642	neutral	066	sub-07	2.0	4.0	066_neutral	0.0		248.5352418439552	
37.0	217.2681630484658	face	0.0		145	27.0	female	white	3.504576203740549	smiling	144	sub-07	2.0	4.0	144_smiling	0.0		248.81012683828067	1.233306066021214
37.0	217.6932644707931	pulse	0.0	t		27.0	female	white	3.504576203740549	smiling	144	sub-07	2.0	4.0	144_smiling	0.0		249.23522826060798	
37.0	218.39324424669758	pulse	0.0	t		27.0	female	white	3.504576203740549	smiling	144	sub-07	2.0	4.0	144_smiling	0.0		249.93520803651245	
37.0	218.501469114487	fix	1.0		444	27.0	female	white	3.504576203740549	smiling	144	sub-07	2.0	4.0	144_smiling	0.0		250.04343290430188	3.7665439134525514
37.0	219.0932204003766	pulse	1.0	t		27.0	female	white	3.504576203740549	smiling	144	sub-07	2.0	4.0	144_smiling	0.0		250.63518419019147	
37.0	219.7932050059162	pulse	1.0	t		27.0	female	white	3.504576203740549	smiling	144	sub-07	2.0	4.0	144_smiling	0.0		251.33516879573108	
37.0	220.4931917244212	pulse	1.0	t		27.0	female	white	3.504576203740549	smiling	144	sub-07	2.0	4.0	144_smiling	0.0		252.03515551423607	
37.0	221.1931681799524	pulse	1.0	t		27.0	female	white	3.504576203740549	smiling	144	sub-07	2.0	4.0	144_smiling	0.0		252.73513196976728	
37.0	221.89314161696166	pulse	1.0	t		27.0	female	white	3.504576203740549	smiling	144	sub-07	2.0	4.0	144_smiling	0.0		253.43510540677653	
38.0	222.26801302793956	face	0.0		145	54.0	female	white	2.286908077994429	smiling	136	sub-07	2.0	4.0	136_smiling	0.0		253.80997681775443	1.233301236386069
38.0	222.59312048731044	pulse	0.0	t		54.0	female	white	2.286908077994429	smiling	136	sub-07	2.0	4.0	136_smiling	0.0		254.13508427712532	
38.0	223.29310297988468	pulse	0.0	t		54.0	female	white	2.286908077994429	smiling	136	sub-07	2.0	4.0	136_smiling	0.0		254.83506676969955	
38.0	223.50131426432563	fix	1.0		444	54.0	female	white	2.286908077994429	smiling	136	sub-07	2.0	4.0	136_smiling	0.0		255.0432780541405	3.7665508560530725
38.0	223.9930794354159	pulse	1.0	t		54.0	female	white	2.286908077994429	smiling	136	sub-07	2.0	4.0	136_smiling	0.0		255.53504322523077	
38.0	224.69305226872075	pulse	1.0	t		54.0	female	white	2.286908077994429	smiling	136	sub-07	2.0	4.0	136_smiling	0.0		256.2350160585356	
38.0	225.39303566685157	pulse	1.0	t		54.0	female	white	2.286908077994429	smiling	136	sub-07	2.0	4.0	136_smiling	0.0		256.93499945666645	
38.0	226.0930112168262	pulse	1.0	t		54.0	female	white	2.286908077994429	smiling	136	sub-07	2.0	4.0	136_smiling	0.0		257.63497500664107	
38.0	226.793005179783	pulse	1.0	t		54.0	female	white	2.286908077994429	smiling	136	sub-07	2.0	4.0	136_smiling	0.0		258.33496896959787	
39.0	227.2678651203787	face	0.0		145	54.0	female	white	2.286908077994429	neutral	136	sub-07	2.0	4.0	136_neutral	0.0		258.8098289101936	1.2332991234216024
39.0	227.49297650382778	pulse	0.0	t		54.0	female	white	2.286908077994429	neutral	136	sub-07	2.0	4.0	136_neutral	0.0		259.03494029364265	
39.0	228.19293907415886	pulse	0.0	t		54.0	female	white	2.286908077994429	neutral	136	sub-07	2.0	4.0	136_neutral	0.0		259.73490286397373	
39.0	228.5011642438003	fix	1.0		444	54.0	female	white	2.286908077994429	neutral	136	sub-07	2.0	4.0	136_neutral	0.0		260.0431280336152	3.7498904276635585
39.0	228.89294209268064	pulse	1.0	t		54.0	female	white	2.286908077994429	neutral	136	sub-07	2.0	4.0	136_neutral	0.0		260.4349058824955	
39.0	229.59291371857762	pulse	1.0	t		54.0	female	white	2.286908077994429	neutral	136	sub-07	2.0	4.0	136_neutral	0.0		261.1348775083925	
39.0	230.2928916833689	pulse	1.0	t		54.0	female	white	2.286908077994429	neutral	136	sub-07	2.0	4.0	136_neutral	0.0		261.8348554731838	
39.0	230.99286361111808	pulse	1.0	t		54.0	female	white	2.286908077994429	neutral	136	sub-07	2.0	4.0	136_neutral	0.0		262.53482740093295	
39.0	231.6928485185099	pulse	1.0	t		54.0	female	white	2.286908077994429	neutral	136	sub-07	2.0	4.0	136_neutral	0.0		263.23481230832476	
40.0	232.25105467146386	fix	0.0		720													263.79301846127873	5.999817983144567
40.0	232.3928325203451	pulse	0.0	t														263.93479631016	
40.0	233.0928029388324	pulse	0.0	t														264.63476672864726	
40.0	233.79278392214655	pulse	0.0	t														265.3347477119614	
40.0	234.49276158508655	pulse	0.0	t														266.0347253749014	
40.0	235.19274981285162	pulse	0.0	t														266.7347136026665	
40.0	235.8927368332088	pulse	0.0	t														267.4347006230237	
40.0	236.59269910168769	pulse	0.0	t														268.13466289150256	
40.0	237.29268853686244	pulse	0.0	t														268.8346523266773	
40.0	237.9926544275677	pulse	0.0	t														269.53461821738256	
