trial_nr	onset	event_type	phase	response	nr_frames	trial_type	stim_name	task_probe	onset_abs	duration
0.0	0.05668799056820717	baseline	0.0		701		baseline	0.0	24.876214618680024	5.849535040754745
0.0	0.7064923445559543	pulse	0.0	t			baseline	0.0	25.52601897266777	
0.0	1.4064480627230296	pulse	0.0	t			baseline	0.0	26.225974690834846	
0.0	2.106427627276389	pulse	0.0	t			baseline	0.0	26.925954255388206	
0.0	2.8063987399455073	pulse	0.0	t			baseline	0.0	27.625925368057324	
0.0	3.5063719655854584	pulse	0.0	t			baseline	0.0	28.325898593697275	
0.0	4.206365113523134	pulse	0.0	t			baseline	0.0	29.02589174163495	
0.0	4.906346489193311	pulse	0.0	t			baseline	0.0	29.725873117305127	
0.0	5.6063221296581105	pulse	0.0	t			baseline	0.0	30.425848757769927	
0.0	5.906223031322952	ISI	1.0		0		baseline	0.0	30.72574965943477	0.14167288735370676
1.0	6.047895918676659	house	0.0		43	place	house-12.jpg	0.0	30.867422546788475	0.35828621156633744
1.0	6.306297770122001	pulse	0.0	t		place	house-12.jpg	0.0	31.125824398233817	
1.0	6.406182130242996	ISI	1.0		592	place	house-12.jpg	0.0	31.225708758354813	5.016553315840611
1.0	7.006314160738839	pulse	1.0	t		place	house-12.jpg	0.0	31.825840788850655	
1.0	7.706288291938108	pulse	1.0	t		place	house-12.jpg	0.0	32.525814920049925	
1.0	8.406276610227906	pulse	1.0	t		place	house-12.jpg	0.0	33.22580323833972	
1.0	9.106267947046945	pulse	1.0	t		place	house-12.jpg	0.0	33.92579457515876	
1.0	9.806235135627503	pulse	1.0	t		place	house-12.jpg	0.0	34.62576176373932	
1.0	10.50621802056321	pulse	1.0	t		place	house-12.jpg	0.0	35.32574464867503	
1.0	11.206209659235356	pulse	1.0	t		place	house-12.jpg	0.0	36.02573628734717	
2.0	11.422735446083607	limb	0.0		46	body	limb-58.jpg	0.0	36.24226207419542	0.38328477021877916
2.0	11.806020216302386	ISI	1.0		228	body	limb-58.jpg	0.0	36.6255468444142	2.0166157994081004
2.0	11.906198581231365	pulse	1.0	t		body	limb-58.jpg	0.0	36.72572520934318	
2.0	12.60609272138936	pulse	1.0	t		body	limb-58.jpg	0.0	37.425619349501176	
2.0	13.30608164338446	pulse	1.0	t		body	limb-58.jpg	0.0	38.125608271496276	
3.0	13.822636015710486	car	0.0		46	object	car-110.jpg	0.0	38.6421626438223	0.38330137213233684
3.0	14.006056981996153	pulse	0.0	t		object	car-110.jpg	0.0	38.82558361010797	
3.0	14.205937387842823	ISI	1.0		231	object	car-110.jpg	0.0	39.02546401595464	2.0166381365288544
3.0	14.706045903991253	pulse	1.0	t		object	car-110.jpg	0.0	39.52557253210307	
3.0	15.406015809248856	pulse	1.0	t		object	car-110.jpg	0.0	40.22554243736067	
3.0	16.105995373801306	pulse	1.0	t		object	car-110.jpg	0.0	40.92552200191312	
4.0	16.222575524371678	number	0.0		46	character	number-90.jpg	0.0	41.042102152483494	0.38330559807491227
4.0	16.60588112244659	ISI	1.0		233	character	number-90.jpg	0.0	41.425407750558406	2.0166580588256693
4.0	16.806003312534813	pulse	1.0	t		character	number-90.jpg	0.0	41.62552994064663	
4.0	17.50605320883369	pulse	1.0	t		character	number-90.jpg	0.0	42.32557983694551	
4.0	18.206024623355916	pulse	1.0	t		character	number-90.jpg	0.0	43.02555125146773	
5.0	18.62253918127226	house	0.0		46	place	house-105.jpg	0.0	43.442065809384076	0.38327480907082645
5.0	18.905933252457544	pulse	0.0	t		place	house-105.jpg	0.0	43.72545988056936	
5.0	19.005813990343086	ISI	1.0		354	place	house-105.jpg	0.0	43.8253406184549	3.016621534614387
5.0	19.605923080011962	pulse	1.0	t		place	house-105.jpg	0.0	44.42544970812378	
5.0	20.305882118561385	pulse	1.0	t		place	house-105.jpg	0.0	45.1254087466732	
5.0	21.005870436851183	pulse	1.0	t		place	house-105.jpg	0.0	45.825397064963	
5.0	21.70585966069939	pulse	1.0	t		place	house-105.jpg	0.0	46.525386288811205	
6.0	22.022435524957473	number	0.0		46	character	number-101.jpg	0.0	46.84196215306929	0.38330650363423047
6.0	22.405742028591703	ISI	1.0		233	character	number-101.jpg	0.0	47.22526865670352	2.016613988289464
6.0	22.45591150395012	pulse	1.0	t		character	number-101.jpg	0.0	47.275438132061936	
6.0	23.105831467631106	pulse	1.0	t		character	number-101.jpg	0.0	47.92535809574292	
6.0	23.805800165476285	pulse	1.0	t		character	number-101.jpg	0.0	48.6253267935881	
7.0	24.422356016881167	house	0.0		46	place	house-91.jpg	0.0	49.241882644992984	0.3833541964058895
7.0	24.505783352265098	pulse	0.0	t		place	house-91.jpg	0.0	49.325309980376915	
7.0	24.805710213287057	ISI	1.0		231	place	house-91.jpg	0.0	49.62523684139887	2.016636023557112
7.0	25.20583687079943	pulse	1.0	t		place	house-91.jpg	0.0	50.02536349891125	
7.0	25.905806474203928	pulse	1.0	t		place	house-91.jpg	0.0	50.725333102315744	
7.0	26.605804753641678	pulse	1.0	t		place	house-91.jpg	0.0	51.425331381753494	
8.0	26.82234623684417	number	0.0		46	character	number-66.jpg	0.0	51.641872864955985	0.3832536793615873
8.0	27.205599916205756	ISI	1.0		228	character	number-66.jpg	0.0	52.02512654431757	2.0166254587038566
8.0	27.301173211996684	pulse	1.0	t		character	number-66.jpg	0.0	52.1206998401085	
8.0	28.00568811764788	pulse	1.0	t		character	number-66.jpg	0.0	52.825214745759695	
8.0	28.705699980470854	pulse	1.0	t		character	number-66.jpg	0.0	53.52522660858267	
9.0	29.222225374909613	adult	0.0		46	face	adult-15.jpg	0.0	54.04175200302143	0.38330952216347214
9.0	29.405653585667096	pulse	0.0	t		face	adult-15.jpg	0.0	54.22518021377891	
9.0	29.605534897073085	ISI	1.0		234	face	adult-15.jpg	0.0	54.4250615251849	2.0166333068809763
9.0	30.105632546513334	pulse	1.0	t		face	adult-15.jpg	0.0	54.92515917462515	
9.0	30.805625392597904	pulse	1.0	t		face	adult-15.jpg	0.0	55.62515202070972	
9.0	31.5056013349149	pulse	1.0	t		face	adult-15.jpg	0.0	56.325127963026716	
10.0	31.62216820395406	adult	0.0		46	face	adult-83.jpg	0.0	56.44169483206588	0.38331857775301614
10.0	32.00548678170708	ISI	1.0		231	face	adult-83.jpg	0.0	56.825013409818894	2.0166677181214254
10.0	32.20558421985061	pulse	1.0	t		face	adult-83.jpg	0.0	57.025110847962424	
10.0	32.90564226617971	pulse	1.0	t		face	adult-83.jpg	0.0	57.72516889429153	
10.0	33.60560703993633	pulse	1.0	t		face	adult-83.jpg	0.0	58.42513366804815	
11.0	34.0221544998285	house	0.0		46	place	house-77.jpg	0.0	58.84168112794032	0.3832542830677994
11.0	34.305525328333715	pulse	0.0	t		place	house-77.jpg	0.0	59.12505195644553	
11.0	34.4054087828963	ISI	1.0		711	place	house-77.jpg	0.0	59.22493541100812	6.016575652960455
11.0	35.00552421147768	pulse	1.0	t		place	house-77.jpg	0.0	59.825050839589494	
11.0	35.70548536299793	pulse	1.0	t		place	house-77.jpg	0.0	60.52501199110975	
11.0	36.40547911464182	pulse	1.0	t		place	house-77.jpg	0.0	61.22500574275364	
11.0	37.105462301430634	pulse	1.0	t		place	house-77.jpg	0.0	61.92498892954245	
11.0	37.80543099927581	pulse	1.0	t		place	house-77.jpg	0.0	62.62495762738763	
11.0	38.50541629903546	pulse	1.0	t		place	house-77.jpg	0.0	63.324942927147276	
11.0	39.205395561734804	pulse	1.0	t		place	house-77.jpg	0.0	64.02492218984662	
11.0	39.905381163347556	pulse	1.0	t		place	house-77.jpg	0.0	64.72490779145937	
12.0	40.42198443585676	number	0.0		46	character	number-31.jpg	0.0	65.24151106396857	0.3832554904793142
12.0	40.605364651989476	pulse	0.0	t		character	number-31.jpg	0.0	65.42489128010129	
12.0	40.80523992633607	ISI	1.0		591	character	number-31.jpg	0.0	65.62476655444789	5.016553617692807
12.0	41.30535387583768	pulse	1.0	t		character	number-31.jpg	0.0	66.1248805039495	
12.0	42.00532981815468	pulse	1.0	t		character	number-31.jpg	0.0	66.8248564462665	
12.0	42.7053069678841	pulse	1.0	t		character	number-31.jpg	0.0	67.52483359599591	
12.0	43.40528713614276	pulse	1.0	t		character	number-31.jpg	0.0	68.22481376425458	
12.0	44.10527243590241	pulse	1.0	t		character	number-31.jpg	0.0	68.92479906401422	
12.0	44.80524717080789	pulse	1.0	t		character	number-31.jpg	0.0	69.6247737989197	
12.0	45.50523518724458	pulse	1.0	t		character	number-31.jpg	0.0	70.3247618153564	
13.0	45.82179354402888	car	0.0		46	object	car-66.jpg	0.0	70.6413201721407	0.38330137213324633
13.0	46.205094916162125	ISI	1.0		353	object	car-66.jpg	0.0	71.02462154427394	3.016648399529913
13.0	46.25433709915069	pulse	1.0	t		object	car-66.jpg	0.0	71.0738637272625	
13.0	46.90526283697818	pulse	1.0	t		object	car-66.jpg	0.0	71.72478946509	
13.0	47.605239684853586	pulse	1.0	t		object	car-66.jpg	0.0	72.4247663129654	
13.0	48.3052165327299	pulse	1.0	t		object	car-66.jpg	0.0	73.12474316084172	
13.0	49.00520243619576	pulse	1.0	t		object	car-66.jpg	0.0	73.82472906430758	
14.0	49.22174331569204	limb	0.0		46	body	limb-41.jpg	0.0	74.04126994380385	0.38326665904060064
14.0	49.60500997473264	ISI	1.0		353	body	limb-41.jpg	0.0	74.42453660284446	3.016602517875981
14.0	49.70513642094738	pulse	1.0	t		body	limb-41.jpg	0.0	74.5246630490592	
14.0	50.40509727061544	pulse	1.0	t		body	limb-41.jpg	0.0	75.22462389872726	
14.0	51.10509343708236	pulse	1.0	t		body	limb-41.jpg	0.0	75.92462006519418	
14.0	51.805071794223295	pulse	1.0	t		body	limb-41.jpg	0.0	76.62459842233511	
14.0	52.505047434688095	pulse	1.0	t		body	limb-41.jpg	0.0	77.32457406279991	
15.0	52.62161249260862	number	0.0		46	character	number-113.jpg	0.0	77.44113912072044	0.3833062017811244
15.0	53.004918694389744	ISI	1.0		351	character	number-113.jpg	0.0	77.82444532250156	3.016639343940369
15.0	53.205043299301906	pulse	1.0	t		character	number-113.jpg	0.0	78.02456992741372	
15.0	53.905023769413674	pulse	1.0	t		character	number-113.jpg	0.0	78.72455039752549	
15.0	54.60496620604954	pulse	1.0	t		character	number-113.jpg	0.0	79.42449283416136	
15.0	55.30505443767652	pulse	1.0	t		character	number-113.jpg	0.0	80.12458106578833	
16.0	56.02155803833011	car	0.0		45	object	car-120.jpg	0.0	80.84108466644193	0.3833170684883953
16.0	56.01359636400048	pulse	0.0	t		object	car-120.jpg	0.0	80.8331229921123	
16.0	56.40487510681851	ISI	1.0		356	object	car-120.jpg	0.0	81.22440173493032	3.0166106679071163
16.0	56.70500239822195	pulse	1.0	t		object	car-120.jpg	0.0	81.52452902633377	
16.0	57.40498981095334	pulse	1.0	t		object	car-120.jpg	0.0	82.22451643906516	
16.0	58.104969677358895	pulse	1.0	t		object	car-120.jpg	0.0	82.92449630547071	
16.0	58.80495980676642	pulse	1.0	t		object	car-120.jpg	0.0	83.62448643487824	
17.0	59.421485774725625	car	0.0		46	object	car-120.jpg	1.0	84.24101240283744	0.3832545849209055
17.0	59.5048720581035	pulse	0.0	t		object	car-120.jpg	1.0	84.32439868621532	
17.0	59.80474035964653	ISI	1.0		353	object	car-120.jpg	1.0	84.62426698775835	3.016603121582193
17.0	60.20485222636216	pulse	1.0	t		object	car-120.jpg	1.0	85.02437885447398	
17.0	60.41317032869756	response	1.0	b		object	car-120.jpg	1.0	85.23269695680938	
17.0	60.90481005750007	pulse	1.0	t		object	car-120.jpg	1.0	85.72433668561189	
17.0	61.60481226102729	pulse	1.0	t		object	car-120.jpg	1.0	86.42433888913911	
17.0	62.304768884752775	pulse	1.0	t		object	car-120.jpg	1.0	87.12429551286459	
18.0	62.82134348122872	house	0.0		46	place	house-137.jpg	0.0	87.64087010934054	0.383299862867716
18.0	63.00476686233833	pulse	0.0	t		place	house-137.jpg	0.0	87.82429349045015	
18.0	63.20464334409644	ISI	1.0		231	place	house-137.jpg	0.0	88.02416997220826	2.0166544365902155
18.0	63.70477359365941	pulse	1.0	t		place	house-137.jpg	0.0	88.52430022177123	
18.0	64.404735952593	pulse	1.0	t		place	house-137.jpg	0.0	89.22426258070482	
18.0	65.1047248745881	pulse	1.0	t		place	house-137.jpg	0.0	89.92425150269992	
19.0	65.22129778068665	adult	0.0		46	face	adult-95.jpg	0.0	90.04082440879847	0.3833200870185465
19.0	65.6046178677052	ISI	1.0		591	face	adult-95.jpg	0.0	90.42414449581702	5.016570219606365
19.0	65.80476148935486	pulse	1.0	t		face	adult-95.jpg	0.0	90.62428811746668	
19.0	66.5047464872614	pulse	1.0	t		face	adult-95.jpg	0.0	91.32427311537322	
19.0	67.20471941104915	pulse	1.0	t		face	adult-95.jpg	0.0	92.02424603916097	
19.0	67.90470622007342	pulse	1.0	t		face	adult-95.jpg	0.0	92.72423284818524	
19.0	68.60468397350814	pulse	1.0	t		face	adult-95.jpg	0.0	93.42421060161996	
19.0	69.30467802700514	pulse	1.0	t		face	adult-95.jpg	0.0	94.12420465511696	
19.0	70.00465396932213	pulse	1.0	t		face	adult-95.jpg	0.0	94.82418059743395	
20.0	70.62118808731157	car	0.0		46	object	car-89.jpg	0.0	95.44071471542338	0.38325549048022367
20.0	70.70457467254255	pulse	0.0	t		object	car-89.jpg	0.0	95.52410130065437	
20.0	71.00444357779179	ISI	1.0		230	object	car-89.jpg	0.0	95.8239702059036	2.016644173588247
20.0	71.40456510380318	pulse	1.0	t		object	car-89.jpg	0.0	96.224091731915	
20.0	72.10453319794306	pulse	1.0	t		object	car-89.jpg	0.0	96.92405982605487	
20.0	72.804506423583	pulse	1.0	t		object	car-89.jpg	0.0	97.62403305169482	
21.0	73.02108775138004	adult	0.0		46	face	adult-31.jpg	0.0	97.84061437949185	0.3833080128988513
21.0	73.40439576427889	ISI	1.0		354	face	adult-31.jpg	0.0	98.2239223923907	3.01660493269992
21.0	73.50450832525621	pulse	1.0	t		face	adult-31.jpg	0.0	98.32403495336803	
21.0	74.20447460827836	pulse	1.0	t		face	adult-31.jpg	0.0	99.02400123639018	
21.0	74.90446775621513	pulse	1.0	t		face	adult-31.jpg	0.0	99.72399438432694	
21.0	75.6044421892675	pulse	1.0	t		face	adult-31.jpg	0.0	100.42396881737932	
21.0	76.30442356493859	pulse	1.0	t		face	adult-31.jpg	0.0	101.1239501930504	
22.0	76.42100069697881	adult	0.0		46	face	adult-76.jpg	0.0	101.24052732509062	0.3833206907238491
22.0	76.80432138770266	ISI	1.0		353	face	adult-76.jpg	0.0	101.62384801581447	3.0166197234966603
22.0	77.00448161126769	pulse	1.0	t		face	adult-76.jpg	0.0	101.82400823937951	
22.0	77.70444487575878	pulse	1.0	t		face	adult-76.jpg	0.0	102.5239715038706	
22.0	78.40442081807669	pulse	1.0	t		face	adult-76.jpg	0.0	103.2239474461885	
22.0	79.1044106456311	pulse	1.0	t		face	adult-76.jpg	0.0	103.92393727374292	
23.0	79.82094111119932	house	0.0		45	place	house-139.jpg	0.0	104.64046773931113	0.3832917128383997
23.0	79.81281432328706	pulse	0.0	t		place	house-139.jpg	0.0	104.63234095139887	
23.0	80.20423282403772	ISI	1.0		233	place	house-139.jpg	0.0	105.02375945214953	2.016649908794534
23.0	80.50438728220979	pulse	1.0	t		place	house-139.jpg	0.0	105.32391391032161	
23.0	81.20435235781952	pulse	1.0	t		place	house-139.jpg	0.0	106.02387898593133	
23.0	81.90433645016674	pulse	1.0	t		place	house-139.jpg	0.0	106.72386307827855	
24.0	82.22088273283225	limb	0.0		46	body	limb-16.jpg	0.0	107.04040936094407	0.3832723942468874
24.0	82.60415512707914	ISI	1.0		232	body	limb-16.jpg	0.0	107.42368175519096	2.01661429014257
24.0	82.66777336032737	pulse	1.0	t		body	limb-16.jpg	0.0	107.48729998843919	
24.0	83.30423822720604	pulse	1.0	t		body	limb-16.jpg	0.0	108.12376485531786	
24.0	84.0042247343772	pulse	1.0	t		body	limb-16.jpg	0.0	108.82375136248902	
25.0	84.62076941722171	house	0.0		46	place	house-57.jpg	0.0	109.44029604533353	0.38332219998937944
25.0	84.70419916742958	pulse	0.0	t		place	house-57.jpg	0.0	109.5237257955414	
25.0	85.00409161721109	ISI	1.0		351	place	house-57.jpg	0.0	109.8236182453229	3.016587123373938
25.0	85.40418748571938	pulse	1.0	t		place	house-57.jpg	0.0	110.22371411383119	
25.0	86.104152259476	pulse	1.0	t		place	house-57.jpg	0.0	110.92367888758781	
25.0	86.80414420000125	pulse	1.0	t		place	house-57.jpg	0.0	111.62367082811306	
25.0	87.50412044417135	pulse	1.0	t		place	house-57.jpg	0.0	112.32364707228317	
26.0	88.02067874058503	limb	0.0		46	body	limb-76.jpg	0.0	112.84020536869684	0.3833478574933906
26.0	88.20411691249137	pulse	0.0	t		body	limb-76.jpg	0.0	113.02364354060319	
26.0	88.40402659807842	ISI	1.0		471	body	limb-76.jpg	0.0	113.22355322619023	4.016569314047956
26.0	88.90415533837586	pulse	1.0	t		body	limb-76.jpg	0.0	113.72368196648767	
26.0	89.60412403622195	pulse	1.0	t		body	limb-76.jpg	0.0	114.42365066433376	
26.0	90.30411507118788	pulse	1.0	t		body	limb-76.jpg	0.0	115.1236416992997	
26.0	91.00410550244851	pulse	1.0	t		body	limb-76.jpg	0.0	115.82363213056033	
26.0	91.70407601141142	pulse	1.0	t		body	limb-76.jpg	0.0	116.52360263952323	
27.0	92.42059591212637	adult	0.0		45	face	adult-131.jpg	0.0	117.24012254023819	0.383304390662488
27.0	92.41269672136423	pulse	0.0	t		face	adult-131.jpg	0.0	117.23222334947604	
27.0	92.80390030278886	ISI	1.0		234	face	adult-131.jpg	0.0	117.62342693090068	2.0166339105871884
27.0	93.10405476096184	pulse	1.0	t		face	adult-131.jpg	0.0	117.92358138907366	
27.0	93.80402285510081	pulse	1.0	t		face	adult-131.jpg	0.0	118.62354948321263	
27.0	94.50399668444697	pulse	1.0	t		face	adult-131.jpg	0.0	119.32352331255879	
28.0	94.82053421337605	limb	0.0		46	body	limb-97.jpg	0.0	119.64006084148787	0.3832663571865851
28.0	95.20380057056263	ISI	1.0		232	body	limb-97.jpg	0.0	120.02332719867445	2.0166378346757483
28.0	95.26886256663784	pulse	1.0	t		body	limb-97.jpg	0.0	120.08838919474965	
28.0	95.90389453739681	pulse	1.0	t		body	limb-97.jpg	0.0	120.72342116550863	
28.0	96.6038891945991	pulse	1.0	t		body	limb-97.jpg	0.0	121.42341582271092	
29.0	97.22043840523838	number	0.0		46	character	number-99.jpg	0.0	122.0399650333502	0.3833034851040793
29.0	97.30386936285777	pulse	0.0	t		character	number-99.jpg	0.0	122.12339599096958	
29.0	97.60374189034246	ISI	1.0		356	character	number-99.jpg	0.0	122.42326851845428	3.0166164031143126
29.0	98.00386039782461	pulse	1.0	t		character	number-99.jpg	0.0	122.82338702593643	
29.0	98.70383271790615	pulse	1.0	t		character	number-99.jpg	0.0	123.52335934601797	
29.0	99.40380262316285	pulse	1.0	t		character	number-99.jpg	0.0	124.22332925127466	
29.0	100.103807241514	pulse	1.0	t		character	number-99.jpg	0.0	124.92333386962582	
30.0	100.62035829345677	number	0.0		46	character	number-99.jpg	1.0	125.43988492156859	0.3833400093144519
30.0	100.80378016530085	pulse	0.0	t		character	number-99.jpg	1.0	125.62330679341267	
30.0	101.00369830277123	ISI	1.0		231	character	number-99.jpg	1.0	125.82322493088304	2.0166200253497664
30.0	101.2456938407804	response	1.0	b		character	number-99.jpg	1.0	126.06522046889222	
30.0	101.50379957444784	pulse	1.0	t		character	number-99.jpg	1.0	126.32332620255966	
30.0	102.20379483535635	pulse	1.0	t		character	number-99.jpg	1.0	127.02332146346816	
30.0	102.90377922955668	pulse	1.0	t		character	number-99.jpg	1.0	127.72330585766849	
31.0	103.020318328121	number	0.0		46	character	number-76.jpg	1.0	127.83984495623281	0.3832853739249913
31.0	103.40360370204598	ISI	1.0		228	character	number-76.jpg	1.0	128.2231303301578	2.0166154975549944
31.0	103.60370868651444	pulse	1.0	t		character	number-76.jpg	1.0	128.42323531462625	
31.0	104.30368372327212	pulse	1.0	t		character	number-76.jpg	1.0	129.12321035138393	
31.0	105.00369377497645	pulse	1.0	t		character	number-76.jpg	1.0	129.82322040308827	
32.0	105.42021919960098	car	0.0		46	object	car-59.jpg	0.0	130.2397458277128	0.3833052962218062
32.0	105.7036473801727	pulse	0.0	t		object	car-59.jpg	0.0	130.5231740082845	
32.0	105.80352449582278	ISI	1.0		834	object	car-59.jpg	0.0	130.6230511239346	7.016550901015762
32.0	106.40361879469583	pulse	1.0	t		object	car-59.jpg	0.0	131.22314542280765	
32.0	107.10359745368896	pulse	1.0	t		object	car-59.jpg	0.0	131.92312408180078	
32.0	107.80360297759853	pulse	1.0	t		object	car-59.jpg	0.0	132.62312960571035	
32.0	108.50357167544462	pulse	1.0	t		object	car-59.jpg	0.0	133.32309830355643	
32.0	109.20362730694978	pulse	1.0	t		object	car-59.jpg	0.0	134.0231539350616	
32.0	109.90359932517822	pulse	1.0	t		object	car-59.jpg	0.0	134.72312595329004	
32.0	110.60357647490673	pulse	1.0	t		object	car-59.jpg	0.0	135.42310310301855	
32.0	111.3035756599038	pulse	1.0	t		object	car-59.jpg	0.0	136.12310228801562	
32.0	112.00355401704473	pulse	1.0	t		object	car-59.jpg	0.0	136.82308064515655	
32.0	112.7035344871565	pulse	1.0	t		object	car-59.jpg	0.0	137.52306111526832	
33.0	112.82007539683855	limb	0.0		46	body	limb-136.jpg	0.0	137.63960202495036	0.38327118683537265
33.0	113.20334658367392	ISI	1.0		233	body	limb-136.jpg	0.0	138.02287321178574	2.016611573465525
33.0	113.40343949402268	pulse	1.0	t		body	limb-136.jpg	0.0	138.2229661221345	
33.0	114.10343384937187	pulse	1.0	t		body	limb-136.jpg	0.0	138.92296047748368	
33.0	114.80340133980462	pulse	1.0	t		body	limb-136.jpg	0.0	139.62292796791644	
34.0	115.21995815713944	limb	0.0		46	body	limb-78.jpg	0.0	140.03948478525126	0.3833098240165782
34.0	115.50339358218298	pulse	0.0	t		body	limb-78.jpg	0.0	140.3229202102948	
34.0	115.60326798115602	ISI	1.0		469	body	limb-78.jpg	0.0	140.42279460926784	4.01662908093931
34.0	116.2033767689718	pulse	1.0	t		body	limb-78.jpg	0.0	141.0229033970836	
34.0	116.9033530131419	pulse	1.0	t		body	limb-78.jpg	0.0	141.7228796412537	
34.0	117.60333438881298	pulse	1.0	t		body	limb-78.jpg	0.0	142.4228610169248	
34.0	118.30331636818937	pulse	1.0	t		body	limb-78.jpg	0.0	143.1228429963012	
34.0	119.00336113298727	pulse	1.0	t		body	limb-78.jpg	0.0	143.82288776109908	
35.0	119.61989706209533	adult	0.0		46	face	adult-62.jpg	0.0	144.43942369020715	0.3832778276000681
35.0	119.70328998623881	pulse	0.0	t		face	adult-62.jpg	0.0	144.52281661435063	
35.0	120.0031748896954	ISI	1.0		591	face	adult-62.jpg	0.0	144.82270151780722	5.016545769515687
35.0	120.40326653226202	pulse	1.0	t		face	adult-62.jpg	0.0	145.22279316037384	
35.0	121.10324277643213	pulse	1.0	t		face	adult-62.jpg	0.0	145.92276940454394	
35.0	121.8032111724242	pulse	1.0	t		face	adult-62.jpg	0.0	146.62273780053602	
35.0	122.50319767959627	pulse	1.0	t		face	adult-62.jpg	0.0	147.32272430770809	
35.0	123.20319354421008	pulse	1.0	t		face	adult-62.jpg	0.0	148.0227201723219	
35.0	123.90316284576147	pulse	1.0	t		face	adult-62.jpg	0.0	148.7226894738733	
35.0	124.60314965478665	pulse	1.0	t		face	adult-62.jpg	0.0	149.42267628289846	
36.0	125.01972065921109	number	0.0		46	character	number-144.jpg	0.0	149.8392472873229	0.3832899017197633
36.0	125.30313616195781	pulse	0.0	t		character	number-144.jpg	0.0	150.12266279006963	
36.0	125.40301056093085	ISI	1.0		953	character	number-144.jpg	0.0	150.22253718904267	8.01652222498251
36.0	126.00318937863904	pulse	1.0	t		character	number-144.jpg	0.0	150.82271600675085	
36.0	126.70316230242588	pulse	1.0	t		character	number-144.jpg	0.0	151.5226889305377	
36.0	127.40314065956773	pulse	1.0	t		character	number-144.jpg	0.0	152.22266728767954	
36.0	128.10312052597328	pulse	1.0	t		character	number-144.jpg	0.0	152.9226471540851	
36.0	128.80309888311422	pulse	1.0	t		character	number-144.jpg	0.0	153.62262551122603	
36.0	129.50307693840205	pulse	1.0	t		character	number-144.jpg	0.0	154.32260356651386	
36.0	130.20307672710533	pulse	1.0	t		character	number-144.jpg	0.0	155.02260335521714	
36.0	130.9030381804787	pulse	1.0	t		character	number-144.jpg	0.0	155.7225648085905	
36.0	131.6030204617091	pulse	1.0	t		character	number-144.jpg	0.0	156.4225470898209	
36.0	132.30301451520518	pulse	1.0	t		character	number-144.jpg	0.0	157.122541143317	
36.0	133.0029989094055	pulse	1.0	t		character	number-144.jpg	0.0	157.82252553751732	
37.0	133.41953278591336	number	0.0		46	character	number-68.jpg	0.0	158.23905941402518	0.38327028127514495
37.0	133.70291568853736	pulse	0.0	t		character	number-68.jpg	0.0	158.52244231664918	
37.0	133.8028030671885	ISI	1.0		713	character	number-68.jpg	0.0	158.62232969530032	6.0165620695770485
37.0	134.40289736606064	pulse	1.0	t		character	number-68.jpg	0.0	159.22242399417246	
37.0	135.1028518768162	pulse	1.0	t		character	number-68.jpg	0.0	159.92237850492802	
37.0	135.8028528729319	pulse	1.0	t		character	number-68.jpg	0.0	160.62237950104372	
37.0	136.50282096707087	pulse	1.0	t		character	number-68.jpg	0.0	161.3223475951827	
37.0	137.20280717238893	pulse	1.0	t		character	number-68.jpg	0.0	162.02233380050075	
37.0	137.90279669809024	pulse	1.0	t		character	number-68.jpg	0.0	162.72232332620206	
37.0	138.60279014788102	pulse	1.0	t		character	number-68.jpg	0.0	163.42231677599284	
37.0	139.3027651846387	pulse	1.0	t		character	number-68.jpg	0.0	164.12229181275052	
38.0	139.81936513676555	house	0.0		46	place	house-116.jpg	0.0	164.63889176487737	0.38326937571582675
38.0	140.00274444733986	pulse	0.0	t		place	house-116.jpg	0.0	164.82227107545168	
38.0	140.20263451248138	ISI	1.0		234	place	house-116.jpg	0.0	165.0221611405932	2.0166330050287797
38.0	140.70272099336216	pulse	1.0	t		place	house-116.jpg	0.0	165.52224762147398	
38.0	141.40270387829878	pulse	1.0	t		place	house-116.jpg	0.0	166.2222305064106	
38.0	142.1026888762044	pulse	1.0	t		place	house-116.jpg	0.0	166.92221550431623	
39.0	142.21926751751016	car	0.0		46	object	car-97.jpg	0.0	167.03879414562198	0.3833034851031698
39.0	142.60257100261333	ISI	1.0		351	object	car-97.jpg	0.0	167.42209763072515	3.0165998011998454
39.0	142.8026642148161	pulse	1.0	t		object	car-97.jpg	0.0	167.62219084292792	
39.0	143.50264800531113	pulse	1.0	t		object	car-97.jpg	0.0	168.32217463342295	
39.0	144.20263692730623	pulse	1.0	t		object	car-97.jpg	0.0	169.02216355541805	
39.0	144.90260622885762	pulse	1.0	t		object	car-97.jpg	0.0	169.72213285696944	
40.0	145.61917080381318	adult	0.0		45	face	adult-17.jpg	0.0	170.438697431925	0.3833400093153614
40.0	145.61100085092403	pulse	0.0	t		face	adult-17.jpg	0.0	170.43052747903585	
40.0	146.00251081312854	ISI	1.0		231	face	adult-17.jpg	0.0	170.82203744124035	2.0166366272642335
40.0	146.30264987679948	pulse	1.0	t		face	adult-17.jpg	0.0	171.1221765049113	
40.0	147.00261978205708	pulse	1.0	t		face	adult-17.jpg	0.0	171.8221464101689	
40.0	147.7025972336378	pulse	1.0	t		face	adult-17.jpg	0.0	172.5221238617496	
41.0	148.01914744039277	limb	0.0		46	body	limb-25.jpg	0.0	172.8386740685046	0.3832563960386324
41.0	148.4024038364314	ISI	1.0		229	body	limb-25.jpg	0.0	173.22193046454322	2.016645984705974
41.0	148.48543755552237	pulse	1.0	t		body	limb-25.jpg	0.0	173.30496418363418	
41.0	149.1024996143824	pulse	1.0	t		body	limb-25.jpg	0.0	173.9220262424942	
41.0	149.8024755567003	pulse	1.0	t		body	limb-25.jpg	0.0	174.62200218481212	
42.0	150.41904982113738	limb	0.0		46	body	limb-119.jpg	0.0	175.2385764492492	0.3832917128383997
42.0	150.50247293057873	pulse	0.0	t		body	limb-119.jpg	0.0	175.32199955869055	
42.0	150.80234153397578	ISI	1.0		231	body	limb-119.jpg	0.0	175.6218681620876	2.016645380999762
42.0	151.2024527969861	pulse	1.0	t		body	limb-119.jpg	0.0	176.02197942509792	
42.0	151.90241817444803	pulse	1.0	t		body	limb-119.jpg	0.0	176.72194480255985	
42.0	152.6024164538867	pulse	1.0	t		body	limb-119.jpg	0.0	177.4219430819985	
43.0	152.81898691497554	car	0.0		46	object	car-8.jpg	0.0	177.63851354308736	0.38330227769256453
43.0	153.2022891926681	ISI	1.0		351	object	car-8.jpg	0.0	178.02181582077992	3.016630590203931
43.0	153.3023996406755	pulse	1.0	t		object	car-8.jpg	0.0	178.12192626878732	
43.0	154.00237497928538	pulse	1.0	t		object	car-8.jpg	0.0	178.8219016073972	
43.0	154.7024281959675	pulse	1.0	t		object	car-8.jpg	0.0	179.52195482407933	
43.0	155.40239508269406	pulse	1.0	t		object	car-8.jpg	0.0	180.22192171080587	
43.0	156.10237555280582	pulse	1.0	t		object	car-8.jpg	0.0	180.92190218091764	
44.0	156.21891978287204	adult	0.0		46	face	adult-49.jpg	0.0	181.03844641098385	0.3832678664512059
44.0	156.60218764932324	ISI	1.0		233	face	adult-49.jpg	0.0	181.42171427743506	2.0166296846455225
44.0	156.80229474676162	pulse	1.0	t		face	adult-49.jpg	0.0	181.62182137487343	
44.0	157.50224895566498	pulse	1.0	t		face	adult-49.jpg	0.0	182.3217755837768	
44.0	158.20225598883917	pulse	1.0	t		face	adult-49.jpg	0.0	183.021782616951	
45.0	158.61881733396876	limb	0.0		46	body	limb-13.jpg	0.0	183.43834396208058	0.38329865545529174
45.0	158.9022470238051	pulse	0.0	t		body	limb-13.jpg	0.0	183.72177365191692	
45.0	159.00211598942406	ISI	1.0		471	body	limb-13.jpg	0.0	183.82164261753587	4.016618817939161
45.0	159.60223051244793	pulse	1.0	t		body	limb-13.jpg	0.0	184.42175714055975	
45.0	160.30220102140993	pulse	1.0	t		body	limb-13.jpg	0.0	185.12172764952174	
45.0	161.00217696372783	pulse	1.0	t		body	limb-13.jpg	0.0	185.82170359183965	
45.0	161.70217222463543	pulse	1.0	t		body	limb-13.jpg	0.0	186.52169885274725	
45.0	162.40222000796348	pulse	1.0	t		body	limb-13.jpg	0.0	187.2217466360753	
46.0	163.01873480736322	car	0.0		46	object	car-44.jpg	0.0	187.83826143547503	0.3832844683656731
46.0	163.10213225930056	pulse	0.0	t		object	car-44.jpg	0.0	187.92165888741238	
46.0	163.4020192757289	ISI	1.0		234	object	car-44.jpg	0.0	188.2215459038407	2.0166339105871884
46.0	163.80210940902907	pulse	1.0	t		object	car-44.jpg	0.0	188.6216360371409	
46.0	164.5020935013781	pulse	1.0	t		object	car-44.jpg	0.0	189.32162012948993	
46.0	165.20206823628178	pulse	1.0	t		object	car-44.jpg	0.0	190.0215948643936	
47.0	165.41865318631608	house	0.0		46	place	house-19.jpg	0.0	190.2381798144279	0.3833025795447611
47.0	165.80195576586084	ISI	1.0		354	place	house-19.jpg	0.0	190.62148239397266	3.0166088567893894
47.0	165.90206742127884	pulse	1.0	t		place	house-19.jpg	0.0	190.72159404939066	
47.0	166.60203943950728	pulse	1.0	t		place	house-19.jpg	0.0	191.4215660676191	
47.0	167.30201749479602	pulse	1.0	t		place	house-19.jpg	0.0	192.12154412290784	
47.0	168.00199645564317	pulse	1.0	t		place	house-19.jpg	0.0	192.82152308375498	
47.0	168.7019871887569	pulse	1.0	t		place	house-19.jpg	0.0	193.52151381686872	
48.0	168.81856462265023	adult	0.0		46	face	adult-115.jpg	0.0	193.63809125076205	0.38333487781346776
48.0	169.2018995004637	ISI	1.0		473	face	adult-115.jpg	0.0	194.0214261285755	4.016581086314545
48.0	169.40204312211426	pulse	1.0	t		face	adult-115.jpg	0.0	194.22156975022608	
48.0	170.1020088014302	pulse	1.0	t		face	adult-115.jpg	0.0	194.92153542954202	
48.0	170.80199017710038	pulse	1.0	t		face	adult-115.jpg	0.0	195.6215168052122	
48.0	171.50197789168487	pulse	1.0	t		face	adult-115.jpg	0.0	196.3215045197967	
48.0	172.2019625877383	pulse	1.0	t		face	adult-115.jpg	0.0	197.02148921585012	
48.0	172.9019327948481	pulse	1.0	t		face	adult-115.jpg	0.0	197.72145942295992	
49.0	173.21848058677824	house	0.0		46	place	house-58.jpg	0.0	198.03800721489006	0.3832769220407499
49.0	173.601757508819	ISI	1.0		353	place	house-58.jpg	0.0	198.4212841369308	3.0165998011998454
49.0	173.6562075613565	pulse	1.0	t		place	house-58.jpg	0.0	198.4757341894683	
49.0	174.3018345718865	pulse	1.0	t		place	house-58.jpg	0.0	199.12136119999832	
49.0	175.00182017350016	pulse	1.0	t		place	house-58.jpg	0.0	199.82134680161198	
49.0	175.70179128616837	pulse	1.0	t		place	house-58.jpg	0.0	200.5213179142802	
49.0	176.40177658592802	pulse	1.0	t		place	house-58.jpg	0.0	201.22130321403984	
50.0	176.61835731001884	car	0.0		46	object	car-135.jpg	0.0	201.43788393813065	0.3832905054259754
50.0	177.0016478154448	ISI	1.0		474	object	car-135.jpg	0.0	201.82117444355663	4.016612479024843
50.0	177.1017633949523	pulse	1.0	t		object	car-135.jpg	0.0	201.9212900230641	
50.0	177.80173571503474	pulse	1.0	t		object	car-135.jpg	0.0	202.62126234314655	
50.0	178.50171377032166	pulse	1.0	t		object	car-135.jpg	0.0	203.32124039843347	
50.0	179.20170118305214	pulse	1.0	t		object	car-135.jpg	0.0	204.02122781116395	
50.0	179.90174745711556	pulse	1.0	t		object	car-135.jpg	0.0	204.72127408522738	
50.0	180.601732153169	pulse	1.0	t		object	car-135.jpg	0.0	205.4212587812808	
51.0	181.01826029446966	house	0.0		46	place	house-125.jpg	0.0	205.83778692258147	0.3832868831905216
51.0	181.3016591953019	pulse	0.0	t		place	house-125.jpg	0.0	206.12118582341373	
51.0	181.40154717766018	ISI	1.0		469	place	house-125.jpg	0.0	206.221073805772	4.016577765931288
51.0	182.0016275912949	pulse	1.0	t		place	house-125.jpg	0.0	206.8211542194067	
51.0	182.7016047410234	pulse	1.0	t		place	house-125.jpg	0.0	207.52113136913522	
51.0	183.40159517228494	pulse	1.0	t		place	house-125.jpg	0.0	208.22112180039676	
51.0	184.10156658680717	pulse	1.0	t		place	house-125.jpg	0.0	208.92109321491898	
51.0	184.80155369768363	pulse	1.0	t		place	house-125.jpg	0.0	209.62108032579545	
52.0	185.41812494359147	number	0.0		46	character	number-127.jpg	0.0	210.23765157170328	0.3833062017802149
52.0	185.50154684562222	pulse	0.0	t		character	number-127.jpg	0.0	210.32107347373403	
52.0	185.80143114537168	ISI	1.0		234	character	number-127.jpg	0.0	210.6209577734835	2.0166665107099107
52.0	186.20153063611542	pulse	1.0	t		character	number-127.jpg	0.0	211.02105726422724	
52.0	186.90149329690212	pulse	1.0	t		character	number-127.jpg	0.0	211.72101992501393	
52.0	187.60155466361357	pulse	1.0	t		character	number-127.jpg	0.0	212.4210812917254	
53.0	187.8180976560816	number	0.0		46	character	number-4.jpg	0.0	212.6376242841934	0.3832690738636302
53.0	188.20136672994522	ISI	1.0		354	character	number-4.jpg	0.0	213.02089335805704	3.0166058382601477
53.0	188.30147778165883	pulse	1.0	t		character	number-4.jpg	0.0	213.12100440977065	
53.0	189.00143983873932	pulse	1.0	t		character	number-4.jpg	0.0	213.82096646685113	
53.0	189.701427553322	pulse	1.0	t		character	number-4.jpg	0.0	214.5209541814338	
53.0	190.40141255122944	pulse	1.0	t		character	number-4.jpg	0.0	215.22093917934126	
53.0	191.10139211578098	pulse	1.0	t		character	number-4.jpg	0.0	215.9209187438928	
54.0	191.21797256820537	house	0.0		46	place	house-106.jpg	0.0	216.03749919631719	0.3832853739240818
54.0	191.60125794212945	ISI	1.0		233	place	house-106.jpg	0.0	216.42078457024127	2.016631495764159
54.0	191.80136564327404	pulse	1.0	t		place	house-106.jpg	0.0	216.62089227138586	
54.0	192.50134128373975	pulse	1.0	t		place	house-106.jpg	0.0	217.32086791185156	
54.0	193.20132809276402	pulse	1.0	t		place	house-106.jpg	0.0	218.02085472087583	
55.0	193.6178894378936	adult	0.0		46	face	adult-88.jpg	0.0	218.43741606600543	0.38333940560914925
55.0	193.90134448337994	pulse	0.0	t		face	adult-88.jpg	0.0	218.72087111149176	
55.0	194.00122884350276	ISI	1.0		231	face	adult-88.jpg	0.0	218.82075547161458	2.0166456828519586
55.0	194.6013675147624	pulse	1.0	t		face	adult-88.jpg	0.0	219.4208941428742	
55.0	195.30135704046552	pulse	1.0	t		face	adult-88.jpg	0.0	220.12088366857733	
56.0	196.01787452635472	car	0.0		45	object	car-140.jpg	0.0	220.83740115446653	0.38330589992801833
56.0	196.00978516821306	pulse	0.0	t		object	car-140.jpg	0.0	220.82931179632487	
56.0	196.40118042628274	ISI	1.0		233	object	car-140.jpg	0.0	221.22070705439455	2.0166366272642335
56.0	196.7013213010705	pulse	1.0	t		object	car-140.jpg	0.0	221.5208479291823	
56.0	197.40128124518014	pulse	1.0	t		object	car-140.jpg	0.0	222.22080787329196	
56.0	198.101266846792	pulse	1.0	t		object	car-140.jpg	0.0	222.9207934749038	
57.0	198.41781705354697	adult	0.0		46	face	adult-134.jpg	0.0	223.23734368165879	0.38325669789082895
57.0	198.8010737514378	ISI	1.0		233	face	adult-134.jpg	0.0	223.62060037954961	2.016642664324536
57.0	198.8544102683154	pulse	1.0	t		face	adult-134.jpg	0.0	223.67393689642722	
57.0	199.501155342301	pulse	1.0	t		face	adult-134.jpg	0.0	224.3206819704128	
57.0	200.20114758467935	pulse	1.0	t		face	adult-134.jpg	0.0	225.02067421279116	
58.0	200.81771641576233	limb	0.0		46	body	limb-52.jpg	0.0	225.63724304387415	0.3833062017802149
58.0	200.9011401289099	pulse	0.0	t		body	limb-52.jpg	0.0	225.72066675702172	
58.0	201.20102261754255	ISI	1.0		231	body	limb-52.jpg	0.0	226.02054924565437	2.0166025178768905
58.0	201.60112059902167	pulse	1.0	t		body	limb-52.jpg	0.0	226.4206472271335	
58.0	202.30109473022094	pulse	1.0	t		body	limb-52.jpg	0.0	227.12062135833276	
58.0	203.00108002998059	pulse	1.0	t		body	limb-52.jpg	0.0	227.8206066580924	
59.0	203.21762513541944	house	0.0		46	place	house-90.jpg	0.0	228.03715176353126	0.3833197851654404
59.0	203.60094492058488	ISI	1.0		474	place	house-90.jpg	0.0	228.4204715486967	4.016628779085295
59.0	203.7010695556819	pulse	1.0	t		place	house-90.jpg	0.0	228.5205961837937	
59.0	204.4010400646457	pulse	1.0	t		place	house-90.jpg	0.0	229.22056669275753	
59.0	205.1010854331489	pulse	1.0	t		place	house-90.jpg	0.0	229.92061206126073	
59.0	205.80106137546682	pulse	1.0	t		place	house-90.jpg	0.0	230.62058800357863	
59.0	206.5010551271098	pulse	1.0	t		place	house-90.jpg	0.0	231.3205817552216	
59.0	207.2010256360718	pulse	1.0	t		place	house-90.jpg	0.0	232.0205522641836	
60.0	207.61757369967017	limb	0.0		46	body	limb-31.jpg	0.0	232.437100327782	0.38325277380317857
60.0	207.90094120779213	pulse	0.0	t		body	limb-31.jpg	0.0	232.72046783590395	
60.0	208.00082647347335	ISI	1.0		234	body	limb-31.jpg	0.0	232.82035310158517	2.016629986497719
60.0	208.60095488173283	pulse	1.0	t		body	limb-31.jpg	0.0	233.42048150984465	
60.0	209.30090577025294	pulse	1.0	t		body	limb-31.jpg	0.0	234.12043239836476	
61.0	210.01745645997107	car	0.0		45	object	car-81.jpg	0.0	234.8369830880829	0.3833218981362734
61.0	210.00950655790803	pulse	0.0	t		object	car-81.jpg	0.0	234.82903318601984	
61.0	210.40077835810735	ISI	1.0		231	object	car-81.jpg	0.0	235.22030498621916	2.016633608733173
61.0	210.70088240683071	pulse	1.0	t		object	car-81.jpg	0.0	235.52040903494253	
61.0	211.400856839884	pulse	1.0	t		object	car-81.jpg	0.0	236.22038346799582	
61.0	212.10084183778963	pulse	1.0	t		object	car-81.jpg	0.0	236.92036846590145	
62.0	212.41741196684052	limb	0.0		46	body	limb-88.jpg	0.0	237.23693859495233	0.38330288139877666
62.0	212.8007148482393	ISI	1.0		234	body	limb-88.jpg	0.0	237.6202414763511	2.0166499087954435
62.0	212.8490406055662	pulse	1.0	t		body	limb-88.jpg	0.0	237.668567233678	
62.0	213.50079523169006	pulse	1.0	t		body	limb-88.jpg	0.0	238.32032185980188	
62.0	214.2008433168703	pulse	1.0	t		body	limb-88.jpg	0.0	239.02036994498212	
63.0	214.81736475703474	number	0.0		46	character	number-63.jpg	0.0	239.63689138514655	0.3832663571865851
63.0	214.90079269612397	pulse	0.0	t		character	number-63.jpg	0.0	239.7203193242358	
63.0	215.20063111422132	ISI	1.0		349	character	number-63.jpg	0.0	240.02015774233314	3.016627873526886
63.0	215.6007523383796	pulse	1.0	t		character	number-63.jpg	0.0	240.42027896649142	
63.0	216.30072556402047	pulse	1.0	t		character	number-63.jpg	0.0	241.12025219213228	
63.0	217.00068792295315	pulse	1.0	t		character	number-63.jpg	0.0	241.82021455106496	
63.0	217.70068801350862	pulse	1.0	t		character	number-63.jpg	0.0	242.52021464162044	
64.0	218.2172589877482	car	0.0		46	object	car-3.jpg	0.0	243.03678561586003	0.3832923165446118
64.0	218.4006763317975	pulse	0.0	t		object	car-3.jpg	0.0	243.22020295990933	
64.0	218.60055130429282	ISI	1.0		471	object	car-3.jpg	0.0	243.42007793240464	4.0166185160833265
64.0	219.10065861302792	pulse	1.0	t		object	car-3.jpg	0.0	243.92018524113973	
64.0	219.80062821643332	pulse	1.0	t		object	car-3.jpg	0.0	244.62015484454514	
64.0	220.50061411989736	pulse	1.0	t		object	car-3.jpg	0.0	245.32014074800918	
64.0	221.20065707357753	pulse	1.0	t		object	car-3.jpg	0.0	246.02018370168935	
64.0	221.90063875110172	pulse	1.0	t		object	car-3.jpg	0.0	246.72016537921354	
65.0	222.61716982037615	adult	0.0		45	face	adult-122.jpg	0.0	247.43669644848796	0.38329201469059626
65.0	222.60906144549517	pulse	0.0	t		face	adult-122.jpg	0.0	247.428588073607	
65.0	223.00046183506674	ISI	1.0		239	face	adult-122.jpg	0.0	247.81998846317856	1.999988831439623
65.0	223.30061931176897	pulse	1.0	t		face	adult-122.jpg	0.0	248.12014593988079	
65.0	224.00059434852847	pulse	1.0	t		face	adult-122.jpg	0.0	248.82012097664028	
65.0	224.7005784408757	pulse	1.0	t		face	adult-122.jpg	0.0	249.5201050689875	
66.0	225.00045066650637	baseline	0.0		708		baseline	0.0	249.81997729461818	5.899843972192684
66.0	225.40056464619374	pulse	0.0	t			baseline	0.0	250.22009127430556	
66.0	226.100525797714	pulse	0.0	t			baseline	0.0	250.92005242582582	
66.0	226.80050596597357	pulse	0.0	t			baseline	0.0	251.6200325940854	
66.0	227.50048160643746	pulse	0.0	t			baseline	0.0	252.32000823454928	
66.0	228.20047052843256	pulse	0.0	t			baseline	0.0	253.01999715654438	
66.0	228.9004552244878	pulse	0.0	t			baseline	0.0	253.71998185259963	
66.0	229.60044535389352	pulse	0.0	t			baseline	0.0	254.41997198200534	
66.0	230.30042944624256	pulse	0.0	t			baseline	0.0	255.11995607435438	
66.0	230.90029463869905	ISI	1.0		12		baseline	0.0	255.71982126681087	0.10000661058074911
