trial_nr	onset	event_type	phase	response	nr_frames	rating_type	face_id	repetition	session	rating	onset_abs	duration
0.0	0.009305608086833672	cue	0.0		479						486.6573913447701	3.9921218676054195
0.0	4.001427475692253	fix	1.0		120						490.6495132123755	1.0168776587829598
0.0	5.018305134475213	face	0.0		147	trustworthiness	039	1.0	1		491.66639087115846	1.2836022012527337
0.0	6.301907335727947	rating	1.0		201	trustworthiness	039	1.0	1		492.9499930724112	1.6833225621151087
0.0	7.985229897843055	fix	2.0		59	trustworthiness	039	1.0	1	0.08999999999999986	494.6333156345263	0.5167271837071894
1.0	8.501957081550245	face	0.0		147	trustworthiness	042	1.0	1		495.1500428182335	1.2334814740581805
1.0	9.735438555608425	rating	1.0		185	trustworthiness	042	1.0	1		496.38352429229167	1.5501863808133294
1.0	11.285624936421755	fix	2.0		60	trustworthiness	042	1.0	1	-0.7799999999999998	497.933710673105	0.5167842344378641
2.0	11.802409170859619	face	0.0		147	trustworthiness	091	1.0	1		498.45049490754286	1.2334138583771619
2.0	13.03582302923678	rating	1.0		284	trustworthiness	091	1.0	1		499.68390876592	2.3753017425226517
2.0	15.411124771759432	fix	2.0		60	trustworthiness	091	1.0	1	-1.63	502.0592105084427	0.5167350319559318
3.0	15.927859803715364	face	0.0		147	trustworthiness	044	1.0	1		502.5759455403986	1.2334633627149287
3.0	17.161323166430293	rating	1.0		174	trustworthiness	044	1.0	1		503.80940890311354	1.4584986119164114
3.0	18.619821778346704	fix	2.0		60	trustworthiness	044	1.0	1	0.33000000000000007	505.26790751502995	0.5167531432991836
4.0	19.136574921645888	face	0.0		147	trustworthiness	043	1.0	1		505.78466065832913	1.2334419309588611
4.0	20.37001685260475	rating	1.0		140	trustworthiness	043	1.0	1		507.018102589288	1.1751454416314573
4.0	21.545162294236206	fix	2.0		60	trustworthiness	043	1.0	1	-0.5800000000000001	508.19324803091945	0.5167558600005577
5.0	22.061918154236764	face	0.0		147	trustworthiness	101	1.0	1		508.71000389092	1.2334675886950208
5.0	23.295385742931785	rating	1.0		277	trustworthiness	101	1.0	1		509.943471479615	2.316936731946953
5.0	25.612322474878738	fix	2.0		60	trustworthiness	101	1.0	1	-0.8900000000000001	512.260408211562	0.5167353338117664
6.0	26.129057808690504	face	0.0		147	trustworthiness	082	1.0	1		512.7771435453737	1.2334615515806036
6.0	27.362519360271108	rating	1.0		134	trustworthiness	082	1.0	1		514.0106050969544	1.1251234212568306
6.0	28.48764278152794	fix	2.0		60	trustworthiness	082	1.0	1	1.08	515.1357285182112	0.5167706509307664
7.0	29.004413432458705	face	0.0		147	trustworthiness	066	1.0	1		515.652499169142	1.2334476662176712
7.0	30.237861098676376	rating	1.0		106	trustworthiness	066	1.0	1		516.8859468353596	0.8917587653618284
7.0	31.129619864038204	fix	2.0		60	trustworthiness	066	1.0	1	-0.4700000000000002	517.7777056007214	0.5167558600005577
8.0	31.646375724038762	face	0.0		147	trustworthiness	070	1.0	1		518.294461460722	1.2334521940533705
8.0	32.87982791809213	rating	1.0		132	trustworthiness	070	1.0	1		519.5279136547754	1.1084676264270001
8.0	33.98829554451913	fix	2.0		60	trustworthiness	070	1.0	1	-1.62	520.6363812812024	0.516747106184539
9.0	34.50504265070367	face	0.0		147	trustworthiness	144	1.0	1		521.1531283873869	1.2335023021028064
9.0	35.73854495280648	rating	1.0		105	trustworthiness	144	1.0	1		522.3866306894897	0.883384985877683
9.0	36.62192993868416	fix	2.0		60	trustworthiness	144	1.0	1	0.5300000000000002	523.2700156753674	0.5167634063934656
10.0	37.13869334507763	face	0.0		147	trustworthiness	006	1.0	1		523.7867790817609	1.233445251371677
10.0	38.372138596449304	rating	1.0		149	trustworthiness	006	1.0	1		525.0202243331325	1.2501677563157045
10.0	39.62230635276501	fix	2.0		60	trustworthiness	006	1.0	1	0.6799999999999997	526.2703920894483	0.5167477098959807
11.0	40.13905406266099	face	0.0		147	trustworthiness	036	1.0	1		526.7871397993442	1.2334352901332295
11.0	41.37248935279422	rating	1.0		87	trustworthiness	036	1.0	1		528.0205750894775	0.7334284983794532
11.0	42.10591785117367	fix	2.0		60	trustworthiness	036	1.0	1	0.5800000000000001	528.7540035878569	0.5167591804133735
12.0	42.622677031587045	face	0.0		147	trustworthiness	117	1.0	1		529.2707627682703	1.2334377049789964
12.0	43.85611473656604	rating	1.0		96	trustworthiness	117	1.0	1		530.5042004732493	0.808430588730289
12.0	44.66454532529633	fix	2.0		60	trustworthiness	117	1.0	1	0.0	531.3126310619796	0.5167570674234412
13.0	45.18130239271977	face	0.0		147	trustworthiness	102	1.0	1		531.829388129403	1.2334546088991374
13.0	46.41475700161891	rating	1.0		201	trustworthiness	102	1.0	1		533.0628427383022	1.683535370396612
13.0	48.09829237201552	fix	2.0		60	trustworthiness	102	1.0	1	0.009999999999999787	534.7463781086988	0.5167561618561649
14.0	48.615048533871686	face	0.0		147	trustworthiness	034	1.0	1		535.2631342705549	1.233460042302113
14.0	49.8485085761738	rating	1.0		115	trustworthiness	034	1.0	1		536.496594312857	0.9667557241652958
14.0	50.815264300339095	fix	2.0		60	trustworthiness	034	1.0	1	-0.3799999999999999	537.4633500370223	0.5167631045378585
15.0	51.33202740487695	face	0.0		147	trustworthiness	087	1.0	1		537.9801131415602	1.2334398179689288
15.0	52.56546722284588	rating	1.0		112	trustworthiness	087	1.0	1		539.2135529595291	0.9417783708906882
15.0	53.50724559373657	fix	2.0		60	trustworthiness	087	1.0	1	-1.0899999999999999	540.1553313304198	0.5167649156721836
16.0	54.024010509408754	face	0.0		147	trustworthiness	061	1.0	1		540.672096246092	1.2334624571476525
16.0	55.257472966556406	rating	1.0		107	trustworthiness	061	1.0	1		541.9055587032396	0.9001053778313235
16.0	56.15757834438773	fix	2.0		61	trustworthiness	061	1.0	1	-1.1600000000000001	542.805664081071	0.5250722868981939
17.0	56.682650631285924	face	0.0		146	trustworthiness	024	1.0	1		543.3307363679692	1.2251158446783847
17.0	57.90776647596431	rating	1.0		84	trustworthiness	024	1.0	1		544.5558522126476	0.7084188465428269
17.0	58.616185322507135	fix	2.0		60	trustworthiness	024	1.0	1	-1.0499999999999998	545.2642710591904	0.5167597841248153
18.0	59.13294510663195	face	0.0		147	trustworthiness	011	1.0	1		545.7810308433152	1.2334573256007388
18.0	60.36640243223269	rating	1.0		83	trustworthiness	011	1.0	1		547.0144881689159	0.7000731396406081
18.0	61.0664755718733	fix	2.0		60	trustworthiness	011	1.0	1	0.79	547.7145613085565	0.5167609915476987
19.0	61.583236563420996	face	0.0		147	trustworthiness	092	1.0	1		548.2313223001042	1.2334482699288856
19.0	62.81668483334988	rating	1.0		93	trustworthiness	092	1.0	1		549.4647705700331	0.7834375389584238
19.0	63.600122372308306	fix	2.0		60	trustworthiness	092	1.0	1	0.9400000000000004	550.2482081089915	0.5167398616474657
20.0	64.11686223395577	face	0.0		147	trustworthiness	130	1.0	1		550.764947970639	1.23346034415772
20.0	65.35032257811349	rating	1.0		207	trustworthiness	130	1.0	1		551.9984083147967	1.73356614458703
20.0	67.08388872270052	fix	2.0		60	trustworthiness	130	1.0	1	-0.029999999999999805	553.7319744593838	0.5167235614387664
21.0	67.60061228413929	face	0.0		147	trustworthiness	121	1.0	1		554.2486980208225	1.2334422328146957
21.0	68.83405451695398	rating	1.0		108	trustworthiness	121	1.0	1		555.4821402536372	0.9084359919474991
21.0	69.74249050890148	fix	2.0		60	trustworthiness	121	1.0	1	-1.35	556.3905762455847	0.5167594822692081
22.0	70.25924999117069	face	0.0		147	trustworthiness	126	1.0	1		556.9073357278539	1.2334540051876957
22.0	71.49270399635839	rating	1.0		109	trustworthiness	126	1.0	1		558.1407897330416	0.916772945034154
22.0	72.40947694139254	fix	2.0		60	trustworthiness	126	1.0	1	-0.94	559.0575626780758	0.5167573692792757
23.0	72.92623431067182	face	0.0		147	trustworthiness	027	1.0	1		559.5743200473551	1.2334503829190453
23.0	74.15968469359086	rating	1.0		111	trustworthiness	027	1.0	1		560.8077704302741	0.9334383992470521
23.0	75.09312309283791	fix	2.0		60	trustworthiness	027	1.0	1	-1.12	561.7412088295212	0.5167637082490728
24.0	75.60988680108699	face	0.0		147	trustworthiness	062	1.0	1		562.2579725377702	1.233470909108064
24.0	76.84335771019505	rating	1.0		103	trustworthiness	062	1.0	1		563.4914434468783	0.8667421708435086
24.0	77.71009988103856	fix	2.0		60	trustworthiness	062	1.0	1	-1.9500000000000002	564.3581856177218	0.5167588785577664
25.0	78.22685875959633	face	0.0		147	trustworthiness	172	1.0	1		564.8749444962796	1.2334494773519964
25.0	79.46030823694832	rating	1.0		145	trustworthiness	172	1.0	1		566.1083939736316	1.216806662317822
25.0	80.67711489926614	fix	2.0		60	trustworthiness	172	1.0	1	-2.06	567.3252006359494	0.5167582748463246
26.0	81.19387317411247	face	0.0		147	trustworthiness	030	1.0	1		567.8419589107957	1.2334530996206468
26.0	82.42732627373312	rating	1.0		241	trustworthiness	030	1.0	1		569.0754120104164	2.016892449712941
26.0	84.44421872344606	fix	2.0		60	trustworthiness	030	1.0	1	0.009999999999999787	571.0923044601293	0.5167625008264167
27.0	84.96098122427247	face	0.0		147	trustworthiness	064	1.0	1		571.6090669609557	1.2334530996204194
27.0	86.19443432389289	rating	1.0		155	trustworthiness	064	1.0	1		572.8425200605761	1.300158685551196
27.0	87.49459300944409	fix	2.0		60	trustworthiness	064	1.0	1	1.04	574.1426787461273	0.5167492191746987
28.0	88.01134222861879	face	0.0		147	trustworthiness	005	1.0	1		574.659427965302	1.233449779207831
28.0	89.24479200782662	rating	1.0		208	trustworthiness	005	1.0	1		575.8928777445099	1.7418756288032
28.0	90.98666763662982	fix	2.0		60	trustworthiness	005	1.0	1	-0.9700000000000002	577.6347533733131	0.5167552562888886
29.0	91.5034228929187	face	0.0		147	trustworthiness	012	1.0	1		578.151508629602	1.2334515903419287
29.0	92.73687448326064	rating	1.0		76	trustworthiness	012	1.0	1		579.3849602199439	0.6417358997912288
29.0	93.37861038305186	fix	2.0		60	trustworthiness	012	1.0	1	-1.0099999999999998	580.0266961197351	0.5167561618561649
30.0	93.89536654490803	face	0.0		147	trustworthiness	136	1.0	1		580.5434522815913	1.2334455532277389
30.0	95.12881209813577	rating	1.0		118	trustworthiness	136	1.0	1		581.776897834819	0.99179043002664
30.0	96.12060252816241	fix	2.0		60	trustworthiness	136	1.0	1	-0.08000000000000007	582.7686882648457	0.5167449931946066
31.0	96.63734752135701	face	0.0		147	trustworthiness	099	1.0	1		583.2854332580403	1.233465173849254
31.0	97.87081269520627	rating	1.0		108	trustworthiness	099	1.0	1		584.5188984318895	0.9084326715349107
31.0	98.77924536674118	fix	2.0		60	trustworthiness	099	1.0	1	1.2800000000000002	585.4273311034244	0.516755256289116
32.0	99.2960006230303	face	0.0		147	trustworthiness	141	1.0	1		585.9440863597135	1.233461249724769
32.0	100.52946187275506	rating	1.0		99	trustworthiness	141	1.0	1		587.1775476094383	0.8334160921094735
32.0	101.36287796486454	fix	2.0		61	trustworthiness	141	1.0	1	0.4299999999999997	588.0109637015478	0.5250864741169607
33.0	101.8879644389815	face	0.0		146	trustworthiness	100	1.0	1		588.5360501756647	1.2251182595241517
33.0	103.11308269850565	rating	1.0		78	trustworthiness	100	1.0	1		589.7611684351889	0.6500840215392145
33.0	103.76316672004486	fix	2.0		61	trustworthiness	100	1.0	1	-0.77	590.4112524567281	0.5250819462810341
34.0	104.2882486663259	face	0.0		146	trustworthiness	009	1.0	1		590.9363344030091	1.2251173539571028
34.0	105.513366020283	rating	1.0		89	trustworthiness	009	1.0	1		592.1614517569662	0.7500978767166089
34.0	106.26346389699961	fix	2.0		61	trustworthiness	009	1.0	1	2.58	592.9115496336829	0.5250822481368687
35.0	106.78854614513648	face	0.0		146	trustworthiness	038	1.0	1		593.4366318818197	1.2251200706584768
35.0	108.01366621579496	rating	1.0		81	trustworthiness	038	1.0	1		594.6617519524782	0.6834131188304582
35.0	108.69707933462541	fix	2.0		60	trustworthiness	038	1.0	1	0.46999999999999975	595.3451650713087	0.5167519358763002
36.0	109.21383127050171	face	0.0		147	trustworthiness	033	1.0	1		595.861917007185	1.2334506847746525
36.0	110.44728195527637	rating	1.0		89	trustworthiness	033	1.0	1		597.0953676919596	0.7500824820751859
36.0	111.19736443735155	fix	2.0		60	trustworthiness	033	1.0	1	-0.029999999999999805	597.8454501740348	0.5167748769106311
37.0	111.71413931426218	face	0.0		147	trustworthiness	124	1.0	1		598.3622250509454	1.2334488736405547
37.0	112.94758818790274	rating	1.0		202	trustworthiness	124	1.0	1		599.595673924586	1.6918460620356655
37.0	114.6394342499384	fix	2.0		60	trustworthiness	124	1.0	1	0.8600000000000003	601.2875199866216	0.516772160209257
38.0	115.15620641014766	face	0.0		147	trustworthiness	137	1.0	1		601.8042921468309	1.2334377049789964
38.0	116.38964411512666	rating	1.0		138	trustworthiness	137	1.0	1		603.0377298518099	1.1584751577270254
38.0	117.54811927285368	fix	2.0		60	trustworthiness	137	1.0	1	0.0	604.1962050095369	0.5167615952591404
39.0	118.06488086811282	face	0.0		147	trustworthiness	018	1.0	1		604.7129666047961	1.2334606460135547
39.0	119.29834151412638	rating	1.0		117	trustworthiness	018	1.0	1		605.9464272508096	0.9834193672440961
39.0	120.28176088137047	fix	2.0		60	trustworthiness	018	1.0	1	1.8099999999999996	606.9298466180537	0.5001166672350337
40.0	120.78187754860551	cue	0.0		480						607.4299632852887	4.000414146045614
40.0	124.78229169465112	fix	1.0		120						611.4303774313344	1.0168094393907268
40.0	125.79910113404185	face	0.0		147	attractiveness	102	1.0	1		612.4471868707251	1.2334657775606956
40.0	127.03256691160254	rating	1.0		101	attractiveness	102	1.0	1		613.6806526482858	0.8500899982823285
40.0	127.88265690988487	fix	2.0		60	attractiveness	102	1.0	1	-1.73	614.5307426465681	0.5167567655676066
41.0	128.39941367545248	face	0.0		147	attractiveness	027	1.0	1		615.0474994121357	1.2334500810634381
41.0	129.63286375651592	rating	1.0		165	attractiveness	027	1.0	1		616.2809494931992	1.3834983326999009
41.0	131.01636208921582	fix	2.0		60	attractiveness	027	1.0	1	0.6900000000000004	617.6644478258991	0.516756765567834
42.0	131.53311885478365	face	0.0		147	attractiveness	043	1.0	1		618.1812045914669	1.233453703331861
42.0	132.7665725581155	rating	1.0		51	attractiveness	043	1.0	1		619.4146582947988	0.4333833105783924
42.0	133.1999558686939	fix	2.0		60	attractiveness	043	1.0	1	-0.9199999999999999	619.8480416053771	0.5167504265975822
43.0	133.7167062952915	face	0.0		147	attractiveness	121	1.0	1		620.3647920319747	1.2334530996206468
43.0	134.95015939491213	rating	1.0		86	attractiveness	121	1.0	1		621.5982451315954	0.7251304846806761
43.0	135.6752898795928	fix	2.0		60	attractiveness	121	1.0	1	-2.2800000000000002	622.323375616276	0.5167003185483736
44.0	136.19199019814118	face	0.0		147	attractiveness	117	1.0	1		622.8400759348244	1.23346034415772
44.0	137.4254505422989	rating	1.0		76	attractiveness	117	1.0	1		624.0735362789821	0.6417374090697194
44.0	138.06718795136862	fix	2.0		60	attractiveness	117	1.0	1	-1.12	624.7152736880519	0.5167673305177232
45.0	138.58395528188635	face	0.0		147	attractiveness	064	1.0	1		625.2320410185696	1.2334428365261374
45.0	139.81739811841248	rating	1.0		111	attractiveness	064	1.0	1		626.4654838550957	0.9334450400729111
45.0	140.7508431584854	fix	2.0		60	attractiveness	064	1.0	1	0.8899999999999997	627.3989288951686	0.5167455969060484
46.0	141.26758875539144	face	0.0		147	attractiveness	099	1.0	1		627.9156744920747	1.2334645701378122
46.0	142.50105332552926	rating	1.0		135	attractiveness	099	1.0	1		629.1491390622125	1.1334531298061847
46.0	143.63450645533544	fix	2.0		60	attractiveness	099	1.0	1	1.38	630.2825921920187	0.5167615952591404
47.0	144.15126805059458	face	0.0		147	attractiveness	124	1.0	1		630.7993537872778	1.2334491754961618
47.0	145.38471722609074	rating	1.0		129	attractiveness	124	1.0	1		632.032802962774	1.0834558616004415
47.0	146.46817308769118	fix	2.0		60	attractiveness	124	1.0	1	1.5199999999999996	633.1162588243744	0.5167594822692081
48.0	146.9849325699604	face	0.0		147	attractiveness	087	1.0	1		633.6330183066436	1.2334549107547446
48.0	148.21838748071514	rating	1.0		63	attractiveness	087	1.0	1		634.8664732173984	0.533407126994689
48.0	148.75179460770983	fix	2.0		60	attractiveness	087	1.0	1	-1.38	635.3998803443931	0.5167305041202326
49.0	149.26852511183006	face	0.0		147	attractiveness	012	1.0	1		635.9166108485133	1.2334573256005115
49.0	150.50198243743057	rating	1.0		79	attractiveness	012	1.0	1		637.1500681741138	0.6667422312148119
49.0	151.16872466864538	fix	2.0		60	attractiveness	012	1.0	1	0.0	637.8168104053286	0.5167546525776743
50.0	151.68547932122306	face	0.0		147	attractiveness	091	1.0	1		638.3335650579063	1.2334543070435302
50.0	152.9189336282666	rating	1.0		108	attractiveness	091	1.0	1		639.5670193649498	0.9084378030818243
50.0	153.8273714313484	fix	2.0		60	attractiveness	091	1.0	1	-0.8500000000000001	640.4754571680317	0.516761897114975
51.0	154.34413332846339	face	0.0		147	attractiveness	006	1.0	1		640.9922190651466	1.2334700035407877
51.0	155.57760333200417	rating	1.0		94	attractiveness	006	1.0	1		642.2256890686874	0.7917322322441578
51.0	156.36933556424833	fix	2.0		60	attractiveness	006	1.0	1	-2.55	643.0174213009316	0.5167516340204656
52.0	156.8860871982688	face	0.0		147	attractiveness	126	1.0	1		643.534172934952	1.233456118177628
52.0	158.11954331644642	rating	1.0		159	attractiveness	126	1.0	1		644.7676290531297	1.3334889902655505
52.0	159.45303230671198	fix	2.0		60	attractiveness	126	1.0	1	-0.6000000000000001	646.1011180433952	0.5168283053728828
53.0	159.96986061208486	face	0.0		147	attractiveness	061	1.0	1		646.6179463487681	1.2333885024968367
53.0	161.2032491145817	rating	1.0		90	attractiveness	061	1.0	1		647.8513348512649	0.7584124924801472
53.0	161.96166160706184	fix	2.0		60	attractiveness	061	1.0	1	-1.88	648.6097473437451	0.5167658212392325
54.0	162.47842742830107	face	0.0		147	attractiveness	100	1.0	1		649.1265131649843	1.2334488736403273
54.0	163.7118763019414	rating	1.0		126	attractiveness	100	1.0	1		650.3599620386246	1.0584507375995145
54.0	164.77032703954092	fix	2.0		60	attractiveness	100	1.0	1	1.2800000000000002	651.4184127762242	0.5167625008264167
55.0	165.28708954036733	face	0.0		147	attractiveness	141	1.0	1		651.9351752770506	1.2334455532275115
55.0	166.52053509359484	rating	1.0		100	attractiveness	141	1.0	1		653.1686208302781	0.8417639120018521
55.0	167.3622990055967	fix	2.0		60	attractiveness	141	1.0	1	-1.35	654.0103847422799	0.5167498228861405
56.0	167.87904882848284	face	0.0		147	attractiveness	011	1.0	1		654.5271345651661	1.233453401476254
56.0	169.1125022299591	rating	1.0		121	attractiveness	011	1.0	1		655.7605879666423	1.0167871020673829
56.0	170.12928933202647	fix	2.0		60	attractiveness	011	1.0	1	-0.8500000000000001	656.7773750687097	0.5167528414433491
57.0	170.64604217346982	face	0.0		147	attractiveness	038	1.0	1		657.2941279101531	1.2334639664263705
57.0	171.8795061398962	rating	1.0		130	attractiveness	038	1.0	1		658.5275918765794	1.0918160575772617
57.0	172.97132219747346	fix	2.0		59	attractiveness	038	1.0	1	0.8099999999999996	659.6194079341567	0.5167465024733247
58.0	173.48806869994678	face	0.0		147	attractiveness	039	1.0	1		660.13615443663	1.2334301585858611
58.0	174.72149885853264	rating	1.0		150	attractiveness	039	1.0	1		661.3695845952159	1.2584808628002975
58.0	175.97997972133294	fix	2.0		60	attractiveness	039	1.0	1	0.6900000000000004	662.6280654580162	0.5167507284531894
59.0	176.49673044978613	face	0.0		147	attractiveness	062	1.0	1		663.1448161864694	1.2334630608593216
59.0	177.73019351064545	rating	1.0		188	attractiveness	062	1.0	1		664.3782792473287	1.5751881844012132
59.0	179.30538169504666	fix	2.0		60	attractiveness	062	1.0	1	-1.1800000000000002	665.9534674317299	0.5167443894831649
60.0	179.82212608452983	face	0.0		147	attractiveness	009	1.0	1		666.4702118212131	1.2334564200334626
60.0	181.0555825045633	rating	1.0		138	attractiveness	009	1.0	1		667.7036682412465	1.158467913189952
60.0	182.21405041775324	fix	2.0		60	attractiveness	009	1.0	1	1.5099999999999998	668.8621361544365	0.5167455969060484
61.0	182.7307960146593	face	0.0		147	attractiveness	030	1.0	1		669.3788817513425	1.2334609478691618
61.0	183.96425696252845	rating	1.0		91	attractiveness	030	1.0	1		670.6123426992117	0.7667470307208077
61.0	184.73100399324926	fix	2.0		60	attractiveness	030	1.0	1	0.9500000000000002	671.3790897299325	0.5167492191746987
62.0	185.24775321242396	face	0.0		147	attractiveness	044	1.0	1		671.8958389491072	1.2334645701378122
62.0	186.48121778256177	rating	1.0		91	attractiveness	044	1.0	1		673.129303519245	0.7667527659793905
62.0	187.24797054854116	fix	2.0		60	attractiveness	044	1.0	1	0.8799999999999999	673.8960562852244	0.5167730657765333
63.0	187.7647436143177	face	0.0		147	attractiveness	130	1.0	1		674.4128293510009	1.2334410253918122
63.0	188.9981846397095	rating	1.0		105	attractiveness	130	1.0	1		675.6462703763927	0.8834257363996585
63.0	189.88161037610917	fix	2.0		60	attractiveness	130	1.0	1	-2.12	676.5296961127924	0.5167543507220671
64.0	190.39836472683123	face	0.0		147	attractiveness	070	1.0	1		677.0464504635145	1.2334573256005115
64.0	191.63182205243174	rating	1.0		106	attractiveness	070	1.0	1		678.279907789115	0.8917648024762457
64.0	192.523586854908	fix	2.0		60	attractiveness	070	1.0	1	-2.24	679.1716725915912	0.5167492191746987
65.0	193.0403360740827	face	0.0		147	attractiveness	172	1.0	1		679.6884218107659	1.2334588348792295
65.0	194.27379490896192	rating	1.0		98	attractiveness	172	1.0	1		680.9218806456452	0.8250942318088619
65.0	195.09888914077078	fix	2.0		60	attractiveness	172	1.0	1	-2.34	681.746974877454	0.5167730657763059
66.0	195.61566220654709	face	0.0		147	attractiveness	024	1.0	1		682.2637479432303	1.2334337808547389
66.0	196.84909598740182	rating	1.0		84	attractiveness	024	1.0	1		683.4971817240851	0.7084248836572442
66.0	197.55752087105907	fix	2.0		60	attractiveness	024	1.0	1	0.03000000000000025	684.2056066077423	0.5167443894831649
67.0	198.07426526054223	face	0.0		147	attractiveness	092	1.0	1		684.7223509972255	1.2334549107547446
67.0	199.30772017129698	rating	1.0		41	attractiveness	092	1.0	1		685.9558059079802	0.35004094672831343
67.0	199.6577611180253	fix	2.0		60	attractiveness	092	1.0	1	0.0	686.3058468547085	0.5167591804133735
68.0	200.17452029843867	face	0.0		147	attractiveness	034	1.0	1		686.8226060351219	1.2334449495162971
68.0	201.40796524795496	rating	1.0		100	attractiveness	034	1.0	1		688.0560509846382	0.8417802122105513
68.0	202.2497454601655	fix	2.0		60	attractiveness	034	1.0	1	-1.4900000000000002	688.8978311968488	0.516735333811539
69.0	202.76648079397705	face	0.0		147	attractiveness	082	1.0	1		689.4145665306603	1.233455212610579
69.0	203.99993600658763	rating	1.0		134	attractiveness	082	1.0	1		690.6480217432709	1.1251442493014565
69.0	205.1250802558891	fix	2.0		60	attractiveness	082	1.0	1	1.1100000000000003	691.7731659925723	0.5167416727817908
70.0	205.64182192867088	face	0.0		147	attractiveness	136	1.0	1		692.2899076653541	1.233450986630487
70.0	206.87527291530137	rating	1.0		275	attractiveness	136	1.0	1		693.5233586519846	2.300269768455564
70.0	209.17554268375693	fix	2.0		60	attractiveness	136	1.0	1	-0.6699999999999999	695.8236284204402	0.5167588785577664
71.0	209.6923015623147	face	0.0		147	attractiveness	137	1.0	1		696.3403872989979	1.2334488736403273
71.0	210.92575043595502	rating	1.0		120	attractiveness	137	1.0	1		697.5738361726383	1.0084498471253482
71.0	211.93420028308037	fix	2.0		60	attractiveness	137	1.0	1	-0.9700000000000002	698.5822860197636	0.5167525395875145
72.0	212.4509528226679	face	0.0		147	attractiveness	066	1.0	1		699.0990385593511	1.233454910754972
72.0	213.68440773342286	rating	1.0		337	attractiveness	066	1.0	1		700.3324934701061	2.817000876287011
72.0	216.50140860970987	fix	2.0		60	attractiveness	066	1.0	1	0.25	703.1494943463931	0.5167594822692081
73.0	217.01816809197908	face	0.0		147	attractiveness	005	1.0	1		703.6662538286623	1.2334546088991374
73.0	218.25162270087822	rating	1.0		94	attractiveness	005	1.0	1		704.8997084375615	0.7917554751345506
73.0	219.04337817601277	fix	2.0		60	attractiveness	005	1.0	1	-1.5099999999999998	705.691463912696	0.5167628026820239
74.0	219.5601409786948	face	0.0		147	attractiveness	033	1.0	1		706.208226715378	1.2334352901330021
74.0	220.7935762688278	rating	1.0		134	attractiveness	033	1.0	1		707.441662005511	1.1251448530128982
74.0	221.9187211218407	fix	2.0		60	attractiveness	033	1.0	1	1.4299999999999997	708.5668068585239	0.516750124741975
75.0	222.43547124658267	face	0.0		147	attractiveness	036	1.0	1		709.0835569832659	1.2334739276650453
75.0	223.6689451742477	rating	1.0		109	attractiveness	036	1.0	1		710.317030910931	0.9167521169895281
75.0	224.58569729123724	fix	2.0		60	attractiveness	036	1.0	1	-0.7799999999999998	711.2337830279205	0.516756765567834
76.0	225.10245405680507	face	0.0		147	attractiveness	144	1.0	1		711.7505397934883	1.2334512884860942
76.0	226.33590534529117	rating	1.0		74	attractiveness	144	1.0	1		712.9839910819744	0.6250704455783307
76.0	226.9609757908695	fix	2.0		60	attractiveness	144	1.0	1	-1.0099999999999998	713.6090615275527	0.5167558600005577
77.0	227.47773165087006	face	0.0		147	attractiveness	042	1.0	1		714.1258173875533	1.2334660794165302
77.0	228.71119773028659	rating	1.0		237	attractiveness	042	1.0	1		715.3592834669698	1.983544033655562
77.0	230.69474176394215	fix	2.0		60	attractiveness	042	1.0	1	0.23000000000000043	717.3428275006254	0.5167564637119995
78.0	231.21149822765415	face	0.0		147	attractiveness	018	1.0	1		717.8595839643374	1.2334808703467388
78.0	232.44497909800089	rating	1.0		103	attractiveness	018	1.0	1		719.0930648346841	0.8667421708435086
78.0	233.3117212688444	fix	2.0		60	attractiveness	018	1.0	1	1.0	719.9598070055276	0.5167465024733247
79.0	233.82846777131772	face	0.0		147	attractiveness	101	1.0	1		720.476553508001	1.2334630608593216
79.0	235.06193083217704	rating	1.0		146	attractiveness	101	1.0	1		721.7100165688603	1.2334712109636712
79.0	236.2954020431407	fix	2.0		60	attractiveness	101	1.0	1	1.5199999999999996	722.943487779824	0.5000722944444078
80.0	236.79547433758512	cue	0.0		473						723.4435600742684	4.000454594711982
80.0	240.7959289322971	fix	1.0		120						727.4440146689803	1.0168037041319167
80.0	241.81273263642902	face	0.0		147	dominance	027	1.0	1		728.4608183731123	1.2335032076698553
80.0	243.04623584409887	rating	1.0		373	dominance	027	1.0	1		729.6943215807821	3.1503259588973833
80.0	246.19656180299626	fix	2.0		60	dominance	027	1.0	1	0.46999999999999975	732.8446475396795	0.5167525395877419
81.0	246.713314342584	face	0.0		147	dominance	006	1.0	1		733.3614000792672	1.2334521940533705
81.0	247.94676653663737	rating	1.0		92	dominance	006	1.0	1		734.5948522733206	0.7750894172102107
81.0	248.72185595384758	fix	2.0		60	dominance	006	1.0	1	1.46	735.3699416905308	0.5167492191746987
82.0	249.23860517302228	face	0.0		147	dominance	172	1.0	1		735.8866909097055	1.233466984983579
82.0	250.47207215800586	rating	1.0		102	dominance	172	1.0	1		737.1201578946891	0.8584296680703574
82.0	251.33050182607622	fix	2.0		60	dominance	172	1.0	1	1.1600000000000001	737.9785875627595	0.5167495210303059
83.0	251.84725134710652	face	0.0		147	dominance	082	1.0	1		738.4953370837898	1.2334585330236223
83.0	253.08070988013014	rating	1.0		67	dominance	082	1.0	1		739.7287956168134	0.5667338094401657
83.0	253.6474436895703	fix	2.0		60	dominance	082	1.0	1	-1.2200000000000002	740.2955294262536	0.5167401635033002
84.0	254.1641838530736	face	0.0		147	dominance	144	1.0	1		740.8122695897569	1.2334594385906712
84.0	255.39764329166428	rating	1.0		201	dominance	144	1.0	1		742.0457290283475	1.7335398831394286
84.0	257.1311831748037	fix	2.0		60	dominance	144	1.0	1	-1.4900000000000002	743.779268911487	0.5167440876275577
85.0	257.64792726243127	face	0.0		147	dominance	141	1.0	1		744.2960129991145	1.233457627456346
85.0	258.8813848898876	rating	1.0		115	dominance	141	1.0	1		745.5294706265709	0.9667762503543145
85.0	259.8481611402419	fix	2.0		60	dominance	141	1.0	1	-2.7199999999999998	746.4962468769252	0.5167564637119995
86.0	260.3649176039539	face	0.0		147	dominance	136	1.0	1		747.0130033406372	1.2334555144661863
86.0	261.5983731184201	rating	1.0		81	dominance	136	1.0	1		748.2464588551034	0.6834152318206179
86.0	262.28178835024073	fix	2.0		60	dominance	136	1.0	1	-0.8199999999999998	748.929874086924	0.5167443894831649
87.0	262.7985327397239	face	0.0		147	dominance	064	1.0	1		749.4466184764071	1.233464268282205
87.0	264.0319970080061	rating	1.0		103	dominance	064	1.0	1		750.6800827446893	0.8667696397139935
87.0	264.8987666477201	fix	2.0		60	dominance	064	1.0	1	0.8799999999999999	751.5468523844033	0.5167471061847664
88.0	265.41551375390486	face	0.0		147	dominance	044	1.0	1		752.0635994905881	1.233458533023395
88.0	266.64897228692826	rating	1.0		83	dominance	044	1.0	1		753.2970580236115	0.7000852138694427
88.0	267.3490575007977	fix	2.0		60	dominance	044	1.0	1	-0.10000000000000009	753.9971432374809	0.5167468043289318
89.0	267.86580430512663	face	0.0		147	dominance	061	1.0	1		754.5138900418099	1.2334546088991374
89.0	269.09925891402577	rating	1.0		185	dominance	061	1.0	1		755.747344650709	1.5501939272062373
89.0	270.649452841232	fix	2.0		60	dominance	061	1.0	1	0.6200000000000001	757.2975385779152	0.5167365412346498
90.0	271.16618938246665	face	0.0		147	dominance	137	1.0	1		757.8142751191499	1.2334727202421618
90.0	272.3996621027088	rating	1.0		72	dominance	137	1.0	1		759.0477478393921	0.6083817484750398
90.0	273.00804385118386	fix	2.0		60	dominance	137	1.0	1	0.7999999999999998	759.6561295878671	0.5167519358763002
91.0	273.52479578706016	face	0.0		147	dominance	099	1.0	1		760.1728815237434	1.2334615515806036
91.0	274.75825733864076	rating	1.0		57	dominance	099	1.0	1		761.406343075324	0.48338963445576155
91.0	275.2416469730965	fix	2.0		60	dominance	099	1.0	1	-1.31	761.8897327097798	0.5167483136076498
92.0	275.7583952867042	face	0.0		147	dominance	091	1.0	1		762.4064810233874	1.233458533023395
92.0	276.99185381972757	rating	1.0		90	dominance	091	1.0	1		763.6399395564108	0.7584146054700796
92.0	277.75026842519765	fix	2.0		60	dominance	091	1.0	1	-1.2999999999999998	764.3983541618809	0.5167513321646311
93.0	278.2670197573623	face	0.0		147	dominance	005	1.0	1		764.9151054940455	1.233506226227064
93.0	279.50052598358934	rating	1.0		68	dominance	005	1.0	1		766.1486117202726	0.5750215600446609
93.0	280.075547543634	fix	2.0		60	dominance	005	1.0	1	-0.5299999999999998	766.7236332803172	0.5167455969060484
94.0	280.59229314054005	face	0.0		147	dominance	024	1.0	1		767.2403788772233	1.2334956612769474
94.0	281.825788801817	rating	1.0		101	dominance	024	1.0	1		768.4738745385002	0.8500576997205371
94.0	282.67584650153754	fix	2.0		60	dominance	024	1.0	1	1.2599999999999998	769.3239322382208	0.5167519358760728
95.0	283.1925984374136	face	0.0		147	dominance	042	1.0	1		769.8406841740969	1.2334555144664137
95.0	284.42605395188	rating	1.0		111	dominance	042	1.0	1		771.0741396885633	0.9334501716200521
95.0	285.3595041235001	fix	2.0		60	dominance	042	1.0	1	-1.6800000000000002	772.0075898601833	0.5167416727817908
96.0	285.87624579628186	face	0.0		147	dominance	124	1.0	1		772.5243315329651	1.233466984983579
96.0	287.10971278126544	rating	1.0		84	dominance	124	1.0	1		773.7577985179487	0.7084058667469435
96.0	287.8181186480124	fix	2.0		60	dominance	124	1.0	1	2.33	774.4662043846956	0.5167555581447232
97.0	288.3348742061571	face	0.0		147	dominance	070	1.0	1		774.9829599428404	1.233452495909205
97.0	289.5683267020663	rating	1.0		75	dominance	070	1.0	1		776.2164124387496	0.6334040782519423
97.0	290.20173078031826	fix	2.0		60	dominance	070	1.0	1	1.3099999999999996	776.8498165170015	0.5167609915476987
98.0	290.71849177186596	face	0.0		147	dominance	039	1.0	1		777.3665775085492	1.2334470625062295
98.0	291.9519388343722	rating	1.0		201	dominance	039	1.0	1		778.6000245710554	1.683538992665035
98.0	293.6354778270372	fix	2.0		60	dominance	039	1.0	1	0.07000000000000028	780.2835635637205	0.5167410690703491
99.0	294.15221889610757	face	0.0		147	dominance	101	1.0	1		780.8003046327908	1.2334757387993704
99.0	295.38569463490694	rating	1.0		96	dominance	101	1.0	1		782.0337803715902	0.8084103643973322
99.0	296.1941049993043	fix	2.0		60	dominance	101	1.0	1	-0.9500000000000002	782.8421907359875	0.5167555581447232
100.0	296.710860557449	face	0.0		147	dominance	030	1.0	1		783.3589462941322	1.2334527977648122
100.0	297.9443133552138	rating	1.0		91	dominance	030	1.0	1		784.592399091897	0.766759708661084
100.0	298.7110730638749	fix	2.0		60	dominance	030	1.0	1	0.8099999999999996	785.3591588005581	0.5167455969060484
101.0	299.22781866078094	face	0.0		147	dominance	102	1.0	1		785.8759043974642	1.2334633627149287
101.0	300.46128202349587	rating	1.0		129	dominance	102	1.0	1		787.1093677601791	1.0834576727347667
101.0	301.54473969623064	fix	2.0		60	dominance	102	1.0	1	-1.1	788.1928254329139	0.5167513321646311
102.0	302.06149102839527	face	0.0		147	dominance	062	1.0	1		788.7095767650785	1.2334494773519964
102.0	303.29494050574726	rating	1.0		226	dominance	062	1.0	1		789.9430262424305	1.8918885633206628
102.0	305.1868290690679	fix	2.0		60	dominance	062	1.0	1	0.7199999999999998	791.8349148057512	0.5167546525776743
103.0	305.7035837216456	face	0.0		147	dominance	126	1.0	1		792.3516694583288	1.233461853436438
103.0	306.93704557508204	rating	1.0		72	dominance	126	1.0	1		793.5851313117653	0.6083935208480398
103.0	307.5454390959301	fix	2.0		60	dominance	126	1.0	1	1.6100000000000003	794.1935248326133	0.5167679342291649
104.0	308.06220703015924	face	0.0		147	dominance	087	1.0	1		794.7102927668425	1.2334585330236223
104.0	309.29566556318287	rating	1.0		84	dominance	087	1.0	1		795.9437512998661	0.708395301796827
104.0	310.0040608649797	fix	2.0		60	dominance	087	1.0	1	1.3499999999999996	796.6521466016629	0.5167543507218397
105.0	310.52081521570153	face	0.0		147	dominance	043	1.0	1		797.1689009523848	1.2334515903419287
105.0	311.75426680604346	rating	1.0		150	dominance	043	1.0	1		798.4023525427267	1.258479655377414
105.0	313.0127464614209	fix	2.0		60	dominance	043	1.0	1	-0.7200000000000002	799.6608321981041	0.5167528414433491
106.0	313.5294993028642	face	0.0		147	dominance	034	1.0	1		800.1775850395475	1.2334660794165302
106.0	314.76296538228075	rating	1.0		70	dominance	034	1.0	1		801.411051118964	0.5917353111724424
106.0	315.3547006934532	fix	2.0		60	dominance	034	1.0	1	-1.7400000000000002	802.0027864301364	0.5167389560801894
107.0	315.8714396495334	face	0.0		147	dominance	066	1.0	1		802.5195253862166	1.2334971705556654
107.0	317.10493682008905	rating	1.0		97	dominance	066	1.0	1		803.7530225567723	0.8167249801604157
107.0	317.92166180024947	fix	2.0		60	dominance	066	1.0	1	2.34	804.5697475369327	0.5167549544335088
108.0	318.438416754683	face	0.0		147	dominance	033	1.0	1		805.0865024913662	1.2334482699288856
108.0	319.67186502461186	rating	1.0		79	dominance	033	1.0	1		806.3199507612951	0.6667434386376954
108.0	320.33860846324956	fix	2.0		60	dominance	033	1.0	1	0.9900000000000002	806.9866941999328	0.5167567655676066
109.0	320.85536522881716	face	0.0		147	dominance	012	1.0	1		807.5034509655004	1.233450986630487
109.0	322.08881621544765	rating	1.0		76	dominance	012	1.0	1		808.7369019521309	0.6417500870097683
109.0	322.7305663024574	fix	2.0		60	dominance	012	1.0	1	1.79	809.3786520391407	0.5167477098962081
110.0	323.2473140123536	face	0.0		147	dominance	018	1.0	1		809.8953997490369	1.2334506847751072
110.0	324.48076469712873	rating	1.0		74	dominance	018	1.0	1		811.128850433812	0.625071049289545
110.0	325.1058357464183	fix	2.0		60	dominance	018	1.0	1	-1.2200000000000002	811.7539214831015	0.5167540488660052
111.0	325.6225897952843	face	0.0		147	dominance	038	1.0	1		812.2706755319675	1.2334512884863216
111.0	326.8560410837706	rating	1.0		157	dominance	038	1.0	1		813.5041268204538	1.3168277620329718
111.0	328.1728688458036	fix	2.0		60	dominance	038	1.0	1	0.019999999999999574	814.8209545824868	0.5167516340202383
112.0	328.6896204798238	face	0.0		147	dominance	100	1.0	1		815.3377062165071	1.233458834879002
112.0	329.9230793147028	rating	1.0		108	dominance	100	1.0	1		816.5711650513861	0.9084353882362848
112.0	330.8315147029391	fix	2.0		60	dominance	100	1.0	1	1.1500000000000004	817.4796004396223	0.5167492191749261
113.0	331.34826392211403	face	0.0		147	dominance	121	1.0	1		817.9963496587973	1.2334645701375848
113.0	332.5817284922516	rating	1.0		101	dominance	121	1.0	1		819.2298142289349	0.8500872815811817
113.0	333.4318157738328	fix	2.0		60	dominance	121	1.0	1	1.0599999999999996	820.079901510516	0.5167655193836254
114.0	333.9485812932164	face	0.0		147	dominance	009	1.0	1		820.5966670298997	1.233440119824536
114.0	335.18202141304096	rating	1.0		86	dominance	009	1.0	1		821.8301071497242	0.7251135807605351
114.0	335.9071349938015	fix	2.0		60	dominance	009	1.0	1	-2.06	822.5552207304847	0.5167320133987232
115.0	336.4238670072002	face	0.0		147	dominance	092	1.0	1		823.0719527438835	1.2334455532277389
115.0	337.65731256042795	rating	1.0		66	dominance	092	1.0	1		824.3053982971112	0.5583983656320015
115.0	338.21571092605996	fix	2.0		60	dominance	092	1.0	1	-0.7400000000000002	824.8637966627432	0.516753143299411
116.0	338.73246406935937	face	0.0		147	dominance	011	1.0	1		825.3805498060426	1.2334609478689345
116.0	339.9659250172283	rating	1.0		79	dominance	011	1.0	1		826.6140107539115	0.6667832835928493
116.0	340.63270830082115	fix	2.0		60	dominance	011	1.0	1	1.3399999999999999	827.2807940375044	0.5167078649410541
117.0	341.1494161657622	face	0.0		147	dominance	117	1.0	1		827.7975019024454	1.2334609478693892
117.0	342.3828771136316	rating	1.0		115	dominance	117	1.0	1		829.0309628503148	0.9667717225183878
117.0	343.34964883615	fix	2.0		60	dominance	117	1.0	1	2.0300000000000002	829.9977345728332	0.5167483136074225
118.0	343.8663971497574	face	0.0		147	dominance	130	1.0	1		830.5144828864406	1.23345642003369
118.0	345.0998535697911	rating	1.0		117	dominance	130	1.0	1		831.7479393064743	0.9834465342587464
118.0	346.08330010404984	fix	2.0		60	dominance	130	1.0	1	-0.7000000000000002	832.7313858407331	0.5167546525776743
119.0	346.6000547566275	face	0.0		147	dominance	036	1.0	1		833.2481404933108	1.2334527977645848
119.0	347.8335075543921	rating	1.0		141	dominance	036	1.0	1		834.4815932910753	1.1834739427581553
119.0	349.01698149715025	fix	2.0		60	dominance	036	1.0	1	-1.2599999999999998	835.6650672338335	0.5000568998025301
120.0	349.5170383969528	cue	0.0		3600						836.165124133636	30.00352688221392
120.0	379.5205652791667	fix	1.0		120						866.16865101585	1.0001255719789697
120.0	380.5206908511457	cue	0.0		480						867.1687765878289	4.000516475134191
120.0	384.52120732627986	fix	1.0		120						871.1692930629631	1.016758425774242
120.0	385.5379657520541	face	0.0		147	dominance	126	2.0	1		872.1860514887373	1.2334615515806036
120.0	386.7714273036347	rating	1.0		165	dominance	126	2.0	1		873.419513040318	1.3834956159985268
120.0	388.15492291963324	fix	2.0		60	dominance	126	2.0	1	1.0099999999999998	874.8030086563165	0.5167446913387721
121.0	388.671667610972	face	0.0		147	dominance	011	2.0	1		875.3197533476553	1.2334576274561186
121.0	389.9051252384281	rating	1.0		81	dominance	011	2.0	1		876.5532109751114	0.6834179485222194
121.0	390.58854318695035	fix	2.0		60	dominance	011	2.0	1	1.8899999999999997	877.2366289236336	0.516761897114975
122.0	391.1053050840653	face	0.0		147	dominance	034	2.0	1		877.7533908207486	1.2334684942620697
122.0	392.3387735783274	rating	1.0		107	dominance	034	2.0	1		878.9868593150106	0.9000803238068329
122.0	393.2388539021342	fix	2.0		60	dominance	034	2.0	1	-1.37	879.8869396388175	0.5167531432989563
123.0	393.7556070454332	face	0.0		147	dominance	121	2.0	1		880.4036927821164	1.2334467606506223
123.0	394.9890538060838	rating	1.0		82	dominance	121	2.0	1		881.637139542767	0.6917585238770698
123.0	395.6808123299609	fix	2.0		60	dominance	121	2.0	1	1.6900000000000004	882.3288980666441	0.5167455969062758
124.0	396.19755792686715	face	0.0		147	dominance	030	2.0	1		882.8456436635504	1.2334537033316337
124.0	397.4310116301988	rating	1.0		72	dominance	030	2.0	1		884.079097366882	0.6084004635299607
124.0	398.03941209372874	fix	2.0		60	dominance	030	2.0	1	0.1200000000000001	884.687497830412	0.5167552562888886
125.0	398.55616735001763	face	0.0		147	dominance	082	2.0	1		885.2042530867009	1.2334555144661863
125.0	399.7896228644838	rating	1.0		78	dominance	082	2.0	1		886.4377086011671	0.6584061836956607
125.0	400.4480290481795	fix	2.0		60	dominance	082	2.0	1	-1.0	887.0961147848627	0.5167477098962081
126.0	400.9647767580757	face	0.0		147	dominance	066	2.0	1		887.6128624947589	1.233466683127972
126.0	402.19824344120366	rating	1.0		81	dominance	066	2.0	1		888.8463291778869	0.6834116095519676
126.0	402.8816550507556	fix	2.0		60	dominance	066	2.0	1	2.66	889.5297407874389	0.516758878557539
127.0	403.39841392931316	face	0.0		147	dominance	018	2.0	1		890.0464996659964	1.233463664570536
127.0	404.6318775938837	rating	1.0		106	dominance	018	2.0	1		891.2799633305669	0.891756652371896
127.0	405.5236342462556	fix	2.0		61	dominance	018	2.0	1	-1.17	892.1717199829388	0.5250798332913291
128.0	406.0487140795469	face	0.0		146	dominance	087	2.0	1		892.6967998162302	1.2251185613795315
128.0	407.27383264092646	rating	1.0		171	dominance	087	2.0	1		893.9219183776097	1.4334983176072456
128.0	408.7073309585337	fix	2.0		60	dominance	087	2.0	1	1.1600000000000001	895.355416695217	0.5168150237213922
129.0	409.2241459822551	face	0.0		147	dominance	124	2.0	1		895.8722317189383	1.2333966526011864
129.0	410.4575426348563	rating	1.0		75	dominance	124	2.0	1		897.1056283715395	0.6334034745405006
129.0	411.0909461093968	fix	2.0		60	dominance	124	2.0	1	2.54	897.73903184608	0.5167528414431217
130.0	411.6076989508399	face	0.0		147	dominance	033	2.0	1		898.2557846875231	1.2334585330236223
130.0	412.8411574838635	rating	1.0		84	dominance	033	2.0	1		899.4892432205468	0.7084176391199435
130.0	413.54957512298347	fix	2.0		60	dominance	033	2.0	1	0.9199999999999999	900.1976608596667	0.5167416727817908
131.0	414.06631679576526	face	0.0		147	dominance	027	2.0	1		900.7144025324485	1.2334706072524568
131.0	415.2997874030177	rating	1.0		120	dominance	027	2.0	1		901.947873139701	1.0084483378464029
131.0	416.3082357408641	fix	2.0		60	dominance	027	2.0	1	-0.7799999999999998	902.9563214775474	0.516747106184539
132.0	416.82498284704866	face	0.0		147	dominance	136	2.0	1		903.4730685837319	1.23345642003369
132.0	418.05843926708235	rating	1.0		85	dominance	136	2.0	1		904.7065250037656	0.7167503662262789
132.0	418.7751896333086	fix	2.0		60	dominance	136	2.0	1	-1.12	905.4232753699919	0.5167507284531894
133.0	419.2919403617618	face	0.0		147	dominance	064	2.0	1		905.9400260984451	1.2334479680735058
133.0	420.5253883298353	rating	1.0		263	dominance	064	2.0	1		907.1734740665186	2.2002649689497957
133.0	422.7256532987851	fix	2.0		60	dominance	064	2.0	1	-0.04999999999999982	909.3737390354684	0.5167465024728699
134.0	423.242399801258	face	0.0		147	dominance	100	2.0	1		909.8904855379412	1.2334817759137877
134.0	424.4758815771718	rating	1.0		65	dominance	100	2.0	1		911.123967313855	0.5500442067700533
134.0	425.02592578394183	fix	2.0		60	dominance	100	2.0	1	1.29	911.6740115206251	0.5167522377319074
135.0	425.54267802167374	face	0.0		147	dominance	038	2.0	1		912.190763758357	1.233452495909205
135.0	426.77613051758294	rating	1.0		145	dominance	038	2.0	1		913.4242162542662	1.2168099827308652
135.0	427.9929405003138	fix	2.0		60	dominance	038	2.0	1	-0.06000000000000005	914.641026236997	0.5167561618563923
136.0	428.5096966621702	face	0.0		147	dominance	117	2.0	1		915.1577823988534	1.2334452513719043
136.0	429.7431419135421	rating	1.0		74	dominance	117	2.0	1		916.3912276502253	0.6250785956826803
136.0	430.3682205092248	fix	2.0		60	dominance	117	2.0	1	0.9199999999999999	917.016306245908	0.5167546525772195
137.0	430.884975161802	face	0.0		147	dominance	012	2.0	1		917.5330608984852	1.2334467606506223
137.0	432.1184219224526	rating	1.0		100	dominance	012	2.0	1		918.7665076591359	0.8417639120020795
137.0	432.9601858344547	fix	2.0		60	dominance	012	2.0	1	1.2599999999999998	919.608271571138	0.5167465024728699
138.0	433.4769323369276	face	0.0		147	dominance	091	2.0	1		920.1250180736108	1.233465777560923
138.0	434.7103981144885	rating	1.0		128	dominance	091	2.0	1		921.3584838511717	1.0751258511954802
138.0	435.785523965684	fix	2.0		60	dominance	091	2.0	1	-1.98	922.4336097023672	0.516748615463257
139.0	436.30227258114724	face	0.0		147	dominance	099	2.0	1		922.9503583178305	1.233450986630487
139.0	437.5357235677777	rating	1.0		148	dominance	099	2.0	1		924.183809304461	1.2418175215771043
139.0	438.7775410893548	fix	2.0		60	dominance	099	2.0	1	-0.009999999999999787	925.4256268260381	0.5167468043291592
140.0	439.294287893684	face	0.0		147	dominance	144	2.0	1		925.9423736303672	1.2334609478693892
140.0	440.5277488415534	rating	1.0		77	dominance	144	2.0	1		927.1758345782366	0.650078588136239
140.0	441.1778274296896	fix	2.0		60	dominance	144	2.0	1	0.0	927.8259131663729	0.5167549544330541
141.0	441.69458238412267	face	0.0		147	dominance	036	2.0	1		928.3426681208059	1.2334482699293403
141.0	442.928030654052	rating	1.0		57	dominance	036	2.0	1		929.5761163907353	0.48338812517704355
141.0	443.41141877922905	fix	2.0		60	dominance	036	2.0	1	-1.0	930.0595045159123	0.5167612934033059
142.0	443.92818007263236	face	0.0		147	dominance	137	2.0	1		930.5762658093156	1.2334410253920396
142.0	445.1616210980244	rating	1.0		73	dominance	137	2.0	1		931.8097068347076	0.6167380203273751
142.0	445.7783591183518	fix	2.0		60	dominance	137	2.0	1	-0.6000000000000001	932.426444855035	0.516764915672411
143.0	446.2951240340242	face	0.0		147	dominance	092	2.0	1		932.9432097707074	1.2334488736401
143.0	447.5285729076643	rating	1.0		59	dominance	092	2.0	1		934.1766586443475	0.5000547868130525
143.0	448.02862769447734	fix	2.0		60	dominance	092	2.0	1	-0.7200000000000002	934.6767134311606	0.5167468043291592
144.0	448.5453744988065	face	0.0		147	dominance	042	2.0	1		935.1934602354897	1.23346034415772
144.0	449.7788348429642	rating	1.0		73	dominance	042	2.0	1		936.4269205796475	0.616731077645909
144.0	450.3955659206101	fix	2.0		60	dominance	042	2.0	1	-1.67	937.0436516572934	0.5167531432989563
145.0	450.9123190639091	face	0.0		147	dominance	172	2.0	1		937.5604048005923	1.233467286839641
145.0	452.1457863507487	rating	1.0		80	dominance	172	2.0	1		938.793872087432	0.6750731471865947
145.0	452.8208594979353	fix	2.0		60	dominance	172	2.0	1	1.4400000000000004	939.4689452346186	0.516751634020693
146.0	453.337611131956	face	0.0		147	dominance	044	2.0	1		939.9856968686393	1.2334573256007388
146.0	454.57106845755675	rating	1.0		190	dominance	044	2.0	1		941.21915419424	1.5918445829424854
146.0	456.16291304049923	fix	2.0		60	dominance	044	2.0	1	0.04999999999999982	942.8109987771825	0.516748615463257
147.0	456.6796616559625	face	0.0		147	dominance	130	2.0	1		943.3277473926457	1.233469097973284
147.0	457.9131307539358	rating	1.0		90	dominance	130	2.0	1		944.561216490619	0.7584167184604667
147.0	458.67154747239624	fix	2.0		60	dominance	130	2.0	1	-0.6499999999999999	945.3196332090795	0.5167528414431217
148.0	459.18830031383936	face	0.0		147	dominance	024	2.0	1		945.8363860505226	1.233465173849254
148.0	460.4217654876886	rating	1.0		54	dominance	024	2.0	1		947.0698512243719	0.4583748510717669
148.0	460.8801403387604	fix	2.0		60	dominance	024	2.0	1	0.6500000000000004	947.5282260754436	0.5167522377319074
149.0	461.3968925764923	face	0.0		147	dominance	070	2.0	1		948.0449783131755	1.2334491754963892
149.0	462.6303417519887	rating	1.0		210	dominance	070	2.0	1		949.2784274886719	1.7585386681703312
149.0	464.388880420159	fix	2.0		60	dominance	070	2.0	1	1.67	951.0369661568423	0.5167591804133735
150.0	464.9056396005724	face	0.0		147	dominance	101	2.0	1		951.5537253372556	1.233453401476254
150.0	466.13909300204864	rating	1.0		85	dominance	101	2.0	1		952.7871787387319	0.7167530829278803
150.0	466.8558460849765	fix	2.0		60	dominance	101	2.0	1	-0.10999999999999988	953.5039318216598	0.516751634020693
151.0	467.3725977189972	face	0.0		147	dominance	043	2.0	1		954.0206834556805	1.2334470625060021
151.0	468.6060447815032	rating	1.0		74	dominance	043	2.0	1		955.2541305181865	0.6250798031055638
151.0	469.2311245846088	fix	2.0		60	dominance	043	2.0	1	-1.19	955.879210321292	0.5167434839158886
152.0	469.74786806852467	face	0.0		147	dominance	141	2.0	1		956.3959538052079	1.233455514466641
152.0	470.9813235829913	rating	1.0		158	dominance	141	2.0	1		957.6294093196746	1.3251550557361043
152.0	472.3064786387274	fix	2.0		60	dominance	141	2.0	1	-0.8900000000000001	958.9545643754107	0.5167582748463246
153.0	472.82323691357374	face	0.0		147	dominance	006	2.0	1		959.471322650257	1.2334540051874683
153.0	474.0566909187612	rating	1.0		74	dominance	006	2.0	1		960.7047766554444	0.6250716530012141
153.0	474.6817625717624	fix	2.0		60	dominance	006	2.0	1	1.5899999999999999	961.3298483084457	0.5167455969062758
154.0	475.1985081686687	face	0.0		147	dominance	039	2.0	1		961.8465939053519	1.233461249724769
154.0	476.43196941839346	rating	1.0		63	dominance	039	2.0	1		963.0800551550767	0.5333923360644803
154.0	476.96536175445794	fix	2.0		60	dominance	039	2.0	1	0.009999999999999787	963.6134474911412	0.5167477098962081
155.0	477.48210946435415	face	0.0		147	dominance	005	2.0	1		964.1301952010374	1.233469097973284
155.0	478.71557856232744	rating	1.0		60	dominance	005	2.0	1		965.3636642990107	0.508388117631057
155.0	479.2239666799585	fix	2.0		60	dominance	005	2.0	1	-1.02	965.8720524166417	0.5167631045378585
156.0	479.74072978449635	face	0.0		147	dominance	102	2.0	1		966.3888155211796	1.2334428365261374
156.0	480.9741726210225	rating	1.0		265	dominance	102	2.0	1		967.6222583577057	2.216921367490613
156.0	483.1910939885131	fix	2.0		60	dominance	102	2.0	1	-0.4700000000000002	969.8391797251963	0.5167525395877419
157.0	483.70784652810084	face	0.0		147	dominance	062	2.0	1		970.3559322647841	1.2334564200332352
157.0	484.9413029481341	rating	1.0		416	dominance	062	2.0	1		971.5893886848173	3.475409474828666
157.0	488.41671242296275	fix	2.0		60	dominance	062	2.0	1	0.9199999999999999	975.064798159646	0.5167452950504412
158.0	488.9334577180132	face	0.0		147	dominance	061	2.0	1		975.5815434546964	1.2334558163220208
158.0	490.1669135343352	rating	1.0		76	dominance	061	2.0	1		976.8149992710185	0.6417416350495841
158.0	490.8086551693848	fix	2.0		60	dominance	061	2.0	1	-1.1600000000000001	977.456740906068	0.5167558600005577
159.0	491.32541102938535	face	0.0		147	dominance	009	2.0	1		977.9734967660686	1.2334579293119532
159.0	492.5588689586973	rating	1.0		67	dominance	009	2.0	1		979.2069546953805	0.5667250556243744
159.0	493.1255940143217	fix	2.0		60	dominance	009	2.0	1	-2.58	979.7736797510049	0.500065351763169
160.0	493.62565936608485	cue	0.0		480						980.2737451027681	4.000472404199172
160.0	497.626131770284	fix	1.0		120						984.2742175069673	1.0168106468136102
160.0	498.64294241709763	face	0.0		147	attractiveness	038	2.0	1		985.2910281537809	1.2334461569389532
160.0	499.8763885740366	rating	1.0		88	attractiveness	038	2.0	1		986.5244743107198	0.741754584660157
160.0	500.61814315869674	fix	2.0		60	attractiveness	038	2.0	1	-2.2	987.26622889538	0.5167570674234412
161.0	501.1349002261202	face	0.0		147	attractiveness	136	2.0	1		987.7829859628034	1.2334530996204194
161.0	502.3683533257406	rating	1.0		88	attractiveness	136	2.0	1		989.0164390624238	0.7417533772372735
161.0	503.1101067029779	fix	2.0		60	attractiveness	136	2.0	1	-1.35	989.7581924396611	0.5167510303090239
162.0	503.6268577332869	face	0.0		147	attractiveness	044	2.0	1		990.2749434699701	1.2334552126108065
162.0	504.8603129458977	rating	1.0		55	attractiveness	044	2.0	1		991.508398682581	0.46672327467558716
162.0	505.3270362205733	fix	2.0		60	attractiveness	044	2.0	1	0.8300000000000001	991.9751219572565	0.5167522377319074
163.0	505.8437884583052	face	0.0		147	attractiveness	117	2.0	1		992.4918741949884	1.2334558163220208
163.0	507.0772442746272	rating	1.0		110	attractiveness	117	2.0	1		993.7253300113105	0.9251080869862562
163.0	508.0023523616135	fix	2.0		60	attractiveness	117	2.0	1	0.5800000000000001	994.6504380982967	0.5167443894833923
164.0	508.51909675109687	face	0.0		147	attractiveness	042	2.0	1		995.1671824877801	1.2334594385906712
164.0	509.75255618968754	rating	1.0		150	attractiveness	042	2.0	1		996.4006419263708	1.2584784479540758
164.0	511.0110346376416	fix	2.0		60	attractiveness	042	2.0	1	1.3600000000000003	997.6591203743249	0.5167507284536441
165.0	511.52778536609526	face	0.0		147	attractiveness	034	2.0	1		998.1758711027785	1.2334543070433028
165.0	512.7612396731386	rating	1.0		85	attractiveness	034	2.0	1		999.4093254098218	0.7167579126194141
165.0	513.477997585758	fix	2.0		60	attractiveness	034	2.0	1	-1.7000000000000002	1000.1260833224412	0.5167404653589074
166.0	513.9947380511169	face	0.0		147	attractiveness	102	2.0	1		1000.6428237878001	1.2334573256007388
166.0	515.2281953767176	rating	1.0		58	attractiveness	102	2.0	1		1001.8762811134009	0.49172719125363074
166.0	515.7199225679713	fix	2.0		60	attractiveness	102	2.0	1	-1.23	1002.3680083046545	0.5167504265973548
167.0	516.2366729945686	face	0.0		147	attractiveness	064	2.0	1		1002.8847587312518	1.233461853436438
167.0	517.470134848005	rating	1.0		179	attractiveness	064	2.0	1		1004.1182205846883	1.5001631530158193
167.0	518.9702980010209	fix	2.0		60	attractiveness	064	2.0	1	0.009999999999999787	1005.6183837377041	0.5167570674234412
168.0	519.4870550684443	face	0.0		147	attractiveness	130	2.0	1		1006.1351408051275	1.2334576274561186
168.0	520.7205126959004	rating	1.0		76	attractiveness	130	2.0	1		1007.3685984325837	0.6417389183484374
168.0	521.3622516142489	fix	2.0		60	attractiveness	130	2.0	1	-1.7400000000000002	1008.0103373509321	0.516747106184539
169.0	521.8789987204334	face	0.0		147	attractiveness	126	2.0	1		1008.5270844571166	1.2334669849838065
169.0	523.1124657054172	rating	1.0		78	attractiveness	126	2.0	1		1009.7605514421005	0.6584070892627096
169.0	523.7708727946799	fix	2.0		60	attractiveness	126	2.0	1	0.9400000000000004	1010.4189585313632	0.5167495210303059
170.0	524.2876223157102	face	0.0		147	attractiveness	030	2.0	1		1010.9357080523935	1.2334491754963892
170.0	525.5210714912066	rating	1.0		92	attractiveness	030	2.0	1		1012.1691572278899	0.7750969636031186
170.0	526.2961684548097	fix	2.0		60	attractiveness	030	2.0	1	1.0199999999999996	1012.944254191493	0.5167446913387721
171.0	526.8129131461485	face	0.0		147	attractiveness	100	2.0	1		1013.4609988828317	1.2334609478693892
171.0	528.0463740940179	rating	1.0		62	attractiveness	100	2.0	1		1014.6944598307011	0.5250617219480773
171.0	528.571435815966	fix	2.0		60	attractiveness	100	2.0	1	-1.56	1015.2195215526492	0.5167649156719563
172.0	529.0882007316379	face	0.0		147	attractiveness	066	2.0	1		1015.7362864683212	1.2334380068346036
172.0	530.3216387384725	rating	1.0		163	attractiveness	066	2.0	1		1016.9697244751558	1.3668220116810517
172.0	531.6884607501536	fix	2.0		60	attractiveness	066	2.0	1	-0.040000000000000036	1018.3365464868368	0.5167582748463246
173.0	532.2052190249999	face	0.0		147	attractiveness	101	2.0	1		1018.8533047616831	1.2334521940533705
173.0	533.4386712190533	rating	1.0		74	attractiveness	101	2.0	1		1020.0867569557365	0.6250704455783307
173.0	534.0637416646316	fix	2.0		60	attractiveness	101	2.0	1	1.5300000000000002	1020.7118274013148	0.5167609915479261
174.0	534.5805026561795	face	0.0		147	attractiveness	144	2.0	1		1021.2285883928628	1.233449477351769
174.0	535.8139521335313	rating	1.0		113	attractiveness	144	2.0	1		1022.4620378702145	0.950110192430202
174.0	536.7640623259615	fix	2.0		60	attractiveness	144	2.0	1	-2.0300000000000002	1023.4121480626447	0.5167477098957534
175.0	537.2808100358573	face	0.0		147	attractiveness	011	2.0	1		1023.9288957725405	1.2334947557096712
175.0	538.5143047915669	rating	1.0		79	attractiveness	011	2.0	1		1025.1623905282502	0.6667041973946652
175.0	539.1810089889616	fix	2.0		60	attractiveness	011	2.0	1	-1.9300000000000002	1025.8290947256448	0.5167606896920915
176.0	539.6977696786537	face	0.0		147	attractiveness	033	2.0	1		1026.345855415337	1.2334527977645848
176.0	540.9312224764183	rating	1.0		125	attractiveness	033	2.0	1		1027.5793082131015	1.0501186142046208
176.0	541.9813410906229	fix	2.0		60	attractiveness	033	2.0	1	2.5300000000000002	1028.6294268273061	0.5167579729904901
177.0	542.4980990636134	face	0.0		147	attractiveness	039	2.0	1		1029.1461848002966	1.2334558163220208
177.0	543.7315548799354	rating	1.0		73	attractiveness	039	2.0	1		1030.3796406166186	0.6167292665118111
177.0	544.3482841464472	fix	2.0		60	attractiveness	039	2.0	1	0.54	1030.9963698831305	0.5167495210303059
178.0	544.8650336674775	face	0.0		147	attractiveness	124	2.0	1		1031.5131194041608	1.2334576274565734
178.0	546.0984912949341	rating	1.0		74	attractiveness	124	2.0	1		1032.7465770316173	0.6250764826922932
178.0	546.7235677776264	fix	2.0		60	attractiveness	124	2.0	1	1.3499999999999996	1033.3716535143096	0.5167549544335088
179.0	547.2403227320599	face	0.0		147	attractiveness	099	2.0	1		1033.8884084687431	1.2334690979737388
179.0	548.4737918300336	rating	1.0		93	attractiveness	099	2.0	1		1035.1218775667169	0.783414899779018
179.0	549.2572067298127	fix	2.0		60	attractiveness	099	2.0	1	-1.38	1035.905292466496	0.5167462006179449
180.0	549.7739529304306	face	0.0		147	attractiveness	036	2.0	1		1036.4220386671138	1.2334497792076036
180.0	551.0074027096382	rating	1.0		259	attractiveness	036	2.0	1		1037.6554884463214	2.166918967737729
180.0	553.1743216773759	fix	2.0		60	attractiveness	036	2.0	1	0.03000000000000025	1039.8224074140592	0.5167458987621103
181.0	553.691067576138	face	0.0		147	attractiveness	009	2.0	1		1040.3391533128213	1.2334660794163028
181.0	554.9245336555543	rating	1.0		109	attractiveness	009	2.0	1		1041.5726193922376	0.9167765673028043
181.0	555.8413102228571	fix	2.0		60	attractiveness	009	2.0	1	1.6500000000000004	1042.4893959595404	0.516747106184539
182.0	556.3580573290417	face	0.0		147	attractiveness	005	2.0	1		1043.006143065725	1.2334621552922727
182.0	557.591519484334	rating	1.0		187	attractiveness	005	2.0	1		1044.2396052210172	1.5668418737873253
182.0	559.1583613581213	fix	2.0		60	attractiveness	005	2.0	1	-3.15	1045.8064470948045	0.5167528414435765
183.0	559.6751141995649	face	0.0		147	attractiveness	006	2.0	1		1046.323199936248	1.233458231167333
183.0	560.9085724307322	rating	1.0		104	attractiveness	006	2.0	1		1047.5566581674154	0.8750990464077404
183.0	561.7836714771399	fix	2.0		60	attractiveness	006	2.0	1	-3.18	1048.4317572138232	0.5167612934037606
184.0	562.3004327705437	face	0.0		147	attractiveness	141	2.0	1		1048.948518507227	1.233440119824536
184.0	563.5338728903682	rating	1.0		141	attractiveness	141	2.0	1		1050.1819586270515	1.183480583583787
184.0	564.717353473952	fix	2.0		60	attractiveness	141	2.0	1	-1.7200000000000002	1051.3654392106353	0.5167452950499865
185.0	565.234098769002	face	0.0		147	attractiveness	137	2.0	1		1051.8821845056852	1.2334591367352914
185.0	566.4675579057373	rating	1.0		73	attractiveness	137	2.0	1		1053.1156436424205	0.6167337943475104
185.0	567.0842917000848	fix	2.0		60	attractiveness	137	2.0	1	0.03000000000000025	1053.732377436768	0.5167634063932383
186.0	567.601055106478	face	0.0		147	attractiveness	091	2.0	1		1054.2491408431613	1.2334461569389532
186.0	568.834501263417	rating	1.0		70	attractiveness	091	2.0	1		1055.4825870001002	0.5917335000381172
186.0	569.4262347634551	fix	2.0		60	attractiveness	091	2.0	1	-2.29	1056.0743205001384	0.5167492191749261
187.0	569.94298398263	face	0.0		147	attractiveness	012	2.0	1		1056.5910697193133	1.2334621552922727
187.0	571.1764461379223	rating	1.0		113	attractiveness	012	2.0	1		1057.8245318746056	0.9501053627382134
187.0	572.1265515006605	fix	2.0		60	attractiveness	012	2.0	1	0.6799999999999997	1058.7746372373438	0.5168150237213922
188.0	572.6433665243819	face	0.0		147	attractiveness	070	2.0	1		1059.2914522610652	1.2333975581682353
188.0	573.8767640825502	rating	1.0		57	attractiveness	070	2.0	1		1060.5248498192334	0.48338389919717883
188.0	574.3601479817473	fix	2.0		60	attractiveness	070	2.0	1	-1.87	1061.0082337184306	0.5167507284531894
189.0	574.8768987102005	face	0.0		147	attractiveness	043	2.0	1		1061.5249844468838	1.233457929312408
189.0	576.1103566395129	rating	1.0		108	attractiveness	043	2.0	1		1062.7584423761962	0.9084344826687811
189.0	577.0187911221817	fix	2.0		60	attractiveness	043	2.0	1	-1.69	1063.666876858865	0.5167591804133735
190.0	577.5355503025951	face	0.0		147	attractiveness	062	2.0	1		1064.1836360392783	1.233450986630487
190.0	578.7690012892256	rating	1.0		106	attractiveness	062	2.0	1		1065.4170870259088	0.8917783859837982
190.0	579.6607796752094	fix	2.0		60	attractiveness	062	2.0	1	-2.96	1066.3088654118926	0.5167621989703548
191.0	580.1775418741797	face	0.0		147	attractiveness	092	2.0	1		1066.825627610863	1.2334410253920396
191.0	581.4109828995718	rating	1.0		97	attractiveness	092	2.0	1		1068.059068636255	0.8167563731553855
191.0	582.2277392727271	fix	2.0		60	attractiveness	092	2.0	1	-1.2599999999999998	1068.8758250094104	0.5167504265973548
192.0	582.7444896993245	face	0.0		147	attractiveness	121	2.0	1		1069.3925754360077	1.2334700035407877
192.0	583.9779597028653	rating	1.0		76	attractiveness	121	2.0	1		1070.6260454395485	0.6417337868010691
192.0	584.6196934896664	fix	2.0		60	attractiveness	121	2.0	1	-2.4	1071.2677792263496	0.5167643119607419
193.0	585.1364578016271	face	0.0		147	attractiveness	082	2.0	1		1071.7845435383103	1.2334488736405547
193.0	586.3699066752677	rating	1.0		119	attractiveness	082	2.0	1		1073.017992411951	1.0001092717698157
193.0	587.3700159470375	fix	2.0		60	attractiveness	082	2.0	1	1.37	1074.0181016837207	0.5167431820605088
194.0	587.886759129098	face	0.0		147	attractiveness	061	2.0	1		1074.5348448657812	1.2334660794163028
194.0	589.1202252085143	rating	1.0		70	attractiveness	061	2.0	1		1075.7683109451975	0.5917283684912036
194.0	589.7119535770055	fix	2.0		60	attractiveness	061	2.0	1	-1.7599999999999998	1076.3600393136887	0.5167489173190916
195.0	590.2287024943246	face	0.0		147	attractiveness	024	2.0	1		1076.8767882310078	1.2334618534359834
195.0	591.4621643477606	rating	1.0		89	attractiveness	024	2.0	1		1078.1102500844438	0.7501135732140938
195.0	592.2122779209747	fix	2.0		60	attractiveness	024	2.0	1	0.009999999999999787	1078.860363657658	0.5167320133987232
196.0	592.7290099343734	face	0.0		147	attractiveness	018	2.0	1		1079.3770956710566	1.233450986630487
196.0	593.9624609210039	rating	1.0		70	attractiveness	018	2.0	1		1080.610546657687	0.5917286703470381
196.0	594.5541895913509	fix	2.0		60	attractiveness	018	2.0	1	1.6100000000000003	1081.2022753280341	0.5167483136074225
197.0	595.0709379049583	face	0.0		147	attractiveness	027	2.0	1		1081.7190236416416	1.233465173849254
197.0	596.3044030788076	rating	1.0		59	attractiveness	027	2.0	1		1082.9524888154908	0.5000562960913157
197.0	596.8044593748989	fix	2.0		60	attractiveness	027	2.0	1	1.2400000000000002	1083.4525451115821	0.5167857437168095
198.0	597.3212451186157	face	0.0		147	attractiveness	172	2.0	1		1083.969330855299	1.2334277437403216
198.0	598.554672862356	rating	1.0		67	attractiveness	172	2.0	1		1085.2027585990393	0.5667295834600736
198.0	599.1214024458161	fix	2.0		60	attractiveness	172	2.0	1	-2.73	1085.7694881824993	0.5167495210303059
199.0	599.6381519668464	face	0.0		147	attractiveness	087	2.0	1		1086.2862377035297	1.233452495909205
199.0	600.8716044627556	rating	1.0		81	attractiveness	087	2.0	1		1087.5196901994389	0.6834155336764525
199.0	601.5550199964321	fix	2.0		60	attractiveness	087	2.0	1	-1.0299999999999998	1088.2031057331153	0.5000572016588194
200.0	602.0550771980909	cue	0.0		480						1088.7031629347741	4.000463650383153
200.0	606.055540848474	fix	1.0		120						1092.7036265851573	1.0168172876392418
200.0	607.0723581361133	face	0.0		147	trustworthiness	005	2.0	1		1093.7204438727965	1.2334938501426223
200.0	608.3058519862559	rating	1.0		147	trustworthiness	005	2.0	1		1094.9539377229391	1.2334322715760209
200.0	609.5392842578319	fix	2.0		60	trustworthiness	005	2.0	1	-1.21	1096.1873699945152	0.5167552562888886
201.0	610.0560395141208	face	0.0		147	trustworthiness	044	2.0	1		1096.704125250804	1.2334648719938741
201.0	611.2895043861147	rating	1.0		63	trustworthiness	044	2.0	1		1097.937590122798	0.5333878082283263
201.0	611.822892194343	fix	2.0		60	trustworthiness	044	2.0	1	1.7800000000000002	1098.4709779310263	0.5167588785579937
202.0	612.339651072901	face	0.0		147	trustworthiness	136	2.0	1		1098.9877368095842	1.2334464587947878
202.0	613.5730975316958	rating	1.0		80	trustworthiness	136	2.0	1		1100.221183268379	0.6750731471865947
202.0	614.2481706788824	fix	2.0		60	trustworthiness	136	2.0	1	-1.0699999999999998	1100.8962564155656	0.5167555581451779
203.0	614.7649262370276	face	0.0		147	trustworthiness	033	2.0	1		1101.4130119737108	1.2334500810629834
203.0	615.9983763180905	rating	1.0		93	trustworthiness	033	2.0	1		1102.6464620547738	0.7834348222568224
203.0	616.7818111403474	fix	2.0		60	trustworthiness	033	2.0	1	1.63	1103.4298968770306	0.5167881585625764
204.0	617.29859929891	face	0.0		147	trustworthiness	100	2.0	1		1103.9466850355932	1.2334114435311676
204.0	618.5320107424411	rating	1.0		363	trustworthiness	100	2.0	1		1105.1800964791244	3.0336840796162505
204.0	621.5656948220574	fix	2.0		60	trustworthiness	100	2.0	1	-0.7799999999999998	1108.2137805587406	0.5167534451547908
205.0	622.0824482672122	face	0.0		147	trustworthiness	064	2.0	1		1108.7305340038954	1.2334660794167576
205.0	623.3159143466289	rating	1.0		64	trustworthiness	064	2.0	1		1109.9640000833122	0.5417353262650977
205.0	623.857649672894	fix	2.0		60	trustworthiness	064	2.0	1	1.9699999999999998	1110.5057354095773	0.5167954030998771
206.0	624.3744450759939	face	0.0		147	trustworthiness	126	2.0	1		1111.0225308126771	1.2333987655911187
206.0	625.607843841585	rating	1.0		60	trustworthiness	126	2.0	1		1112.2559295782683	0.5083941547450195
206.0	626.11623799633	fix	2.0		60	trustworthiness	126	2.0	1	-1.29	1112.7643237330133	0.5167528414435765
207.0	626.6329908377736	face	0.0		147	trustworthiness	082	2.0	1		1113.2810765744568	1.2334549107545172
207.0	627.8664457485281	rating	1.0		70	trustworthiness	082	2.0	1		1114.5145314852114	0.5917335000381172
207.0	628.4581792485662	fix	2.0		60	trustworthiness	082	2.0	1	2.04	1115.1062649852495	0.5167437857721779
208.0	628.9749230343384	face	0.0		147	trustworthiness	018	2.0	1		1115.6230087710217	1.2334609478689345
208.0	630.2083839822074	rating	1.0		80	trustworthiness	018	2.0	1		1116.8564697188906	0.6750758638886509
208.0	630.883459846096	fix	2.0		60	trustworthiness	018	2.0	1	1.87	1117.5315455827792	0.516785441860975
209.0	631.400245287957	face	0.0		147	trustworthiness	101	2.0	1		1118.0483310246402	1.2334201973471863
209.0	632.6336654853042	rating	1.0		140	trustworthiness	101	2.0	1		1119.2817512219874	1.1751415175071998
209.0	633.8088070028114	fix	2.0		60	trustworthiness	101	2.0	1	0.040000000000000036	1120.4568927394946	0.5167458987616556
210.0	634.325552901573	face	0.0		147	trustworthiness	087	2.0	1		1120.9736386382563	1.2334684942620697
210.0	635.5590213958351	rating	1.0		194	trustworthiness	087	2.0	1		1122.2071071325183	1.6251818303385335
210.0	637.1842032261736	fix	2.0		60	trustworthiness	087	2.0	1	0.5800000000000001	1123.8322889628569	0.5167537470106254
211.0	637.7009569731842	face	0.0		147	trustworthiness	042	2.0	1		1124.3490427098675	1.2334564200332352
211.0	638.9344133932175	rating	1.0		110	trustworthiness	042	2.0	1		1125.5824991299007	0.9251026535835081
211.0	639.859516046801	fix	2.0		60	trustworthiness	042	2.0	1	-1.0299999999999998	1126.5076017834842	0.5167498228861405
212.0	640.3762658696871	face	0.0		147	trustworthiness	043	2.0	1		1127.0243516063704	1.2334660794163028
212.0	641.6097319491034	rating	1.0		107	trustworthiness	043	2.0	1		1128.2578176857867	0.9001017555629005
212.0	642.5098337046663	fix	2.0		60	trustworthiness	043	2.0	1	-0.009999999999999787	1129.1579194413496	0.5167525395872872
213.0	643.0265862442536	face	0.0		147	trustworthiness	039	2.0	1		1129.6746719809369	1.2334570237449043
213.0	644.2600432679985	rating	1.0		118	trustworthiness	039	2.0	1		1130.9081290046818	0.9917777520868185
213.0	645.2518210200853	fix	2.0		60	trustworthiness	039	2.0	1	2.1399999999999997	1131.8999067567686	0.5167477098957534
214.0	645.7685687299811	face	0.0		147	trustworthiness	172	2.0	1		1132.4166544666643	1.2334552126108065
214.0	647.0020239425919	rating	1.0		68	trustworthiness	172	2.0	1		1133.6501096792751	0.5750801200538262
214.0	647.5771040626457	fix	2.0		60	trustworthiness	172	2.0	1	-1.6800000000000002	1134.225189799329	0.5167462006179449
215.0	648.0938502632637	face	0.0		147	trustworthiness	066	2.0	1		1134.741935999947	1.2334697016849532
215.0	649.3273199649486	rating	1.0		202	trustworthiness	066	2.0	1		1135.9754057016319	1.69187986987572
215.0	651.0191998348243	fix	2.0		60	trustworthiness	066	2.0	1	-0.7999999999999998	1137.6672855715076	0.5167051482399074
216.0	651.5359049830643	face	0.0		147	trustworthiness	006	2.0	1		1138.1839907197475	1.2334748332323215
216.0	652.7693798162966	rating	1.0		100	trustworthiness	006	2.0	1		1139.4174655529798	0.8417560637531096
216.0	653.6111358800497	fix	2.0		60	trustworthiness	006	2.0	1	-2.1	1140.259221616733	0.5167474080403736
217.0	654.1278832880901	face	0.0		147	trustworthiness	137	2.0	1		1140.7759690247733	1.2334609478693892
217.0	655.3613442359595	rating	1.0		194	trustworthiness	137	2.0	1		1142.0094299726427	1.625188471164165
217.0	656.9865327071236	fix	2.0		60	trustworthiness	137	2.0	1	-1.25	1143.6346184438069	0.5167540488660052
218.0	657.5032867559896	face	0.0		147	trustworthiness	121	2.0	1		1144.1513724926729	1.2334573256007388
218.0	658.7367440815904	rating	1.0		100	trustworthiness	121	2.0	1		1145.3848298182736	0.8417654212803427
218.0	659.5785095028707	fix	2.0		60	trustworthiness	121	2.0	1	-1.7799999999999998	1146.226595239554	0.5167401635030728
219.0	660.0952496663738	face	0.0		147	trustworthiness	012	2.0	1		1146.743335403057	1.2334675886950208
219.0	661.3287172550688	rating	1.0		77	trustworthiness	012	2.0	1		1147.976802991752	0.6501057551513441
219.0	661.9788230102201	fix	2.0		60	trustworthiness	012	2.0	1	-0.2599999999999998	1148.6269087469034	0.5167163169012383
220.0	662.4955393271214	face	0.0		147	trustworthiness	009	2.0	1		1149.1436250638046	1.2334506847746525
220.0	663.728990011896	rating	1.0		101	trustworthiness	009	2.0	1		1150.3770757485793	0.8500972428196292
220.0	664.5790872547157	fix	2.0		60	trustworthiness	009	2.0	1	2.8499999999999996	1151.227172991399	0.5167812158811103
221.0	665.0958684705968	face	0.0		147	trustworthiness	092	2.0	1		1151.74395420728	1.2334277437403216
221.0	666.3292962143371	rating	1.0		99	trustworthiness	092	2.0	1		1152.9773819510203	0.8334293737607368
221.0	667.1627255880978	fix	2.0		60	trustworthiness	092	2.0	1	0.6699999999999999	1153.810811324781	0.5167621989708095
222.0	667.6794877870686	face	0.0		147	trustworthiness	011	2.0	1		1154.3275735237519	1.2334428365261374
222.0	668.9129306235948	rating	1.0		205	trustworthiness	011	2.0	1		1155.561016360278	1.716877145628132
222.0	670.6298077692229	fix	2.0		60	trustworthiness	011	2.0	1	-0.029999999999999805	1157.2778935059061	0.5167573692792757
223.0	671.1465651385022	face	0.0		147	trustworthiness	102	2.0	1		1157.7946508751854	1.2334458550831187
223.0	672.3800109935853	rating	1.0		62	trustworthiness	102	2.0	1		1159.0280967302685	0.5250562885448744
223.0	672.9050672821302	fix	2.0		60	trustworthiness	102	2.0	1	-0.7999999999999998	1159.5531530188134	0.5167528414435765
224.0	673.4218201235738	face	0.0		147	trustworthiness	099	2.0	1		1160.069905860257	1.233462759003487
224.0	674.6552828825772	rating	1.0		82	trustworthiness	099	2.0	1		1161.3033686192605	0.6917382995438857
224.0	675.3470211821211	fix	2.0		60	trustworthiness	099	2.0	1	0.7699999999999996	1161.9951069188044	0.5167480117520427
225.0	675.8637691938732	face	0.0		147	trustworthiness	036	2.0	1		1162.5118549305564	1.2334597404465057
225.0	677.0972289343197	rating	1.0		73	trustworthiness	036	2.0	1		1163.745314671003	0.6167362091932773
225.0	677.713965143513	fix	2.0		60	trustworthiness	036	2.0	1	1.25	1164.3620508801962	0.5167510303090239
226.0	678.230716173822	face	0.0		147	trustworthiness	144	2.0	1		1164.8788019105052	1.2334633627147014
226.0	679.4641795365367	rating	1.0		210	trustworthiness	144	2.0	1		1166.11226527322	1.7585335366234176
226.0	681.2227130731601	fix	2.0		60	trustworthiness	144	2.0	1	0.03000000000000025	1167.8707988098433	0.5167519358760728
227.0	681.7394650090362	face	0.0		147	trustworthiness	117	2.0	1		1168.3875507457194	1.2334609478689345
227.0	682.9729259569051	rating	1.0		70	trustworthiness	117	2.0	1		1169.6210116935883	0.5917271610683201
227.0	683.5646531179734	fix	2.0		60	trustworthiness	117	2.0	1	-1.3399999999999999	1170.2127388546567	0.5167621989703548
228.0	684.0814153169438	face	0.0		147	trustworthiness	038	2.0	1		1170.729501053627	1.2334479680735058
228.0	685.3148632850173	rating	1.0		83	trustworthiness	038	2.0	1		1171.9629490217005	0.7000785730433563
228.0	686.0149418580606	fix	2.0		60	trustworthiness	038	2.0	1	1.0899999999999999	1172.6630275947439	0.5167585767021592
229.0	686.5317004347628	face	0.0		147	trustworthiness	030	2.0	1		1173.179786171446	1.2334530996204194
229.0	687.7651535343832	rating	1.0		109	trustworthiness	030	2.0	1		1174.4132392710665	0.9167693227655036
229.0	688.6819228571487	fix	2.0		60	trustworthiness	030	2.0	1	1.9699999999999998	1175.330008593832	0.5167498228861405
230.0	689.1986726800349	face	0.0		147	trustworthiness	024	2.0	1		1175.846758416718	1.2334570237449043
230.0	690.4321297037798	rating	1.0		85	trustworthiness	024	2.0	1		1177.080215440463	0.7167551959182674
230.0	691.148884899698	fix	2.0		60	trustworthiness	024	2.0	1	-0.18999999999999995	1177.7969706363813	0.5167522377319074
231.0	691.6656371374299	face	0.0		147	trustworthiness	130	2.0	1		1178.3137228741132	1.2334555144661863
231.0	692.8990926518961	rating	1.0		78	trustworthiness	130	2.0	1		1179.5471783885794	0.658409202252642
231.0	693.5575018541488	fix	2.0		60	trustworthiness	130	2.0	1	-1.65	1180.205587590832	0.5167425783488397
232.0	694.0742444324976	face	0.0		147	trustworthiness	034	2.0	1		1180.7223301691809	1.2334585330236223
232.0	695.3077029655212	rating	1.0		59	trustworthiness	034	2.0	1		1181.9557887022045	0.5000626350615676
232.0	695.8077656005828	fix	2.0		60	trustworthiness	034	2.0	1	-0.48	1182.455851337266	0.5167543507218397
233.0	696.3245199513046	face	0.0		147	trustworthiness	062	2.0	1		1182.9726056879879	1.233454005187923
233.0	697.5579739564926	rating	1.0		80	trustworthiness	062	2.0	1		1184.2060596931758	0.6750752601769818
233.0	698.2330492166695	fix	2.0		60	trustworthiness	062	2.0	1	-2.6	1184.8811349533528	0.5167489173186368
234.0	698.7497981339882	face	0.0		147	trustworthiness	124	2.0	1		1185.3978838706714	1.2334624571481072
234.0	699.9832605911363	rating	1.0		73	trustworthiness	124	2.0	1		1186.6313463278195	0.6167298702230255
234.0	700.5999904613593	fix	2.0		60	trustworthiness	124	2.0	1	-1.4900000000000002	1187.2480761980426	0.5167531432989563
235.0	701.1167436046583	face	0.0		147	trustworthiness	061	2.0	1		1187.7648293413415	1.2334687961179043
235.0	702.3502124007762	rating	1.0		197	trustworthiness	061	2.0	1		1188.9982981374594	1.6501917840309943
235.0	704.0004041848072	fix	2.0		60	trustworthiness	061	2.0	1	-0.9700000000000002	1190.6484899214904	0.5167347300998699
236.0	704.517138914907	face	0.0		147	trustworthiness	070	2.0	1		1191.1652246515903	1.2334600423023403
236.0	705.7505989572094	rating	1.0		148	trustworthiness	070	2.0	1		1192.3986846938926	1.2418157104430065
236.0	706.9924146676524	fix	2.0		60	trustworthiness	070	2.0	1	-0.56	1193.6405004043356	0.5167416727817908
237.0	707.5091563404342	face	0.0		147	trustworthiness	141	2.0	1		1194.1572420771174	1.233458834879002
237.0	708.7426151753132	rating	1.0		198	trustworthiness	141	2.0	1		1195.3907009119964	1.6585263222714275
237.0	710.4011414975846	fix	2.0		60	trustworthiness	141	2.0	1	0.6900000000000004	1197.0492272342678	0.5167477098962081
238.0	710.9178892074808	face	0.0		147	trustworthiness	091	2.0	1		1197.565974944164	1.2335179985998366
238.0	712.1514072060806	rating	1.0		215	trustworthiness	091	2.0	1		1198.799492942764	1.8001567234891809
238.0	713.9515639295698	fix	2.0		60	trustworthiness	091	2.0	1	-0.020000000000000018	1200.599649666253	0.5167431820605088
239.0	714.4683071116303	face	0.0		147	trustworthiness	027	2.0	1		1201.1163928483136	1.2334618534359834
239.0	715.7017689650663	rating	1.0		119	trustworthiness	027	2.0	1		1202.3498547017496	1.0001225534219884
239.0	716.7018915184883	fix	2.0		60	trustworthiness	027	2.0	1	1.38	1203.3499772551716	0.5000568998029848
