trial_nr	onset	event_type	phase	response	nr_frames	face_age	face_sex	face_eth	attractiveness	expression	face_id	sub_id	ses	run	trial_type	catch	rating_type	onset_abs	duration
-1.0	0.05686343285742623	fix	0.0		714													28.041704499352818	5.966314017734703
-1.0	0.706744863609174	pulse	0.0	t														28.691585930104566	
-1.0	1.4067758340900127	pulse	0.0	t														29.391616900585404	
-1.0	2.1067210773139777	pulse	0.0	t														30.09156214380937	
-1.0	2.8066962043351396	pulse	0.0	t														30.79153727083053	
-1.0	3.506712383845752	pulse	0.0	t														31.491553450341144	
-1.0	4.20668690715388	pulse	0.0	t														32.19152797364927	
-1.0	4.906718179491236	pulse	0.0	t														32.89155924598663	
-1.0	5.606716851322517	pulse	0.0	t														33.59155791781791	
0.0	6.023177450592129	face	0.0		144	31.0	female	white	2.1822522881018704	smiling	102	sub-06	2.0	3.0	102_smiling	0.0		34.00801851708752	1.2333438580646998
0.0	6.30668171522143	pulse	0.0	t		31.0	female	white	2.1822522881018704	smiling	102	sub-06	2.0	3.0	102_smiling	0.0		34.29152278171682	
0.0	7.006711780132491	pulse	0.0	t		31.0	female	white	2.1822522881018704	smiling	102	sub-06	2.0	3.0	102_smiling	0.0		34.99155284662788	
0.0	7.256521308656829	fix	1.0		444	31.0	female	white	2.1822522881018704	smiling	102	sub-06	2.0	3.0	102_smiling	0.0		35.24136237515222	3.7582705672971315
0.0	7.70663227112027	pulse	1.0	t		31.0	female	white	2.1822522881018704	smiling	102	sub-06	2.0	3.0	102_smiling	0.0		35.69147333761566	
0.0	8.40662430210773	pulse	1.0	t		31.0	female	white	2.1822522881018704	smiling	102	sub-06	2.0	3.0	102_smiling	0.0		36.39146536860312	
0.0	9.106653461449241	pulse	1.0	t		31.0	female	white	2.1822522881018704	smiling	102	sub-06	2.0	3.0	102_smiling	0.0		37.09149452794463	
0.0	9.806640964588723	pulse	1.0	t		31.0	female	white	2.1822522881018704	smiling	102	sub-06	2.0	3.0	102_smiling	0.0		37.791482031084115	
0.0	10.506630882580339	pulse	1.0	t		31.0	female	white	2.1822522881018704	smiling	102	sub-06	2.0	3.0	102_smiling	0.0		38.49147194907573	
1.0	11.01479187595396	face	0.0		146	31.0	female	east_asian	3.395941106247513	neutral	087	sub-06	2.0	3.0	087_neutral	0.0		38.99963294244935	1.2416560815640878
1.0	11.20657733323037	pulse	0.0	t		31.0	female	east_asian	3.395941106247513	neutral	087	sub-06	2.0	3.0	087_neutral	0.0		39.19141839972576	
1.0	11.906595022023566	pulse	0.0	t		31.0	female	east_asian	3.395941106247513	neutral	087	sub-06	2.0	3.0	087_neutral	0.0		39.89143608851896	
1.0	12.256447957518048	fix	1.0		444	31.0	female	east_asian	3.395941106247513	neutral	087	sub-06	2.0	3.0	087_neutral	0.0		40.24128902401344	3.7582766044276923
1.0	12.606587053010799	pulse	1.0	t		31.0	female	east_asian	3.395941106247513	neutral	087	sub-06	2.0	3.0	087_neutral	0.0		40.59142811950619	
1.0	13.306584517416013	pulse	1.0	t		31.0	female	east_asian	3.395941106247513	neutral	087	sub-06	2.0	3.0	087_neutral	0.0		41.291425583911405	
1.0	14.006578963255606	pulse	1.0	t		31.0	female	east_asian	3.395941106247513	neutral	087	sub-06	2.0	3.0	087_neutral	0.0		41.991420029751	
1.0	14.706574314664977	pulse	1.0	t		31.0	female	east_asian	3.395941106247513	neutral	087	sub-06	2.0	3.0	087_neutral	0.0		42.69141538116037	
1.0	15.406538876707373	pulse	1.0	t		31.0	female	east_asian	3.395941106247513	neutral	087	sub-06	2.0	3.0	087_neutral	0.0		43.391379943202764	
2.0	16.01472456194574	face	0.0		146	27.0	female	white	4.181058495821727	neutral	039	sub-06	2.0	3.0	039_neutral	0.0		43.99956562844113	1.2416491388637496
2.0	16.106520644572356	pulse	0.0	t		27.0	female	white	4.181058495821727	neutral	039	sub-06	2.0	3.0	039_neutral	0.0		44.09136171106775	
2.0	16.80648882889318	pulse	0.0	t		27.0	female	white	4.181058495821727	neutral	039	sub-06	2.0	3.0	039_neutral	0.0		44.79132989538857	
2.0	17.25637370080949	fix	1.0		444	27.0	female	white	4.181058495821727	neutral	039	sub-06	2.0	3.0	039_neutral	0.0		45.24121476730488	3.758246418773979
2.0	17.506519195660985	pulse	1.0	t		27.0	female	white	4.181058495821727	neutral	039	sub-06	2.0	3.0	039_neutral	0.0		45.49136026215638	
2.0	18.206501265382713	pulse	1.0	t		27.0	female	white	4.181058495821727	neutral	039	sub-06	2.0	3.0	039_neutral	0.0		46.191342331878104	
2.0	18.90647156269938	pulse	1.0	t		27.0	female	white	4.181058495821727	neutral	039	sub-06	2.0	3.0	039_neutral	0.0		46.89131262919477	
2.0	19.606473554952345	pulse	1.0	t		27.0	female	white	4.181058495821727	neutral	039	sub-06	2.0	3.0	039_neutral	0.0		47.59131462144774	
2.0	20.3064686045052	pulse	1.0	t		27.0	female	white	4.181058495821727	neutral	039	sub-06	2.0	3.0	039_neutral	0.0		48.29130967100059	
3.0	21.01462011958347	face	0.0		146	20.0	male	black	3.1070433744528456	neutral	082	sub-06	2.0	3.0	082_neutral	1.0	dominance	48.99946118607886	1.2416684576821808
3.0	21.008107866622822	pulse	0.0	t		20.0	male	black	3.1070433744528456	neutral	082	sub-06	2.0	3.0	082_neutral	1.0	dominance	48.992948933118214	
3.0	21.706478927998887	pulse	0.0	t		20.0	male	black	3.1070433744528456	neutral	082	sub-06	2.0	3.0	082_neutral	1.0	dominance	49.69131999449428	
3.0	22.25628857726565	fix	1.0		177	20.0	male	black	3.1070433744528456	neutral	082	sub-06	2.0	3.0	082_neutral	1.0	dominance	50.24112964376104	1.5083381831616407
3.0	22.40646220514668	pulse	1.0	t		20.0	male	black	3.1070433744528456	neutral	082	sub-06	2.0	3.0	082_neutral	1.0	dominance	50.39130327164207	
3.0	23.10644336929863	pulse	1.0	t		20.0	male	black	3.1070433744528456	neutral	082	sub-06	2.0	3.0	082_neutral	1.0	dominance	51.09128443579402	
3.0	23.76462676042729	rating	2.0		293	20.0	male	black	3.1070433744528456	neutral	082	sub-06	2.0	3.0	082_neutral	1.0	dominance	51.74946782692268	2.491610803083404
3.0	23.801341873056117	pulse	2.0	t		20.0	male	black	3.1070433744528456	neutral	082	sub-06	2.0	3.0	082_neutral	1.0	dominance	51.78618293955151	
3.0	24.501369523115045	pulse	2.0	t		20.0	male	black	3.1070433744528456	neutral	082	sub-06	2.0	3.0	082_neutral	1.0	dominance	52.48621058961044	
3.0	24.94807976981633	response	2.0	y		20.0	male	black	3.1070433744528456	neutral	082	sub-06	2.0	3.0	082_neutral	1.0	dominance	52.93292083631172	
3.0	25.201378759925092	pulse	2.0	t		20.0	male	black	3.1070433744528456	neutral	082	sub-06	2.0	3.0	082_neutral	1.0	dominance	53.18621982642048	
3.0	25.906399720843183	pulse	2.0	t		20.0	male	black	3.1070433744528456	neutral	082	sub-06	2.0	3.0	082_neutral	1.0	dominance	53.891240787338575	
3.0	26.256237563510695	fix	3.0		444	20.0	male	black	3.1070433744528456	neutral	082	sub-06	2.0	3.0	082_neutral	1.0	dominance	54.241078630006086	3.766612976450233
3.0	26.60638360170401	pulse	3.0	t		20.0	male	black	3.1070433744528456	neutral	082	sub-06	2.0	3.0	082_neutral	1.0	dominance	54.5912246681994	
3.0	27.306379254969897	pulse	3.0	t		20.0	male	black	3.1070433744528456	neutral	082	sub-06	2.0	3.0	082_neutral	1.0	dominance	55.29122032146529	
3.0	28.006368267391736	pulse	3.0	t		20.0	male	black	3.1070433744528456	neutral	082	sub-06	2.0	3.0	082_neutral	1.0	dominance	55.99120933388713	
3.0	28.70633705542582	pulse	3.0	t		20.0	male	black	3.1070433744528456	neutral	082	sub-06	2.0	3.0	082_neutral	1.0	dominance	56.69117812192121	
3.0	29.406341764387662	pulse	3.0	t		20.0	male	black	3.1070433744528456	neutral	082	sub-06	2.0	3.0	082_neutral	1.0	dominance	57.391182830883054	
4.0	30.022850539960928	face	0.0		145	19.0	male	white	2.243931555909272	smiling	130	sub-06	2.0	3.0	130_smiling	0.0		58.00769160645632	1.233299485153566
4.0	30.106296365164326	pulse	0.0	t		19.0	male	white	2.243931555909272	smiling	130	sub-06	2.0	3.0	130_smiling	0.0		58.09113743165972	
4.0	30.80633458020202	pulse	0.0	t		19.0	male	white	2.243931555909272	smiling	130	sub-06	2.0	3.0	130_smiling	0.0		58.79117564669741	
4.0	31.256150025114493	fix	1.0		444	19.0	male	white	2.243931555909272	smiling	130	sub-06	2.0	3.0	130_smiling	0.0		59.240991091609885	3.7666848183064303
4.0	31.50629793481835	pulse	1.0	t		19.0	male	white	2.243931555909272	smiling	130	sub-06	2.0	3.0	130_smiling	0.0		59.49113900131374	
4.0	32.2062510263122	pulse	1.0	t		19.0	male	white	2.243931555909272	smiling	130	sub-06	2.0	3.0	130_smiling	0.0		60.191092092807594	
4.0	32.90632938826957	pulse	1.0	t		19.0	male	white	2.243931555909272	smiling	130	sub-06	2.0	3.0	130_smiling	0.0		60.89117045476496	
4.0	33.60626949993252	pulse	1.0	t		19.0	male	white	2.243931555909272	smiling	130	sub-06	2.0	3.0	130_smiling	0.0		61.591110566427915	
4.0	34.30624824923211	pulse	1.0	t		19.0	male	white	2.243931555909272	smiling	130	sub-06	2.0	3.0	130_smiling	0.0		62.291089315727504	
5.0	35.022834843420924	face	0.0		146	24.0	male	white	3.1153999204138483	neutral	012	sub-06	2.0	3.0	012_neutral	0.0		63.007675909916316	1.2332478676855771
5.0	35.00888424163986	pulse	0.0	t		24.0	male	white	3.1153999204138483	neutral	012	sub-06	2.0	3.0	012_neutral	0.0		62.993725308135254	
5.0	35.7062148035277	pulse	0.0	t		24.0	male	white	3.1153999204138483	neutral	012	sub-06	2.0	3.0	012_neutral	0.0		63.69105587002309	
5.0	36.2560827111065	fix	1.0		443	24.0	male	white	3.1153999204138483	neutral	012	sub-06	2.0	3.0	012_neutral	0.0		64.24092377760189	3.766603618897534
5.0	36.40625332042191	pulse	1.0	t		24.0	male	white	3.1153999204138483	neutral	012	sub-06	2.0	3.0	012_neutral	0.0		64.3910943869173	
5.0	37.1062302585824	pulse	1.0	t		24.0	male	white	3.1153999204138483	neutral	012	sub-06	2.0	3.0	012_neutral	0.0		65.09107132507779	
5.0	37.80626122906324	pulse	1.0	t		24.0	male	white	3.1153999204138483	neutral	012	sub-06	2.0	3.0	012_neutral	0.0		65.79110229555863	
5.0	38.50616994764596	pulse	1.0	t		24.0	male	white	3.1153999204138483	neutral	012	sub-06	2.0	3.0	012_neutral	0.0		66.49101101414135	
5.0	39.20614930065881	pulse	1.0	t		24.0	male	white	3.1153999204138483	neutral	012	sub-06	2.0	3.0	012_neutral	0.0		67.1909903671542	
5.0	39.906218305063476	pulse	1.0	t		24.0	male	white	3.1153999204138483	neutral	012	sub-06	2.0	3.0	012_neutral	0.0		67.89105937155887	
6.0	40.022686330004035	face	0.0		146	32.0	male	white	2.389176283326701	smiling	092	sub-06	2.0	3.0	092_smiling	0.0		68.00752739649943	1.2333372172208783
6.0	40.60616717056587	pulse	0.0	t		32.0	male	white	2.389176283326701	smiling	092	sub-06	2.0	3.0	092_smiling	0.0		68.59100823706126	
6.0	41.25602354722491	fix	1.0		443	32.0	male	white	2.389176283326701	smiling	092	sub-06	2.0	3.0	092_smiling	0.0		69.2408646137203	3.7666036188977614
6.0	41.30617006838861	pulse	1.0	t		32.0	male	white	2.389176283326701	smiling	092	sub-06	2.0	3.0	092_smiling	0.0		69.291011134884	
6.0	42.00612074503033	pulse	1.0	t		32.0	male	white	2.389176283326701	smiling	092	sub-06	2.0	3.0	092_smiling	0.0		69.99096181152572	
6.0	42.706133604118804	pulse	1.0	t		32.0	male	white	2.389176283326701	smiling	092	sub-06	2.0	3.0	092_smiling	0.0		70.6909746706142	
6.0	43.40609726059165	pulse	1.0	t		32.0	male	white	2.389176283326701	smiling	092	sub-06	2.0	3.0	092_smiling	0.0		71.39093832708704	
6.0	44.10608989529214	pulse	1.0	t		32.0	male	white	2.389176283326701	smiling	092	sub-06	2.0	3.0	092_smiling	0.0		72.09093096178754	
6.0	44.8060867559841	pulse	1.0	t		32.0	male	white	2.389176283326701	smiling	092	sub-06	2.0	3.0	092_smiling	0.0		72.79092782247949	
7.0	45.022627166122675	face	0.0		145	21.0	male	east_asian/white	3.501790688420215	neutral	036	sub-06	2.0	3.0	036_neutral	0.0		73.00746823261807	1.2333028055752493
7.0	45.50606610899672	pulse	0.0	t		21.0	male	east_asian/white	3.501790688420215	neutral	036	sub-06	2.0	3.0	036_neutral	0.0		73.49090717549211	
7.0	46.20608832563812	pulse	0.0	t		21.0	male	east_asian/white	3.501790688420215	neutral	036	sub-06	2.0	3.0	036_neutral	0.0		74.19092939213351	
7.0	46.255929971697924	fix	1.0		444	21.0	male	east_asian/white	3.501790688420215	neutral	036	sub-06	2.0	3.0	036_neutral	0.0		74.24077103819332	3.7666271637076534
7.0	46.90603658742725	pulse	1.0	t		21.0	male	east_asian/white	3.501790688420215	neutral	036	sub-06	2.0	3.0	036_neutral	0.0		74.89087765392264	
7.0	47.606051861368314	pulse	1.0	t		21.0	male	east_asian/white	3.501790688420215	neutral	036	sub-06	2.0	3.0	036_neutral	0.0		75.5908929278637	
7.0	48.3060149141279	pulse	1.0	t		21.0	male	east_asian/white	3.501790688420215	neutral	036	sub-06	2.0	3.0	036_neutral	0.0		76.29085598062329	
7.0	49.00603411220368	pulse	1.0	t		21.0	male	east_asian/white	3.501790688420215	neutral	036	sub-06	2.0	3.0	036_neutral	0.0		76.99087517869907	
7.0	49.706014672642596	pulse	1.0	t		21.0	male	east_asian/white	3.501790688420215	neutral	036	sub-06	2.0	3.0	036_neutral	0.0		77.69085573913799	
8.0	50.02255713540558	face	0.0		145	20.0	male	black	2.609629924393156	neutral	043	sub-06	2.0	3.0	043_neutral	1.0	dominance	78.00739820190097	1.2333000888665993
8.0	50.40599674236432	pulse	0.0	t		20.0	male	black	2.609629924393156	neutral	043	sub-06	2.0	3.0	043_neutral	1.0	dominance	78.39083780885971	
8.0	51.10603586297157	pulse	0.0	t		20.0	male	black	2.609629924393156	neutral	043	sub-06	2.0	3.0	043_neutral	1.0	dominance	79.09087692946696	
8.0	51.25585722427218	fix	1.0		177	20.0	male	black	2.609629924393156	neutral	043	sub-06	2.0	3.0	043_neutral	1.0	dominance	79.24069829076757	1.4999698143462865
8.0	51.805976578347554	pulse	1.0	t		20.0	male	black	2.609629924393156	neutral	043	sub-06	2.0	3.0	043_neutral	1.0	dominance	79.79081764484295	
8.0	52.50597223161344	pulse	1.0	t		20.0	male	black	2.609629924393156	neutral	043	sub-06	2.0	3.0	043_neutral	1.0	dominance	80.49081329810883	
8.0	52.75582703861846	rating	2.0		295	20.0	male	black	2.609629924393156	neutral	043	sub-06	2.0	3.0	043_neutral	1.0	dominance	80.74066810511385	2.499953514093022
8.0	53.20093533267004	pulse	2.0	t		20.0	male	black	2.609629924393156	neutral	043	sub-06	2.0	3.0	043_neutral	1.0	dominance	81.18577639916543	
8.0	53.90084314568321	pulse	2.0	t		20.0	male	black	2.609629924393156	neutral	043	sub-06	2.0	3.0	043_neutral	1.0	dominance	81.8856842121786	
8.0	54.00597313718299	response	2.0	g		20.0	male	black	2.609629924393156	neutral	043	sub-06	2.0	3.0	043_neutral	1.0	dominance	81.99081420367838	
8.0	54.60597156752897	pulse	2.0	t		20.0	male	black	2.609629924393156	neutral	043	sub-06	2.0	3.0	043_neutral	1.0	dominance	82.59081263402436	
8.0	55.255780552711485	fix	3.0		443	20.0	male	black	2.609629924393156	neutral	043	sub-06	2.0	3.0	043_neutral	1.0	dominance	83.24062161920688	3.766612976450233
8.0	55.30591288661799	pulse	3.0	t		20.0	male	black	2.609629924393156	neutral	043	sub-06	2.0	3.0	043_neutral	1.0	dominance	83.29075395311338	
8.0	56.005907030601065	pulse	3.0	t		20.0	male	black	2.609629924393156	neutral	043	sub-06	2.0	3.0	043_neutral	1.0	dominance	83.99074809709646	
8.0	56.7058942318838	pulse	3.0	t		20.0	male	black	2.609629924393156	neutral	043	sub-06	2.0	3.0	043_neutral	1.0	dominance	84.6907352983792	
8.0	57.40588565915823	pulse	3.0	t		20.0	male	black	2.609629924393156	neutral	043	sub-06	2.0	3.0	043_neutral	1.0	dominance	85.39072672565362	
8.0	58.10585988060984	pulse	3.0	t		20.0	male	black	2.609629924393156	neutral	043	sub-06	2.0	3.0	043_neutral	1.0	dominance	86.09070094710523	
8.0	58.80588270096405	pulse	3.0	t		20.0	male	black	2.609629924393156	neutral	043	sub-06	2.0	3.0	043_neutral	1.0	dominance	86.79072376745944	
9.0	59.02239352916172	face	0.0		145	20.0	female	white	3.9502586549940313	neutral	091	sub-06	2.0	3.0	091_neutral	0.0		87.00723459565711	1.2333299726640234
9.0	59.505876844947124	pulse	0.0	t		20.0	female	white	3.9502586549940313	neutral	091	sub-06	2.0	3.0	091_neutral	0.0		87.49071791144252	
9.0	60.20588276133526	pulse	0.0	t		20.0	female	white	3.9502586549940313	neutral	091	sub-06	2.0	3.0	091_neutral	0.0		88.19072382783065	
9.0	60.25572350182574	fix	1.0		444	20.0	female	white	3.9502586549940313	neutral	091	sub-06	2.0	3.0	091_neutral	0.0		88.24056456832113	3.7665927520622517
9.0	60.90582166557192	pulse	1.0	t		20.0	female	white	3.9502586549940313	neutral	091	sub-06	2.0	3.0	091_neutral	0.0		88.89066273206731	
9.0	61.6058752752931	pulse	1.0	t		20.0	female	white	3.9502586549940313	neutral	091	sub-06	2.0	3.0	091_neutral	0.0		89.5907163417885	
9.0	62.30580723682942	pulse	1.0	t		20.0	female	white	3.9502586549940313	neutral	091	sub-06	2.0	3.0	091_neutral	0.0		90.29064830332482	
9.0	63.00583850916678	pulse	1.0	t		20.0	female	white	3.9502586549940313	neutral	091	sub-06	2.0	3.0	091_neutral	0.0		90.99067957566217	
9.0	63.705833256863116	pulse	1.0	t		20.0	female	white	3.9502586549940313	neutral	091	sub-06	2.0	3.0	091_neutral	0.0		91.69067432335851	
10.0	64.022316253888	face	0.0		145	40.0	female	west_asian	1.5777954635893354	smiling	038	sub-06	2.0	3.0	038_smiling	1.0	trustworthiness	92.00715732038339	1.2333254448158186
10.0	64.40575918126842	pulse	0.0	t		40.0	female	west_asian	1.5777954635893354	smiling	038	sub-06	2.0	3.0	038_smiling	1.0	trustworthiness	92.39060024776381	
10.0	65.10579498145398	pulse	0.0	t		40.0	female	west_asian	1.5777954635893354	smiling	038	sub-06	2.0	3.0	038_smiling	1.0	trustworthiness	93.09063604794937	
10.0	65.25564169870381	fix	1.0		177	40.0	female	west_asian	1.5777954635893354	smiling	038	sub-06	2.0	3.0	038_smiling	1.0	trustworthiness	93.2404827651992	1.4999734366244866
10.0	65.80579274771549	pulse	1.0	t		40.0	female	west_asian	1.5777954635893354	smiling	038	sub-06	2.0	3.0	038_smiling	1.0	trustworthiness	93.79063381421088	
10.0	66.50578900469463	pulse	1.0	t		40.0	female	west_asian	1.5777954635893354	smiling	038	sub-06	2.0	3.0	038_smiling	1.0	trustworthiness	94.49063007119003	
10.0	66.7556151353283	rating	2.0		295	40.0	female	west_asian	1.5777954635893354	smiling	038	sub-06	2.0	3.0	038_smiling	1.0	trustworthiness	94.74045620182369	2.4999698143462865
10.0	67.20046896431813	pulse	2.0	t		40.0	female	west_asian	1.5777954635893354	smiling	038	sub-06	2.0	3.0	038_smiling	1.0	trustworthiness	95.18531003081353	
10.0	67.9007710019705	pulse	2.0	t		40.0	female	west_asian	1.5777954635893354	smiling	038	sub-06	2.0	3.0	038_smiling	1.0	trustworthiness	95.88561206846589	
10.0	68.07569113073055	response	2.0	r		40.0	female	west_asian	1.5777954635893354	smiling	038	sub-06	2.0	3.0	038_smiling	1.0	trustworthiness	96.06053219722594	
10.0	68.60572495073711	pulse	2.0	t		40.0	female	west_asian	1.5777954635893354	smiling	038	sub-06	2.0	3.0	038_smiling	1.0	trustworthiness	96.5905660172325	
10.0	69.25558494967459	fix	3.0		443	40.0	female	west_asian	1.5777954635893354	smiling	038	sub-06	2.0	3.0	038_smiling	1.0	trustworthiness	97.24042601616998	3.7666123727371996
10.0	69.30572905598592	pulse	3.0	t		40.0	female	west_asian	1.5777954635893354	smiling	038	sub-06	2.0	3.0	038_smiling	1.0	trustworthiness	97.29057012248131	
10.0	70.00572440739529	pulse	3.0	t		40.0	female	west_asian	1.5777954635893354	smiling	038	sub-06	2.0	3.0	038_smiling	1.0	trustworthiness	97.99056547389068	
10.0	70.70573424791837	pulse	3.0	t		40.0	female	west_asian	1.5777954635893354	smiling	038	sub-06	2.0	3.0	038_smiling	1.0	trustworthiness	98.69057531441376	
10.0	71.40570756380043	pulse	3.0	t		40.0	female	west_asian	1.5777954635893354	smiling	038	sub-06	2.0	3.0	038_smiling	1.0	trustworthiness	99.39054863029583	
10.0	72.10569385951362	pulse	3.0	t		40.0	female	west_asian	1.5777954635893354	smiling	038	sub-06	2.0	3.0	038_smiling	1.0	trustworthiness	100.09053492600901	
10.0	72.80566234569096	pulse	3.0	t		40.0	female	west_asian	1.5777954635893354	smiling	038	sub-06	2.0	3.0	038_smiling	1.0	trustworthiness	100.79050341218635	
11.0	73.02219732241178	face	0.0		145	23.0	male	white	2.6275368085953046	neutral	141	sub-06	2.0	3.0	141_neutral	0.0		101.00703838890718	1.2333103519888482
11.0	73.50562630402032	pulse	0.0	t		23.0	male	white	2.6275368085953046	neutral	141	sub-06	2.0	3.0	141_neutral	0.0		101.49046737051572	
11.0	74.20564791694846	pulse	0.0	t		23.0	male	white	2.6275368085953046	neutral	141	sub-06	2.0	3.0	141_neutral	0.0		102.19048898344386	
11.0	74.25550767440063	fix	1.0		444	23.0	male	white	2.6275368085953046	neutral	141	sub-06	2.0	3.0	141_neutral	0.0		102.24034874089602	3.7666144857330437
11.0	74.90572084548808	pulse	1.0	t		23.0	male	white	2.6275368085953046	neutral	141	sub-06	2.0	3.0	141_neutral	0.0		102.89056191198347	
11.0	75.605649788459	pulse	1.0	t		23.0	male	white	2.6275368085953046	neutral	141	sub-06	2.0	3.0	141_neutral	0.0		103.5904908549544	
11.0	76.30566023269512	pulse	1.0	t		23.0	male	white	2.6275368085953046	neutral	141	sub-06	2.0	3.0	141_neutral	0.0		104.29050129919051	
11.0	77.00560487220605	pulse	1.0	t		23.0	male	white	2.6275368085953046	neutral	141	sub-06	2.0	3.0	141_neutral	0.0		104.99044593870144	
11.0	77.70555464327799	pulse	1.0	t		23.0	male	white	2.6275368085953046	neutral	141	sub-06	2.0	3.0	141_neutral	0.0		105.69039570977338	
12.0	78.02212216013368	face	0.0		145	27.0	female	white	3.504576203740549	neutral	144	sub-06	2.0	3.0	144_neutral	0.0		106.00696322662907	1.2333103519888482
12.0	78.40559798987692	pulse	0.0	t		27.0	female	white	3.504576203740549	neutral	144	sub-06	2.0	3.0	144_neutral	0.0		106.39043905637232	
12.0	79.10561477310057	pulse	0.0	t		27.0	female	white	3.504576203740549	neutral	144	sub-06	2.0	3.0	144_neutral	0.0		107.09045583959596	
12.0	79.25543251212252	fix	1.0		444	27.0	female	white	3.504576203740549	neutral	144	sub-06	2.0	3.0	144_neutral	0.0		107.24027357861792	3.766642860247657
12.0	79.80558356113443	pulse	1.0	t		27.0	female	white	3.504576203740549	neutral	144	sub-06	2.0	3.0	144_neutral	0.0		107.79042462762982	
12.0	80.50554268975907	pulse	1.0	t		27.0	female	white	3.504576203740549	neutral	144	sub-06	2.0	3.0	144_neutral	0.0		108.49038375625446	
12.0	81.20557124538777	pulse	1.0	t		27.0	female	white	3.504576203740549	neutral	144	sub-06	2.0	3.0	144_neutral	0.0		109.19041231188316	
12.0	81.90554939097433	pulse	1.0	t		27.0	female	white	3.504576203740549	neutral	144	sub-06	2.0	3.0	144_neutral	0.0		109.89039045746972	
12.0	82.605535384831	pulse	1.0	t		27.0	female	white	3.504576203740549	neutral	144	sub-06	2.0	3.0	144_neutral	0.0		110.59037645132639	
13.0	83.02207537237018	face	0.0		145	54.0	female	white	2.286908077994429	smiling	136	sub-06	2.0	3.0	136_smiling	0.0		111.00691643886557	1.2332804681916514
13.0	83.30552077497441	pulse	0.0	t		54.0	female	white	2.286908077994429	smiling	136	sub-06	2.0	3.0	136_smiling	0.0		111.2903618414698	
13.0	84.00550224098288	pulse	0.0	t		54.0	female	white	2.286908077994429	smiling	136	sub-06	2.0	3.0	136_smiling	0.0		111.99034330747827	
13.0	84.25535584056183	fix	1.0		444	54.0	female	white	2.286908077994429	smiling	136	sub-06	2.0	3.0	136_smiling	0.0		112.24019690705722	3.7666138820200104
13.0	84.7054529176246	pulse	1.0	t		54.0	female	white	2.286908077994429	smiling	136	sub-06	2.0	3.0	136_smiling	0.0		112.69029398411999	
13.0	85.40547603983555	pulse	1.0	t		54.0	female	white	2.286908077994429	smiling	136	sub-06	2.0	3.0	136_smiling	0.0		113.39031710633094	
13.0	86.10546324111829	pulse	1.0	t		54.0	female	white	2.286908077994429	smiling	136	sub-06	2.0	3.0	136_smiling	0.0		114.09030430761368	
13.0	86.80542659573439	pulse	1.0	t		54.0	female	white	2.286908077994429	smiling	136	sub-06	2.0	3.0	136_smiling	0.0		114.79026766222978	
13.0	87.50540806174308	pulse	1.0	t		54.0	female	white	2.286908077994429	smiling	136	sub-06	2.0	3.0	136_smiling	0.0		115.49024912823847	
14.0	88.02196972258184	face	0.0		145	21.0	male	east_asian/white	3.501790688420215	smiling	036	sub-06	2.0	3.0	036_smiling	0.0		116.00681078907724	1.2333019000056993
14.0	88.20541760040965	pulse	0.0	t		21.0	male	east_asian/white	3.501790688420215	smiling	036	sub-06	2.0	3.0	036_smiling	0.0		116.19025866690504	
14.0	88.90543800591172	pulse	0.0	t		21.0	male	east_asian/white	3.501790688420215	smiling	036	sub-06	2.0	3.0	036_smiling	0.0		116.89027907240711	
14.0	89.25527162258754	fix	1.0		444	21.0	male	east_asian/white	3.501790688420215	smiling	036	sub-06	2.0	3.0	036_smiling	0.0		117.24011268908293	3.7666301822730475
14.0	89.60545388356559	pulse	1.0	t		21.0	male	east_asian/white	3.501790688420215	smiling	036	sub-06	2.0	3.0	036_smiling	0.0		117.59029495006098	
14.0	90.30542569016484	pulse	1.0	t		21.0	male	east_asian/white	3.501790688420215	smiling	036	sub-06	2.0	3.0	036_smiling	0.0		118.29026675666023	
14.0	91.00537727237611	pulse	1.0	t		21.0	male	east_asian/white	3.501790688420215	smiling	036	sub-06	2.0	3.0	036_smiling	0.0		118.9902183388715	
14.0	91.7053699070766	pulse	1.0	t		21.0	male	east_asian/white	3.501790688420215	smiling	036	sub-06	2.0	3.0	036_smiling	0.0		119.690210973572	
14.0	92.40535590093305	pulse	1.0	t		21.0	male	east_asian/white	3.501790688420215	smiling	036	sub-06	2.0	3.0	036_smiling	0.0		120.39019696742844	
15.0	93.02190180486059	face	0.0		145	24.0	female	east_asian	4.409868682849185	neutral	030	sub-06	2.0	3.0	030_neutral	0.0		121.00674287135598	1.233317898402447
15.0	93.10534310221601	pulse	0.0	t		24.0	female	east_asian	4.409868682849185	neutral	030	sub-06	2.0	3.0	030_neutral	0.0		121.0901841687114	
15.0	93.80531913480672	pulse	0.0	t		24.0	female	east_asian	4.409868682849185	neutral	030	sub-06	2.0	3.0	030_neutral	0.0		121.79016020130211	
15.0	94.25521970326304	fix	1.0		444	24.0	female	east_asian	4.409868682849185	neutral	030	sub-06	2.0	3.0	030_neutral	0.0		122.24006076975843	3.7666033170410174
15.0	94.50531207136373	pulse	1.0	t		24.0	female	east_asian	4.409868682849185	neutral	030	sub-06	2.0	3.0	030_neutral	0.0		122.49015313785912	
15.0	95.2053342880049	pulse	1.0	t		24.0	female	east_asian	4.409868682849185	neutral	030	sub-06	2.0	3.0	030_neutral	0.0		123.1901753545003	
15.0	95.905334469119	pulse	1.0	t		24.0	female	east_asian	4.409868682849185	neutral	030	sub-06	2.0	3.0	030_neutral	0.0		123.89017553561439	
15.0	96.60530929428364	pulse	1.0	t		24.0	female	east_asian	4.409868682849185	neutral	030	sub-06	2.0	3.0	030_neutral	0.0		124.59015036077903	
15.0	97.30526600805592	pulse	1.0	t		24.0	female	east_asian	4.409868682849185	neutral	030	sub-06	2.0	3.0	030_neutral	0.0		125.29010707455132	
16.0	98.02182302030405	face	0.0		145	31.0	male	west_asian	1.9538400318344609	smiling	070	sub-06	2.0	3.0	070_smiling	1.0	trustworthiness	126.00666408679945	1.2332973721577218
16.0	98.00814016527261	pulse	0.0	t		31.0	male	west_asian	1.9538400318344609	smiling	070	sub-06	2.0	3.0	070_smiling	1.0	trustworthiness	125.992981231768	
16.0	98.70525852201376	pulse	0.0	t		31.0	male	west_asian	1.9538400318344609	smiling	070	sub-06	2.0	3.0	070_smiling	1.0	trustworthiness	126.69009958850916	
16.0	99.25512039246178	fix	1.0		177	31.0	male	west_asian	1.9538400318344609	smiling	070	sub-06	2.0	3.0	070_smiling	1.0	trustworthiness	127.23996145895717	1.4999933591561785
16.0	99.40525840127134	pulse	1.0	t		31.0	male	west_asian	1.9538400318344609	smiling	070	sub-06	2.0	3.0	070_smiling	1.0	trustworthiness	127.39009946776673	
16.0	100.10523624500138	pulse	1.0	t		31.0	male	west_asian	1.9538400318344609	smiling	070	sub-06	2.0	3.0	070_smiling	1.0	trustworthiness	128.09007731149677	
16.0	100.75511375161796	rating	2.0		294	31.0	male	west_asian	1.9538400318344609	smiling	070	sub-06	2.0	3.0	070_smiling	1.0	trustworthiness	128.73995481811335	2.4999574382281935
16.0	100.8000792071557	pulse	2.0	t		31.0	male	west_asian	1.9538400318344609	smiling	070	sub-06	2.0	3.0	070_smiling	1.0	trustworthiness	128.7849202736511	
16.0	101.50023092025208	pulse	2.0	t		31.0	male	west_asian	1.9538400318344609	smiling	070	sub-06	2.0	3.0	070_smiling	1.0	trustworthiness	129.48507198674747	
16.0	102.20015865579671	pulse	2.0	t		31.0	male	west_asian	1.9538400318344609	smiling	070	sub-06	2.0	3.0	070_smiling	1.0	trustworthiness	130.1849997222921	
16.0	102.2834447988912	response	2.0	d		31.0	male	west_asian	1.9538400318344609	smiling	070	sub-06	2.0	3.0	070_smiling	1.0	trustworthiness	130.2682858653866	
16.0	102.90521915992122	pulse	2.0	t		31.0	male	west_asian	1.9538400318344609	smiling	070	sub-06	2.0	3.0	070_smiling	1.0	trustworthiness	130.8900602264166	
16.0	103.25507118984615	fix	3.0		444	31.0	male	west_asian	1.9538400318344609	smiling	070	sub-06	2.0	3.0	070_smiling	1.0	trustworthiness	131.23991225634154	3.76659969476259
16.0	103.60527609006431	pulse	3.0	t		31.0	male	west_asian	1.9538400318344609	smiling	070	sub-06	2.0	3.0	070_smiling	1.0	trustworthiness	131.5901171565597	
16.0	104.30519175134759	pulse	3.0	t		31.0	male	west_asian	1.9538400318344609	smiling	070	sub-06	2.0	3.0	070_smiling	1.0	trustworthiness	132.29003281784298	
16.0	105.00518257490876	pulse	3.0	t		31.0	male	west_asian	1.9538400318344609	smiling	070	sub-06	2.0	3.0	070_smiling	1.0	trustworthiness	132.99002364140415	
16.0	105.7051743040397	pulse	3.0	t		31.0	male	west_asian	1.9538400318344609	smiling	070	sub-06	2.0	3.0	070_smiling	1.0	trustworthiness	133.6900153705351	
16.0	106.40514188464749	pulse	3.0	t		31.0	male	west_asian	1.9538400318344609	smiling	070	sub-06	2.0	3.0	070_smiling	1.0	trustworthiness	134.38998295114288	
17.0	107.02167088460874	face	0.0		145	26.0	female	white	4.854755272582572	neutral	027	sub-06	2.0	3.0	027_neutral	0.0		135.00651195110413	1.2333185021154804
17.0	107.10516681799754	pulse	0.0	t		26.0	female	white	4.854755272582572	neutral	027	sub-06	2.0	3.0	027_neutral	0.0		135.09000788449293	
17.0	107.8052044293222	pulse	0.0	t		26.0	female	white	4.854755272582572	neutral	027	sub-06	2.0	3.0	027_neutral	0.0		135.7900454958176	
17.0	108.25498938672422	fix	1.0		444	26.0	female	white	4.854755272582572	neutral	027	sub-06	2.0	3.0	027_neutral	0.0		136.2398304532196	3.766608146745739
17.0	108.50511827946616	pulse	1.0	t		26.0	female	white	4.854755272582572	neutral	027	sub-06	2.0	3.0	027_neutral	0.0		136.48995934596155	
17.0	109.20512540328036	pulse	1.0	t		26.0	female	white	4.854755272582572	neutral	027	sub-06	2.0	3.0	027_neutral	0.0		137.18996646977575	
17.0	109.90511833983737	pulse	1.0	t		26.0	female	white	4.854755272582572	neutral	027	sub-06	2.0	3.0	027_neutral	0.0		137.88995940633276	
17.0	110.6051209358036	pulse	1.0	t		26.0	female	white	4.854755272582572	neutral	027	sub-06	2.0	3.0	027_neutral	0.0		138.589962002299	
17.0	111.30510572223398	pulse	1.0	t		26.0	female	white	4.854755272582572	neutral	027	sub-06	2.0	3.0	027_neutral	0.0		139.28994678872937	
18.0	112.02159753346996	face	0.0		146	27.0	male	black	3.5523278949462798	neutral	042	sub-06	2.0	3.0	042_neutral	0.0		140.00643859996535	1.2332970703012052
18.0	112.00783800687759	pulse	0.0	t		27.0	male	black	3.5523278949462798	neutral	042	sub-06	2.0	3.0	042_neutral	0.0		139.99267907337298	
18.0	112.70506865425114	pulse	0.0	t		27.0	male	black	3.5523278949462798	neutral	042	sub-06	2.0	3.0	042_neutral	0.0		140.68990972074653	
18.0	113.25489460377116	fix	1.0		443	27.0	male	black	3.5523278949462798	neutral	042	sub-06	2.0	3.0	042_neutral	0.0		141.23973567026655	3.7666301822730475
18.0	113.40502989587162	pulse	1.0	t		27.0	male	black	3.5523278949462798	neutral	042	sub-06	2.0	3.0	042_neutral	0.0		141.389870962367	
18.0	114.10500623031908	pulse	1.0	t		27.0	male	black	3.5523278949462798	neutral	042	sub-06	2.0	3.0	042_neutral	0.0		142.08984729681447	
18.0	114.80500550586339	pulse	1.0	t		27.0	male	black	3.5523278949462798	neutral	042	sub-06	2.0	3.0	042_neutral	0.0		142.78984657235878	
18.0	115.50500387583793	pulse	1.0	t		27.0	male	black	3.5523278949462798	neutral	042	sub-06	2.0	3.0	042_neutral	0.0		143.48984494233332	
18.0	116.20498594555966	pulse	1.0	t		27.0	male	black	3.5523278949462798	neutral	042	sub-06	2.0	3.0	042_neutral	0.0		144.18982701205505	
18.0	116.90500423806589	pulse	1.0	t		27.0	male	black	3.5523278949462798	neutral	042	sub-06	2.0	3.0	042_neutral	0.0		144.88984530456128	
19.0	117.02152478604421	face	0.0		146	25.0	female	black	3.858336649423	smiling	126	sub-06	2.0	3.0	126_smiling	0.0		145.0063658525396	1.2333236336764912
19.0	117.6049959671966	pulse	0.0	t		25.0	female	black	3.858336649423	smiling	126	sub-06	2.0	3.0	126_smiling	0.0		145.589837033692	
19.0	118.2548484197207	fix	1.0		443	25.0	female	black	3.858336649423	smiling	126	sub-06	2.0	3.0	126_smiling	0.0		146.2396894862161	3.7666217302898986
19.0	118.30495539767799	pulse	1.0	t		25.0	female	black	3.858336649423	smiling	126	sub-06	2.0	3.0	126_smiling	0.0		146.28979646417338	
19.0	119.00496071035309	pulse	1.0	t		25.0	female	black	3.858336649423	smiling	126	sub-06	2.0	3.0	126_smiling	0.0		146.98980177684848	
19.0	119.70494217636156	pulse	1.0	t		25.0	female	black	3.858336649423	smiling	126	sub-06	2.0	3.0	126_smiling	0.0		147.68978324285695	
19.0	120.40494477232778	pulse	1.0	t		25.0	female	black	3.858336649423	smiling	126	sub-06	2.0	3.0	126_smiling	0.0		148.38978583882317	
19.0	121.10492171048827	pulse	1.0	t		25.0	female	black	3.858336649423	smiling	126	sub-06	2.0	3.0	126_smiling	0.0		149.08976277698366	
19.0	121.80489261151797	pulse	1.0	t		25.0	female	black	3.858336649423	smiling	126	sub-06	2.0	3.0	126_smiling	0.0		149.78973367801336	
20.0	122.0214701500106	face	0.0		145	40.0	female	west_asian	1.5777954635893354	neutral	038	sub-06	2.0	3.0	038_neutral	0.0		150.006311216506	1.2332771477697406
20.0	122.50489671676678	pulse	0.0	t		40.0	female	west_asian	1.5777954635893354	neutral	038	sub-06	2.0	3.0	038_neutral	0.0		150.48973778326217	
20.0	123.20490776471615	pulse	0.0	t		40.0	female	west_asian	1.5777954635893354	neutral	038	sub-06	2.0	3.0	038_neutral	0.0		151.18974883121155	
20.0	123.25474729778034	fix	1.0		1185	40.0	female	west_asian	1.5777954635893354	neutral	038	sub-06	2.0	3.0	038_neutral	0.0		151.23958836427573	10.016523023201898
20.0	123.90490643654744	pulse	1.0	t		40.0	female	west_asian	1.5777954635893354	neutral	038	sub-06	2.0	3.0	038_neutral	0.0		151.88974750304283	
20.0	124.60489876939141	pulse	1.0	t		40.0	female	west_asian	1.5777954635893354	neutral	038	sub-06	2.0	3.0	038_neutral	0.0		152.5897398358868	
20.0	125.30483888105414	pulse	1.0	t		40.0	female	west_asian	1.5777954635893354	neutral	038	sub-06	2.0	3.0	038_neutral	0.0		153.28967994754953	
20.0	126.0048641162607	pulse	1.0	t		40.0	female	west_asian	1.5777954635893354	neutral	038	sub-06	2.0	3.0	038_neutral	0.0		153.9897051827561	
20.0	126.70482384859838	pulse	1.0	t		40.0	female	west_asian	1.5777954635893354	neutral	038	sub-06	2.0	3.0	038_neutral	0.0		154.68966491509377	
20.0	127.40482040743404	pulse	1.0	t		40.0	female	west_asian	1.5777954635893354	neutral	038	sub-06	2.0	3.0	038_neutral	0.0		155.38966147392944	
20.0	128.10482783310476	pulse	1.0	t		40.0	female	west_asian	1.5777954635893354	neutral	038	sub-06	2.0	3.0	038_neutral	0.0		156.08966889960016	
20.0	128.80477971717255	pulse	1.0	t		40.0	female	west_asian	1.5777954635893354	neutral	038	sub-06	2.0	3.0	038_neutral	0.0		156.78962078366794	
20.0	129.5047986133918	pulse	1.0	t		40.0	female	west_asian	1.5777954635893354	neutral	038	sub-06	2.0	3.0	038_neutral	0.0		157.4896396798872	
20.0	130.20480513349298	pulse	1.0	t		40.0	female	west_asian	1.5777954635893354	neutral	038	sub-06	2.0	3.0	038_neutral	0.0		158.18964619998837	
20.0	130.90480320161123	pulse	1.0	t		40.0	female	west_asian	1.5777954635893354	neutral	038	sub-06	2.0	3.0	038_neutral	0.0		158.88964426810662	
20.0	131.6047565949616	pulse	1.0	t		40.0	female	west_asian	1.5777954635893354	neutral	038	sub-06	2.0	3.0	038_neutral	0.0		159.589597661457	
20.0	132.30479541371255	pulse	1.0	t		40.0	female	west_asian	1.5777954635893354	neutral	038	sub-06	2.0	3.0	038_neutral	0.0		160.28963648020795	
20.0	133.00473009195753	pulse	1.0	t		40.0	female	west_asian	1.5777954635893354	neutral	038	sub-06	2.0	3.0	038_neutral	0.0		160.98957115845292	
21.0	133.27127032098224	face	0.0		145	28.0	male	white	3.9076800636689217	neutral	033	sub-06	2.0	3.0	033_neutral	0.0		161.25611138747763	1.2333293689507627
21.0	133.70478430539197	pulse	0.0	t		28.0	male	white	3.9076800636689217	neutral	033	sub-06	2.0	3.0	033_neutral	0.0		161.68962537188736	
21.0	134.40475731941729	pulse	0.0	t		28.0	male	white	3.9076800636689217	neutral	033	sub-06	2.0	3.0	033_neutral	0.0		162.38959838591268	
21.0	134.504599689933	fix	1.0		444	28.0	male	white	3.9076800636689217	neutral	033	sub-06	2.0	3.0	033_neutral	0.0		162.4894407564284	3.7665918464927017
21.0	135.10470527935013	pulse	1.0	t		28.0	male	white	3.9076800636689217	neutral	033	sub-06	2.0	3.0	033_neutral	0.0		163.08954634584552	
21.0	135.8047084790294	pulse	1.0	t		28.0	male	white	3.9076800636689217	neutral	033	sub-06	2.0	3.0	033_neutral	0.0		163.78954954552478	
21.0	136.50468179491145	pulse	1.0	t		28.0	male	white	3.9076800636689217	neutral	033	sub-06	2.0	3.0	033_neutral	0.0		164.48952286140684	
21.0	137.20468831501262	pulse	1.0	t		28.0	male	white	3.9076800636689217	neutral	033	sub-06	2.0	3.0	033_neutral	0.0		165.189529381508	
21.0	137.90471143722357	pulse	1.0	t		28.0	male	white	3.9076800636689217	neutral	033	sub-06	2.0	3.0	033_neutral	0.0		165.88955250371896	
22.0	138.2711915364257	face	0.0		145	19.0	male	white	3.2522881018702745	smiling	018	sub-06	2.0	3.0	018_smiling	0.0		166.2560326029211	1.233329972663796
22.0	138.6046310226418	pulse	0.0	t		19.0	male	white	3.2522881018702745	smiling	018	sub-06	2.0	3.0	018_smiling	0.0		166.5894720891372	
22.0	139.30462788333375	pulse	0.0	t		19.0	male	white	3.2522881018702745	smiling	018	sub-06	2.0	3.0	018_smiling	0.0		167.28946894982914	
22.0	139.5045215090895	fix	1.0		444	19.0	male	white	3.2522881018702745	smiling	018	sub-06	2.0	3.0	018_smiling	0.0		167.4893625755849	3.766596676197423
22.0	140.00465975938414	pulse	1.0	t		19.0	male	white	3.2522881018702745	smiling	018	sub-06	2.0	3.0	018_smiling	0.0		167.98950082587953	
22.0	140.7046203972916	pulse	1.0	t		19.0	male	white	3.2522881018702745	smiling	018	sub-06	2.0	3.0	018_smiling	0.0		168.68946146378698	
22.0	141.4045946187432	pulse	1.0	t		19.0	male	white	3.2522881018702745	smiling	018	sub-06	2.0	3.0	018_smiling	0.0		169.3894356852386	
22.0	142.1045984221355	pulse	1.0	t		19.0	male	white	3.2522881018702745	smiling	018	sub-06	2.0	3.0	018_smiling	0.0		170.0894394886309	
22.0	142.804586528988	pulse	1.0	t		19.0	male	white	3.2522881018702745	smiling	018	sub-06	2.0	3.0	018_smiling	0.0		170.7894275954834	
23.0	143.27111818528692	face	0.0		145	31.0	female	east_asian	3.395941106247513	smiling	087	sub-06	2.0	3.0	087_smiling	0.0		171.25595925178231	1.233312464984465
23.0	143.504631083013	pulse	0.0	t		31.0	female	east_asian	3.395941106247513	smiling	087	sub-06	2.0	3.0	087_smiling	0.0		171.4894721495084	
23.0	144.2045766280935	pulse	0.0	t		31.0	female	east_asian	3.395941106247513	smiling	087	sub-06	2.0	3.0	087_smiling	0.0		172.18941769458888	
23.0	144.5044306502714	fix	1.0		444	31.0	female	east_asian	3.395941106247513	smiling	087	sub-06	2.0	3.0	087_smiling	0.0		172.48927171676678	3.7666446713869846
23.0	144.90457379064196	pulse	1.0	t		31.0	female	east_asian	3.395941106247513	smiling	087	sub-06	2.0	3.0	087_smiling	0.0		172.88941485713735	
23.0	145.60454499352818	pulse	1.0	t		31.0	female	east_asian	3.395941106247513	smiling	087	sub-06	2.0	3.0	087_smiling	0.0		173.58938606002357	
23.0	146.30453219481092	pulse	1.0	t		31.0	female	east_asian	3.395941106247513	smiling	087	sub-06	2.0	3.0	087_smiling	0.0		174.2893732613063	
23.0	147.00453811119928	pulse	1.0	t		31.0	female	east_asian	3.395941106247513	smiling	087	sub-06	2.0	3.0	087_smiling	0.0		174.98937917769467	
23.0	147.70452259577314	pulse	1.0	t		31.0	female	east_asian	3.395941106247513	smiling	087	sub-06	2.0	3.0	087_smiling	0.0		175.68936366226853	
24.0	148.27107532165837	face	0.0		145	37.0	male	white	3.898925586947871	smiling	101	sub-06	2.0	3.0	101_smiling	0.0		176.25591638815376	1.2332792607653573
24.0	148.40454088827937	pulse	0.0	t		37.0	male	white	3.898925586947871	smiling	101	sub-06	2.0	3.0	101_smiling	0.0		176.38938195477476	
24.0	149.10450545032177	pulse	0.0	t		37.0	male	white	3.898925586947871	smiling	101	sub-06	2.0	3.0	101_smiling	0.0		177.08934651681716	
24.0	149.50435458242373	fix	1.0		444	37.0	male	white	3.898925586947871	smiling	101	sub-06	2.0	3.0	101_smiling	0.0		177.48919564891912	3.766609354172033
24.0	149.80447846434708	pulse	1.0	t		37.0	male	white	3.898925586947871	smiling	101	sub-06	2.0	3.0	101_smiling	0.0		177.78931953084248	
24.0	150.50445872292948	pulse	1.0	t		37.0	male	white	3.898925586947871	smiling	101	sub-06	2.0	3.0	101_smiling	0.0		178.48929978942488	
24.0	151.20446795973953	pulse	1.0	t		37.0	male	white	3.898925586947871	smiling	101	sub-06	2.0	3.0	101_smiling	0.0		179.18930902623492	
24.0	151.90447146127553	pulse	1.0	t		37.0	male	white	3.898925586947871	smiling	101	sub-06	2.0	3.0	101_smiling	0.0		179.88931252777093	
24.0	152.60444296601827	pulse	1.0	t		37.0	male	white	3.898925586947871	smiling	101	sub-06	2.0	3.0	101_smiling	0.0		180.58928403251366	
25.0	153.27096393659576	face	0.0		145	24.0	female	east_asian	2.9076800636689217	smiling	034	sub-06	2.0	3.0	034_smiling	0.0		181.25580500309115	1.2333390283599783
25.0	153.30446578637248	pulse	0.0	t		24.0	female	east_asian	2.9076800636689217	smiling	034	sub-06	2.0	3.0	034_smiling	0.0		181.28930685286787	
25.0	154.00444212081993	pulse	0.0	t		24.0	female	east_asian	2.9076800636689217	smiling	034	sub-06	2.0	3.0	034_smiling	0.0		181.98928318731532	
25.0	154.50430296495574	fix	1.0		443	24.0	female	east_asian	2.9076800636689217	smiling	034	sub-06	2.0	3.0	034_smiling	0.0		182.48914403145113	3.766589431640341
25.0	154.70440094758806	pulse	1.0	t		24.0	female	east_asian	2.9076800636689217	smiling	034	sub-06	2.0	3.0	034_smiling	0.0		182.68924201408345	
25.0	155.4043893562971	pulse	1.0	t		24.0	female	east_asian	2.9076800636689217	smiling	034	sub-06	2.0	3.0	034_smiling	0.0		183.38923042279248	
25.0	156.10437746314938	pulse	1.0	t		24.0	female	east_asian	2.9076800636689217	smiling	034	sub-06	2.0	3.0	034_smiling	0.0		184.08921852964477	
25.0	156.80444616569753	pulse	1.0	t		24.0	female	east_asian	2.9076800636689217	smiling	034	sub-06	2.0	3.0	034_smiling	0.0		184.78928723219292	
25.0	157.5044445356723	pulse	1.0	t		24.0	female	east_asian	2.9076800636689217	smiling	034	sub-06	2.0	3.0	034_smiling	0.0		185.48928560216768	
25.0	158.20438887332648	pulse	1.0	t		24.0	female	east_asian	2.9076800636689217	smiling	034	sub-06	2.0	3.0	034_smiling	0.0		186.18922993982187	
26.0	158.27089239659608	face	0.0		146	37.0	male	white	3.898925586947871	neutral	101	sub-06	2.0	3.0	101_neutral	0.0		186.25573346309147	1.233329972663796
26.0	158.90433743697236	pulse	0.0	t		37.0	male	white	3.898925586947871	neutral	101	sub-06	2.0	3.0	101_neutral	0.0		186.88917850346775	
26.0	159.50422236925988	fix	1.0		443	37.0	male	white	3.898925586947871	neutral	101	sub-06	2.0	3.0	101_neutral	0.0		187.48906343575527	3.7666147875895604
26.0	159.60436116289634	pulse	1.0	t		37.0	male	white	3.898925586947871	neutral	101	sub-06	2.0	3.0	101_neutral	0.0		187.58920222939173	
26.0	160.30433689363053	pulse	1.0	t		37.0	male	white	3.898925586947871	neutral	101	sub-06	2.0	3.0	101_neutral	0.0		188.28917796012593	
26.0	161.00434854529294	pulse	1.0	t		37.0	male	white	3.898925586947871	neutral	101	sub-06	2.0	3.0	101_neutral	0.0		188.98918961178833	
26.0	161.70437136564738	pulse	1.0	t		37.0	male	white	3.898925586947871	neutral	101	sub-06	2.0	3.0	101_neutral	0.0		189.68921243214277	
26.0	162.40432989055898	pulse	1.0	t		37.0	male	white	3.898925586947871	neutral	101	sub-06	2.0	3.0	101_neutral	0.0		190.38917095705438	
26.0	163.10430531943666	pulse	1.0	t		37.0	male	white	3.898925586947871	neutral	101	sub-06	2.0	3.0	101_neutral	0.0		191.08914638593205	
27.0	163.27083715684944	face	0.0		146	27.0	female	white	3.504576203740549	smiling	144	sub-06	2.0	3.0	144_smiling	0.0		191.25567822334483	1.2332988814405326
27.0	163.80427772974917	pulse	0.0	t		27.0	female	white	3.504576203740549	smiling	144	sub-06	2.0	3.0	144_smiling	0.0		191.78911879624457	
27.0	164.50413603828997	fix	1.0		444	27.0	female	white	3.504576203740549	smiling	144	sub-06	2.0	3.0	144_smiling	0.0		192.48897710478536	3.758260606031399
27.0	164.5117808569828	pulse	1.0	t		27.0	female	white	3.504576203740549	smiling	144	sub-06	2.0	3.0	144_smiling	0.0		192.4966219234782	
27.0	165.2042780919769	pulse	1.0	t		27.0	female	white	3.504576203740549	smiling	144	sub-06	2.0	3.0	144_smiling	0.0		193.1891191584723	
27.0	165.90425563385043	pulse	1.0	t		27.0	female	white	3.504576203740549	smiling	144	sub-06	2.0	3.0	144_smiling	0.0		193.88909670034582	
27.0	166.60423891099822	pulse	1.0	t		27.0	female	white	3.504576203740549	smiling	144	sub-06	2.0	3.0	144_smiling	0.0		194.5890799774936	
27.0	167.30425358122602	pulse	1.0	t		27.0	female	white	3.504576203740549	smiling	144	sub-06	2.0	3.0	144_smiling	0.0		195.2890946477214	
27.0	168.00425587533573	pulse	1.0	t		27.0	female	white	3.504576203740549	smiling	144	sub-06	2.0	3.0	144_smiling	0.0		195.98909694183112	
28.0	168.26239664432137	face	0.0		146	47.0	male	east_asian	2.171110226820533	neutral	024	sub-06	2.0	3.0	024_neutral	0.0		196.24723771081676	1.2416621186946486
28.0	168.704191761007	pulse	0.0	t		47.0	male	east_asian	2.171110226820533	neutral	024	sub-06	2.0	3.0	024_neutral	0.0		196.6890328275024	
28.0	169.40417141587636	pulse	0.0	t		47.0	male	east_asian	2.171110226820533	neutral	024	sub-06	2.0	3.0	024_neutral	0.0		197.38901248237175	
28.0	169.50405876301602	fix	1.0		444	47.0	male	east_asian	2.171110226820533	neutral	024	sub-06	2.0	3.0	024_neutral	0.0		197.4888998295114	3.758407308309188
28.0	170.10420932905754	pulse	1.0	t		47.0	male	east_asian	2.171110226820533	neutral	024	sub-06	2.0	3.0	024_neutral	0.0		198.08905039555293	
28.0	170.80415698713364	pulse	1.0	t		47.0	male	east_asian	2.171110226820533	neutral	024	sub-06	2.0	3.0	024_neutral	0.0		198.78899805362903	
28.0	171.50417527963987	pulse	1.0	t		47.0	male	east_asian	2.171110226820533	neutral	024	sub-06	2.0	3.0	024_neutral	0.0		199.48901634613526	
28.0	172.20416640505778	pulse	1.0	t		47.0	male	east_asian	2.171110226820533	neutral	024	sub-06	2.0	3.0	024_neutral	0.0		200.18900747155317	
28.0	172.9041394190831	pulse	1.0	t		47.0	male	east_asian	2.171110226820533	neutral	024	sub-06	2.0	3.0	024_neutral	0.0		200.8889804855785	
29.0	173.2624660713252	face	0.0		146	36.0	female	white	2.7548746518105847	smiling	011	sub-06	2.0	3.0	011_smiling	0.0		201.2473071378206	1.2415289999612469
29.0	173.60410277369942	pulse	0.0	t		36.0	female	white	2.7548746518105847	smiling	011	sub-06	2.0	3.0	011_smiling	0.0		201.58894384019482	
29.0	174.30408967312565	pulse	0.0	t		36.0	female	white	2.7548746518105847	smiling	011	sub-06	2.0	3.0	011_smiling	0.0		202.28893073962104	
29.0	174.50399507128645	fix	1.0		444	36.0	female	white	2.7548746518105847	smiling	011	sub-06	2.0	3.0	011_smiling	0.0		202.48883613778185	3.766595468771129
29.0	174.9961869482063	pulse	1.0	t		36.0	female	white	2.7548746518105847	smiling	011	sub-06	2.0	3.0	011_smiling	0.0		202.98102801470168	
29.0	175.70407554623966	pulse	1.0	t		36.0	female	white	2.7548746518105847	smiling	011	sub-06	2.0	3.0	011_smiling	0.0		203.68891661273506	
29.0	176.40410923342938	pulse	1.0	t		36.0	female	white	2.7548746518105847	smiling	011	sub-06	2.0	3.0	011_smiling	0.0		204.38895029992477	
29.0	177.1040665509147	pulse	1.0	t		36.0	female	white	2.7548746518105847	smiling	011	sub-06	2.0	3.0	011_smiling	0.0		205.0889076174101	
29.0	177.80408786198632	pulse	1.0	t		36.0	female	white	2.7548746518105847	smiling	011	sub-06	2.0	3.0	011_smiling	0.0		205.7889289284817	
30.0	178.27059054005758	face	0.0		145	36.0	female	white	2.7548746518105847	neutral	011	sub-06	2.0	3.0	011_neutral	0.0		206.25543160655297	1.2333462729170606
30.0	178.504037934915	pulse	0.0	t		36.0	female	white	2.7548746518105847	neutral	011	sub-06	2.0	3.0	011_neutral	0.0		206.4888790014104	
30.0	179.20402845661965	pulse	0.0	t		36.0	female	white	2.7548746518105847	neutral	011	sub-06	2.0	3.0	011_neutral	0.0		207.18886952311505	
30.0	179.50393681297464	fix	1.0		444	36.0	female	white	2.7548746518105847	neutral	011	sub-06	2.0	3.0	011_neutral	0.0		207.48877787947004	3.7583617279715327
30.0	179.90406304937892	pulse	1.0	t		36.0	female	white	2.7548746518105847	neutral	011	sub-06	2.0	3.0	011_neutral	0.0		207.8889041158743	
30.0	180.5960166407474	pulse	1.0	t		36.0	female	white	2.7548746518105847	neutral	011	sub-06	2.0	3.0	011_neutral	0.0		208.58085770724279	
30.0	181.30400213472944	pulse	1.0	t		36.0	female	white	2.7548746518105847	neutral	011	sub-06	2.0	3.0	011_neutral	0.0		209.28884320122484	
30.0	182.0039863174468	pulse	1.0	t		36.0	female	white	2.7548746518105847	neutral	011	sub-06	2.0	3.0	011_neutral	0.0		209.98882738394218	
30.0	182.69599424299213	pulse	1.0	t		36.0	female	white	2.7548746518105847	neutral	011	sub-06	2.0	3.0	011_neutral	0.0		210.68083530948752	
31.0	183.26229854094618	face	0.0		146	34.0	male	white	2.651014723438122	smiling	121	sub-06	2.0	3.0	121_smiling	1.0	attractiveness	211.24713960744157	1.2415365463748458
31.0	183.40394562718552	pulse	0.0	t		34.0	male	white	2.651014723438122	smiling	121	sub-06	2.0	3.0	121_smiling	1.0	attractiveness	211.3887866936809	
31.0	184.0959478174566	pulse	0.0	t		34.0	male	white	2.651014723438122	smiling	121	sub-06	2.0	3.0	121_smiling	1.0	attractiveness	212.08078888395198	
31.0	184.50383508732102	fix	1.0		177	34.0	male	white	2.651014723438122	smiling	121	sub-06	2.0	3.0	121_smiling	1.0	attractiveness	212.4886761538164	1.4999559289453828
31.0	184.79594347072248	pulse	1.0	t		34.0	male	white	2.651014723438122	smiling	121	sub-06	2.0	3.0	121_smiling	1.0	attractiveness	212.78078453721787	
31.0	185.50398843044263	pulse	1.0	t		34.0	male	white	2.651014723438122	smiling	121	sub-06	2.0	3.0	121_smiling	1.0	attractiveness	213.48882949693802	
31.0	186.0037910162664	rating	2.0		294	34.0	male	white	2.651014723438122	smiling	121	sub-06	2.0	3.0	121_smiling	1.0	attractiveness	213.9886320827618	2.4999767570466247
31.0	186.19875140061436	pulse	2.0	t		34.0	male	white	2.651014723438122	smiling	121	sub-06	2.0	3.0	121_smiling	1.0	attractiveness	214.18359246710975	
31.0	186.89875942999834	pulse	2.0	t		34.0	male	white	2.651014723438122	smiling	121	sub-06	2.0	3.0	121_smiling	1.0	attractiveness	214.88360049649373	
31.0	187.59555630952605	response	2.0	w		34.0	male	white	2.651014723438122	smiling	121	sub-06	2.0	3.0	121_smiling	1.0	attractiveness	215.58039737602144	
31.0	187.60727045621388	pulse	2.0	t		34.0	male	white	2.651014723438122	smiling	121	sub-06	2.0	3.0	121_smiling	1.0	attractiveness	215.59211152270927	
31.0	188.30393512257797	pulse	2.0	t		34.0	male	white	2.651014723438122	smiling	121	sub-06	2.0	3.0	121_smiling	1.0	attractiveness	216.28877618907336	
31.0	188.50376777331303	fix	3.0		444	34.0	male	white	2.651014723438122	smiling	121	sub-06	2.0	3.0	121_smiling	1.0	attractiveness	216.48860883980842	3.7666024114714673
31.0	188.99586275428396	pulse	3.0	t		34.0	male	white	2.651014723438122	smiling	121	sub-06	2.0	3.0	121_smiling	1.0	attractiveness	216.98070382077935	
31.0	189.69591636400514	pulse	3.0	t		34.0	male	white	2.651014723438122	smiling	121	sub-06	2.0	3.0	121_smiling	1.0	attractiveness	217.68075743050053	
31.0	190.40384480710168	pulse	3.0	t		34.0	male	white	2.651014723438122	smiling	121	sub-06	2.0	3.0	121_smiling	1.0	attractiveness	218.38868587359707	
31.0	191.09582224513656	pulse	3.0	t		34.0	male	white	2.651014723438122	smiling	121	sub-06	2.0	3.0	121_smiling	1.0	attractiveness	219.08066331163195	
31.0	191.79582544481582	pulse	3.0	t		34.0	male	white	2.651014723438122	smiling	121	sub-06	2.0	3.0	121_smiling	1.0	attractiveness	219.7806665113112	
32.0	192.2703701847845	face	0.0		145	26.0	female	white	4.854755272582572	smiling	027	sub-06	2.0	3.0	027_smiling	0.0		220.2552112512799	1.233348989625938
32.0	192.4957863845798	pulse	0.0	t		26.0	female	white	4.854755272582572	smiling	027	sub-06	2.0	3.0	027_smiling	0.0		220.48062745107518	
32.0	193.20385187054467	pulse	0.0	t		26.0	female	white	4.854755272582572	smiling	027	sub-06	2.0	3.0	027_smiling	0.0		221.18869293704006	
32.0	193.50371917441043	fix	1.0		444	26.0	female	white	4.854755272582572	smiling	027	sub-06	2.0	3.0	027_smiling	0.0		221.48856024090583	3.7665580385603334
32.0	193.89574810917065	pulse	1.0	t		26.0	female	white	4.854755272582572	smiling	027	sub-06	2.0	3.0	027_smiling	0.0		221.88058917566605	
32.0	194.59584367695084	pulse	1.0	t		26.0	female	white	4.854755272582572	smiling	027	sub-06	2.0	3.0	027_smiling	0.0		222.58068474344623	
32.0	195.2957158708923	pulse	1.0	t		26.0	female	white	4.854755272582572	smiling	027	sub-06	2.0	3.0	027_smiling	0.0		223.2805569373877	
32.0	195.9958917325116	pulse	1.0	t		26.0	female	white	4.854755272582572	smiling	027	sub-06	2.0	3.0	027_smiling	0.0		223.980732799007	
32.0	196.6957950176768	pulse	1.0	t		26.0	female	white	4.854755272582572	smiling	027	sub-06	2.0	3.0	027_smiling	0.0		224.6806360841722	
33.0	197.27027721297077	face	0.0		145	30.0	female	black	2.7345801830481498	smiling	062	sub-06	2.0	3.0	062_smiling	0.0		225.25511827946616	1.2333320856596401
33.0	197.40375998541435	pulse	0.0	t		30.0	female	black	2.7345801830481498	smiling	062	sub-06	2.0	3.0	062_smiling	0.0		225.38860105190975	
33.0	198.09572776404002	pulse	0.0	t		30.0	female	black	2.7345801830481498	smiling	062	sub-06	2.0	3.0	062_smiling	0.0		226.0805688305354	
33.0	198.5036092986304	fix	1.0		444	30.0	female	black	2.7345801830481498	smiling	062	sub-06	2.0	3.0	062_smiling	0.0		226.4884503651258	3.758358407549622
33.0	198.7956763276859	pulse	1.0	t		30.0	female	black	2.7345801830481498	smiling	062	sub-06	2.0	3.0	062_smiling	0.0		226.7805173941813	
33.0	199.4956774143693	pulse	1.0	t		30.0	female	black	2.7345801830481498	smiling	062	sub-06	2.0	3.0	062_smiling	0.0		227.4805184808647	
33.0	200.20377821754937	pulse	1.0	t		30.0	female	black	2.7345801830481498	smiling	062	sub-06	2.0	3.0	062_smiling	0.0		228.18861928404476	
33.0	200.9036950862585	pulse	1.0	t		30.0	female	black	2.7345801830481498	smiling	062	sub-06	2.0	3.0	062_smiling	0.0		228.8885361527539	
33.0	201.59568791897686	pulse	1.0	t		30.0	female	black	2.7345801830481498	smiling	062	sub-06	2.0	3.0	062_smiling	0.0		229.58052898547226	
34.0	202.26196770618003	face	0.0		146	25.0	female	west_asian	2.6756864305610826	neutral	064	sub-06	2.0	3.0	064_neutral	0.0		230.24680877267542	1.2415760895814856
34.0	202.2956171638043	pulse	0.0	t		25.0	female	west_asian	2.6756864305610826	neutral	064	sub-06	2.0	3.0	064_neutral	0.0		230.2804582302997	
34.0	202.99555486061467	pulse	0.0	t		25.0	female	west_asian	2.6756864305610826	neutral	064	sub-06	2.0	3.0	064_neutral	0.0		230.98039592711007	
34.0	203.50354379576152	fix	1.0		443	25.0	female	west_asian	2.6756864305610826	neutral	064	sub-06	2.0	3.0	064_neutral	0.0		231.4883848622569	3.7582660394489267
34.0	203.6956241668761	pulse	1.0	t		25.0	female	west_asian	2.6756864305610826	neutral	064	sub-06	2.0	3.0	064_neutral	0.0		231.68046523337148	
34.0	204.39564940208265	pulse	1.0	t		25.0	female	west_asian	2.6756864305610826	neutral	064	sub-06	2.0	3.0	064_neutral	0.0		232.38049046857805	
34.0	205.09568761712035	pulse	1.0	t		25.0	female	west_asian	2.6756864305610826	neutral	064	sub-06	2.0	3.0	064_neutral	0.0		233.08052868361574	
34.0	205.7956482550278	pulse	1.0	t		25.0	female	west_asian	2.6756864305610826	neutral	064	sub-06	2.0	3.0	064_neutral	0.0		233.7804893215232	
34.0	206.49555184204928	pulse	1.0	t		25.0	female	west_asian	2.6756864305610826	neutral	064	sub-06	2.0	3.0	064_neutral	0.0		234.48039290854467	
34.0	207.1957292129514	pulse	1.0	t		25.0	female	west_asian	2.6756864305610826	neutral	064	sub-06	2.0	3.0	064_neutral	0.0		235.18057027944678	
35.0	207.26180983521044	face	0.0		147	28.0	male	east_asian	1.5563072025467568	smiling	005	sub-06	2.0	3.0	005_smiling	0.0		235.24665090170583	1.24163646088914
35.0	207.89554314858105	pulse	0.0	t		28.0	male	east_asian	1.5563072025467568	smiling	005	sub-06	2.0	3.0	005_smiling	0.0		235.88038421507645	
35.0	208.50344629609958	fix	1.0		443	28.0	male	east_asian	1.5563072025467568	smiling	005	sub-06	2.0	3.0	005_smiling	0.0		236.48828736259497	3.7666147875895604
35.0	208.59567675028507	pulse	1.0	t		28.0	male	east_asian	1.5563072025467568	smiling	005	sub-06	2.0	3.0	005_smiling	0.0		236.58051781678046	
35.0	209.2956699886986	pulse	1.0	t		28.0	male	east_asian	1.5563072025467568	smiling	005	sub-06	2.0	3.0	005_smiling	0.0		237.28051105519398	
35.0	209.9954295901514	pulse	1.0	t		28.0	male	east_asian	1.5563072025467568	smiling	005	sub-06	2.0	3.0	005_smiling	0.0		237.98027065664678	
35.0	210.69556077700304	pulse	1.0	t		28.0	male	east_asian	1.5563072025467568	smiling	005	sub-06	2.0	3.0	005_smiling	0.0		238.68040184349843	
35.0	211.4035100482006	pulse	1.0	t		28.0	male	east_asian	1.5563072025467568	smiling	005	sub-06	2.0	3.0	005_smiling	0.0		239.38835111469598	
35.0	212.0956100399901	pulse	1.0	t		28.0	male	east_asian	1.5563072025467568	smiling	005	sub-06	2.0	3.0	005_smiling	0.0		240.0804511064855	
36.0	212.27006108368914	face	0.0		146	30.0	female	black	2.7345801830481498	neutral	062	sub-06	2.0	3.0	062_neutral	0.0		240.25490215018453	1.2333061259973874
36.0	212.79541341064078	pulse	0.0	t		30.0	female	black	2.7345801830481498	neutral	062	sub-06	2.0	3.0	062_neutral	0.0		240.78025447713617	
36.0	213.50336720968653	fix	1.0		444	30.0	female	black	2.7345801830481498	neutral	062	sub-06	2.0	3.0	062_neutral	0.0		241.48820827618192	3.7666280692772034
36.0	213.4954081583371	pulse	1.0	t		30.0	female	black	2.7345801830481498	neutral	062	sub-06	2.0	3.0	062_neutral	0.0		241.4802492248325	
36.0	214.19557526611675	pulse	1.0	t		30.0	female	black	2.7345801830481498	neutral	062	sub-06	2.0	3.0	062_neutral	0.0		242.18041633261214	
36.0	214.89536958107146	pulse	1.0	t		30.0	female	black	2.7345801830481498	neutral	062	sub-06	2.0	3.0	062_neutral	0.0		242.88021064756686	
36.0	215.595534877712	pulse	1.0	t		30.0	female	black	2.7345801830481498	neutral	062	sub-06	2.0	3.0	062_neutral	0.0		243.5803759442074	
36.0	216.29540344937504	pulse	1.0	t		30.0	female	black	2.7345801830481498	neutral	062	sub-06	2.0	3.0	062_neutral	0.0		244.28024451587044	
36.0	216.99533782576373	pulse	1.0	t		30.0	female	black	2.7345801830481498	neutral	062	sub-06	2.0	3.0	062_neutral	0.0		244.98017889225912	
37.0	217.26999527896373	face	0.0		145	20.0	male	black	2.609629924393156	smiling	043	sub-06	2.0	3.0	043_smiling	0.0		245.25483634545913	1.2332964665881718
37.0	217.6953398180167	pulse	0.0	t		20.0	male	black	2.609629924393156	smiling	043	sub-06	2.0	3.0	043_smiling	0.0		245.68018088451208	
37.0	218.39535931794921	pulse	0.0	t		20.0	male	black	2.609629924393156	smiling	043	sub-06	2.0	3.0	043_smiling	0.0		246.3802003844446	
37.0	218.5032917455519	fix	1.0		444	20.0	male	black	2.609629924393156	smiling	043	sub-06	2.0	3.0	043_smiling	0.0		246.4881328120473	3.7582941121070235
37.0	219.0953066741688	pulse	1.0	t		20.0	male	black	2.609629924393156	smiling	043	sub-06	2.0	3.0	043_smiling	0.0		247.0801477406642	
37.0	219.7952996107258	pulse	1.0	t		20.0	male	black	2.609629924393156	smiling	043	sub-06	2.0	3.0	043_smiling	0.0		247.7801406772212	
37.0	220.49526205977259	pulse	1.0	t		20.0	male	black	2.609629924393156	smiling	043	sub-06	2.0	3.0	043_smiling	0.0		248.48010312626798	
37.0	221.19531355649792	pulse	1.0	t		20.0	male	black	2.609629924393156	smiling	043	sub-06	2.0	3.0	043_smiling	0.0		249.1801546229933	
37.0	221.89524461246447	pulse	1.0	t		20.0	male	black	2.609629924393156	smiling	043	sub-06	2.0	3.0	043_smiling	0.0		249.88008567895986	
38.0	222.26158585765893	face	0.0		146	19.0	male	white	3.2522881018702745	neutral	018	sub-06	2.0	3.0	018_neutral	0.0		250.24642692415432	1.2416440073025115
38.0	222.5952411712999	pulse	0.0	t		19.0	male	white	3.2522881018702745	neutral	018	sub-06	2.0	3.0	018_neutral	0.0		250.5800822377953	
38.0	223.29522927815242	pulse	0.0	t		19.0	male	white	3.2522881018702745	neutral	018	sub-06	2.0	3.0	018_neutral	0.0		251.2800703446478	
38.0	223.50322986496144	fix	1.0		444	19.0	male	white	3.2522881018702745	neutral	018	sub-06	2.0	3.0	018_neutral	0.0		251.48807093145683	3.766610259741583
38.0	223.9952122534437	pulse	1.0	t		19.0	male	white	3.2522881018702745	neutral	018	sub-06	2.0	3.0	018_neutral	0.0		251.9800533199391	
38.0	224.6951988510134	pulse	1.0	t		19.0	male	white	3.2522881018702745	neutral	018	sub-06	2.0	3.0	018_neutral	0.0		252.6800399175088	
38.0	225.39517850588254	pulse	1.0	t		19.0	male	white	3.2522881018702745	neutral	018	sub-06	2.0	3.0	018_neutral	0.0		253.38001957237793	
38.0	226.09524781214395	pulse	1.0	t		19.0	male	white	3.2522881018702745	neutral	018	sub-06	2.0	3.0	018_neutral	0.0		254.08008887863934	
38.0	226.79522354287815	pulse	1.0	t		19.0	male	white	3.2522881018702745	neutral	018	sub-06	2.0	3.0	018_neutral	0.0		254.78006460937354	
39.0	227.26984012470302	face	0.0		145	22.0	male	black	2.767608436132113	smiling	044	sub-06	2.0	3.0	044_smiling	0.0		255.25468119119842	1.2333278596681794
39.0	227.49511716863412	pulse	0.0	t		22.0	male	black	2.767608436132113	smiling	044	sub-06	2.0	3.0	044_smiling	0.0		255.47995823512952	
39.0	228.19509833278607	pulse	0.0	t		22.0	male	black	2.767608436132113	smiling	044	sub-06	2.0	3.0	044_smiling	0.0		256.17993939928147	
39.0	228.5031679843712	fix	1.0		444	22.0	male	black	2.767608436132113	smiling	044	sub-06	2.0	3.0	044_smiling	0.0		256.4880090508666	3.7499456658229064
39.0	228.89539433330765	pulse	1.0	t		22.0	male	black	2.767608436132113	smiling	044	sub-06	2.0	3.0	044_smiling	0.0		256.88023539980304	
39.0	229.5951219379674	pulse	1.0	t		22.0	male	black	2.767608436132113	smiling	044	sub-06	2.0	3.0	044_smiling	0.0		257.5799630044628	
39.0	230.29511276152857	pulse	1.0	t		22.0	male	black	2.767608436132113	smiling	044	sub-06	2.0	3.0	044_smiling	0.0		258.27995382802396	
39.0	230.99509573681985	pulse	1.0	t		22.0	male	black	2.767608436132113	smiling	044	sub-06	2.0	3.0	044_smiling	0.0		258.97993680331524	
39.0	231.69508988080293	pulse	1.0	t		22.0	male	black	2.767608436132113	smiling	044	sub-06	2.0	3.0	044_smiling	0.0		259.6799309472983	
40.0	232.2531136501941	fix	0.0		720													260.2379547166895	5.999907028186271
40.0	232.39508040250757	pulse	0.0	t														260.37992146900297	
40.0	233.09507243349503	pulse	0.0	t														261.0799134999904	
40.0	233.7950738220352	pulse	0.0	t														261.7799148885306	
40.0	234.49492337673632	pulse	0.0	t														262.4797644432317	
40.0	235.19504007447404	pulse	0.0	t														263.1798811409694	
40.0	235.89506259297195	pulse	0.0	t														263.87990365946735	
40.0	236.59500421391726	pulse	0.0	t														264.57984528041266	
40.0	237.29499654676124	pulse	0.0	t														265.27983761325663	
40.0	237.99499129445758	pulse	0.0	t														265.97983236095297	
