trial_nr	onset	event_type	phase	response	nr_frames	face_age	face_sex	face_eth	attractiveness	expression	face_id	sub_id	ses	run	trial_type	catch	rating_type	onset_abs	duration
-1.0	0.05659247399762535	fix	0.0		714													27.644810633467387	5.966279297562323
-1.0	0.7064335026434492	pulse	0.0	t														28.29465166211321	
-1.0	1.4064266505602063	pulse	0.0	t														28.994644810029968	
-1.0	2.106407422466873	pulse	0.0	t														29.694625581936634	
-1.0	2.8063881943735396	pulse	0.0	t														30.3946063538433	
-1.0	3.5063807385822656	pulse	0.0	t														31.094598898052027	
-1.0	4.206351247456951	pulse	0.0	t														31.794569406926712	
-1.0	4.906343187957646	pulse	0.0	t														32.49456134742741	
-1.0	5.6063203376179445	pulse	0.0	t														33.194538497087706	
0.0	6.022871771559949	face	0.0		144	21.0	male	east_asian/white	3.501790688420215	neutral	036	sub-02	2.0	4.0	036_neutral	1.0	trustworthiness	33.61108993102971	1.233289292849804
0.0	6.306304429917873	pulse	0.0	t		21.0	male	east_asian/white	3.501790688420215	neutral	036	sub-02	2.0	4.0	036_neutral	1.0	trustworthiness	33.894522589387634	
0.0	7.006287012947723	pulse	0.0	t		21.0	male	east_asian/white	3.501790688420215	neutral	036	sub-02	2.0	4.0	036_neutral	1.0	trustworthiness	34.594505172417485	
0.0	7.256161064409753	fix	1.0		177	21.0	male	east_asian/white	3.501790688420215	neutral	036	sub-02	2.0	4.0	036_neutral	1.0	trustworthiness	34.844379223879514	1.5083340351438892
0.0	7.706274123785988	pulse	1.0	t		21.0	male	east_asian/white	3.501790688420215	neutral	036	sub-02	2.0	4.0	036_neutral	1.0	trustworthiness	35.29449228325575	
0.0	8.406248858615072	pulse	1.0	t		21.0	male	east_asian/white	3.501790688420215	neutral	036	sub-02	2.0	4.0	036_neutral	1.0	trustworthiness	35.99446701808483	
0.0	8.764495099553642	rating	2.0		293	21.0	male	east_asian/white	3.501790688420215	neutral	036	sub-02	2.0	4.0	036_neutral	1.0	trustworthiness	36.3527132590234	2.4915926143594334
0.0	9.1010618918217	pulse	2.0	t		21.0	male	east_asian/white	3.501790688420215	neutral	036	sub-02	2.0	4.0	036_neutral	1.0	trustworthiness	36.68928005129146	
0.0	9.801030891426308	pulse	2.0	t		21.0	male	east_asian/white	3.501790688420215	neutral	036	sub-02	2.0	4.0	036_neutral	1.0	trustworthiness	37.38924905089607	
0.0	10.501020718949803	pulse	2.0	t		21.0	male	east_asian/white	3.501790688420215	neutral	036	sub-02	2.0	4.0	036_neutral	1.0	trustworthiness	38.089238878419565	
0.0	10.531178639852442	response	2.0	g		21.0	male	east_asian/white	3.501790688420215	neutral	036	sub-02	2.0	4.0	036_neutral	1.0	trustworthiness	38.1193967993222	
0.0	11.206195188992751	pulse	2.0	t		21.0	male	east_asian/white	3.501790688420215	neutral	036	sub-02	2.0	4.0	036_neutral	1.0	trustworthiness	38.79441334846251	
0.0	11.256087713913075	fix	3.0		444	21.0	male	east_asian/white	3.501790688420215	neutral	036	sub-02	2.0	4.0	036_neutral	1.0	trustworthiness	38.84430587338284	3.758232234917159
0.0	11.906186525785415	pulse	3.0	t		21.0	male	east_asian/white	3.501790688420215	neutral	036	sub-02	2.0	4.0	036_neutral	1.0	trustworthiness	39.494404685255176	
0.0	12.606163071737683	pulse	3.0	t		21.0	male	east_asian/white	3.501790688420215	neutral	036	sub-02	2.0	4.0	036_neutral	1.0	trustworthiness	40.194381231207444	
0.0	13.306144145498365	pulse	3.0	t		21.0	male	east_asian/white	3.501790688420215	neutral	036	sub-02	2.0	4.0	036_neutral	1.0	trustworthiness	40.894362304968126	
0.0	14.006129747068371	pulse	3.0	t		21.0	male	east_asian/white	3.501790688420215	neutral	036	sub-02	2.0	4.0	036_neutral	1.0	trustworthiness	41.59434790653813	
0.0	14.706119574591867	pulse	3.0	t		21.0	male	east_asian/white	3.501790688420215	neutral	036	sub-02	2.0	4.0	036_neutral	1.0	trustworthiness	42.29433773406163	
1.0	15.014319948830234	face	0.0		146	20.0	male	black	2.609629924393156	neutral	043	sub-02	2.0	4.0	043_neutral	0.0		42.602538108299996	1.241642495715496
1.0	15.40610336503778	pulse	0.0	t		20.0	male	black	2.609629924393156	neutral	043	sub-02	2.0	4.0	043_neutral	0.0		42.99432152450754	
1.0	16.10606934610314	pulse	0.0	t		20.0	male	black	2.609629924393156	neutral	043	sub-02	2.0	4.0	043_neutral	0.0		43.6942875055729	
1.0	16.25596244454573	fix	1.0		445	20.0	male	black	2.609629924393156	neutral	043	sub-02	2.0	4.0	043_neutral	0.0		43.84418060401549	3.7582415923880035
1.0	16.806060079188683	pulse	1.0	t		20.0	male	black	2.609629924393156	neutral	043	sub-02	2.0	4.0	043_neutral	0.0		44.394278238658444	
1.0	17.50603330474769	pulse	1.0	t		20.0	male	black	2.609629924393156	neutral	043	sub-02	2.0	4.0	043_neutral	0.0		45.09425146421745	
1.0	18.206017397047617	pulse	1.0	t		20.0	male	black	2.609629924393156	neutral	043	sub-02	2.0	4.0	043_neutral	0.0		45.79423555651738	
1.0	18.906029863614094	pulse	1.0	t		20.0	male	black	2.609629924393156	neutral	043	sub-02	2.0	4.0	043_neutral	0.0		46.494248023083856	
1.0	19.60600248546507	pulse	1.0	t		20.0	male	black	2.609629924393156	neutral	043	sub-02	2.0	4.0	043_neutral	0.0		47.19422064493483	
2.0	20.014204036933734	face	0.0		146	23.0	male	white	2.6275368085953046	smiling	141	sub-02	2.0	4.0	141_smiling	0.0		47.602422196403495	1.241653362456418
2.0	20.305987483327044	pulse	0.0	t		23.0	male	white	2.6275368085953046	smiling	141	sub-02	2.0	4.0	141_smiling	0.0		47.894205642796805	
2.0	21.005974292311294	pulse	0.0	t		23.0	male	white	2.6275368085953046	smiling	141	sub-02	2.0	4.0	141_smiling	0.0		48.594192451781055	
2.0	21.255857399390152	fix	1.0		444	23.0	male	white	2.6275368085953046	smiling	141	sub-02	2.0	4.0	141_smiling	0.0		48.84407555885991	3.758213821829486
2.0	21.70595778090319	pulse	1.0	t		23.0	male	white	2.6275368085953046	smiling	141	sub-02	2.0	4.0	141_smiling	0.0		49.29417594037295	
2.0	22.40593553427152	pulse	1.0	t		23.0	male	white	2.6275368085953046	smiling	141	sub-02	2.0	4.0	141_smiling	0.0		49.99415369374128	
2.0	23.105915702470156	pulse	1.0	t		23.0	male	white	2.6275368085953046	smiling	141	sub-02	2.0	4.0	141_smiling	0.0		50.69413386193992	
2.0	23.805898587354022	pulse	1.0	t		23.0	male	white	2.6275368085953046	smiling	141	sub-02	2.0	4.0	141_smiling	0.0		51.394116746823784	
2.0	24.505874227745153	pulse	1.0	t		23.0	male	white	2.6275368085953046	smiling	141	sub-02	2.0	4.0	141_smiling	0.0		52.094092387214914	
3.0	25.014071221219638	face	0.0		146	19.0	male	white	2.243931555909272	neutral	130	sub-02	2.0	4.0	130_neutral	0.0		52.6022893806894	1.2416711718360602
3.0	25.205860734875387	pulse	0.0	t		19.0	male	white	2.243931555909272	neutral	130	sub-02	2.0	4.0	130_neutral	0.0		52.79407889434515	
3.0	25.905840601220916	pulse	0.0	t		19.0	male	white	2.243931555909272	neutral	130	sub-02	2.0	4.0	130_neutral	0.0		53.49405876069068	
3.0	26.255742393055698	fix	1.0		444	19.0	male	white	2.243931555909272	neutral	130	sub-02	2.0	4.0	130_neutral	0.0		53.84396055252546	3.758229216377913
3.0	26.60584008806927	pulse	1.0	t		19.0	male	white	2.243931555909272	neutral	130	sub-02	2.0	4.0	130_neutral	0.0		54.19405824753903	
3.0	27.305820558121923	pulse	1.0	t		19.0	male	white	2.243931555909272	neutral	130	sub-02	2.0	4.0	130_neutral	0.0		54.894038717591684	
3.0	28.00581159306148	pulse	1.0	t		19.0	male	white	2.243931555909272	neutral	130	sub-02	2.0	4.0	130_neutral	0.0		55.59402975253124	
3.0	28.705778479688888	pulse	1.0	t		19.0	male	white	2.243931555909272	neutral	130	sub-02	2.0	4.0	130_neutral	0.0		56.29399663915865	
3.0	29.405768910920415	pulse	1.0	t		19.0	male	white	2.243931555909272	neutral	130	sub-02	2.0	4.0	130_neutral	0.0		56.993987070390176	
4.0	30.01397160943361	face	0.0		146	26.0	female	white	4.854755272582572	neutral	027	sub-02	2.0	4.0	027_neutral	0.0		57.60218976890337	1.2416473253788354
4.0	30.105743042041468	pulse	0.0	t		26.0	female	white	4.854755272582572	neutral	027	sub-02	2.0	4.0	027_neutral	0.0		57.69396120151123	
4.0	30.805734982543072	pulse	0.0	t		26.0	female	white	4.854755272582572	neutral	027	sub-02	2.0	4.0	027_neutral	0.0		58.39395314201283	
4.0	31.255618934812446	fix	1.0		444	26.0	female	white	4.854755272582572	neutral	027	sub-02	2.0	4.0	027_neutral	0.0		58.84383709428221	3.76656340244881
4.0	31.505729036020966	pulse	1.0	t		26.0	female	white	4.854755272582572	neutral	027	sub-02	2.0	4.0	027_neutral	0.0		59.09394719549073	
4.0	32.205696526356405	pulse	1.0	t		26.0	female	white	4.854755272582572	neutral	027	sub-02	2.0	4.0	027_neutral	0.0		59.79391468582617	
4.0	32.90568695758793	pulse	1.0	t		26.0	female	white	4.854755272582572	neutral	027	sub-02	2.0	4.0	027_neutral	0.0		60.49390511705769	
4.0	33.605642373767296	pulse	1.0	t		26.0	female	white	4.854755272582572	neutral	027	sub-02	2.0	4.0	027_neutral	0.0		61.19386053323706	
4.0	34.30565634960294	pulse	1.0	t		26.0	female	white	4.854755272582572	neutral	027	sub-02	2.0	4.0	027_neutral	0.0		61.8938745090727	
5.0	35.022182337261256	face	0.0		146	24.0	female	east_asian	2.9076800636689217	neutral	034	sub-02	2.0	4.0	034_neutral	0.0		62.61040049673102	1.2333010651518634
5.0	35.00841478106122	pulse	0.0	t		24.0	female	east_asian	2.9076800636689217	neutral	034	sub-02	2.0	4.0	034_neutral	0.0		62.59663294053098	
5.0	35.70561396931589	pulse	0.0	t		24.0	female	east_asian	2.9076800636689217	neutral	034	sub-02	2.0	4.0	034_neutral	0.0		63.29383212878565	
5.0	36.25548340241312	fix	1.0		443	24.0	female	east_asian	2.9076800636689217	neutral	034	sub-02	2.0	4.0	034_neutral	0.0		63.84370156188288	3.7583523727680586
5.0	36.40560892835583	pulse	1.0	t		24.0	female	east_asian	2.9076800636689217	neutral	034	sub-02	2.0	4.0	034_neutral	0.0		63.99382708782559	
5.0	37.1055812483537	pulse	1.0	t		24.0	female	east_asian	2.9076800636689217	neutral	034	sub-02	2.0	4.0	034_neutral	0.0		64.69379940782346	
5.0	37.805558699867106	pulse	1.0	t		24.0	female	east_asian	2.9076800636689217	neutral	034	sub-02	2.0	4.0	034_neutral	0.0		65.39377685933687	
5.0	38.50556241266986	pulse	1.0	t		24.0	female	east_asian	2.9076800636689217	neutral	034	sub-02	2.0	4.0	034_neutral	0.0		66.09378057213962	
5.0	39.2055277900281	pulse	1.0	t		24.0	female	east_asian	2.9076800636689217	neutral	034	sub-02	2.0	4.0	034_neutral	0.0		66.79374594949786	
5.0	39.9055281824385	pulse	1.0	t		24.0	female	east_asian	2.9076800636689217	neutral	034	sub-02	2.0	4.0	034_neutral	0.0		67.49374634190826	
6.0	40.01383577518118	face	0.0		147	20.0	female	white	3.9502586549940313	neutral	091	sub-02	2.0	4.0	091_neutral	0.0		67.60205393465094	1.2415356394367336
6.0	40.6055137840076	pulse	0.0	t		20.0	female	white	3.9502586549940313	neutral	091	sub-02	2.0	4.0	091_neutral	0.0		68.19373194347736	
6.0	41.25537141461791	fix	1.0		444	20.0	female	white	3.9502586549940313	neutral	091	sub-02	2.0	4.0	091_neutral	0.0		68.84358957408767	3.7665516301467505
6.0	41.30547825580379	pulse	1.0	t		20.0	female	white	3.9502586549940313	neutral	091	sub-02	2.0	4.0	091_neutral	0.0		68.89369641527355	
6.0	42.005468988889334	pulse	1.0	t		20.0	female	white	3.9502586549940313	neutral	091	sub-02	2.0	4.0	091_neutral	0.0		69.5936871483591	
6.0	42.70544402557243	pulse	1.0	t		20.0	female	white	3.9502586549940313	neutral	091	sub-02	2.0	4.0	091_neutral	0.0		70.2936621850422	
6.0	43.40544049388154	pulse	1.0	t		20.0	female	white	3.9502586549940313	neutral	091	sub-02	2.0	4.0	091_neutral	0.0		70.9936586533513	
6.0	44.10543032140504	pulse	1.0	t		20.0	female	white	3.9502586549940313	neutral	091	sub-02	2.0	4.0	091_neutral	0.0		71.6936484808748	
6.0	44.80539841544851	pulse	1.0	t		20.0	female	white	3.9502586549940313	neutral	091	sub-02	2.0	4.0	091_neutral	0.0		72.39361657491827	
7.0	45.02192304476466	face	0.0		145	31.0	female	west_asian	2.364902506963788	smiling	006	sub-02	2.0	4.0	006_smiling	1.0	dominance	72.61014120423442	1.233347852505176
7.0	45.50541269313817	pulse	0.0	t		31.0	female	west_asian	2.364902506963788	smiling	006	sub-02	2.0	4.0	006_smiling	1.0	dominance	73.09363085260793	
7.0	46.20537746678838	pulse	0.0	t		31.0	female	west_asian	2.364902506963788	smiling	006	sub-02	2.0	4.0	006_smiling	1.0	dominance	73.79359562625814	
7.0	46.25527089726984	fix	1.0		177	31.0	female	west_asian	2.364902506963788	smiling	006	sub-02	2.0	4.0	006_smiling	1.0	dominance	73.8434890567396	1.4999699655372751
7.0	46.905365785042704	pulse	1.0	t		31.0	female	west_asian	2.364902506963788	smiling	006	sub-02	2.0	4.0	006_smiling	1.0	dominance	74.49358394451247	
7.0	47.60534504767929	pulse	1.0	t		31.0	female	west_asian	2.364902506963788	smiling	006	sub-02	2.0	4.0	006_smiling	1.0	dominance	75.19356320714905	
7.0	47.75524086280711	rating	2.0		295	31.0	female	west_asian	2.364902506963788	smiling	006	sub-02	2.0	4.0	006_smiling	1.0	dominance	75.34345902227687	2.4999458172260347
7.0	48.30005303573034	pulse	2.0	t		31.0	female	west_asian	2.364902506963788	smiling	006	sub-02	2.0	4.0	006_smiling	1.0	dominance	75.8882711952001	
7.0	49.000139154646604	pulse	2.0	t		31.0	female	west_asian	2.364902506963788	smiling	006	sub-02	2.0	4.0	006_smiling	1.0	dominance	76.58835731411637	
7.0	49.14697990649165	response	2.0	n		31.0	female	west_asian	2.364902506963788	smiling	006	sub-02	2.0	4.0	006_smiling	1.0	dominance	76.73519806596141	
7.0	49.70528706154619	pulse	2.0	t		31.0	female	west_asian	2.364902506963788	smiling	006	sub-02	2.0	4.0	006_smiling	1.0	dominance	77.29350522101595	
7.0	50.25518668003315	fix	3.0		443	31.0	female	west_asian	2.364902506963788	smiling	006	sub-02	2.0	4.0	006_smiling	1.0	dominance	77.84340483950291	3.7665552523940278
7.0	50.40529650957342	pulse	3.0	t		31.0	female	west_asian	2.364902506963788	smiling	006	sub-02	2.0	4.0	006_smiling	1.0	dominance	77.99351466904318	
7.0	51.10525192575278	pulse	3.0	t		31.0	female	west_asian	2.364902506963788	smiling	006	sub-02	2.0	4.0	006_smiling	1.0	dominance	78.69347008522254	
7.0	51.80525141260114	pulse	3.0	t		31.0	female	west_asian	2.364902506963788	smiling	006	sub-02	2.0	4.0	006_smiling	1.0	dominance	79.3934695720709	
7.0	52.505215582543315	pulse	3.0	t		31.0	female	west_asian	2.364902506963788	smiling	006	sub-02	2.0	4.0	006_smiling	1.0	dominance	80.09343374201308	
7.0	53.20519937298923	pulse	3.0	t		31.0	female	west_asian	2.364902506963788	smiling	006	sub-02	2.0	4.0	006_smiling	1.0	dominance	80.79341753245899	
7.0	53.90520308579198	pulse	3.0	t		31.0	female	west_asian	2.364902506963788	smiling	006	sub-02	2.0	4.0	006_smiling	1.0	dominance	81.49342124526174	
8.0	54.021741932427176	face	0.0		146	24.0	female	east_asian	2.9076800636689217	smiling	034	sub-02	2.0	4.0	034_smiling	0.0		81.60996009189694	1.2333203838006739
8.0	54.605190196631156	pulse	0.0	t		24.0	female	east_asian	2.9076800636689217	smiling	034	sub-02	2.0	4.0	034_smiling	0.0		82.19340835610092	
8.0	55.25506231622785	fix	1.0		444	24.0	female	east_asian	2.9076800636689217	smiling	034	sub-02	2.0	4.0	034_smiling	0.0		82.84328047569761	3.766546498630305
8.0	55.305165233314256	pulse	1.0	t		24.0	female	east_asian	2.9076800636689217	smiling	034	sub-02	2.0	4.0	034_smiling	0.0		82.89338339278402	
8.0	56.005142382973645	pulse	1.0	t		24.0	female	east_asian	2.9076800636689217	smiling	034	sub-02	2.0	4.0	034_smiling	0.0		83.5933605424434	
8.0	56.705122249319174	pulse	1.0	t		24.0	female	east_asian	2.9076800636689217	smiling	034	sub-02	2.0	4.0	034_smiling	0.0		84.29334040878894	
8.0	57.40511539723593	pulse	1.0	t		24.0	female	east_asian	2.9076800636689217	smiling	034	sub-02	2.0	4.0	034_smiling	0.0		84.9933335567057	
8.0	58.10509465987252	pulse	1.0	t		24.0	female	east_asian	2.9076800636689217	smiling	034	sub-02	2.0	4.0	034_smiling	0.0		85.69331281934228	
8.0	58.80508418554291	pulse	1.0	t		24.0	female	east_asian	2.9076800636689217	smiling	034	sub-02	2.0	4.0	034_smiling	0.0		86.39330234501267	
9.0	59.021608814858155	face	0.0		145	24.0	female	east_asian	4.409868682849185	smiling	030	sub-02	2.0	4.0	030_smiling	0.0		86.60982697432792	1.233335476495995
9.0	59.505054694416685	pulse	0.0	t		24.0	female	east_asian	4.409868682849185	smiling	030	sub-02	2.0	4.0	030_smiling	0.0		87.09327285388645	
9.0	60.205056596096256	pulse	0.0	t		24.0	female	east_asian	4.409868682849185	smiling	030	sub-02	2.0	4.0	030_smiling	0.0		87.79327475556602	
9.0	60.25494429135415	fix	1.0		445	24.0	female	east_asian	4.409868682849185	smiling	030	sub-02	2.0	4.0	030_smiling	0.0		87.84316245082391	3.766548007900383
9.0	60.90503948098103	pulse	1.0	t		24.0	female	east_asian	4.409868682849185	smiling	030	sub-02	2.0	4.0	030_smiling	0.0		88.49325764045079	
9.0	61.60500002867684	pulse	1.0	t		24.0	female	east_asian	4.409868682849185	smiling	030	sub-02	2.0	4.0	030_smiling	0.0		89.1932181881466	
9.0	62.30500887299604	pulse	1.0	t		24.0	female	east_asian	4.409868682849185	smiling	030	sub-02	2.0	4.0	030_smiling	0.0		89.8932270324658	
9.0	63.004985720801415	pulse	1.0	t		24.0	female	east_asian	4.409868682849185	smiling	030	sub-02	2.0	4.0	030_smiling	0.0		90.59320388027118	
9.0	63.70497071866339	pulse	1.0	t		24.0	female	east_asian	4.409868682849185	smiling	030	sub-02	2.0	4.0	030_smiling	0.0		91.29318887813315	
10.0	64.02149229925453	face	0.0		145	34.0	male	white	2.651014723438122	smiling	121	sub-02	2.0	4.0	121_smiling	0.0		91.6097104587243	1.2333342690808422
10.0	64.4049587350637	pulse	0.0	t		34.0	male	white	2.651014723438122	smiling	121	sub-02	2.0	4.0	121_smiling	0.0		91.99317689453346	
10.0	65.10493437545392	pulse	0.0	t		34.0	male	white	2.651014723438122	smiling	121	sub-02	2.0	4.0	121_smiling	0.0		92.69315253492368	
10.0	65.25482656833537	fix	1.0		445	34.0	male	white	2.651014723438122	smiling	121	sub-02	2.0	4.0	121_smiling	0.0		92.84304472780514	3.766549517169551
10.0	65.804919675169	pulse	1.0	t		34.0	male	white	2.651014723438122	smiling	121	sub-02	2.0	4.0	121_smiling	0.0		93.39313783463876	
10.0	66.50489380629006	pulse	1.0	t		34.0	male	white	2.651014723438122	smiling	121	sub-02	2.0	4.0	121_smiling	0.0		94.09311196575982	
10.0	67.20490295246327	pulse	1.0	t		34.0	male	white	2.651014723438122	smiling	121	sub-02	2.0	4.0	121_smiling	0.0		94.79312111193303	
10.0	67.90484086111701	pulse	1.0	t		34.0	male	white	2.651014723438122	smiling	121	sub-02	2.0	4.0	121_smiling	0.0		95.49305902058677	
10.0	68.60485151655939	pulse	1.0	t		34.0	male	white	2.651014723438122	smiling	121	sub-02	2.0	4.0	121_smiling	0.0		96.19306967602915	
11.0	69.02137608550493	face	0.0		145	27.0	female	white	4.181058495821727	smiling	039	sub-02	2.0	4.0	039_smiling	0.0		96.60959424497469	1.2333267227331817
11.0	69.30483470329727	pulse	0.0	t		27.0	female	white	4.181058495821727	smiling	039	sub-02	2.0	4.0	039_smiling	0.0		96.89305286276704	
11.0	70.00481094739644	pulse	0.0	t		27.0	female	white	4.181058495821727	smiling	039	sub-02	2.0	4.0	039_smiling	0.0		97.5930291068662	
11.0	70.25470280823811	fix	1.0		444	27.0	female	white	4.181058495821727	smiling	039	sub-02	2.0	4.0	039_smiling	0.0		97.84292096770787	3.758368672877623
11.0	70.7047959452575	pulse	1.0	t		27.0	female	white	4.181058495821727	smiling	039	sub-02	2.0	4.0	039_smiling	0.0		98.29301410472726	
11.0	71.40478969688138	pulse	1.0	t		27.0	female	white	4.181058495821727	smiling	039	sub-02	2.0	4.0	039_smiling	0.0		98.99300785635114	
11.0	72.1047650354185	pulse	1.0	t		27.0	female	white	4.181058495821727	smiling	039	sub-02	2.0	4.0	039_smiling	0.0		99.69298319488826	
11.0	72.80475697591919	pulse	1.0	t		27.0	female	white	4.181058495821727	smiling	039	sub-02	2.0	4.0	039_smiling	0.0		100.39297513538895	
11.0	73.50476853692362	pulse	1.0	t		27.0	female	white	4.181058495821727	smiling	039	sub-02	2.0	4.0	039_smiling	0.0		101.09298669639338	
12.0	74.01307148111573	face	0.0		146	47.0	male	east_asian	2.171110226820533	smiling	024	sub-02	2.0	4.0	024_smiling	0.0		101.60128964058549	1.2415220560114903
12.0	74.20471489748616	pulse	0.0	t		47.0	male	east_asian	2.171110226820533	smiling	024	sub-02	2.0	4.0	024_smiling	0.0		101.79293305695592	
12.0	74.9047056305717	pulse	0.0	t		47.0	male	east_asian	2.171110226820533	smiling	024	sub-02	2.0	4.0	024_smiling	0.0		102.49292379004146	
12.0	75.25459353712722	fix	1.0		444	47.0	male	east_asian	2.171110226820533	smiling	024	sub-02	2.0	4.0	024_smiling	0.0		102.84281169659698	3.758292303842609
12.0	75.60469062843276	pulse	1.0	t		47.0	male	east_asian	2.171110226820533	smiling	024	sub-02	2.0	4.0	024_smiling	0.0		103.19290878790252	
12.0	76.30467321146352	pulse	1.0	t		47.0	male	east_asian	2.171110226820533	smiling	024	sub-02	2.0	4.0	024_smiling	0.0		103.89289137093328	
12.0	77.00464945556178	pulse	1.0	t		47.0	male	east_asian	2.171110226820533	smiling	024	sub-02	2.0	4.0	024_smiling	0.0		104.59286761503154	
12.0	77.70462419039086	pulse	1.0	t		47.0	male	east_asian	2.171110226820533	smiling	024	sub-02	2.0	4.0	024_smiling	0.0		105.29284234986062	
12.0	78.40461462162239	pulse	1.0	t		47.0	male	east_asian	2.171110226820533	smiling	024	sub-02	2.0	4.0	024_smiling	0.0		105.99283278109215	
13.0	79.01288584096983	face	0.0		146	31.0	female	white	2.1822522881018704	smiling	102	sub-02	2.0	4.0	102_smiling	0.0		106.60110400043959	1.2415703526348807
13.0	79.10459750650625	pulse	0.0	t		31.0	female	white	2.1822522881018704	smiling	102	sub-02	2.0	4.0	102_smiling	0.0		106.69281566597601	
13.0	79.80457556172769	pulse	0.0	t		31.0	female	white	2.1822522881018704	smiling	102	sub-02	2.0	4.0	102_smiling	0.0		107.39279372119745	
13.0	80.25445619360471	fix	1.0		444	31.0	female	white	2.1822522881018704	smiling	102	sub-02	2.0	4.0	102_smiling	0.0		107.84267435307447	3.7665809099744365
13.0	80.50456689852126	pulse	1.0	t		31.0	female	white	2.1822522881018704	smiling	102	sub-02	2.0	4.0	102_smiling	0.0		108.09278505799102	
13.0	81.20454646301187	pulse	1.0	t		31.0	female	white	2.1822522881018704	smiling	102	sub-02	2.0	4.0	102_smiling	0.0		108.79276462248163	
13.0	81.90454715727628	pulse	1.0	t		31.0	female	white	2.1822522881018704	smiling	102	sub-02	2.0	4.0	102_smiling	0.0		109.49276531674604	
13.0	82.60451525131975	pulse	1.0	t		31.0	female	white	2.1822522881018704	smiling	102	sub-02	2.0	4.0	102_smiling	0.0		110.19273341078951	
13.0	83.30450960665166	pulse	1.0	t		31.0	female	white	2.1822522881018704	smiling	102	sub-02	2.0	4.0	102_smiling	0.0		110.89272776612142	
14.0	84.02103710357915	face	0.0		146	21.0	male	east_asian/white	3.501790688420215	smiling	036	sub-02	2.0	4.0	036_smiling	0.0		111.60925526304891	1.233308611499524
14.0	84.00723815457422	pulse	0.0	t		21.0	male	east_asian/white	3.501790688420215	smiling	036	sub-02	2.0	4.0	036_smiling	0.0		111.59545631404399	
14.0	84.70446571709545	pulse	0.0	t		21.0	male	east_asian/white	3.501790688420215	smiling	036	sub-02	2.0	4.0	036_smiling	0.0		112.2926838765652	
14.0	85.25434571507867	fix	1.0		443	21.0	male	east_asian/white	3.501790688420215	smiling	036	sub-02	2.0	4.0	036_smiling	0.0		112.84256387454843	3.766564006156841
14.0	85.40449086152421	pulse	1.0	t		21.0	male	east_asian/white	3.501790688420215	smiling	036	sub-02	2.0	4.0	036_smiling	0.0		112.99270902099397	
14.0	86.1044468814116	pulse	1.0	t		21.0	male	east_asian/white	3.501790688420215	smiling	036	sub-02	2.0	4.0	036_smiling	0.0		113.69266504088137	
14.0	86.80443399225078	pulse	1.0	t		21.0	male	east_asian/white	3.501790688420215	smiling	036	sub-02	2.0	4.0	036_smiling	0.0		114.39265215172054	
14.0	87.50440238814735	pulse	1.0	t		21.0	male	east_asian/white	3.501790688420215	smiling	036	sub-02	2.0	4.0	036_smiling	0.0		115.09262054761712	
14.0	88.20438376376205	pulse	1.0	t		21.0	male	east_asian/white	3.501790688420215	smiling	036	sub-02	2.0	4.0	036_smiling	0.0		115.79260192323181	
14.0	88.90438445802647	pulse	1.0	t		21.0	male	east_asian/white	3.501790688420215	smiling	036	sub-02	2.0	4.0	036_smiling	0.0		116.49260261749623	
15.0	89.02090972123551	face	0.0		146	24.0	female	black	3.0955033824114606	smiling	099	sub-02	2.0	4.0	099_smiling	0.0		116.60912788070527	1.233335476495995
15.0	89.60436945588754	pulse	0.0	t		24.0	female	black	3.0955033824114606	smiling	099	sub-02	2.0	4.0	099_smiling	0.0		117.1925876153573	
15.0	90.2542451977315	fix	1.0		443	24.0	female	black	3.0955033824114606	smiling	099	sub-02	2.0	4.0	099_smiling	0.0		117.84246335720127	3.7582035587965947
15.0	90.3043541518955	pulse	1.0	t		24.0	female	black	3.0955033824114606	smiling	099	sub-02	2.0	4.0	099_smiling	0.0		117.89257231136526	
15.0	91.00433914975656	pulse	1.0	t		24.0	female	black	3.0955033824114606	smiling	099	sub-02	2.0	4.0	099_smiling	0.0		118.59255730922632	
15.0	91.70431901610118	pulse	1.0	t		24.0	female	black	3.0955033824114606	smiling	099	sub-02	2.0	4.0	099_smiling	0.0		119.29253717557094	
15.0	92.4042880157067	pulse	1.0	t		24.0	female	black	3.0955033824114606	smiling	099	sub-02	2.0	4.0	099_smiling	0.0		119.99250617517646	
15.0	93.10428146547656	pulse	1.0	t		24.0	female	black	3.0955033824114606	smiling	099	sub-02	2.0	4.0	099_smiling	0.0		120.69249962494632	
15.0	93.80426253923724	pulse	1.0	t		24.0	female	black	3.0955033824114606	smiling	099	sub-02	2.0	4.0	099_smiling	0.0		121.392480698707	
16.0	94.0124487565281	face	0.0		146	23.0	male	white	2.6275368085953046	neutral	141	sub-02	2.0	4.0	141_neutral	0.0		121.60066691599786	1.2416781144756897
16.0	94.50425387603082	pulse	0.0	t		23.0	male	white	2.6275368085953046	neutral	141	sub-02	2.0	4.0	141_neutral	0.0		122.09247203550058	
16.0	95.20421110333336	pulse	0.0	t		23.0	male	white	2.6275368085953046	neutral	141	sub-02	2.0	4.0	141_neutral	0.0		122.79242926280313	
16.0	95.25412687100379	fix	1.0		445	23.0	male	white	2.6275368085953046	neutral	141	sub-02	2.0	4.0	141_neutral	0.0		122.84234503047355	3.766567024696087
16.0	95.90421572169816	pulse	1.0	t		23.0	male	white	2.6275368085953046	neutral	141	sub-02	2.0	4.0	141_neutral	0.0		123.49243388116793	
16.0	96.60419649360483	pulse	1.0	t		23.0	male	white	2.6275368085953046	neutral	141	sub-02	2.0	4.0	141_neutral	0.0		124.1924146530746	
16.0	97.30418451000514	pulse	1.0	t		23.0	male	white	2.6275368085953046	neutral	141	sub-02	2.0	4.0	141_neutral	0.0		124.8924026694749	
16.0	98.00416739488992	pulse	1.0	t		23.0	male	white	2.6275368085953046	neutral	141	sub-02	2.0	4.0	141_neutral	0.0		125.59238555435968	
16.0	98.70415239275098	pulse	1.0	t		23.0	male	white	2.6275368085953046	neutral	141	sub-02	2.0	4.0	141_neutral	0.0		126.29237055222075	
17.0	99.02069389569988	face	0.0		145	40.0	male	black	2.408674890569041	neutral	061	sub-02	2.0	4.0	061_neutral	0.0		126.60891205516964	1.233316157846275
17.0	99.40412712758007	pulse	0.0	t		40.0	male	black	2.408674890569041	neutral	061	sub-02	2.0	4.0	061_neutral	0.0		126.99234528704983	
17.0	100.10411816251872	pulse	0.0	t		40.0	male	black	2.408674890569041	neutral	061	sub-02	2.0	4.0	061_neutral	0.0		127.69233632198848	
17.0	100.25401005354615	fix	1.0		444	40.0	male	black	2.408674890569041	neutral	061	sub-02	2.0	4.0	061_neutral	0.0		127.84222821301591	3.7583312429951548
17.0	100.80410376408872	pulse	1.0	t		40.0	male	black	2.408674890569041	neutral	061	sub-02	2.0	4.0	061_neutral	0.0		128.39232192355848	
17.0	101.50408000818697	pulse	1.0	t		40.0	male	black	2.408674890569041	neutral	061	sub-02	2.0	4.0	061_neutral	0.0		129.09229816765674	
17.0	102.20404870593757	pulse	1.0	t		40.0	male	black	2.408674890569041	neutral	061	sub-02	2.0	4.0	061_neutral	0.0		129.79226686540733	
17.0	102.9040539280104	pulse	1.0	t		40.0	male	black	2.408674890569041	neutral	061	sub-02	2.0	4.0	061_neutral	0.0		130.49227208748016	
17.0	103.60404043514063	pulse	1.0	t		40.0	male	black	2.408674890569041	neutral	061	sub-02	2.0	4.0	061_neutral	0.0		131.1922585946104	
18.0	104.01234129654131	face	0.0		146	24.0	male	white	3.1153999204138483	neutral	012	sub-02	2.0	4.0	012_neutral	0.0		131.60055945601107	1.2415504302780391
18.0	104.30400943474615	pulse	0.0	t		24.0	male	white	3.1153999204138483	neutral	012	sub-02	2.0	4.0	012_neutral	0.0		131.8922275942159	
18.0	105.00400318637003	pulse	0.0	t		24.0	male	white	3.1153999204138483	neutral	012	sub-02	2.0	4.0	012_neutral	0.0		132.5922213458398	
18.0	105.25389172681935	fix	1.0		444	24.0	male	white	3.1153999204138483	neutral	012	sub-02	2.0	4.0	012_neutral	0.0		132.8421098862891	3.7665492153155355
18.0	105.70399150462436	pulse	1.0	t		24.0	male	white	3.1153999204138483	neutral	012	sub-02	2.0	4.0	012_neutral	0.0		133.29220966409412	
18.0	106.40396955984579	pulse	1.0	t		24.0	male	white	3.1153999204138483	neutral	012	sub-02	2.0	4.0	012_neutral	0.0		133.99218771931555	
18.0	107.10394852062927	pulse	1.0	t		24.0	male	white	3.1153999204138483	neutral	012	sub-02	2.0	4.0	012_neutral	0.0		134.69216668009904	
18.0	107.80392144433517	pulse	1.0	t		24.0	male	white	3.1153999204138483	neutral	012	sub-02	2.0	4.0	012_neutral	0.0		135.39213960380494	
18.0	108.5039224404527	pulse	1.0	t		24.0	male	white	3.1153999204138483	neutral	012	sub-02	2.0	4.0	012_neutral	0.0		136.09214059992246	
19.0	109.02044094213488	face	0.0		145	31.0	female	east_asian	3.395941106247513	smiling	087	sub-02	2.0	4.0	087_smiling	1.0	dominance	136.60865910160464	1.2333333635187955
19.0	109.20390200494421	pulse	0.0	t		31.0	female	east_asian	3.395941106247513	smiling	087	sub-02	2.0	4.0	087_smiling	1.0	dominance	136.79212016441397	
19.0	109.90387583421125	pulse	0.0	t		31.0	female	east_asian	3.395941106247513	smiling	087	sub-02	2.0	4.0	087_smiling	1.0	dominance	137.492093993681	
19.0	110.25377430565368	fix	1.0		177	31.0	female	east_asian	3.395941106247513	smiling	087	sub-02	2.0	4.0	087_smiling	1.0	dominance	137.84199246512344	1.499952156157633
19.0	110.60386264319641	pulse	1.0	t		31.0	female	east_asian	3.395941106247513	smiling	087	sub-02	2.0	4.0	087_smiling	1.0	dominance	138.19208080266617	
19.0	111.30385548925915	pulse	1.0	t		31.0	female	east_asian	3.395941106247513	smiling	087	sub-02	2.0	4.0	087_smiling	1.0	dominance	138.8920736487289	
19.0	111.75372646181131	rating	2.0		294	31.0	female	east_asian	3.395941106247513	smiling	087	sub-02	2.0	4.0	087_smiling	1.0	dominance	139.34194462128107	2.4999557784040007
19.0	111.99869568931535	pulse	2.0	t		31.0	female	east_asian	3.395941106247513	smiling	087	sub-02	2.0	4.0	087_smiling	1.0	dominance	139.58691384878512	
19.0	112.69855300297877	pulse	2.0	t		31.0	female	east_asian	3.395941106247513	smiling	087	sub-02	2.0	4.0	087_smiling	1.0	dominance	140.28677116244853	
19.0	113.05380968292957	response	2.0	n		31.0	female	east_asian	3.395941106247513	smiling	087	sub-02	2.0	4.0	087_smiling	1.0	dominance	140.64202784239933	
19.0	113.40380384205673	pulse	2.0	t		31.0	female	east_asian	3.395941106247513	smiling	087	sub-02	2.0	4.0	087_smiling	1.0	dominance	140.9920220015265	
19.0	114.10379185845704	pulse	2.0	t		31.0	female	east_asian	3.395941106247513	smiling	087	sub-02	2.0	4.0	087_smiling	1.0	dominance	141.6920100179268	
19.0	114.25368224021531	fix	3.0		444	31.0	female	east_asian	3.395941106247513	smiling	087	sub-02	2.0	4.0	087_smiling	1.0	dominance	141.84190039968507	3.766564006156841
19.0	114.8037807804194	pulse	3.0	t		31.0	female	east_asian	3.395941106247513	smiling	087	sub-02	2.0	4.0	087_smiling	1.0	dominance	142.39199893988916	
19.0	115.50375491154045	pulse	3.0	t		31.0	female	east_asian	3.395941106247513	smiling	087	sub-02	2.0	4.0	087_smiling	1.0	dominance	143.09197307101022	
19.0	116.20374111681758	pulse	3.0	t		31.0	female	east_asian	3.395941106247513	smiling	087	sub-02	2.0	4.0	087_smiling	1.0	dominance	143.79195927628734	
19.0	116.90372369984743	pulse	3.0	t		31.0	female	east_asian	3.395941106247513	smiling	087	sub-02	2.0	4.0	087_smiling	1.0	dominance	144.4919418593172	
19.0	117.60369300130606	pulse	3.0	t		31.0	female	east_asian	3.395941106247513	smiling	087	sub-02	2.0	4.0	087_smiling	1.0	dominance	145.19191116077582	
20.0	118.02024624637215	face	0.0		145	27.0	female	white	3.504576203740549	smiling	144	sub-02	2.0	4.0	144_smiling	0.0		145.60846440584191	1.233291103972988
20.0	118.30370305304132	pulse	0.0	t		27.0	female	white	3.504576203740549	smiling	144	sub-02	2.0	4.0	144_smiling	0.0		145.89192121251108	
20.0	119.00366058219788	pulse	0.0	t		27.0	female	white	3.504576203740549	smiling	144	sub-02	2.0	4.0	144_smiling	0.0		146.59187874166764	
20.0	119.25353735034514	fix	1.0		1185	27.0	female	white	3.504576203740549	smiling	144	sub-02	2.0	4.0	144_smiling	0.0		146.8417555098149	10.01644711323479
20.0	119.70366097460828	pulse	1.0	t		27.0	female	white	3.504576203740549	smiling	144	sub-02	2.0	4.0	144_smiling	0.0		147.29187913407804	
20.0	120.40364174651495	pulse	1.0	t		27.0	female	white	3.504576203740549	smiling	144	sub-02	2.0	4.0	144_smiling	0.0		147.9918599059847	
20.0	121.10361436836683	pulse	1.0	t		27.0	female	white	3.504576203740549	smiling	144	sub-02	2.0	4.0	144_smiling	0.0		148.6918325278366	
20.0	121.80361596819239	pulse	1.0	t		27.0	female	white	3.504576203740549	smiling	144	sub-02	2.0	4.0	144_smiling	0.0		149.39183412766215	
20.0	122.50360639942392	pulse	1.0	t		27.0	female	white	3.504576203740549	smiling	144	sub-02	2.0	4.0	144_smiling	0.0		150.09182455889368	
20.0	123.20357781385974	pulse	1.0	t		27.0	female	white	3.504576203740549	smiling	144	sub-02	2.0	4.0	144_smiling	0.0		150.7917959733295	
20.0	123.90356643396808	pulse	1.0	t		27.0	female	white	3.504576203740549	smiling	144	sub-02	2.0	4.0	144_smiling	0.0		151.49178459343784	
20.0	124.6035441873355	pulse	1.0	t		27.0	female	white	3.504576203740549	smiling	144	sub-02	2.0	4.0	144_smiling	0.0		152.19176234680526	
20.0	125.30352646851225	pulse	1.0	t		27.0	female	white	3.504576203740549	smiling	144	sub-02	2.0	4.0	144_smiling	0.0		152.891744627982	
20.0	126.0035132774965	pulse	1.0	t		27.0	female	white	3.504576203740549	smiling	144	sub-02	2.0	4.0	144_smiling	0.0		153.59173143696626	
20.0	126.70350280316688	pulse	1.0	t		27.0	female	white	3.504576203740549	smiling	144	sub-02	2.0	4.0	144_smiling	0.0		154.29172096263665	
20.0	127.40347934911915	pulse	1.0	t		27.0	female	white	3.504576203740549	smiling	144	sub-02	2.0	4.0	144_smiling	0.0		154.9916975085889	
20.0	128.10344834872376	pulse	1.0	t		27.0	female	white	3.504576203740549	smiling	144	sub-02	2.0	4.0	144_smiling	0.0		155.69166650819352	
20.0	128.80344994854931	pulse	1.0	t		27.0	female	white	3.504576203740549	smiling	144	sub-02	2.0	4.0	144_smiling	0.0		156.39166810801908	
21.0	129.26998446357993	face	0.0		145	21.0	male	black	2.969757262236371	neutral	137	sub-02	2.0	4.0	137_neutral	0.0		156.8582026230497	1.2333007632987574
21.0	129.50343494641038	pulse	0.0	t		21.0	male	black	2.969757262236371	neutral	137	sub-02	2.0	4.0	137_neutral	0.0		157.09165310588014	
21.0	130.20339941820748	pulse	0.0	t		21.0	male	black	2.969757262236371	neutral	137	sub-02	2.0	4.0	137_neutral	0.0		157.79161757767724	
21.0	130.5032852268787	fix	1.0		444	21.0	male	black	2.969757262236371	neutral	137	sub-02	2.0	4.0	137_neutral	0.0		158.09150338634845	3.7665646098639627
21.0	130.90340131988705	pulse	1.0	t		21.0	male	black	2.969757262236371	neutral	137	sub-02	2.0	4.0	137_neutral	0.0		158.4916194793568	
21.0	131.60336156572885	pulse	1.0	t		21.0	male	black	2.969757262236371	neutral	137	sub-02	2.0	4.0	137_neutral	0.0		159.1915797251986	
21.0	132.30338369161927	pulse	1.0	t		21.0	male	black	2.969757262236371	neutral	137	sub-02	2.0	4.0	137_neutral	0.0		159.89160185108904	
21.0	133.00334786156145	pulse	1.0	t		21.0	male	black	2.969757262236371	neutral	137	sub-02	2.0	4.0	137_neutral	0.0		160.5915660210312	
21.0	133.7033343686926	pulse	1.0	t		21.0	male	black	2.969757262236371	neutral	137	sub-02	2.0	4.0	137_neutral	0.0		161.29155252816236	
22.0	134.26984983674265	face	0.0		145	24.0	female	east_asian	4.409868682849185	neutral	030	sub-02	2.0	4.0	030_neutral	0.0		161.8580679962124	1.2333339672268266
22.0	134.40330517942039	pulse	0.0	t		24.0	female	east_asian	4.409868682849185	neutral	030	sub-02	2.0	4.0	030_neutral	0.0		161.99152333889015	
22.0	135.10330013846033	pulse	0.0	t		24.0	female	east_asian	4.409868682849185	neutral	030	sub-02	2.0	4.0	030_neutral	0.0		162.6915182979301	
22.0	135.50318380396948	fix	1.0		444	24.0	female	east_asian	4.409868682849185	neutral	030	sub-02	2.0	4.0	030_neutral	0.0		163.09140196343924	3.766549517169551
22.0	135.8033002290167	pulse	1.0	t		24.0	female	east_asian	4.409868682849185	neutral	030	sub-02	2.0	4.0	030_neutral	0.0		163.39151838848647	
22.0	136.5032372321084	pulse	1.0	t		24.0	female	east_asian	4.409868682849185	neutral	030	sub-02	2.0	4.0	030_neutral	0.0		164.09145539157817	
22.0	137.20324215232722	pulse	1.0	t		24.0	female	east_asian	4.409868682849185	neutral	030	sub-02	2.0	4.0	030_neutral	0.0		164.79146031179698	
22.0	137.9032168871563	pulse	1.0	t		24.0	female	east_asian	4.409868682849185	neutral	030	sub-02	2.0	4.0	030_neutral	0.0		165.49143504662607	
22.0	138.60320218687139	pulse	1.0	t		24.0	female	east_asian	4.409868682849185	neutral	030	sub-02	2.0	4.0	030_neutral	0.0		166.19142034634115	
23.0	139.26973332113903	face	0.0		145	20.0	male	black	2.609629924393156	smiling	043	sub-02	2.0	4.0	043_smiling	0.0		166.8579514806088	1.2333179689694589
23.0	139.30324544253472	pulse	0.0	t		20.0	male	black	2.609629924393156	smiling	043	sub-02	2.0	4.0	043_smiling	0.0		166.89146360200448	
23.0	140.00316674922396	pulse	0.0	t		20.0	male	black	2.609629924393156	smiling	043	sub-02	2.0	4.0	043_smiling	0.0		167.59138490869373	
23.0	140.5030512901085	fix	1.0		443	20.0	male	black	2.609629924393156	smiling	043	sub-02	2.0	4.0	043_smiling	0.0		168.09126944957825	3.7582518554208946
23.0	140.70315687860148	pulse	1.0	t		20.0	male	black	2.609629924393156	smiling	043	sub-02	2.0	4.0	043_smiling	0.0		168.29137503807124	
23.0	141.4031491209562	pulse	1.0	t		20.0	male	black	2.609629924393156	smiling	043	sub-02	2.0	4.0	043_smiling	0.0		168.99136728042595	
23.0	142.10313804291854	pulse	1.0	t		20.0	male	black	2.609629924393156	smiling	043	sub-02	2.0	4.0	043_smiling	0.0		169.6913562023883	
23.0	142.80311730555604	pulse	1.0	t		20.0	male	black	2.609629924393156	smiling	043	sub-02	2.0	4.0	043_smiling	0.0		170.3913354650258	
23.0	143.50309868117074	pulse	1.0	t		20.0	male	black	2.609629924393156	smiling	043	sub-02	2.0	4.0	043_smiling	0.0		171.0913168406405	
23.0	144.20308911240227	pulse	1.0	t		20.0	male	black	2.609629924393156	smiling	043	sub-02	2.0	4.0	043_smiling	0.0		171.79130727187203	
24.0	144.26130314552938	face	0.0		147	32.0	male	white	2.389176283326701	smiling	092	sub-02	2.0	4.0	092_smiling	0.0		171.84952130499914	1.2416316289754832
24.0	144.90307924177978	pulse	0.0	t		32.0	male	white	2.389176283326701	smiling	092	sub-02	2.0	4.0	092_smiling	0.0		172.49129740124954	
24.0	145.50293477450487	fix	1.0		443	32.0	male	white	2.389176283326701	smiling	092	sub-02	2.0	4.0	092_smiling	0.0		173.09115293397463	3.7665815136824676
24.0	145.60304552469916	pulse	1.0	t		32.0	male	white	2.389176283326701	smiling	092	sub-02	2.0	4.0	092_smiling	0.0		173.19126368416892	
24.0	146.3030383707619	pulse	1.0	t		32.0	male	white	2.389176283326701	smiling	092	sub-02	2.0	4.0	092_smiling	0.0		173.89125653023166	
24.0	147.0030155204222	pulse	1.0	t		32.0	male	white	2.389176283326701	smiling	092	sub-02	2.0	4.0	092_smiling	0.0		174.59123367989196	
24.0	147.70300444238455	pulse	1.0	t		32.0	male	white	2.389176283326701	smiling	092	sub-02	2.0	4.0	092_smiling	0.0		175.29122260185432	
24.0	148.40298611985236	pulse	1.0	t		32.0	male	white	2.389176283326701	smiling	092	sub-02	2.0	4.0	092_smiling	0.0		175.99120427932212	
24.0	149.10297202327547	pulse	1.0	t		32.0	male	white	2.389176283326701	smiling	092	sub-02	2.0	4.0	092_smiling	0.0		176.69119018274523	
25.0	149.26951628818733	face	0.0		146	22.0	female	white	4.614007162753682	neutral	009	sub-02	2.0	4.0	009_neutral	0.0		176.8577344476571	1.2333034799830784
25.0	149.80297996203353	pulse	0.0	t		22.0	female	white	4.614007162753682	neutral	009	sub-02	2.0	4.0	009_neutral	0.0		177.3911981215033	
25.0	150.5028197681704	fix	1.0		444	22.0	female	white	4.614007162753682	neutral	009	sub-02	2.0	4.0	009_neutral	0.0		178.09103792764017	3.7665824192445143
25.0	150.51027706867262	pulse	1.0	t		22.0	female	white	4.614007162753682	neutral	009	sub-02	2.0	4.0	009_neutral	0.0		178.09849522814238	
25.0	151.2029297335448	pulse	1.0	t		22.0	female	white	4.614007162753682	neutral	009	sub-02	2.0	4.0	009_neutral	0.0		178.79114789301457	
25.0	151.90290326095783	pulse	1.0	t		22.0	female	white	4.614007162753682	neutral	009	sub-02	2.0	4.0	009_neutral	0.0		179.4911214204276	
25.0	152.6028882588198	pulse	1.0	t		22.0	female	white	4.614007162753682	neutral	009	sub-02	2.0	4.0	009_neutral	0.0		180.19110641828956	
25.0	153.30284065645992	pulse	1.0	t		22.0	female	white	4.614007162753682	neutral	009	sub-02	2.0	4.0	009_neutral	0.0		180.89105881592968	
25.0	154.0028531230264	pulse	1.0	t		22.0	female	white	4.614007162753682	neutral	009	sub-02	2.0	4.0	009_neutral	0.0		181.59107128249616	
26.0	154.26940218741493	face	0.0		145	36.0	female	white	2.7548746518105847	neutral	011	sub-02	2.0	4.0	011_neutral	0.0		181.8576203468847	1.2333167615543061
26.0	154.70285019504354	pulse	0.0	t		36.0	female	white	2.7548746518105847	neutral	011	sub-02	2.0	4.0	011_neutral	0.0		182.2910683545133	
26.0	155.40282191133338	pulse	0.0	t		36.0	female	white	2.7548746518105847	neutral	011	sub-02	2.0	4.0	011_neutral	0.0		182.99104007080314	
26.0	155.50271894896923	fix	1.0		444	36.0	female	white	2.7548746518105847	neutral	011	sub-02	2.0	4.0	011_neutral	0.0		183.090937108439	3.7665501208775822
26.0	156.10282471857408	pulse	1.0	t		36.0	female	white	2.7548746518105847	neutral	011	sub-02	2.0	4.0	011_neutral	0.0		183.69104287804385	
26.0	156.80279552930278	pulse	1.0	t		36.0	female	white	2.7548746518105847	neutral	011	sub-02	2.0	4.0	011_neutral	0.0		184.39101368877255	
26.0	157.50277871604067	pulse	1.0	t		36.0	female	white	2.7548746518105847	neutral	011	sub-02	2.0	4.0	011_neutral	0.0		185.09099687551043	
26.0	158.20276190277855	pulse	1.0	t		36.0	female	white	2.7548746518105847	neutral	011	sub-02	2.0	4.0	011_neutral	0.0		185.7909800622483	
26.0	158.90273663760763	pulse	1.0	t		36.0	female	white	2.7548746518105847	neutral	011	sub-02	2.0	4.0	011_neutral	0.0		186.4909547970774	
27.0	159.2692690698468	face	0.0		145	31.0	female	east_asian	3.395941106247513	neutral	087	sub-02	2.0	4.0	087_neutral	0.0		186.85748722931658	1.23333306166478
27.0	159.60277778029376	pulse	0.0	t		31.0	female	east_asian	3.395941106247513	neutral	087	sub-02	2.0	4.0	087_neutral	0.0		187.19099593976352	
27.0	160.30270995372302	pulse	0.0	t		31.0	female	east_asian	3.395941106247513	neutral	087	sub-02	2.0	4.0	087_neutral	0.0		187.89092811319279	
27.0	160.5026021315116	fix	1.0		444	31.0	female	east_asian	3.395941106247513	neutral	087	sub-02	2.0	4.0	087_neutral	0.0		188.09082029098136	3.7665501208775822
27.0	161.00268800894446	pulse	1.0	t		31.0	female	east_asian	3.395941106247513	neutral	087	sub-02	2.0	4.0	087_neutral	0.0		188.59090616841422	
27.0	161.70269232545525	pulse	1.0	t		31.0	female	east_asian	3.395941106247513	neutral	087	sub-02	2.0	4.0	087_neutral	0.0		189.290910484925	
27.0	162.40266373989198	pulse	1.0	t		31.0	female	east_asian	3.395941106247513	neutral	087	sub-02	2.0	4.0	087_neutral	0.0		189.99088189936174	
27.0	163.1026309283734	pulse	1.0	t		31.0	female	east_asian	3.395941106247513	neutral	087	sub-02	2.0	4.0	087_neutral	0.0		190.69084908784316	
27.0	163.80263041522176	pulse	1.0	t		31.0	female	east_asian	3.395941106247513	neutral	087	sub-02	2.0	4.0	087_neutral	0.0		191.39084857469152	
28.0	164.26915225238918	face	0.0		145	19.0	female	white	4.298846000795861	smiling	100	sub-02	2.0	4.0	100_smiling	0.0		191.85737041185894	1.2333324579567488
28.0	164.50260364078076	pulse	0.0	t		19.0	female	white	4.298846000795861	smiling	100	sub-02	2.0	4.0	100_smiling	0.0		192.09082180025052	
28.0	165.2025771681947	pulse	0.0	t		19.0	female	white	4.298846000795861	smiling	100	sub-02	2.0	4.0	100_smiling	0.0		192.79079532766445	
28.0	165.50248471034593	fix	1.0		444	19.0	female	white	4.298846000795861	smiling	100	sub-02	2.0	4.0	100_smiling	0.0		193.0907028698157	3.7665486116075044
28.0	165.90258450324382	pulse	1.0	t		19.0	female	white	4.298846000795861	smiling	100	sub-02	2.0	4.0	100_smiling	0.0		193.49080266271358	
28.0	166.60254595650167	pulse	1.0	t		19.0	female	white	4.298846000795861	smiling	100	sub-02	2.0	4.0	100_smiling	0.0		194.19076411597143	
28.0	167.30254665076518	pulse	1.0	t		19.0	female	white	4.298846000795861	smiling	100	sub-02	2.0	4.0	100_smiling	0.0		194.89076481023494	
28.0	168.00252319671745	pulse	1.0	t		19.0	female	white	4.298846000795861	smiling	100	sub-02	2.0	4.0	100_smiling	0.0		195.5907413561872	
28.0	168.7025054778942	pulse	1.0	t		19.0	female	white	4.298846000795861	smiling	100	sub-02	2.0	4.0	100_smiling	0.0		196.29072363736395	
29.0	169.26903332195343	face	0.0		145	40.0	male	black	2.408674890569041	smiling	061	sub-02	2.0	4.0	061_smiling	0.0		196.8572514814232	1.2333270245871972
29.0	169.40249047575526	pulse	0.0	t		40.0	male	black	2.408674890569041	smiling	061	sub-02	2.0	4.0	061_smiling	0.0		196.99070863522502	
29.0	170.10247004024677	pulse	0.0	t		40.0	male	black	2.408674890569041	smiling	061	sub-02	2.0	4.0	061_smiling	0.0		197.69068819971653	
29.0	170.50236034654063	fix	1.0		444	40.0	male	black	2.408674890569041	smiling	061	sub-02	2.0	4.0	061_smiling	0.0		198.0905785060104	3.7665558561011494
29.0	170.80244115282858	pulse	1.0	t		40.0	male	black	2.408674890569041	smiling	061	sub-02	2.0	4.0	061_smiling	0.0		198.39065931229834	
29.0	171.5024481860246	pulse	1.0	t		40.0	male	black	2.408674890569041	smiling	061	sub-02	2.0	4.0	061_smiling	0.0		199.09066634549436	
29.0	172.20243529686286	pulse	1.0	t		40.0	male	black	2.408674890569041	smiling	061	sub-02	2.0	4.0	061_smiling	0.0		199.79065345633262	
29.0	172.90241637062354	pulse	1.0	t		40.0	male	black	2.408674890569041	smiling	061	sub-02	2.0	4.0	061_smiling	0.0		200.4906345300933	
29.0	173.6023823516898	pulse	1.0	t		40.0	male	black	2.408674890569041	smiling	061	sub-02	2.0	4.0	061_smiling	0.0		201.19060051115957	
30.0	174.26891620264178	face	0.0		145	26.0	male	white	2.7966573816155993	smiling	117	sub-02	2.0	4.0	117_smiling	0.0		201.85713436211154	1.2333318542496272
30.0	174.3023845552234	pulse	0.0	t		26.0	male	white	2.7966573816155993	smiling	117	sub-02	2.0	4.0	117_smiling	0.0		201.89060271469316	
30.0	175.00235264926596	pulse	0.0	t		26.0	male	white	2.7966573816155993	smiling	117	sub-02	2.0	4.0	117_smiling	0.0		202.59057080873572	
30.0	175.5022480568914	fix	1.0		443	26.0	male	white	2.7966573816155993	smiling	117	sub-02	2.0	4.0	117_smiling	0.0		203.09046621636116	3.766568835819271
30.0	175.70234428791355	pulse	1.0	t		26.0	male	white	2.7966573816155993	smiling	117	sub-02	2.0	4.0	117_smiling	0.0		203.2905624473833	
30.0	176.4023307950447	pulse	1.0	t		26.0	male	white	2.7966573816155993	smiling	117	sub-02	2.0	4.0	117_smiling	0.0		203.99054895451445	
30.0	177.1023085484121	pulse	1.0	t		26.0	male	white	2.7966573816155993	smiling	117	sub-02	2.0	4.0	117_smiling	0.0		204.69052670788187	
30.0	177.80229777222848	pulse	1.0	t		26.0	male	white	2.7966573816155993	smiling	117	sub-02	2.0	4.0	117_smiling	0.0		205.39051593169825	
30.0	178.50228307194357	pulse	1.0	t		26.0	male	white	2.7966573816155993	smiling	117	sub-02	2.0	4.0	117_smiling	0.0		206.09050123141333	
30.0	179.20227078648986	pulse	1.0	t		26.0	male	white	2.7966573816155993	smiling	117	sub-02	2.0	4.0	117_smiling	0.0		206.79048894595962	
31.0	179.26881689271067	face	0.0		146	20.0	female	white	3.9502586549940313	smiling	091	sub-02	2.0	4.0	091_smiling	1.0	trustworthiness	206.85703505218044	1.2333194782395367
31.0	179.9022594065982	pulse	0.0	t		20.0	female	white	3.9502586549940313	smiling	091	sub-02	2.0	4.0	091_smiling	1.0	trustworthiness	207.49047756606797	
31.0	180.5021363709502	fix	1.0		177	20.0	female	white	3.9502586549940313	smiling	091	sub-02	2.0	4.0	091_smiling	1.0	trustworthiness	208.09035453041997	1.499950043179524
31.0	180.60224349889722	pulse	1.0	t		20.0	female	white	3.9502586549940313	smiling	091	sub-02	2.0	4.0	091_smiling	1.0	trustworthiness	208.19046165836698	
31.0	181.30221098923266	pulse	1.0	t		20.0	female	white	3.9502586549940313	smiling	091	sub-02	2.0	4.0	091_smiling	1.0	trustworthiness	208.89042914870242	
31.0	182.00208641412974	rating	2.0		294	20.0	female	white	3.9502586549940313	smiling	091	sub-02	2.0	4.0	091_smiling	1.0	trustworthiness	209.5903045735995	2.4999533635736952
31.0	181.9972374331437	pulse	2.0	t		20.0	female	white	3.9502586549940313	smiling	091	sub-02	2.0	4.0	091_smiling	1.0	trustworthiness	209.58545559261347	
31.0	182.69692299193957	pulse	2.0	t		20.0	female	white	3.9502586549940313	smiling	091	sub-02	2.0	4.0	091_smiling	1.0	trustworthiness	210.28514115140933	
31.0	182.97716565832434	response	2.0	g		20.0	female	white	3.9502586549940313	smiling	091	sub-02	2.0	4.0	091_smiling	1.0	trustworthiness	210.5653838177941	
31.0	183.40216417169358	pulse	2.0	t		20.0	female	white	3.9502586549940313	smiling	091	sub-02	2.0	4.0	091_smiling	1.0	trustworthiness	210.99038233116335	
31.0	184.10215913073353	pulse	2.0	t		20.0	female	white	3.9502586549940313	smiling	091	sub-02	2.0	4.0	091_smiling	1.0	trustworthiness	211.6903772902033	
31.0	184.50203977770343	fix	3.0		444	20.0	female	white	3.9502586549940313	smiling	091	sub-02	2.0	4.0	091_smiling	1.0	trustworthiness	212.0902579371732	3.766565213571994
31.0	184.80214292117944	pulse	3.0	t		20.0	female	white	3.9502586549940313	smiling	091	sub-02	2.0	4.0	091_smiling	1.0	trustworthiness	212.3903610806492	
31.0	185.50211644859246	pulse	3.0	t		20.0	female	white	3.9502586549940313	smiling	091	sub-02	2.0	4.0	091_smiling	1.0	trustworthiness	213.09033460806222	
31.0	186.20210416313876	pulse	3.0	t		20.0	female	white	3.9502586549940313	smiling	091	sub-02	2.0	4.0	091_smiling	1.0	trustworthiness	213.79032232260852	
31.0	186.9020906702699	pulse	3.0	t		20.0	female	white	3.9502586549940313	smiling	091	sub-02	2.0	4.0	091_smiling	1.0	trustworthiness	214.49030882973966	
31.0	187.60205634948215	pulse	3.0	t		20.0	female	white	3.9502586549940313	smiling	091	sub-02	2.0	4.0	091_smiling	1.0	trustworthiness	215.19027450895192	
32.0	188.26860499127542	face	0.0		145	34.0	male	white	2.651014723438122	neutral	121	sub-02	2.0	4.0	121_neutral	0.0		215.85682315074519	1.2333194782395367
32.0	188.3020537233533	pulse	0.0	t		34.0	male	white	2.651014723438122	neutral	121	sub-02	2.0	4.0	121_neutral	0.0		215.89027188282307	
32.0	189.00204294716877	pulse	0.0	t		34.0	male	white	2.651014723438122	neutral	121	sub-02	2.0	4.0	121_neutral	0.0		216.59026110663854	
32.0	189.50192446951496	fix	1.0		443	34.0	male	white	2.651014723438122	neutral	121	sub-02	2.0	4.0	121_neutral	0.0		217.09014262898472	3.7582618165988606
32.0	189.70201768199786	pulse	1.0	t		34.0	male	white	2.651014723438122	neutral	121	sub-02	2.0	4.0	121_neutral	0.0		217.29023584146762	
32.0	190.40200358542097	pulse	1.0	t		34.0	male	white	2.651014723438122	neutral	121	sub-02	2.0	4.0	121_neutral	0.0		217.99022174489073	
32.0	191.1019940166525	pulse	1.0	t		34.0	male	white	2.651014723438122	neutral	121	sub-02	2.0	4.0	121_neutral	0.0		218.69021217612226	
32.0	191.80197659968235	pulse	1.0	t		34.0	male	white	2.651014723438122	neutral	121	sub-02	2.0	4.0	121_neutral	0.0		219.3901947591521	
32.0	192.50195737158901	pulse	1.0	t		34.0	male	white	2.651014723438122	neutral	121	sub-02	2.0	4.0	121_neutral	0.0		220.09017553105878	
32.0	193.20193753978856	pulse	1.0	t		34.0	male	white	2.651014723438122	neutral	121	sub-02	2.0	4.0	121_neutral	0.0		220.79015569925832	
33.0	193.26018628611382	face	0.0		147	47.0	male	east_asian	2.171110226820533	neutral	024	sub-02	2.0	4.0	024_neutral	1.0	attractiveness	220.84840444558358	1.2416195548194082
33.0	193.90191861354924	pulse	0.0	t		47.0	male	east_asian	2.171110226820533	neutral	024	sub-02	2.0	4.0	024_neutral	1.0	attractiveness	221.490136773019	
33.0	194.50180584093323	fix	1.0		177	47.0	male	east_asian	2.171110226820533	neutral	024	sub-02	2.0	4.0	024_neutral	1.0	attractiveness	222.090024000403	1.4999554765508947
33.0	194.60191478000434	pulse	1.0	t		47.0	male	east_asian	2.171110226820533	neutral	024	sub-02	2.0	4.0	024_neutral	1.0	attractiveness	222.1901329394741	
33.0	195.30188136477864	pulse	1.0	t		47.0	male	east_asian	2.171110226820533	neutral	024	sub-02	2.0	4.0	024_neutral	1.0	attractiveness	222.8900995242484	
33.0	196.00176131748412	rating	2.0		294	47.0	male	east_asian	2.171110226820533	neutral	024	sub-02	2.0	4.0	024_neutral	1.0	attractiveness	223.58997947695389	2.4999524580116486
33.0	195.9980174236107	pulse	2.0	t		47.0	male	east_asian	2.171110226820533	neutral	024	sub-02	2.0	4.0	024_neutral	1.0	attractiveness	223.58623558308045	
33.0	196.6965692191734	pulse	2.0	t		47.0	male	east_asian	2.171110226820533	neutral	024	sub-02	2.0	4.0	024_neutral	1.0	attractiveness	224.28478737864316	
33.0	197.23520878177533	response	2.0	w		47.0	male	east_asian	2.171110226820533	neutral	024	sub-02	2.0	4.0	024_neutral	1.0	attractiveness	224.8234269412451	
33.0	197.39654787810287	pulse	2.0	t		47.0	male	east_asian	2.171110226820533	neutral	024	sub-02	2.0	4.0	024_neutral	1.0	attractiveness	224.98476603757263	
33.0	198.1018298081326	pulse	2.0	t		47.0	male	east_asian	2.171110226820533	neutral	024	sub-02	2.0	4.0	024_neutral	1.0	attractiveness	225.69004796760237	
33.0	198.50171377549577	fix	3.0		444	47.0	male	east_asian	2.171110226820533	neutral	024	sub-02	2.0	4.0	024_neutral	1.0	attractiveness	226.08993193496553	3.7665504227306883
33.0	198.8018175226798	pulse	3.0	t		47.0	male	east_asian	2.171110226820533	neutral	024	sub-02	2.0	4.0	024_neutral	1.0	attractiveness	226.39003568214957	
33.0	199.5017862204304	pulse	3.0	t		47.0	male	east_asian	2.171110226820533	neutral	024	sub-02	2.0	4.0	024_neutral	1.0	attractiveness	227.09000437990017	
33.0	200.20177906649315	pulse	3.0	t		47.0	male	east_asian	2.171110226820533	neutral	024	sub-02	2.0	4.0	024_neutral	1.0	attractiveness	227.7899972259629	
33.0	200.90176225323103	pulse	3.0	t		47.0	male	east_asian	2.171110226820533	neutral	024	sub-02	2.0	4.0	024_neutral	1.0	attractiveness	228.4899804127008	
33.0	201.60174181772254	pulse	3.0	t		47.0	male	east_asian	2.171110226820533	neutral	024	sub-02	2.0	4.0	024_neutral	1.0	attractiveness	229.1899599771923	
34.0	202.26826419822646	face	0.0		145	30.0	female	black	2.7345801830481498	neutral	062	sub-02	2.0	4.0	062_neutral	0.0		229.85648235769622	1.233330646833565
34.0	202.30172560816845	pulse	0.0	t		30.0	female	black	2.7345801830481498	neutral	062	sub-02	2.0	4.0	062_neutral	0.0		229.88994376763821	
34.0	203.0017145301299	pulse	0.0	t		30.0	female	black	2.7345801830481498	neutral	062	sub-02	2.0	4.0	062_neutral	0.0		230.58993268959966	
34.0	203.50159484506003	fix	1.0		443	30.0	female	black	2.7345801830481498	neutral	062	sub-02	2.0	4.0	062_neutral	0.0		231.0898130045298	3.7583656543392863
34.0	203.701689566813	pulse	1.0	t		30.0	female	black	2.7345801830481498	neutral	062	sub-02	2.0	4.0	062_neutral	0.0		231.28990772628276	
34.0	204.4016923740537	pulse	1.0	t		30.0	female	black	2.7345801830481498	neutral	062	sub-02	2.0	4.0	062_neutral	0.0		231.98991053352347	
34.0	205.1016354142239	pulse	1.0	t		30.0	female	black	2.7345801830481498	neutral	062	sub-02	2.0	4.0	062_neutral	0.0		232.68985357369365	
34.0	205.80165633269917	pulse	1.0	t		30.0	female	black	2.7345801830481498	neutral	062	sub-02	2.0	4.0	062_neutral	0.0		233.38987449216893	
34.0	206.5016177859561	pulse	1.0	t		30.0	female	black	2.7345801830481498	neutral	062	sub-02	2.0	4.0	062_neutral	0.0		234.08983594542588	
34.0	207.20161878207455	pulse	1.0	t		30.0	female	black	2.7345801830481498	neutral	062	sub-02	2.0	4.0	062_neutral	0.0		234.7898369415443	
35.0	207.2599604993993	face	0.0		147	27.0	male	black	3.5523278949462798	neutral	042	sub-02	2.0	4.0	042_neutral	0.0		234.84817865886907	1.2415193393262598
35.0	207.90163849313376	pulse	0.0	t		27.0	male	black	3.5523278949462798	neutral	042	sub-02	2.0	4.0	042_neutral	0.0		235.48985665260352	
35.0	208.50147983872557	fix	1.0		443	27.0	male	black	3.5523278949462798	neutral	042	sub-02	2.0	4.0	042_neutral	0.0		236.08969799819533	3.7665652135729033
35.0	208.6015830425731	pulse	1.0	t		27.0	male	black	3.5523278949462798	neutral	042	sub-02	2.0	4.0	042_neutral	0.0		236.18980120204287	
35.0	209.30154992920052	pulse	1.0	t		27.0	male	black	3.5523278949462798	neutral	042	sub-02	2.0	4.0	042_neutral	0.0		236.88976808867028	
35.0	210.00153643633166	pulse	1.0	t		27.0	male	black	3.5523278949462798	neutral	042	sub-02	2.0	4.0	042_neutral	0.0		237.58975459580142	
35.0	210.70152384902394	pulse	1.0	t		27.0	male	black	3.5523278949462798	neutral	042	sub-02	2.0	4.0	042_neutral	0.0		238.2897420084937	
35.0	211.4015212228951	pulse	1.0	t		27.0	male	black	3.5523278949462798	neutral	042	sub-02	2.0	4.0	042_neutral	0.0		238.98973938236486	
35.0	212.10150833373336	pulse	1.0	t		27.0	male	black	3.5523278949462798	neutral	042	sub-02	2.0	4.0	042_neutral	0.0		239.68972649320312	
36.0	212.26804505229848	face	0.0		146	21.0	male	black	2.969757262236371	smiling	137	sub-02	2.0	4.0	137_smiling	0.0		239.85626321176824	1.2333170634083217
36.0	212.80147823890002	pulse	0.0	t		21.0	male	black	2.969757262236371	smiling	137	sub-02	2.0	4.0	137_smiling	0.0		240.38969639836978	
36.0	213.5013621157068	fix	1.0		444	21.0	male	black	2.969757262236371	smiling	137	sub-02	2.0	4.0	137_smiling	0.0		241.08958027517656	3.7582569869364306
36.0	213.50889216299765	pulse	1.0	t		21.0	male	black	2.969757262236371	smiling	137	sub-02	2.0	4.0	137_smiling	0.0		241.09711032246742	
36.0	214.20144431052267	pulse	1.0	t		21.0	male	black	2.969757262236371	smiling	137	sub-02	2.0	4.0	137_smiling	0.0		241.78966246999244	
36.0	214.90143594916935	pulse	1.0	t		21.0	male	black	2.969757262236371	smiling	137	sub-02	2.0	4.0	137_smiling	0.0		242.48965410863912	
36.0	215.60142094703042	pulse	1.0	t		21.0	male	black	2.969757262236371	smiling	137	sub-02	2.0	4.0	137_smiling	0.0		243.18963910650018	
36.0	216.3013999078139	pulse	1.0	t		21.0	male	black	2.969757262236371	smiling	137	sub-02	2.0	4.0	137_smiling	0.0		243.88961806728366	
36.0	217.00138430196785	pulse	1.0	t		21.0	male	black	2.969757262236371	smiling	137	sub-02	2.0	4.0	137_smiling	0.0		244.5896024614376	
37.0	217.25961910264323	face	0.0		146	27.0	female	white	4.181058495821727	neutral	039	sub-02	2.0	4.0	039_neutral	0.0		244.847837262113	1.2416274030210843
37.0	217.70137171466013	pulse	0.0	t		27.0	female	white	4.181058495821727	neutral	039	sub-02	2.0	4.0	039_neutral	0.0		245.2895898741299	
37.0	218.4013506754436	pulse	0.0	t		27.0	female	white	4.181058495821727	neutral	039	sub-02	2.0	4.0	039_neutral	0.0		245.98956883491337	
37.0	218.5012465056643	fix	1.0		444	27.0	female	white	4.181058495821727	neutral	039	sub-02	2.0	4.0	039_neutral	0.0		246.08946466513407	3.7665661191340405
37.0	219.1013405029671	pulse	1.0	t		27.0	female	white	4.181058495821727	neutral	039	sub-02	2.0	4.0	039_neutral	0.0		246.68955866243687	
37.0	219.80131614335824	pulse	1.0	t		27.0	female	white	4.181058495821727	neutral	039	sub-02	2.0	4.0	039_neutral	0.0		247.389534302828	
37.0	220.50129208560247	pulse	1.0	t		27.0	female	white	4.181058495821727	neutral	039	sub-02	2.0	4.0	039_neutral	0.0		248.08951024507223	
37.0	221.20128191312597	pulse	1.0	t		27.0	female	white	4.181058495821727	neutral	039	sub-02	2.0	4.0	039_neutral	0.0		248.78950007259573	
37.0	221.90128622963675	pulse	1.0	t		27.0	female	white	4.181058495821727	neutral	039	sub-02	2.0	4.0	039_neutral	0.0		249.48950438910651	
38.0	222.26781262479835	face	0.0		145	40.0	female	west_asian	1.5777954635893354	neutral	038	sub-02	2.0	4.0	038_neutral	0.0		249.8560307842681	1.2333158559922595
38.0	222.60125100328696	pulse	0.0	t		40.0	female	west_asian	1.5777954635893354	neutral	038	sub-02	2.0	4.0	038_neutral	0.0		250.18946916275672	
38.0	223.30123449187886	pulse	0.0	t		40.0	female	west_asian	1.5777954635893354	neutral	038	sub-02	2.0	4.0	038_neutral	0.0		250.88945265134862	
38.0	223.5011284807906	fix	1.0		444	40.0	female	west_asian	1.5777954635893354	neutral	038	sub-02	2.0	4.0	038_neutral	0.0		251.08934664026037	3.7665679302572244
38.0	224.00123699726646	pulse	1.0	t		40.0	female	west_asian	1.5777954635893354	neutral	038	sub-02	2.0	4.0	038_neutral	0.0		251.58945515673622	
38.0	224.70119663940022	pulse	1.0	t		40.0	female	west_asian	1.5777954635893354	neutral	038	sub-02	2.0	4.0	038_neutral	0.0		252.28941479886998	
38.0	225.40116986496014	pulse	1.0	t		40.0	female	west_asian	1.5777954635893354	neutral	038	sub-02	2.0	4.0	038_neutral	0.0		252.9893880244299	
38.0	226.1011756907401	pulse	1.0	t		40.0	female	west_asian	1.5777954635893354	neutral	038	sub-02	2.0	4.0	038_neutral	0.0		253.68939385020985	
38.0	226.80116249972525	pulse	1.0	t		40.0	female	west_asian	1.5777954635893354	neutral	038	sub-02	2.0	4.0	038_neutral	0.0		254.389380659195	
39.0	227.26769641104784	face	0.0		145	20.0	male	black	3.1070433744528456	smiling	082	sub-02	2.0	4.0	082_smiling	0.0		254.8559145705176	1.2333143467230911
39.0	227.50114629017116	pulse	0.0	t		20.0	male	black	3.1070433744528456	smiling	082	sub-02	2.0	4.0	082_smiling	0.0		255.08936444964093	
39.0	228.20112162870737	pulse	0.0	t		20.0	male	black	3.1070433744528456	smiling	082	sub-02	2.0	4.0	082_smiling	0.0		255.78933978817713	
39.0	228.50101075777093	fix	1.0		444	20.0	male	black	3.1070433744528456	smiling	082	sub-02	2.0	4.0	082_smiling	0.0		256.0892289172407	3.7498932191847416
39.0	228.90111598403928	pulse	1.0	t		20.0	male	black	3.1070433744528456	smiling	082	sub-02	2.0	4.0	082_smiling	0.0		256.48933414350904	
39.0	229.60109222813753	pulse	1.0	t		20.0	male	black	3.1070433744528456	smiling	082	sub-02	2.0	4.0	082_smiling	0.0		257.1893103876073	
39.0	230.30108024453784	pulse	1.0	t		20.0	male	black	3.1070433744528456	smiling	082	sub-02	2.0	4.0	082_smiling	0.0		257.8892984040076	
39.0	231.00107580728582	pulse	1.0	t		20.0	male	black	3.1070433744528456	smiling	082	sub-02	2.0	4.0	082_smiling	0.0		258.5892939667556	
39.0	231.70105657919248	pulse	1.0	t		20.0	male	black	3.1070433744528456	smiling	082	sub-02	2.0	4.0	082_smiling	0.0		259.28927473866224	
40.0	232.25090397695567	fix	0.0		720													259.83912213642543	5.999869599117119
40.0	232.4010343325608	pulse	0.0	t														259.9892524920306	
40.0	233.10100967109702	pulse	0.0	t														260.6892278305668	
40.0	233.8009970837902	pulse	0.0	t														261.38921524325997	
40.0	234.5009766482808	pulse	0.0	t														262.0891948077506	
40.0	235.20095832574953	pulse	0.0	t														262.7891764852193	
40.0	235.90093336243262	pulse	0.0	t														263.4891515219024	
40.0	236.60092409551817	pulse	0.0	t														264.1891422549879	
40.0	237.300906376694	pulse	0.0	t														264.88912453616376	
40.0	238.0008965060715	pulse	0.0	t														265.5891146655413	
