trial_nr	onset	event_type	phase	response	nr_frames	trial_type	stim_name	task_probe	onset_abs	duration
0.0	0.05334650232725835	baseline	0.0		41.0		baseline	0.0	22.075718901531218	0.3497663026682858
0.0	0.40311280499554414	ISI	1.0		11.0		baseline	0.0	22.425485204199504	0.09999782663362566
1.0	0.5031106316291698	baseline	0.0		48.0		baseline	0.0	22.52548303083313	0.3999913065308647
1.0	0.7032249145140668	pulse	0.0	t			baseline	0.0	22.725597313718026	
1.0	0.9031019381600345	ISI	1.0		11.0		baseline	0.0	22.925474337363994	0.09999843034711375
2.0	1.0031003685071482	baseline	0.0		48.0		baseline	0.0	23.025472767711108	0.39997410070827755
2.0	1.4030744692154258	ISI	1.0		11.0		baseline	0.0	23.425446868419385	0.10000537304586032
2.0	1.407693779823603	pulse	1.0	t			baseline	0.0	23.430066179027563	
3.0	1.503079842261286	baseline	0.0		48.0		baseline	0.0	23.525452241465246	0.3999934195271635
3.0	1.9030732617884496	ISI	1.0		11.0		baseline	0.0	23.92544566099241	0.10002710671869863
4.0	2.0031003685071482	baseline	0.0		48.0		baseline	0.0	24.025472767711108	0.3999674598653655
4.0	2.103188450244488	pulse	0.0	t			baseline	0.0	24.125560849448448	
4.0	2.4030678283725138	ISI	1.0		11.0		baseline	0.0	24.425440227576473	0.09999390249686257
5.0	2.5030617308693763	baseline	0.0		48.0		baseline	0.0	24.525434130073336	0.39999130653268367
5.0	2.803172632960923	pulse	0.0	t			baseline	0.0	24.825545032164882	
5.0	2.90305303740206	ISI	1.0		11.0		baseline	0.0	24.92542543660602	0.10000144891091622
6.0	3.0030544863129762	baseline	0.0		48.0		baseline	0.0	25.025426885516936	0.39999191024435277
6.0	3.403046396557329	ISI	1.0		11.0		baseline	0.0	25.42541879576129	0.10000144891091622
7.0	3.503047845468245	baseline	0.0		47.0		baseline	0.0	25.525420244672205	0.3999979473755957
7.0	3.5072762518593663	pulse	0.0	t			baseline	0.0	25.529648651063326	
7.0	3.903045792843841	ISI	1.0		11.0		baseline	0.0	25.9254181920478	0.09999360064102802
8.0	4.003039393484869	baseline	0.0		48.0		baseline	0.0	26.02541179268883	0.39999251395784086
8.0	4.203150054092475	pulse	0.0	t			baseline	0.0	26.225522453296435	
8.0	4.40303190744271	ISI	1.0		11.0		baseline	0.0	26.42540430664667	0.10000054334341257
9.0	4.503032450786122	baseline	0.0		48.0		baseline	0.0	26.525404849990082	0.3999973436621076
9.0	4.90302979444823	ISI	1.0		11.0		baseline	0.0	26.92540219365219	0.09999963777227094
9.0	4.907591148599749	pulse	1.0	t			baseline	0.0	26.92996354780371	
10.0	5.003029432220501	baseline	0.0		48.0		baseline	0.0	27.02540183142446	0.3999888916787313
10.0	5.403018323899232	ISI	1.0		11.0		baseline	0.0	27.42539072310319	0.10001322131574852
11.0	5.503031545214981	baseline	0.0		48.0		baseline	0.0	27.52540394441894	0.3999608190224535
11.0	5.603130493789649	pulse	0.0	t			baseline	0.0	27.62550289299361	
11.0	5.902992364237434	ISI	1.0		6.0		baseline	0.0	27.925364763441394	0.1333593131184898
12.0	6.036351677355924	car	0.0		44.0	object	car-67.jpg	0.0	28.058724076559884	0.3666343478944327
12.0	6.303104715239897	pulse	0.0	t		object	car-67.jpg	0.0	28.325477114443856	
12.0	6.402986025250357	ISI	1.0		5.0	object	car-67.jpg	0.0	28.425358424454316	0.12503833578011836
13.0	6.528024361030475	car	0.0		45.0	object	car-12.jpg	0.0	28.550396760234435	0.374957438227284
13.0	6.902981799257759	ISI	1.0		6.0	object	car-12.jpg	0.0	28.92535419846172	0.11669170063578349
14.0	7.019673499893543	car	0.0		45.0	object	car-113.jpg	0.0	29.042045899097502	0.3832977343863604
14.0	7.011733767361875	pulse	0.0	t		object	car-113.jpg	0.0	29.034106166565834	
14.0	7.402971234279903	ISI	1.0		6.0	object	car-113.jpg	0.0	29.425343633483863	0.11666574097216653
15.0	7.5196369752520695	car	0.0		46.0	object	car-114.jpg	0.0	29.54200937445603	0.38329622510354966
15.0	7.703060100844596	pulse	0.0	t		object	car-114.jpg	0.0	29.725432500048555	
15.0	7.902933200355619	ISI	1.0		5.0	object	car-114.jpg	0.0	29.92530559955958	0.11670830274488253
16.0	8.019641503100502	car	0.0		46.0	object	car-110.jpg	0.0	30.04201390230446	0.38327901928096253
16.0	8.402920522381464	ISI	1.0		7.0	object	car-110.jpg	0.0	30.425292921585424	0.1167028693271277
16.0	8.437514187256966	pulse	1.0	t		object	car-110.jpg	0.0	30.459886586460925	
17.0	8.519623391708592	car	0.0		46.0	object	car-109.jpg	0.0	30.54199579091255	0.38329290468027466
17.0	8.902916296388867	ISI	1.0		6.0	object	car-109.jpg	0.0	30.925288695592826	0.11668838021432748
18.0	9.019604676603194	car	0.0		46.0	object	car-66.jpg	0.0	31.041977075807154	0.3833016585194855
18.0	9.103244897416516	pulse	0.0	t		object	car-66.jpg	0.0	31.125617296620476	
18.0	9.40290633512268	ISI	1.0		5.0	object	car-66.jpg	0.0	31.42527873432664	0.11670105818848242
19.0	9.519607393311162	car	0.0		46.0	object	car-134.jpg	0.0	31.54197979251512	0.38329803624219494
19.0	9.803019591696284	pulse	0.0	t		object	car-134.jpg	0.0	31.825391990900243	
19.0	9.902905429553357	ISI	1.0		5.0	object	car-134.jpg	0.0	31.925277828757316	0.11668596536219411
20.0	10.019591394915551	car	0.0		46.0	object	car-102.jpg	0.0	32.04196379411951	0.3833185624862381
20.0	10.40290995740179	ISI	1.0		7.0	object	car-102.jpg	0.0	32.42528235660575	0.11666483540466288
21.0	10.519574792806452	car	0.0		45.0	object	car-102.jpg	1.0	32.54194719201041	0.38329531953240803
21.0	10.509583945095073	pulse	0.0	t		object	car-102.jpg	1.0	32.53195634429903	
21.0	10.90287011233886	ISI	1.0		7.0	object	car-102.jpg	1.0	32.92524251154282	0.11670558603691461
22.0	11.019575698375775	car	0.0		46.0	object	car-77.jpg	0.0	33.041948097579734	0.38329531953240803
22.0	11.103005223325454	response	0.0	b		object	car-77.jpg	0.0	33.12537762252941	
22.0	11.203001842532103	pulse	0.0	t		object	car-77.jpg	0.0	33.22537424173606	
22.0	11.402871017908183	ISI	1.0		6.0	object	car-77.jpg	0.0	33.42524341711214	0.11670830274488253
23.0	11.519579320653065	car	0.0		46.0	object	car-95.jpg	0.0	33.541951719857025	0.3832971306728723
23.0	11.902876451325938	ISI	1.0		5.0	object	car-95.jpg	0.0	33.9252488505299	0.11669985076332523
23.0	11.958842766551243	pulse	1.0	t		object	car-95.jpg	0.0	33.9812151657552	
24.0	12.019576302089263	body	0.0		46.0	body	body-134.jpg	0.0	34.04194870129322	0.38329018797048775
24.0	12.40286649005975	ISI	1.0		7.0	body	body-134.jpg	0.0	34.42523888926371	0.11669109692411439
25.0	12.519557586983865	body	0.0		46.0	body	body-79.jpg	0.0	34.541929986187824	0.3833022622329736
25.0	12.603007638177587	pulse	0.0	t		body	body-79.jpg	0.0	34.62538003738155	
25.0	12.902859849216838	ISI	1.0		5.0	body	body-79.jpg	0.0	34.9252322484208	0.11669985076150624
26.0	13.019559699978345	body	0.0		46.0	body	body-136.jpg	0.0	35.041932099182304	0.38328958425881865
26.0	13.302971294649979	pulse	0.0	t		body	body-136.jpg	0.0	35.32534369385394	
26.0	13.402849284237163	ISI	1.0		5.0	body	body-136.jpg	0.0	35.42522168344112	0.11669592662838113
27.0	13.519545210865545	body	0.0		46.0	body	body-104.jpg	0.0	35.541917610069504	0.38333395717017993
27.0	13.902879168035724	ISI	1.0		5.0	body	body-104.jpg	0.0	35.925251567239684	0.11668083380027383
28.0	14.019560001835998	body	0.0		45.0	body	body-31.jpg	0.0	36.04193240103996	0.3833037715157843
28.0	14.009780151845916	pulse	0.0	t		body	body-31.jpg	0.0	36.032152551049876	
28.0	14.402863773351783	ISI	1.0		7.0	body	body-31.jpg	0.0	36.42523617255574	0.11670920831420517
29.0	14.519572981665988	body	0.0		46.0	body	body-97.jpg	0.0	36.54194538086995	0.3832950176765735
29.0	14.702985240423004	pulse	0.0	t		body	body-97.jpg	0.0	36.725357639626964	
29.0	14.902867999342561	ISI	1.0		6.0	body	body-97.jpg	0.0	36.92524039854652	0.11670166190197051
30.0	15.019569661244532	body	0.0		46.0	body	body-66.jpg	0.0	37.04194206044849	0.3832871694066853
30.0	15.402856830651217	ISI	1.0		5.0	body	body-66.jpg	0.0	37.42522922985518	0.11670045447499433
30.0	15.457346161832902	pulse	1.0	t		body	body-66.jpg	0.0	37.47971856103686	
31.0	15.519557285126211	body	0.0		46.0	body	body-87.jpg	0.0	37.54192968433017	0.38330528079859505
31.0	15.902862565924806	ISI	1.0		7.0	body	body-87.jpg	0.0	37.925234965128766	0.11668777650083939
32.0	16.019550342425646	body	0.0		46.0	body	body-87.jpg	1.0	38.041922741629605	0.38329803624219494
32.0	16.10297654695387	pulse	0.0	t		body	body-87.jpg	1.0	38.12534894615783	
32.0	16.40284837866784	ISI	1.0		5.0	body	body-87.jpg	1.0	38.4252207778718	0.1166944173455704
32.0	16.453006370380535	response	1.0	b		body	body-87.jpg	1.0	38.475378769584495	
33.0	16.51954279601341	body	0.0		46.0	body	body-33.jpg	0.0	38.54191519521737	0.38325698375228967
33.0	16.80290609363874	pulse	0.0	t		body	body-33.jpg	0.0	38.8252784928427	
33.0	16.9027997797657	ISI	1.0		5.0	body	body-33.jpg	0.0	38.92517217896966	0.11669079506646085
34.0	17.01949057483216	body	0.0		46.0	body	body-117.jpg	0.0	39.04186297403612	0.38330407337161887
34.0	17.40279464820378	ISI	1.0		5.0	body	body-117.jpg	0.0	39.42516704740774	0.11670347304061579
35.0	17.519498121244396	body	0.0		45.0	body	body-24.jpg	0.0	39.541870520448356	0.383295319534227
35.0	17.50967238906196	pulse	0.0	t		body	body-24.jpg	0.0	39.53204478826592	
35.0	17.902793440778623	ISI	1.0		7.0	body	body-24.jpg	0.0	39.92516583998258	0.11669260620510613
36.0	18.01948604698373	car	0.0		46.0	object	car-13.jpg	0.0	40.04185844618769	0.38330799750838196
36.0	18.202914002280522	pulse	0.0	t		object	car-13.jpg	0.0	40.22528640148448	
36.0	18.40279404449211	ISI	1.0		5.0	object	car-13.jpg	0.0	40.42516644369607	0.11668566350454057
37.0	18.519479707996652	car	0.0		46.0	object	car-25.jpg	0.0	40.54185210720061	0.3832944139630854
37.0	18.902774121959737	ISI	1.0		6.0	object	car-25.jpg	0.0	40.9251465211637	0.11669592662656214
37.0	18.947866357244493	pulse	1.0	t		object	car-25.jpg	0.0	40.97023875644845	
38.0	19.0194700485863	car	0.0		46.0	object	car-62.jpg	0.0	41.04184244779026	0.3832898861164722
38.0	19.40275993470277	ISI	1.0		6.0	object	car-62.jpg	0.0	41.42513233390673	0.11670981202769326
39.0	19.519469746730465	car	0.0		46.0	object	car-76.jpg	0.0	41.541842145934424	0.3832814341330959
39.0	19.602894140120043	pulse	0.0	t		object	car-76.jpg	0.0	41.625266539324	
39.0	19.90275118086356	ISI	1.0		6.0	object	car-76.jpg	0.0	41.92512358006752	0.11670860460071708
40.0	20.019459785464278	car	0.0		46.0	object	car-97.jpg	0.0	42.04183218466824	0.38328384898522927
40.0	20.30286685228748	pulse	0.0	t		object	car-97.jpg	0.0	42.32523925149144	
40.0	20.402743634449507	ISI	1.0		5.0	object	car-97.jpg	0.0	42.42511603365347	0.11669653034005023
41.0	20.519440164789557	car	0.0		46.0	object	car-78.jpg	0.0	42.54181256399352	0.3832959232458961
41.0	20.902736088035454	ISI	1.0		6.0	object	car-78.jpg	0.0	42.92510848723941	0.11671192502399208
42.0	21.019448013059446	car	0.0		45.0	object	car-17.jpg	0.0	43.041820412263405	0.3833043752292724
42.0	21.009499123409114	pulse	0.0	t		object	car-17.jpg	0.0	43.03187152261307	
42.0	21.402752388288718	ISI	1.0		7.0	object	car-17.jpg	0.0	43.42512478749268	0.11668234308308456
43.0	21.519434731371803	car	0.0		46.0	object	car-54.jpg	0.0	43.54180713057576	0.38329139539746393
43.0	21.70284789569814	pulse	0.0	t		object	car-54.jpg	0.0	43.7252202949021	
43.0	21.902726126769267	ISI	1.0		7.0	object	car-54.jpg	0.0	43.925098525973226	0.11668536164870602
44.0	22.019411488417973	car	0.0		46.0	object	car-136.jpg	0.0	44.04178388762193	0.38332429776164645
44.0	22.40273578617962	ISI	1.0		6.0	object	car-136.jpg	0.0	44.42510818538358	0.11668687093151675
44.0	22.450471982883755	pulse	1.0	t		object	car-136.jpg	0.0	44.472844382087715	
45.0	22.519422657111136	car	0.0		46.0	object	car-40.jpg	0.0	44.541795056315095	0.38332550518680364
45.0	22.90274816229794	ISI	1.0		5.0	object	car-40.jpg	0.0	44.9251205615019	0.11668505979105248
46.0	23.019433222088992	car	0.0		46.0	object	car-15.jpg	0.0	45.04180562129295	0.38330346965994977
46.0	23.102865463748458	pulse	0.0	t		object	car-15.jpg	0.0	45.12523786295242	
46.0	23.40273669174894	ISI	1.0		5.0	object	car-15.jpg	0.0	45.4251090909529	0.11669562477072759
47.0	23.51943231651967	car	0.0		46.0	object	car-130.jpg	0.0	45.54180471572363	0.38331192164332606
47.0	23.80286111701389	pulse	0.0	t		object	car-130.jpg	0.0	45.82523351621785	
47.0	23.902744238162995	ISI	1.0		6.0	object	car-130.jpg	0.0	45.925116637366955	0.11667690966532973
48.0	24.019421147828325	house	0.0		46.0	place	house-57.jpg	0.0	46.041793547032285	0.38331916619972617
48.0	24.40274031402805	ISI	1.0		7.0	place	house-57.jpg	0.0	46.42511271323201	0.1166838523640763
49.0	24.519424166392128	house	0.0		45.0	place	house-128.jpg	0.0	46.54179656559609	0.3832926028244401
49.0	24.509909044587403	pulse	0.0	t		place	house-128.jpg	0.0	46.53228144379136	
49.0	24.902716769216568	ISI	1.0		6.0	place	house-128.jpg	0.0	46.92508916842053	0.11670136004613596
50.0	25.019418129262704	house	0.0		46.0	place	house-93.jpg	0.0	47.04179052846666	0.38329139539746393
50.0	25.202840047428253	pulse	0.0	t		place	house-93.jpg	0.0	47.22521244663221	
50.0	25.402709524660168	ISI	1.0		7.0	place	house-93.jpg	0.0	47.42508192386413	0.11668656907386321
51.0	25.51939609373403	house	0.0		46.0	place	house-13.jpg	0.0	47.54176849293799	0.3832871694066853
51.0	25.902683263140716	ISI	1.0		7.0	place	house-13.jpg	0.0	47.925055662344676	0.11668807835849293
51.0	25.939107386067917	pulse	1.0	t		place	house-13.jpg	0.0	47.96147978527188	
52.0	26.01937134149921	house	0.0		46.0	place	house-13.jpg	1.0	48.04174374070317	0.38330407337161887
52.0	26.402675414870828	ISI	1.0		6.0	place	house-13.jpg	1.0	48.42504781407479	0.11666875953960698
53.0	26.519344174410435	house	0.0		46.0	place	house-29.jpg	0.0	48.541716573614394	0.38330860122005106
53.0	26.561115082202377	response	0.0	b		place	house-29.jpg	0.0	48.58348748140634	
53.0	26.602772491934957	pulse	0.0	t		place	house-29.jpg	0.0	48.625144891138916	
53.0	26.902652775630486	ISI	1.0		5.0	place	house-29.jpg	0.0	48.925025174834445	0.11671252873748017
54.0	27.019365304367966	house	0.0		46.0	place	house-4.jpg	0.0	49.041737703571926	0.38329743252870685
54.0	27.30277538975679	pulse	0.0	t		place	house-4.jpg	0.0	49.32514778896075	
54.0	27.402662736896673	ISI	1.0		7.0	place	house-4.jpg	0.0	49.42503513610063	0.11668687093151675
55.0	27.51934960782819	house	0.0		46.0	place	house-38.jpg	0.0	49.54172200703215	0.3833022622329736
55.0	27.902651870061163	ISI	1.0		6.0	place	house-38.jpg	0.0	49.92502426926512	0.11667268367455108
56.0	28.019324553735714	house	0.0		45.0	place	house-94.jpg	0.0	50.041696952939674	0.3833101105028618
56.0	28.009885499777738	pulse	0.0	t		place	house-94.jpg	0.0	50.0322578989817	
56.0	28.402634664238576	ISI	1.0		6.0	place	house-94.jpg	0.0	50.425007063442536	0.11669773776702641
57.0	28.519332402005602	house	0.0		46.0	place	house-31.jpg	0.0	50.54170480120956	0.38329290468027466
57.0	28.70276005544474	pulse	0.0	t		place	house-31.jpg	0.0	50.7251324546487	
57.0	28.902625306685877	ISI	1.0		7.0	place	house-31.jpg	0.0	50.92499770588984	0.11667872080397501
58.0	29.019304027489852	house	0.0		46.0	place	house-109.jpg	0.0	51.04167642669381	0.3833128272126487
58.0	29.4026168547025	ISI	1.0		7.0	place	house-109.jpg	0.0	51.42498925390646	0.11670256747129315
58.0	29.442614355331898	pulse	1.0	t		place	house-109.jpg	0.0	51.46498675453586	
59.0	29.519319422173794	house	0.0		46.0	place	house-52.jpg	0.0	51.54169182137775	0.3833016585213045
59.0	29.9026210806951	ISI	1.0		11.0	place	house-52.jpg	0.0	51.92499347989906	0.09999963777227094
60.0	30.00262071846737	baseline	0.0		48.0		baseline	0.0	52.02499311767133	0.39998466568795266
60.0	30.102727515310107	pulse	0.0	t			baseline	0.0	52.12509991451407	
60.0	30.402605384155322	ISI	1.0		11.0		baseline	0.0	52.42497778335928	0.10000446747653768
61.0	30.50260985163186	baseline	0.0		48.0		baseline	0.0	52.52498225083582	0.39998587311310985
61.0	30.802723470433193	pulse	0.0	t			baseline	0.0	52.82509586963715	
61.0	30.90259572474497	ISI	1.0		11.0		baseline	0.0	52.92496812394893	0.09999903405878285
62.0	31.002594758803752	baseline	0.0		48.0		baseline	0.0	53.02496715800771	0.39999311767132895
62.0	31.40258787647508	ISI	1.0		11.0		baseline	0.0	53.42496027567904	0.1000032600513805
63.0	31.502591136526462	baseline	0.0		47.0		baseline	0.0	53.52496353573042	0.4000607335347013
63.0	31.506915533296706	pulse	0.0	t			baseline	0.0	53.529287932500665	
63.0	31.902651870061163	ISI	1.0		11.0		baseline	0.0	53.92502426926512	0.09999782663362566
64.0	32.00264969669479	baseline	0.0		48.0		baseline	0.0	54.02502209589875	0.3999894953922194
64.0	32.2027727334189	pulse	0.0	t			baseline	0.0	54.225145132622856	
64.0	32.40263919208701	ISI	1.0		11.0		baseline	0.0	54.42501159129097	0.10000175076856976
65.0	32.50264094285558	baseline	0.0		48.0		baseline	0.0	54.52501334205954	0.4000024752222089
65.0	32.90264341807779	ISI	1.0		11.0		baseline	0.0	54.925015817281746	0.0999830356631719
65.0	32.907407317969046	pulse	1.0	t			baseline	0.0	54.929779717173005	
66.0	33.00262645374096	baseline	0.0		48.0		baseline	0.0	55.02499885294492	0.4000027770798624
66.0	33.40262923082082	ISI	1.0		11.0		baseline	0.0	55.42500163002478	0.10000356190721504
67.0	33.502632792728036	baseline	0.0		48.0		baseline	0.0	55.525005191931996	0.3999955325234623
67.0	33.60275377682956	pulse	0.0	t			baseline	0.0	55.62512617603352	
67.0	33.9026283252515	ISI	1.0		11.0		baseline	0.0	55.92500072445546	0.10001684359485807
68.0	34.00264516884636	baseline	0.0		48.0		baseline	0.0	56.025017568050316	0.39997017657333345
68.0	34.302727998279806	pulse	0.0	t			baseline	0.0	56.325100397483766	
68.0	34.40261534541969	ISI	1.0		11.0		baseline	0.0	56.42498774462365	0.10001201389059133
69.0	34.50262735931028	baseline	0.0		48.0		baseline	0.0	56.52499975851424	0.39998345826279547
69.0	34.90261081757308	ISI	1.0		11.0		baseline	0.0	56.924983216777036	0.0999993359146174
70.0	35.002610153487694	baseline	0.0		47.0		baseline	0.0	57.024982552691654	0.39999372138481704
70.0	35.006842785869594	pulse	0.0	t			baseline	0.0	57.029215185073554	
70.0	35.40260387487251	ISI	1.0		11.0		baseline	0.0	57.42497627407647	0.09999390249686257
71.0	35.502597777369374	baseline	0.0		48.0		baseline	0.0	57.52497017657333	0.3999982492332492
71.0	35.702741340339344	pulse	0.0	t			baseline	0.0	57.7251137395433	
71.0	35.90259602660262	ISI	1.0		6.0		baseline	0.0	57.92496842580658	0.11666211869487597
72.0	36.0192581452975	word	0.0		46.0	character	word-105.jpg	0.0	58.04163054450146	0.38329411210725084
72.0	36.40255225740475	ISI	1.0		7.0	character	word-105.jpg	0.0	58.42492465660871	0.11671373616263736
72.0	36.43777740615951	pulse	1.0	t		character	word-105.jpg	0.0	58.46014980536347	
73.0	36.51926599356739	word	0.0		46.0	character	word-108.jpg	0.0	58.54163839277135	0.3832910935416294
73.0	36.90255708710902	ISI	1.0		5.0	character	word-108.jpg	0.0	58.924929486312976	0.11666966510711063
74.0	37.01922675221613	word	0.0		46.0	character	word-87.jpg	0.0	59.04159915142009	0.3832989418115176
74.0	37.10265718273695	pulse	0.0	t		character	word-87.jpg	0.0	59.12502958194091	
74.0	37.402525694027645	ISI	1.0		6.0	character	word-87.jpg	0.0	59.424898093231604	0.11671192502399208
75.0	37.51923761905164	word	0.0		46.0	character	word-97.jpg	0.0	59.5416100182556	0.38330256409062713
75.0	37.802656156423836	pulse	0.0	t		character	word-97.jpg	0.0	59.825028555627796	
75.0	37.902540183142264	ISI	1.0		6.0	character	word-97.jpg	0.0	59.924912582346224	0.11668928578365012
76.0	38.019229468925914	word	0.0		46.0	character	word-110.jpg	0.0	60.041601868129874	0.38329169725511747
76.0	38.40252116618103	ISI	1.0		5.0	character	word-110.jpg	0.0	60.42489356538499	0.11669139877812995
77.0	38.51921256495916	word	0.0		45.0	character	word-62.jpg	0.0	60.54158496416312	0.3833010548078164
77.0	38.50959179336678	pulse	0.0	t		character	word-62.jpg	0.0	60.53196419257074	
77.0	38.90251361976698	ISI	1.0		5.0	character	word-62.jpg	0.0	60.92488601897094	0.11669260620510613
78.0	39.019206225972084	word	0.0		46.0	character	word-90.jpg	0.0	61.041578625176044	0.38330407337343786
78.0	39.202634784982365	pulse	0.0	t		character	word-90.jpg	0.0	61.225007184186325	
78.0	39.40251029934552	ISI	1.0		6.0	character	word-90.jpg	0.0	61.42488269854948	0.11667992823095119
79.0	39.51919022757647	word	0.0		46.0	character	word-37.jpg	0.0	61.54156262678043	0.3833206754825369
79.0	39.90251090305901	ISI	1.0		6.0	character	word-37.jpg	0.0	61.92488330226297	0.11667811709048692
79.0	39.94815432838186	pulse	1.0	t		character	word-37.jpg	0.0	61.97052672758582	
80.0	40.0191890201495	word	0.0		46.0	character	word-56.jpg	0.0	62.04156141935346	0.38327660442701017
80.0	40.40246562457651	ISI	1.0		7.0	character	word-56.jpg	0.0	62.42483802378047	0.1166747966708499
81.0	40.51914042124736	word	0.0		46.0	character	word-138.jpg	0.0	62.54151282045132	0.3832989418115176
81.0	40.60257326661849	pulse	0.0	t		character	word-138.jpg	0.0	62.62494566582245	
81.0	40.902439363058875	ISI	1.0		6.0	character	word-138.jpg	0.0	62.924811762262834	0.1166910969222954
82.0	41.01913045998117	word	0.0		46.0	character	word-52.jpg	0.0	63.04150285918513	0.3833342590260145
82.0	41.30257374959001	pulse	0.0	t		character	word-52.jpg	0.0	63.32494614879397	
82.0	41.402464719007185	ISI	1.0		6.0	character	word-52.jpg	0.0	63.424837118211144	0.11667207996106299
83.0	41.51913679896825	word	0.0		46.0	character	word-125.jpg	0.0	63.54150919817221	0.3833155439206166
83.0	41.902452342888864	ISI	1.0		11.0	character	word-125.jpg	0.0	63.924824742092824	0.09999178950238274
84.0	42.00244413239125	baseline	0.0		47.0		baseline	0.0	64.0248165315952	0.3999982492332492
84.0	42.00680052595453	pulse	0.0	t			baseline	0.0	64.02917292515849	
84.0	42.402442381624496	ISI	1.0		11.0		baseline	0.0	64.42481478082846	0.09999692106248403
85.0	42.50243930268698	baseline	0.0		48.0		baseline	0.0	64.52481170189094	0.3999725914272858
85.0	42.702550567008075	pulse	0.0	t			baseline	0.0	64.72492296621203	
85.0	42.902411894114266	ISI	1.0		11.0		baseline	0.0	64.92478429331823	0.10000839161148178
86.0	43.00242028572575	baseline	0.0		48.0		baseline	0.0	65.02479268492971	0.40000368264918507
86.0	43.40242396837493	ISI	1.0		11.0		baseline	0.0	65.42479636757889	0.10000507119002577
86.0	43.407143797210665	pulse	1.0	t			baseline	0.0	65.42951619641462	
87.0	43.50242903956496	baseline	0.0		48.0		baseline	0.0	65.52480143876892	0.3999928158136754
87.0	43.902421855378634	ISI	1.0		11.0		baseline	0.0	65.9247942545826	0.09999812848946021
88.0	44.002419983868094	baseline	0.0		48.0		baseline	0.0	66.02479238307205	0.39999372138481704
88.0	44.10251953615443	pulse	0.0	t			baseline	0.0	66.12489193535839	
88.0	44.40241370525291	ISI	1.0		11.0		baseline	0.0	66.42478610445687	0.09998907279259583
89.0	44.50240277804551	baseline	0.0		48.0		baseline	0.0	66.52477517724947	0.39999130653268367
89.0	44.80251368013887	pulse	0.0	t			baseline	0.0	66.82488607934283	
89.0	44.90239408457819	ISI	1.0		11.0		baseline	0.0	66.92476648378215	0.10000114705508167
90.0	45.00239523163327	baseline	0.0		48.0		baseline	0.0	67.02476763083723	0.3999922121001873
90.0	45.40238744373346	ISI	1.0		11.0		baseline	0.0	67.42475984293742	0.10002197515677835
91.0	45.50240941889024	baseline	0.0		47.0		baseline	0.0	67.5247818180942	0.399967158007712
91.0	45.50676339760139	pulse	0.0	t			baseline	0.0	67.52913579680535	
91.0	45.90237657689795	ISI	1.0		11.0		baseline	0.0	67.92474897610191	0.10001141017710324
92.0	46.00238798707505	baseline	0.0		48.0		baseline	0.0	68.02476038627901	0.40007552450697403
92.0	46.2025659616902	pulse	0.0	t			baseline	0.0	68.22493836089416	
92.0	46.40246351158203	ISI	1.0		11.0		baseline	0.0	68.42483591078599	0.0999920913582173
93.0	46.502455602940245	baseline	0.0		48.0		baseline	0.0	68.5248280021442	0.3999599134513119
93.0	46.90241551639156	ISI	1.0		11.0		baseline	0.0	68.92478791559552	0.1000183528776688
93.0	46.90706169223267	pulse	1.0	t			baseline	0.0	68.92943409143663	
94.0	47.002433869269225	baseline	0.0		48.0		baseline	0.0	69.02480626847318	0.3999861749707634
94.0	47.40242004423999	ISI	1.0		11.0		baseline	0.0	69.42479244344395	0.1000183528776688
95.0	47.50243839711766	baseline	0.0		48.0		baseline	0.0	69.52481079632162	0.3999940232406516
95.0	47.60255545708242	pulse	0.0	t			baseline	0.0	69.62492785628638	
95.0	47.90243242035831	ISI	1.0		5.0		baseline	0.0	69.92480481956227	0.11662951818834699
96.0	48.019061938546656	adult	0.0		46.0	face	adult-140.jpg	0.0	70.04143433775062	0.38331524206478207
96.0	48.302505228155496	pulse	0.0	t		face	adult-140.jpg	0.0	70.32487762735946	
96.0	48.40237718061144	ISI	1.0		6.0	face	adult-140.jpg	0.0	70.4247495798154	0.11669713405353832
97.0	48.51907431466498	adult	0.0		46.0	face	adult-96.jpg	0.0	70.54144671386894	0.3833067900814058
97.0	48.90238110474638	ISI	1.0		6.0	face	adult-96.jpg	0.0	70.92475350395034	0.1166832486524072
98.0	49.01906435339879	adult	0.0		45.0	face	adult-118.jpg	0.0	71.04143675260275	0.38328233970241854
98.0	49.00937536222773	pulse	0.0	t		face	adult-118.jpg	0.0	71.03174776143169	
98.0	49.40234669310121	ISI	1.0		7.0	face	adult-118.jpg	0.0	71.42471909230517	0.11670347304061579
99.0	49.519050166141824	adult	0.0		46.0	face	adult-94.jpg	0.0	71.54142256534578	0.3833028659464617
99.0	49.70247057502456	pulse	0.0	t		face	adult-94.jpg	0.0	71.72484297422852	
99.0	49.902353032088286	ISI	1.0		7.0	face	adult-94.jpg	0.0	71.92472543129225	0.11669985076150624
100.0	50.01905288284979	adult	0.0		46.0	face	adult-117.jpg	0.0	72.04142528205375	0.38329562139006157
100.0	50.40234850423985	ISI	1.0		7.0	face	adult-117.jpg	0.0	72.42472090344381	0.11670166190197051
100.0	50.43743328970413	pulse	1.0	t		face	adult-117.jpg	0.0	72.45980568890809	
101.0	50.519050166141824	adult	0.0		46.0	face	adult-117.jpg	1.0	72.54142256534578	0.3832910935416294
101.0	50.90234125968345	ISI	1.0		6.0	face	adult-117.jpg	1.0	72.92471365888741	0.11670166190197051
102.0	51.019042921585424	adult	0.0		45.0	face	adult-58.jpg	0.0	73.04141532078938	0.3832926028244401
102.0	51.02354903599007	response	0.0	b		face	adult-58.jpg	0.0	73.04592143519403	
102.0	51.10244678872914	pulse	0.0	t		face	adult-58.jpg	0.0	73.1248191879331	
102.0	51.402335524409864	ISI	1.0		7.0	face	adult-58.jpg	0.0	73.42470792361382	0.11667449481319636
103.0	51.51901001922306	adult	0.0		46.0	face	adult-101.jpg	0.0	73.54138241842702	0.38331252535499516
103.0	51.802458440392	pulse	0.0	t		face	adult-101.jpg	0.0	73.82483083959596	
103.0	51.902322544578055	ISI	1.0		5.0	face	adult-101.jpg	0.0	73.92469494378201	0.11668143751376192
104.0	52.01900398209182	adult	0.0		46.0	face	adult-73.jpg	0.0	74.04137638129578	0.3833128272126487
104.0	52.402316809304466	ISI	1.0		6.0	face	adult-73.jpg	0.0	74.42468920850843	0.1166989451921836
105.0	52.51901575449665	adult	0.0		45.0	face	adult-79.jpg	0.0	74.54138815370061	0.38330014923849376
105.0	52.5105963719252	pulse	0.0	t		face	adult-79.jpg	0.0	74.53296877112916	
105.0	52.90231590373514	ISI	1.0		6.0	face	adult-79.jpg	0.0	74.9246883029391	0.11668143751194293
106.0	53.018997341247086	adult	0.0		46.0	face	adult-20.jpg	0.0	75.04136974045105	0.3832684543012874
106.0	53.202392997895004	pulse	0.0	t		face	adult-20.jpg	0.0	75.22476539709896	
106.0	53.402265795548374	ISI	1.0		7.0	face	adult-20.jpg	0.0	75.42463819475233	0.11668053194443928
107.0	53.51894632749281	adult	0.0		46.0	face	adult-1.jpg	0.0	75.54131872669677	0.3833336553125264
107.0	53.90227998280534	ISI	1.0		8.0	face	adult-1.jpg	0.0	75.9246523820093	0.11667117439174035
107.0	53.93345874466286	pulse	1.0	t		face	adult-1.jpg	0.0	75.95583114386682	
108.0	54.01895115719708	house	0.0		46.0	place	house-72.jpg	0.0	76.04132355640104	0.3833107142163499
108.0	54.40226187141343	ISI	1.0		8.0	place	house-72.jpg	0.0	76.42463427061739	0.11669019135297276
109.0	54.5189520627664	house	0.0		46.0	place	house-135.jpg	0.0	76.54132446197036	0.38330256409062713
109.0	54.6023909452706	pulse	0.0	t		place	house-135.jpg	0.0	76.62476334447456	
109.0	54.90225462685703	ISI	1.0		8.0	place	house-135.jpg	0.0	76.92462702606099	0.11668053194443928
110.0	55.01893515880147	house	0.0		46.0	place	house-55.jpg	0.0	77.04130755800543	0.38329682881521876
110.0	55.302383881826245	pulse	0.0	t		place	house-55.jpg	0.0	77.3247562810302	
110.0	55.40223198761669	ISI	1.0		6.0	place	house-55.jpg	0.0	77.42460438682065	0.11670981202769326
111.0	55.51894179964438	house	0.0		46.0	place	house-1.jpg	0.0	77.54131419884834	0.3832926028244401
111.0	55.90223440246882	ISI	1.0		6.0	place	house-1.jpg	0.0	77.92460680167278	0.11668294679657265
112.0	56.018917349265394	house	0.0		45.0	place	house-66.jpg	0.0	78.04128974846935	0.3833028659464617
112.0	56.011060325425206	pulse	0.0	t		place	house-66.jpg	0.0	78.03343272462917	
112.0	56.402220215211855	ISI	1.0		7.0	place	house-66.jpg	0.0	78.42459261441581	0.11669260620510613
113.0	56.51891282141696	house	0.0		46.0	place	house-97.jpg	0.0	78.54128522062092	0.3833101105028618
113.0	56.70235979367499	pulse	0.0	t		place	house-97.jpg	0.0	78.72473219287895	
113.0	56.90222293191982	ISI	1.0		7.0	place	house-97.jpg	0.0	78.92459533112378	0.1166944173455704
114.0	57.018917349265394	house	0.0		46.0	place	house-28.jpg	0.0	79.04128974846935	0.3833016585194855
114.0	57.40221900778488	ISI	1.0		7.0	place	house-28.jpg	0.0	79.42459140698884	0.11667419295736181
114.0	57.43816529181095	pulse	1.0	t		place	house-28.jpg	0.0	79.4605376910149	
115.0	57.51889320074224	house	0.0		46.0	place	house-34.jpg	0.0	79.5412655999462	0.38330709193724033
115.0	57.90220029267948	ISI	1.0		6.0	place	house-34.jpg	0.0	79.92457269188344	0.11667177810522844
116.0	58.01887207078471	house	0.0		46.0	place	house-16.jpg	0.0	80.04124446998867	0.383331240460393
116.0	58.10233087581946	pulse	0.0	t		place	house-16.jpg	0.0	80.12470327502342	
116.0	58.4022033112451	ISI	1.0		7.0	place	house-16.jpg	0.0	80.42457571044906	0.11668807835667394
117.0	58.51889138960178	house	0.0		46.0	place	house-45.jpg	0.0	80.54126378880574	0.38330014923849376
117.0	58.802325925371406	pulse	0.0	t		place	house-45.jpg	0.0	80.82469832457537	
117.0	58.90219153884027	ISI	1.0		7.0	place	house-45.jpg	0.0	80.92456393804423	0.11668898392781557
118.0	59.018880522768086	house	0.0		46.0	place	house-95.jpg	0.0	81.04125292197205	0.3833318441738811
118.0	59.40221236694197	ISI	1.0		7.0	place	house-95.jpg	0.0	81.42458476614593	0.11674814780781162
119.0	59.51896051474978	house	0.0		45.0	place	house-32.jpg	0.0	81.54133291395374	0.3832434002088121
119.0	59.511429797828896	pulse	0.0	t		place	house-32.jpg	0.0	81.53380219703286	
119.0	59.90220391495859	ISI	1.0		6.0	place	house-32.jpg	0.0	81.92457631416255	0.11666604282982007
120.0	60.01886995778841	house	0.0		46.0	place	house-110.jpg	0.0	82.04124235699237	0.3832938102514163
120.0	60.20228734810553	pulse	0.0	t		place	house-110.jpg	0.0	82.22465974730949	
120.0	60.40216376803983	ISI	1.0		6.0	place	house-110.jpg	0.0	82.42453616724379	0.11669320991677523
121.0	60.5188569779566	house	0.0		46.0	place	house-123.jpg	0.0	82.54122937716056	0.38330075295198185
121.0	60.902157730908584	ISI	1.0		8.0	place	house-123.jpg	0.0	82.92453013011254	0.11666513726049743
121.0	60.933592768966264	pulse	1.0	t		place	house-123.jpg	0.0	82.95596516817022	
122.0	61.01882286816908	house	0.0		46.0	place	house-41.jpg	0.0	83.04119526737304	0.38333667387814785
122.0	61.40215954204723	ISI	1.0		7.0	place	house-41.jpg	0.0	83.42453194125119	0.11669622848421568
123.0	61.518855770531445	house	0.0		46.0	place	house-14.jpg	0.0	83.5412281697354	0.38329562139006157
123.0	61.60227623978608	pulse	0.0	t		place	house-14.jpg	0.0	83.62464863899004	
123.0	61.90215139192151	ISI	1.0		5.0	place	house-14.jpg	0.0	83.92452379112547	0.11669592662656214
124.0	62.01884731854807	house	0.0		46.0	place	house-101.jpg	0.0	84.04121971775203	0.3832983380980295
124.0	62.3022776283251	pulse	0.0	t		place	house-101.jpg	0.0	84.32465002752906	
124.0	62.4021456566461	ISI	1.0		6.0	place	house-101.jpg	0.0	84.42451805585006	0.10832453924740548
125.0	62.510470195893504	house	0.0		47.0	place	house-143.jpg	0.0	84.53284259509746	0.3916682161961944
125.0	62.9021384120897	ISI	1.0		5.0	place	house-143.jpg	0.0	84.92451081129366	0.10834083949885098
126.0	63.01047925158855	house	0.0		46.0	place	house-86.jpg	0.0	85.03285165079251	0.3916353138338309
126.0	63.00616994764641	pulse	0.0	t		place	house-86.jpg	0.0	85.02854234685037	
126.0	63.40211456542238	ISI	1.0		6.0	place	house-86.jpg	0.0	85.42448696462634	0.11669683219770377
127.0	63.518811397620084	house	0.0		46.0	place	house-107.jpg	0.0	85.54118379682404	0.38330407337343786
127.0	63.70223935291688	pulse	0.0	t		place	house-107.jpg	0.0	85.72461175212084	
127.0	63.90211547099352	ISI	1.0		7.0	place	house-107.jpg	0.0	85.92448787019748	0.10835442304232856
128.0	64.01046989403585	house	0.0		47.0	place	house-121.jpg	0.0	86.03284229323981	0.391655840079693
128.0	64.40212573411554	ISI	1.0		4.0	place	house-121.jpg	0.0	86.4244981333195	0.10833359494245087
128.0	64.46243908535143	pulse	1.0	t		place	house-121.jpg	0.0	86.4848114845554	
129.0	64.510459329058	house	0.0		47.0	place	house-40.jpg	0.0	86.53283172826195	0.39163893611294043
129.0	64.90209826517093	ISI	1.0		5.0	place	house-40.jpg	0.0	86.9244706643749	0.10835170633436064
130.0	65.0104499715053	house	0.0		47.0	place	house-35.jpg	0.0	87.03282237070925	0.3916446713865298
130.0	65.10222220746437	pulse	0.0	t		place	house-35.jpg	0.0	87.12459460666832	
130.0	65.40209464289183	ISI	1.0		6.0	place	house-35.jpg	0.0	87.42446704209578	0.10836468616616912
131.0	65.510459329058	house	0.0		47.0	place	house-131.jpg	0.0	87.53283172826195	0.3916244469983212
131.0	65.80220427718632	pulse	0.0	t		place	house-131.jpg	0.0	87.82457667639028	
131.0	65.90208377605632	ISI	1.0		5.0	place	house-131.jpg	0.0	87.92445617526027	0.11669471920140495
132.0	66.01877849525772	adult	0.0		46.0	face	adult-15.jpg	0.0	88.04115089446168	0.38332761818310246
132.0	66.40210611344082	ISI	1.0		5.0	face	adult-15.jpg	0.0	88.42447851264478	0.11670468046577298
133.0	66.5188107939066	adult	0.0		45.0	face	adult-123.jpg	0.0	88.54118319311056	0.38329230096860556
133.0	66.50950093454776	pulse	0.0	t		face	adult-123.jpg	0.0	88.53187333375172	
133.0	66.9021030948752	ISI	1.0		6.0	face	adult-123.jpg	0.0	88.92447549407916	0.11667992823095119
134.0	67.01878302310615	adult	0.0		46.0	face	adult-18.jpg	0.0	89.04115542231011	0.3832747932883649
134.0	67.20220433755821	pulse	0.0	t		face	adult-18.jpg	0.0	89.22457673676217	
134.0	67.40205781639452	ISI	1.0		6.0	face	adult-18.jpg	0.0	89.42443021559848	0.11669411548791686
135.0	67.51875193188243	adult	0.0		46.0	face	adult-114.jpg	0.0	89.5411243310864	0.38330709193724033
135.0	67.90205902381967	ISI	1.0		7.0	face	adult-114.jpg	0.0	89.92443142302363	0.11669864333634905
135.0	67.93533810347071	pulse	1.0	t		face	adult-114.jpg	0.0	89.95771050267467	
136.0	68.01875766715602	adult	0.0		46.0	face	adult-87.jpg	0.0	90.04113006635998	0.38328535826804
136.0	68.40204302542406	ISI	1.0		6.0	face	adult-87.jpg	0.0	90.42441542462802	0.116672079959244
137.0	68.51871510538331	adult	0.0		46.0	face	adult-62.jpg	0.0	90.54108750458727	0.3833306367487239
137.0	68.60217179742358	pulse	0.0	t		face	adult-62.jpg	0.0	90.62454419662754	
137.0	68.90204574213203	ISI	1.0		6.0	face	adult-62.jpg	0.0	90.92441814133599	0.11667992823095119
138.0	69.01872567036298	adult	0.0		46.0	face	adult-48.jpg	0.0	91.04109806956694	0.38331795877275
138.0	69.30219280663732	pulse	0.0	t		face	adult-48.jpg	0.0	91.32456520584128	
138.0	69.40204362913573	ISI	1.0		8.0	face	adult-48.jpg	0.0	91.42441602833969	0.11669019135297276
139.0	69.5187338204887	adult	0.0		46.0	face	adult-53.jpg	0.0	91.54110621969267	0.38329501767839247
139.0	69.9020288381671	ISI	1.0		8.0	face	adult-53.jpg	0.0	91.92440123737106	0.11667781523465237
140.0	70.01870665340175	adult	0.0		45.0	face	adult-53.jpg	1.0	92.04107905260571	0.3833076956507284
140.0	70.01094833665047	pulse	0.0	t		face	adult-53.jpg	1.0	92.03332073585443	
140.0	70.40201434905248	ISI	1.0		7.0	face	adult-53.jpg	1.0	92.42438674825644	0.11670045447499433
141.0	70.51871480352747	adult	0.0		45.0	face	adult-56.jpg	0.0	92.54108720273143	0.3832950176765735
141.0	70.5108469128536	response	0.0	b		face	adult-56.jpg	0.0	92.53321931205755	
141.0	70.70211528987966	pulse	0.0	t		face	adult-56.jpg	0.0	92.72448768908362	
141.0	70.90200982120405	ISI	1.0		8.0	face	adult-56.jpg	0.0	92.924382220408	0.11668898392781557
142.0	71.01869880513186	adult	0.0		46.0	face	adult-63.jpg	0.0	93.04107120433582	0.3833055826544296
142.0	71.40200438778629	ISI	1.0		6.0	face	adult-63.jpg	0.0	93.42437678699025	0.11670256747129315
142.0	71.44939918474665	pulse	1.0	t		face	adult-63.jpg	0.0	93.47177158395061	
143.0	71.51870695525758	adult	0.0		46.0	face	adult-11.jpg	0.0	93.54107935446154	0.38328777312017337
143.0	71.90199472837776	ISI	1.0		6.0	face	adult-11.jpg	0.0	93.92436712758172	0.11669562477072759
144.0	72.01869035314849	car	0.0		46.0	object	car-55.jpg	0.0	94.04106275235245	0.38331252535499516
144.0	72.10211474653624	pulse	0.0	t		object	car-55.jpg	0.0	94.1244871457402	
144.0	72.40200287850348	ISI	1.0		7.0	object	car-55.jpg	0.0	94.42437527770744	0.11668596536219411
145.0	72.51868884386568	car	0.0		46.0	object	car-60.jpg	0.0	94.54106124306963	0.38329079168397584
145.0	72.80210889052069	pulse	0.0	t		object	car-60.jpg	0.0	94.82448128972464	
145.0	72.90197963554965	ISI	1.0		8.0	object	car-60.jpg	0.0	94.92435203475361	0.11668777650083939
146.0	73.01866741205049	car	0.0		46.0	object	car-47.jpg	0.0	95.04103981125445	0.3833436165805324
146.0	73.40201102863102	ISI	1.0		6.0	object	car-47.jpg	0.0	95.42438342783498	0.11683085649929126
147.0	73.51884188513031	car	0.0		45.0	object	car-74.jpg	0.0	95.54121428433427	0.38315857852103363
147.0	73.51139991403215	pulse	0.0	t		object	car-74.jpg	0.0	95.53377231323611	
147.0	73.90200046365135	ISI	1.0		6.0	object	car-74.jpg	0.0	95.92437286285531	0.11670136004431697
148.0	74.01870182369566	car	0.0		46.0	object	car-52.jpg	0.0	96.04107422289962	0.38326030417556467
148.0	74.20208057637683	pulse	0.0	t		object	car-52.jpg	0.0	96.22445297558079	
148.0	74.40196212787123	ISI	1.0		5.0	object	car-52.jpg	0.0	96.42433452707519	0.11671192502399208
149.0	74.51867405289522	car	0.0		46.0	object	car-117.jpg	0.0	96.54104645209918	0.38328354712757573
149.0	74.9019576000228	ISI	1.0		5.0	object	car-117.jpg	0.0	96.92432999922676	0.11666242055252951
149.0	74.95486218437873	pulse	1.0	t		object	car-117.jpg	0.0	96.97723458358269	
150.0	75.01862002057533	car	0.0		46.0	object	car-30.jpg	0.0	97.04099241977929	0.38332097733837145
150.0	75.4019409979137	ISI	1.0		7.0	object	car-30.jpg	0.0	97.42431339711766	0.11669290806094068
151.0	75.51863390597464	car	0.0		46.0	object	car-88.jpg	0.0	97.5410063051786	0.38329411210725084
151.0	75.60206071421635	pulse	0.0	t		object	car-88.jpg	0.0	97.62443311342031	
151.0	75.90192801808189	ISI	1.0		7.0	object	car-88.jpg	0.0	97.92430041728585	0.11670045447499433
152.0	76.01862847255688	car	0.0		46.0	object	car-83.jpg	0.0	98.04100087176084	0.3833031678041152
152.0	76.09373219046392	response	0.0	b		object	car-83.jpg	0.0	98.11610458966788	
152.0	76.3020225595501	pulse	0.0	t		object	car-83.jpg	0.0	98.32439495875406	
152.0	76.401931640361	ISI	1.0		5.0	object	car-83.jpg	0.0	98.42430403956496	0.11668747464318585
153.0	76.51861911500419	car	0.0		46.0	object	car-16.jpg	0.0	98.54099151420814	0.3833055826562486
153.0	76.90192469766043	ISI	1.0		5.0	object	car-16.jpg	0.0	98.9242970968644	0.10835019705154991
154.0	77.01027489471198	car	0.0		46.0	object	car-27.jpg	0.0	99.03264729391594	0.39164497324418335
154.0	77.0056115130501	pulse	0.0	t		object	car-27.jpg	0.0	99.02798391225406	
154.0	77.40191986795617	ISI	1.0		5.0	object	car-27.jpg	0.0	99.42429226716013	0.10834748034358199
155.0	77.51026734829975	car	0.0		47.0	object	car-31.jpg	0.0	99.53263974750371	0.3916507085177727
155.0	77.70203167561704	pulse	0.0	t		object	car-31.jpg	0.0	99.724404074821	
155.0	77.90191805681752	ISI	1.0		5.0	object	car-31.jpg	0.0	99.92429045602148	0.10837796785199316
156.0	78.01029602466951	car	0.0		47.0	object	car-59.jpg	0.0	100.03266842387347	0.3916093541720329
156.0	78.40190537884155	ISI	1.0		6.0	object	car-59.jpg	0.0	100.42427777804551	0.10836468616616912
156.0	78.44706040028541	pulse	1.0	t		object	car-59.jpg	0.0	100.46943279948937	
157.0	78.51027006500772	car	0.0		47.0	object	car-85.jpg	0.0	100.53264246421168	0.39162716370810813
157.0	78.90189722871582	ISI	1.0		6.0	object	car-85.jpg	0.0	100.92426962791978	0.10835291376133682
158.0	79.01025014247716	car	0.0		47.0	object	car-68.jpg	0.0	101.03262254168112	0.3916419546767429
158.0	79.10214342290783	pulse	0.0	t		object	car-68.jpg	0.0	101.12451582211179	
158.0	79.4018920971539	ISI	1.0		6.0	object	car-68.jpg	0.0	101.42426449635786	0.10832363367626385
159.0	79.51021573083017	car	0.0		47.0	object	car-126.jpg	0.0	101.53258813003413	0.3916507085177727
159.0	79.80198573305279	pulse	0.0	t		object	car-126.jpg	0.0	101.82435813225675	
159.0	79.90186643934794	ISI	1.0		5.0	object	car-126.jpg	0.0	101.9242388385519	0.10837162886673468
160.0	80.01023806821468	car	0.0		47.0	object	car-105.jpg	0.0	102.03261046741864	0.39166459391890385
160.0	80.40190266213358	ISI	1.0		5.0	object	car-105.jpg	0.0	102.42427506133754	0.11666634468565462
161.0	80.51856900681923	car	0.0		45.0	object	car-53.jpg	0.0	102.5409414060232	0.383324599617481
161.0	80.50830316780412	pulse	0.0	t		object	car-53.jpg	0.0	102.53067556700807	
161.0	80.90189360643672	ISI	1.0		7.0	object	car-53.jpg	0.0	102.92426600564067	0.11670830274488253
162.0	81.0186019091816	car	0.0		46.0	object	car-20.jpg	0.0	103.04097430838556	0.3832714728669089
162.0	81.20198639713635	pulse	0.0	t		object	car-20.jpg	0.0	103.22435879634031	
162.0	81.4018733820485	ISI	1.0		6.0	object	car-20.jpg	0.0	103.42424578125247	0.11669079506646085
163.0	81.51856417711497	car	0.0		46.0	object	car-107.jpg	0.0	103.54093657631893	0.38328777312017337
163.0	81.90185195023514	ISI	1.0		5.0	object	car-107.jpg	0.0	103.9242243494391	0.11669441734375141
163.0	81.95097578144669	pulse	1.0	t		object	car-107.jpg	0.0	103.97334818065065	
164.0	82.01854636757889	car	0.0		46.0	object	car-122.jpg	0.0	104.04091876678285	0.38330075295198185
164.0	82.40184712053087	ISI	1.0		7.0	object	car-122.jpg	0.0	104.42421951973483	0.11669653034005023
165.0	82.51854365087092	car	0.0		46.0	object	car-131.jpg	0.0	104.54091605007488	0.3833089030777046
165.0	82.60199430577813	pulse	0.0	t		object	car-131.jpg	0.0	104.6243667049821	
165.0	82.90185255394863	ISI	1.0		6.0	object	car-131.jpg	0.0	104.92422495315259	0.11668204122543102
166.0	83.01853459517406	car	0.0		46.0	object	car-125.jpg	0.0	105.04090699437802	0.3832871694066853
166.0	83.30197245136515	pulse	0.0	t		object	car-125.jpg	0.0	105.3243448505691	
166.0	83.40182176458075	ISI	1.0		6.0	object	car-125.jpg	0.0	105.4241941637847	0.1167067934620718
167.0	83.51852855804282	car	0.0		46.0	object	car-36.jpg	0.0	105.54090095724678	0.3832859619815281
167.0	83.90181452002435	ISI	1.0		6.0	object	car-36.jpg	0.0	105.9241869192283	0.11671796215341601
168.0	84.01853248217776	word	0.0		45.0	character	word-120.jpg	0.0	106.04090488138172	0.3832847545545519
168.0	84.01054777302306	pulse	0.0	t		character	word-120.jpg	0.0	106.03292017222702	
168.0	84.40181723673231	ISI	1.0		6.0	character	word-120.jpg	0.0	106.42418963593627	0.11669622848421568
169.0	84.51851346521653	word	0.0		46.0	character	word-123.jpg	0.0	106.54088586442049	0.3832971306728723
169.0	84.70192753511219	pulse	0.0	t		character	word-123.jpg	0.0	106.72429993431615	
169.0	84.9018105958894	ISI	1.0		7.0	character	word-123.jpg	0.0	106.92418299509336	0.11669985076150624
170.0	85.01851044665091	word	0.0		46.0	character	word-46.jpg	0.0	107.04088284585487	0.3832826415582531
170.0	85.40179308820916	ISI	1.0		7.0	character	word-46.jpg	0.0	107.42416548741312	0.11668626721802866
170.0	85.43959367695061	pulse	1.0	t		character	word-46.jpg	0.0	107.46196607615457	
171.0	85.51847935542719	word	0.0		46.0	character	word-118.jpg	0.0	107.54085175463115	0.38331524206478207
171.0	85.90179459749197	ISI	1.0		7.0	character	word-118.jpg	0.0	107.92416699669593	0.11669803962286096
172.0	86.01849263711483	word	0.0		46.0	character	word-55.jpg	0.0	108.04086503631879	0.383295319534227
172.0	86.10191944535654	pulse	0.0	t		character	word-55.jpg	0.0	108.1242918445605	
172.0	86.40178795664906	ISI	1.0		6.0	character	word-55.jpg	0.0	108.42416035585302	0.11669803962286096
173.0	86.51848599627192	word	0.0		46.0	character	word-96.jpg	0.0	108.54085839547588	0.3833016585194855
173.0	86.80189608166074	pulse	0.0	t		character	word-96.jpg	0.0	108.8242684808647	
173.0	86.9017876547914	ISI	1.0		6.0	character	word-96.jpg	0.0	108.92416005399537	0.11667509852668445
174.0	87.01846275331809	word	0.0		46.0	character	word-27.jpg	0.0	109.04083515252205	0.3833493518541218
174.0	87.40181210517221	ISI	1.0		6.0	character	word-27.jpg	0.0	109.42418450437617	0.11669653034005023
175.0	87.51850863551226	word	0.0		45.0	character	word-33.jpg	0.0	109.54088103471622	0.3832871694066853
175.0	87.50951542366238	pulse	0.0	t		character	word-33.jpg	0.0	109.53188782286634	
175.0	87.90179580491895	ISI	1.0		6.0	character	word-33.jpg	0.0	109.9241682041229	0.11669985076150624
176.0	88.01849565568045	word	0.0		46.0	character	word-73.jpg	0.0	110.04086805488441	0.38330407337343786
176.0	88.201906103297	pulse	0.0	t		character	word-73.jpg	0.0	110.22427850250097	
176.0	88.40179972905389	ISI	1.0		6.0	character	word-73.jpg	0.0	110.42417212825785	0.11669079506646085
177.0	88.51849052412035	word	0.0		46.0	character	word-109.jpg	0.0	110.54086292332431	0.3832932065361092
177.0	88.90178373065646	ISI	1.0		7.0	character	word-109.jpg	0.0	110.92415612986042	0.11669653034005023
177.0	88.93745864565426	pulse	1.0	t		character	word-109.jpg	0.0	110.95983104485822	
178.0	89.01848026099651	word	0.0		46.0	character	word-109.jpg	1.0	111.04085266020047	0.383291999112771
178.0	89.40177226010928	ISI	1.0		7.0	character	word-109.jpg	1.0	111.42414465931324	0.11670196375780506
179.0	89.51847422386709	word	0.0		46.0	character	word-132.jpg	0.0	111.54084662307105	0.3832932065361092
179.0	89.55188219625961	response	0.0	b		character	word-132.jpg	0.0	111.57425459546357	
179.0	89.60188050586294	pulse	0.0	t		character	word-132.jpg	0.0	111.6242529050669	
179.0	89.9017674304032	ISI	1.0		6.0	character	word-132.jpg	0.0	111.92413982960716	0.11669713405353832
180.0	90.01846456445674	house	0.0		46.0	place	house-21.jpg	0.0	112.0408369636607	0.38329803624219494
180.0	90.30187766841118	pulse	0.0	t		place	house-21.jpg	0.0	112.32425006761514	
180.0	90.40176260069893	ISI	1.0		6.0	place	house-21.jpg	0.0	112.42413499990289	0.1166950210572395
181.0	90.51845762175617	house	0.0		46.0	place	house-83.jpg	0.0	112.54083002096013	0.3832992436691711
181.0	90.90175686542534	ISI	1.0		6.0	place	house-83.jpg	0.0	112.9241292646293	0.11669864333634905
182.0	91.01845550876169	house	0.0		45.0	place	house-118.jpg	0.0	113.04082790796565	0.3832904898281413
182.0	91.00888575092176	pulse	0.0	t		place	house-118.jpg	0.0	113.03125815012572	
182.0	91.40174599858983	ISI	1.0		7.0	place	house-118.jpg	0.0	113.42411839779379	0.11668415422172984
183.0	91.51843015281156	house	0.0		46.0	place	house-82.jpg	0.0	113.54080255201552	0.3833031678041152
183.0	91.70185659882554	pulse	0.0	t		place	house-82.jpg	0.0	113.7242289980295	
183.0	91.90173332061568	ISI	1.0		6.0	place	house-82.jpg	0.0	113.92410571981964	0.11670377489645034
184.0	92.01843709551213	house	0.0		46.0	place	house-108.jpg	0.0	114.04080949471609	0.3833076956507284
184.0	92.40174479116286	ISI	1.0		7.0	place	house-108.jpg	0.0	114.42411719036681	0.11667298553038563
184.0	92.44033684774877	pulse	1.0	t		place	house-108.jpg	0.0	114.46270924695273	
185.0	92.51841777669324	house	0.0		46.0	place	house-117.jpg	0.0	114.5407901758972	0.3833076956525474
185.0	92.90172547234579	ISI	1.0		7.0	place	house-117.jpg	0.0	114.92409787154975	0.11669653034005023
186.0	93.01842200268584	house	0.0		46.0	place	house-117.jpg	1.0	115.0407944018898	0.38325939860442304
186.0	93.10181409742472	pulse	0.0	t		place	house-117.jpg	1.0	115.12418649662868	
186.0	93.40168140129026	ISI	1.0		6.0	place	house-117.jpg	1.0	115.42405380049422	0.1167185658669041
186.0	93.45061445917054	response	1.0	b		place	house-117.jpg	1.0	115.4729868583745	
187.0	93.51839996715717	house	0.0		46.0	place	house-89.jpg	0.0	115.54077236636113	0.3832729821497196
187.0	93.80179828014298	pulse	0.0	t		place	house-89.jpg	0.0	115.82417067934693	
187.0	93.90167294930689	ISI	1.0		5.0	place	house-89.jpg	0.0	115.92404534851084	0.11669351177624776
188.0	94.01836646108313	house	0.0		46.0	place	house-71.jpg	0.0	116.04073886028709	0.3833161476341047
188.0	94.40168260871724	ISI	1.0		6.0	place	house-71.jpg	0.0	116.4240550079212	0.11668656907386321
189.0	94.5183691777911	house	0.0		45.0	place	house-56.jpg	0.0	116.54074157699506	0.38328958425881865
189.0	94.5092353007949	pulse	0.0	t		place	house-56.jpg	0.0	116.53160769999886	
189.0	94.90165876204992	ISI	1.0		7.0	place	house-56.jpg	0.0	116.92403116125388	0.1166832486524072
190.0	95.01834201070233	house	0.0		46.0	place	house-24.jpg	0.0	117.04071440990629	0.38331584577827016
190.0	95.20178445511192	pulse	0.0	t		place	house-24.jpg	0.0	117.22415685431588	
190.0	95.4016578564806	ISI	1.0		6.0	place	house-24.jpg	0.0	117.42403025568456	0.11669471920140495
191.0	95.518352575682	house	0.0		46.0	place	house-64.jpg	0.0	117.54072497488596	0.38329562139006157
191.0	95.90164819707206	ISI	1.0		6.0	place	house-64.jpg	0.0	117.92402059627602	0.11669924704801815
191.0	95.9493916383326	pulse	1.0	t		place	house-64.jpg	0.0	117.97176403753656	
192.0	96.01834744412008	word	0.0		46.0	character	word-18.jpg	0.0	118.04071984332404	0.3832859619815281
192.0	96.40163340610161	ISI	1.0		6.0	character	word-18.jpg	0.0	118.42400580530557	0.11669049320880731
193.0	96.51832389931042	word	0.0		46.0	character	word-88.jpg	0.0	118.54069629851438	0.38330648822557123
193.0	96.6017534242601	pulse	0.0	t		character	word-88.jpg	0.0	118.62412582346406	
193.0	96.90163038753599	ISI	1.0		5.0	character	word-88.jpg	0.0	118.92400278673995	0.11671313244914927
194.0	97.01834351998514	word	0.0		46.0	character	word-82.jpg	0.0	119.0407159191891	0.38327992485028517
194.0	97.30174243668262	pulse	0.0	t		character	word-82.jpg	0.0	119.32411483588658	
194.0	97.40162344483542	ISI	1.0		6.0	character	word-82.jpg	0.0	119.42399584403938	0.11670377489645034
195.0	97.51832721973187	word	0.0		46.0	character	word-29.jpg	0.0	119.54069961893583	0.38327056729758624
195.0	97.90159778702946	ISI	1.0		6.0	character	word-29.jpg	0.0	119.92397018623342	0.11670920831420517
196.0	98.01830699534366	word	0.0		45.0	character	word-102.jpg	0.0	120.04067939454762	0.38330860122187005
196.0	98.01091483057462	pulse	0.0	t		character	word-102.jpg	0.0	120.03328722977858	
196.0	98.40161559656553	ISI	1.0		7.0	character	word-102.jpg	0.0	120.4239879957695	0.11669170063578349
197.0	98.51830729720132	word	0.0		46.0	character	word-9.jpg	0.0	120.54067969640528	0.38329863995386404
197.0	98.70173434692697	pulse	0.0	t		character	word-9.jpg	0.0	120.72410674613093	
197.0	98.90160593715518	ISI	1.0		4.0	character	word-9.jpg	0.0	120.92397833635914	0.11669773776702641
198.0	99.01830367492221	word	0.0		46.0	character	word-35.jpg	0.0	121.04067607412617	0.38332309033467027
198.0	99.40162676525688	ISI	1.0		7.0	character	word-35.jpg	0.0	121.42399916446084	0.11668596536219411
198.0	99.43881096294717	pulse	1.0	t		character	word-35.jpg	0.0	121.46118336215113	
199.0	99.51831273061907	word	0.0		46.0	character	word-116.jpg	0.0	121.54068512982303	0.38329924366735213
199.0	99.90161197428642	ISI	1.0		7.0	character	word-116.jpg	0.0	121.92398437349038	0.11670800088904798
200.0	100.01831997517547	word	0.0		46.0	character	word-11.jpg	0.0	122.04069237437943	0.38329290468027466
200.0	100.10174889641166	pulse	0.0	t		character	word-11.jpg	0.0	122.12412129561562	
200.0	100.40161287985575	ISI	1.0		7.0	character	word-11.jpg	0.0	122.4239852790597	0.11670649160623725
201.0	100.51831937146198	word	0.0		46.0	character	word-94.jpg	0.0	122.54069177066594	0.38328445269871736
201.0	100.80184265305252	pulse	0.0	t		character	word-94.jpg	0.0	122.82421505225648	
201.0	100.9016038241607	ISI	1.0		6.0	character	word-94.jpg	0.0	122.92397622336466	0.11670347304061579
202.0	101.01830729720132	word	0.0		46.0	character	word-54.jpg	0.0	123.04067969640528	0.3832566818964551
202.0	101.40156397909777	ISI	1.0		7.0	character	word-54.jpg	0.0	123.42393637830173	0.11669954890567169
203.0	101.51826352800344	word	0.0		45.0	character	word-40.jpg	0.0	123.5406359272074	0.38328898054533056
203.0	101.50876651759063	pulse	0.0	t		character	word-40.jpg	0.0	123.53113891679459	
203.0	101.90155250854878	ISI	1.0		6.0	character	word-40.jpg	0.0	123.92392490775273	0.11670347304061579
204.0	102.01825598158939	adult	0.0		46.0	face	adult-131.jpg	0.0	124.04062838079335	0.3833055826544296
204.0	102.20168272945921	pulse	0.0	t		face	adult-131.jpg	0.0	124.22405512866317	
204.0	102.40156156424382	ISI	1.0		6.0	face	adult-131.jpg	0.0	124.42393396344778	0.11667207996106299
205.0	102.51823364420488	adult	0.0		46.0	face	adult-100.jpg	0.0	124.54060604340884	0.3833161476341047
205.0	102.90154979183899	ISI	1.0		7.0	face	adult-100.jpg	0.0	124.92392219104295	0.11669351177624776
205.0	102.93747705890382	pulse	1.0	t		face	adult-100.jpg	0.0	124.95984945810778	
206.0	103.01824330361524	adult	0.0		46.0	face	adult-52.jpg	0.0	125.0406157028192	0.38330588451208314
206.0	103.40154918812732	ISI	1.0		5.0	face	adult-52.jpg	0.0	125.42392158733128	0.11668687092969776
207.0	103.51823605905702	adult	0.0		46.0	face	adult-98.jpg	0.0	125.54060845826098	0.38328566012387455
207.0	103.6016598487331	pulse	0.0	t		face	adult-98.jpg	0.0	125.62403224793707	
207.0	103.90152171918089	ISI	1.0		6.0	face	adult-98.jpg	0.0	125.92389411838485	0.11669411548791686
208.0	104.01821583466881	adult	0.0		46.0	face	adult-21.jpg	0.0	126.04058823387277	0.3833089030777046
208.0	104.30164282402438	pulse	0.0	t		face	adult-21.jpg	0.0	126.32401522322834	
208.0	104.40152473774651	ISI	1.0		7.0	face	adult-21.jpg	0.0	126.42389713695047	0.11669653034005023
209.0	104.51822126808656	adult	0.0		46.0	face	adult-21.jpg	1.0	126.54059366729052	0.3832904898299603
209.0	104.90151175791652	ISI	1.0		5.0	face	adult-21.jpg	1.0	126.92388415712048	0.1166832486524072
209.0	104.95373776877386	response	1.0	b		face	adult-21.jpg	1.0	126.97611016797782	
210.0	105.01819500656893	adult	0.0		45.0	face	adult-144.jpg	0.0	127.04056740577289	0.3833095067893737
210.0	105.0089105031584	pulse	0.0	t		face	adult-144.jpg	0.0	127.03128290236236	
210.0	105.4015045133583	ISI	1.0		6.0	face	adult-144.jpg	0.0	127.42387691256226	0.11669985076332523
211.0	105.51820436412163	adult	0.0		46.0	face	adult-19.jpg	0.0	127.54057676332559	0.38329230096678657
211.0	105.70162084886942	pulse	0.0	t		face	adult-19.jpg	0.0	127.72399324807338	
211.0	105.90149666508842	ISI	1.0		7.0	face	adult-19.jpg	0.0	127.92386906429238	0.11668838021432748
212.0	106.01818504530274	adult	0.0		46.0	face	adult-106.jpg	0.0	128.0405574445067	0.3833110160740034
212.0	106.40149606137675	ISI	1.0		7.0	face	adult-106.jpg	0.0	128.4238684605807	0.11670528417926107
212.0	106.43781483637031	pulse	1.0	t		face	adult-106.jpg	0.0	128.46018723557427	
213.0	106.51820134555601	adult	0.0		46.0	face	adult-64.jpg	0.0	128.54057374475997	0.38328173598893045
213.0	106.90148308154494	ISI	1.0		7.0	face	adult-64.jpg	0.0	128.9238554807489	0.11670166190197051
214.0	107.01818474344691	adult	0.0		46.0	face	adult-32.jpg	0.0	129.04055714265087	0.38332278847701673
214.0	107.10164203919703	pulse	0.0	t		face	adult-32.jpg	0.0	129.124014438401	
214.0	107.40150753192393	ISI	1.0		6.0	face	adult-32.jpg	0.0	129.42387993112789	0.11669411548791686
215.0	107.51820164741184	adult	0.0		46.0	face	adult-30.jpg	0.0	129.5405740466158	0.3832657375933195
215.0	107.80158999913147	pulse	0.0	t		face	adult-30.jpg	0.0	129.82396239833542	
215.0	107.90146738500516	ISI	1.0		7.0	face	adult-30.jpg	0.0	129.92383978420912	0.11668596536037512
216.0	108.01815335036554	adult	0.0		46.0	face	adult-26.jpg	0.0	130.0405257495695	0.38330346965994977
216.0	108.40145682002549	ISI	1.0		5.0	face	adult-26.jpg	0.0	130.42382921922945	0.11668505979287147
217.0	108.51814187981836	adult	0.0		45.0	face	adult-38.jpg	0.0	130.54051427902232	0.3833173550592619
217.0	108.50883171860187	pulse	0.0	t		face	adult-38.jpg	0.0	130.53120411780583	
217.0	108.90145923487762	ISI	1.0		6.0	face	adult-38.jpg	0.0	130.92383163408158	0.11667992823095119
218.0	109.01813916310857	adult	0.0		46.0	face	adult-121.jpg	0.0	131.04051156231253	0.3833095067911927
218.0	109.2015788908102	pulse	0.0	t		face	adult-121.jpg	0.0	131.22395129001416	
218.0	109.40144866989976	ISI	1.0		6.0	face	adult-121.jpg	0.0	131.42382106910372	0.11667207996106299
219.0	109.51812074986083	adult	0.0		46.0	face	adult-27.jpg	0.0	131.5404931490648	0.383321279194206
219.0	109.90144202905503	ISI	1.0		5.0	face	adult-27.jpg	0.0	131.923814428259	0.11670105818848242
219.0	109.95133378330138	pulse	1.0	t		face	adult-27.jpg	0.0	131.97370618250534	
220.0	110.01814308724352	adult	0.0		46.0	face	adult-65.jpg	0.0	132.04051548644748	0.383288678689496
220.0	110.40143176593301	ISI	1.0		5.0	face	adult-65.jpg	0.0	132.42380416513697	0.11669079506646085
221.0	110.51812256099947	adult	0.0		46.0	face	adult-17.jpg	0.0	132.54049496020343	0.3833010548078164
221.0	110.6015560100841	pulse	0.0	t		face	adult-17.jpg	0.0	132.62392840928806	
221.0	110.90142361580729	ISI	1.0		7.0	face	adult-17.jpg	0.0	132.92379601501125	0.1166871727873513
222.0	111.01811078859464	adult	0.0		46.0	face	adult-6.jpg	0.0	133.0404831877986	0.3832983380980295
222.0	111.30154653178943	pulse	0.0	t		face	adult-6.jpg	0.0	133.3239189309934	
222.0	111.40140912669267	ISI	1.0		7.0	face	adult-6.jpg	0.0	133.42378152589663	0.11670981202769326
223.0	111.51811893872036	adult	0.0		46.0	face	adult-5.jpg	0.0	133.54049133792432	0.3832898861164722
223.0	111.90140882483684	ISI	1.0		5.0	face	adult-5.jpg	0.0	133.9237812240408	0.11668536164688703
224.0	112.01809418648372	adult	0.0		45.0	face	adult-89.jpg	0.0	134.04046658568768	0.3833043752310914
224.0	112.00874297277915	pulse	0.0	t		face	adult-89.jpg	0.0	134.0311153719831	
224.0	112.40139856171481	ISI	1.0		7.0	face	adult-89.jpg	0.0	134.42377096091877	0.1167107175970159
225.0	112.51810927931183	adult	0.0		46.0	face	adult-80.jpg	0.0	134.5404816785158	0.3832859619797091
225.0	112.70152395291916	pulse	0.0	t		face	adult-80.jpg	0.0	134.72389635212312	
225.0	112.90139524129154	ISI	1.0		6.0	face	adult-80.jpg	0.0	134.9237676404955	0.11670498232342652
226.0	113.01810022361497	adult	0.0		46.0	face	adult-142.jpg	0.0	135.04047262281892	0.38329682881703775
226.0	113.401397052432	ISI	1.0		7.0	face	adult-142.jpg	0.0	135.42376945163596	0.11669592662656214
226.0	113.43898664345215	pulse	1.0	t		face	adult-142.jpg	0.0	135.4613590426561	
227.0	113.51809297905857	adult	0.0		46.0	face	adult-55.jpg	0.0	135.54046537826252	0.3833351645953371
227.0	113.9014281436539	ISI	1.0		6.0	face	adult-55.jpg	0.0	135.92380054285786	0.11667057067825226
228.0	114.01809871433215	word	0.0		46.0	character	word-63.jpg	0.0	136.0404711135361	0.38330920493535814
228.0	114.10152884299532	pulse	0.0	t		character	word-63.jpg	0.0	136.12390124219928	
228.0	114.40140791926751	ISI	1.0		7.0	character	word-63.jpg	0.0	136.42378031847147	0.11668505979105248
229.0	114.51809297905857	word	0.0		46.0	character	word-143.jpg	0.0	136.54046537826252	0.3832998473808402
229.0	114.8014952161775	pulse	0.0	t		character	word-143.jpg	0.0	136.82386761538146	
229.0	114.9013928264394	ISI	1.0		6.0	character	word-143.jpg	0.0	136.92376522564336	0.11670709531972534
230.0	115.01809992175913	word	0.0		46.0	character	word-20.jpg	0.0	137.0404723209631	0.38329230096678657
230.0	115.40139222272592	ISI	1.0		6.0	character	word-20.jpg	0.0	137.42376462192988	0.11669985076332523
231.0	115.51809207348924	word	0.0		45.0	character	word-39.jpg	0.0	137.5404644726932	0.38330860122005106
231.0	115.50901162509945	pulse	0.0	t		character	word-39.jpg	0.0	137.5313840243034	
231.0	115.9014006747093	ISI	1.0		7.0	character	word-39.jpg	0.0	137.92377307391325	0.11670256747129315
232.0	116.01810324218059	word	0.0		46.0	character	word-80.jpg	0.0	138.04047564138455	0.38327207658039697
232.0	116.20150855823704	pulse	0.0	t		character	word-80.jpg	0.0	138.223880957441	
232.0	116.40137531876098	ISI	1.0		6.0	character	word-80.jpg	0.0	138.42374771796494	0.11669985076150624
233.0	116.51807516952249	word	0.0		46.0	character	word-100.jpg	0.0	138.54044756872645	0.3832950176765735
233.0	116.90137018719906	ISI	1.0		6.0	character	word-100.jpg	0.0	138.92374258640302	0.11670468046759197
233.0	116.94439862932995	pulse	1.0	t		character	word-100.jpg	0.0	138.9667710285339	
234.0	117.01807486766666	word	0.0		46.0	character	word-61.jpg	0.0	139.04044726687061	0.3832865656931972
234.0	117.40136143335985	ISI	1.0		6.0	character	word-61.jpg	0.0	139.4237338325638	0.11668023008678574
235.0	117.51804166344664	word	0.0		46.0	character	word-99.jpg	0.0	139.5404140626506	0.38331312906848325
235.0	117.60152039101376	pulse	0.0	t		character	word-99.jpg	0.0	139.62389279021772	
235.0	117.90135479251512	ISI	1.0		7.0	character	word-99.jpg	0.0	139.92372719171908	0.11669200249343703
236.0	118.01804679500856	word	0.0		46.0	character	word-99.jpg	1.0	140.04041919421252	0.38330528079859505
236.0	118.30153143896132	pulse	0.0	t		character	word-99.jpg	1.0	140.32390383816528	
236.0	118.40135207580715	ISI	1.0		6.0	character	word-99.jpg	1.0	140.4237244750111	0.11670226561363961
237.0	118.5180543414208	word	0.0		46.0	character	word-8.jpg	0.0	140.54042674062475	0.3832898861164722
237.0	118.5681353597156	response	0.0	b		character	word-8.jpg	0.0	140.59050775891956	
237.0	118.90134422753727	ISI	1.0		6.0	character	word-8.jpg	0.0	140.92371662674122	0.11669381363026332
238.0	119.01803804116753	word	0.0		45.0	character	word-31.jpg	0.0	141.0404104403715	0.38330075295198185
238.0	119.00878100670343	pulse	0.0	t		character	word-31.jpg	0.0	141.0311534059074	
238.0	119.40133879411951	ISI	1.0		7.0	character	word-31.jpg	0.0	141.42371119332347	0.11668385236589529
239.0	119.5180226464854	word	0.0		46.0	character	word-60.jpg	0.0	141.54039504568937	0.3832702654399327
239.0	119.70141347342724	pulse	0.0	t		character	word-60.jpg	0.0	141.7237858726312	
239.0	119.90129291192534	ISI	1.0		7.0	character	word-60.jpg	0.0	141.9236653111293	0.11668415422172984
240.0	120.01797706614707	word	0.0		46.0	character	word-107.jpg	0.0	142.04034946535103	0.3833031678041152
240.0	120.40128023395118	ISI	1.0		6.0	character	word-107.jpg	0.0	142.42365263315514	0.1167067934620718
240.0	120.447344145432	pulse	1.0	t		character	word-107.jpg	0.0	142.46971654463596	
241.0	120.51798702741326	word	0.0		46.0	character	word-114.jpg	0.0	142.54035942661721	0.3832904898281413
241.0	120.9012775172414	ISI	1.0		6.0	character	word-114.jpg	0.0	142.92364991644536	0.11670166190197051
242.0	121.01797917914337	word	0.0		46.0	character	word-71.jpg	0.0	143.04035157834733	0.3833016585213045
242.0	121.10140930780653	pulse	0.0	t		character	word-71.jpg	0.0	143.1237817070105	
242.0	121.40128083766467	ISI	1.0		7.0	character	word-71.jpg	0.0	143.42365323686863	0.11667419295554282
243.0	121.51795503062021	word	0.0		46.0	character	word-22.jpg	0.0	143.54032742982417	0.3833070919390593
243.0	121.8013835292586	pulse	0.0	t		character	word-22.jpg	0.0	143.82375592846256	
243.0	121.90126212255927	ISI	1.0		6.0	character	word-22.jpg	0.0	143.92363452176323	0.11671252873566118
244.0	122.01797465129494	word	0.0		46.0	character	word-5.jpg	0.0	144.0403470504989	0.3833016585213045
244.0	122.40127630981624	ISI	1.0		7.0	character	word-5.jpg	0.0	144.4236487090202	0.11666181683722243
245.0	122.51793812665346	word	0.0		45.0	character	word-42.jpg	0.0	144.54031052585742	0.38331252535681415
245.0	122.50866388636678	pulse	0.0	t		character	word-42.jpg	0.0	144.53103628557074	
245.0	122.90125065201028	ISI	1.0		6.0	character	word-42.jpg	0.0	144.92362305121424	0.11670407675410388
246.0	123.01795472876438	word	0.0		46.0	character	word-86.jpg	0.0	145.04032712796834	0.38326875615712197
246.0	123.2013627615288	pulse	0.0	t		character	word-86.jpg	0.0	145.22373516073276	
246.0	123.4012234849215	ISI	1.0		6.0	character	word-86.jpg	0.0	145.42359588412546	0.1167185658669041
247.0	123.5179420507884	word	0.0		46.0	character	word-26.jpg	0.0	145.54031444999237	0.38327449143253034
247.0	123.90121654222094	ISI	1.0		6.0	character	word-26.jpg	0.0	145.9235889414249	0.11672309371533629
247.0	123.94860137791511	pulse	1.0	t		character	word-26.jpg	0.0	145.97097377711907	
248.0	124.01793963593627	word	0.0		46.0	character	word-6.jpg	0.0	146.04031203514023	0.38326996358409815
248.0	124.40120959952037	ISI	1.0		6.0	character	word-6.jpg	0.0	146.42358199872433	0.11671947143804573
249.0	124.51792907095842	word	0.0		46.0	character	word-75.jpg	0.0	146.54030147016238	0.3832871694066853
249.0	124.60135165320753	pulse	0.0	t		character	word-75.jpg	0.0	146.6237240524115	
249.0	124.9012162403651	ISI	1.0		7.0	character	word-75.jpg	0.0	146.92358863956906	0.11668596536037512
250.0	125.01790220572548	word	0.0		46.0	character	word-136.jpg	0.0	147.04027460492944	0.3833167513475928
250.0	125.3013439860515	pulse	0.0	t		character	word-136.jpg	0.0	147.32371638525547	
250.0	125.40121895707307	ISI	1.0		7.0	character	word-136.jpg	0.0	147.42359135627703	0.11670468046759197
251.0	125.51792363754066	word	0.0		46.0	character	word-25.jpg	0.0	147.54029603674462	0.3833233921905048
251.0	125.90124702973117	ISI	1.0		5.0	character	word-25.jpg	0.0	147.92361942893513	0.11668777650083939
252.0	126.017934806232	body	0.0		45.0	body	body-115.jpg	0.0	148.04030720543597	0.38331524206478207
252.0	126.00854495488966	pulse	0.0	t		body	body-115.jpg	0.0	148.03091735409362	
252.0	126.40125004829679	ISI	1.0		5.0	body	body-115.jpg	0.0	148.42362244750075	0.11666121312555333
253.0	126.51791126142234	body	0.0		46.0	body	body-84.jpg	0.0	148.5402836606263	0.3832802267061197
253.0	126.7013144644825	pulse	0.0	t		body	body-84.jpg	0.0	148.72368686368645	
253.0	126.90119148812846	ISI	1.0		5.0	body	body-84.jpg	0.0	148.92356388733242	0.11669441734375141
254.0	127.01788590547221	body	0.0		46.0	body	body-105.jpg	0.0	149.04025830467617	0.38331252535681415
254.0	127.40119843082903	ISI	1.0		6.0	body	body-105.jpg	0.0	149.423570830033	0.11669139877812995
254.0	127.44950151411285	pulse	1.0	t		body	body-105.jpg	0.0	149.4718739133168	
255.0	127.51788982960716	body	0.0		46.0	body	body-40.jpg	0.0	149.54026222881112	0.3832880749778269
255.0	127.90117790458498	ISI	1.0		5.0	body	body-40.jpg	0.0	149.92355030378894	0.11669864333453006
256.0	128.0178765479195	body	0.0		46.0	body	body-114.jpg	0.0	150.04024894712347	0.3832708691552398
256.0	128.10129339489686	pulse	0.0	t		body	body-114.jpg	0.0	150.12366579410082	
256.0	128.40114741707475	ISI	1.0		6.0	body	body-114.jpg	0.0	150.4235198162787	0.11672309371533629
257.0	128.5178705107901	body	0.0		46.0	body	body-83.jpg	0.0	150.54024290999405	0.38329743252870685
257.0	128.80128089803475	pulse	0.0	t		body	body-83.jpg	0.0	150.8236532972387	
257.0	128.9011679433188	ISI	1.0		5.0	body	body-83.jpg	0.0	150.92354034252276	0.11668083380027383
258.0	129.01784877711907	body	0.0		46.0	body	body-20.jpg	0.0	151.04022117632303	0.38329743252870685
258.0	129.30960579950988	response	0.0	b		body	body-20.jpg	0.0	151.33197819871384	
258.0	129.40114620964778	ISI	1.0		7.0	body	body-20.jpg	0.0	151.42351860885174	0.11670498232342652
259.0	129.5178511919712	body	0.0		45.0	body	body-20.jpg	1.0	151.54022359117516	0.38330316780229623
259.0	129.50865362324475	pulse	0.0	t		body	body-20.jpg	1.0	151.5310260224487	
259.0	129.9011543597735	ISI	1.0		5.0	body	body-20.jpg	1.0	151.92352675897746	0.11669471920140495
260.0	130.0178490789749	body	0.0		46.0	body	body-3.jpg	0.0	152.04022147817886	0.38328626383736264
260.0	130.20129393823845	pulse	0.0	t		body	body-3.jpg	0.0	152.2236663374424	
260.0	130.40113534281227	ISI	1.0		5.0	body	body-3.jpg	0.0	152.42350774201623	0.1167061897504027
261.0	130.51784153256267	body	0.0		46.0	body	body-113.jpg	0.0	152.54021393176663	0.38330467708510696
261.0	130.90114620964778	ISI	1.0		5.0	body	body-113.jpg	0.0	152.92351860885174	0.11668928578365012
261.0	130.95071920338887	pulse	1.0	t		body	body-113.jpg	0.0	152.97309160259283	
262.0	131.01783549543143	body	0.0		46.0	body	body-86.jpg	0.0	153.0402078946354	0.38329803624219494
262.0	131.40113353167362	ISI	1.0		6.0	body	body-86.jpg	0.0	153.42350593087758	0.11670015261734079
263.0	131.51783368429096	body	0.0		46.0	body	body-8.jpg	0.0	153.54020608349492	0.3832874712643388
263.0	131.60124509785055	pulse	0.0	t		body	body-8.jpg	0.0	153.6236174970545	
263.0	131.9011211555553	ISI	1.0		6.0	body	body-8.jpg	0.0	153.92349355475926	0.11667841894814046
264.0	132.01779957450344	body	0.0		46.0	body	body-62.jpg	0.0	154.0401719737074	0.38329803624219494
264.0	132.30121086731924	pulse	0.0	t		body	body-62.jpg	0.0	154.3235832665232	
264.0	132.40109761074564	ISI	1.0		5.0	body	body-62.jpg	0.0	154.4234700099496	0.11671524544544809
265.0	132.51781285619109	body	0.0		46.0	body	body-7.jpg	0.0	154.54018525539504	0.38333395717017993
265.0	132.90114681336127	ISI	1.0		5.0	body	body-7.jpg	0.0	154.92351921256522	0.11668807835667394
266.0	133.01783489171794	body	0.0		45.0	body	body-137.jpg	0.0	155.0402072909219	0.38330075295016286
266.0	133.00836927438468	pulse	0.0	t		body	body-137.jpg	0.0	155.03074167358864	
266.0	133.4011356446681	ISI	1.0		6.0	body	body-137.jpg	0.0	155.42350804387206	0.11667962637511664
267.0	133.51781527104322	body	0.0		46.0	body	body-57.jpg	0.0	155.54018767024718	0.3832769062846637
267.0	133.70120821098135	pulse	0.0	t		body	body-57.jpg	0.0	155.7235806101853	
267.0	133.90109217732788	ISI	1.0		5.0	body	body-57.jpg	0.0	155.92346457653184	0.11667781523465237
268.0	134.01776999256253	body	0.0		46.0	body	body-21.jpg	0.0	156.0401423917665	0.3833134309261368
268.0	134.40108342348867	ISI	1.0		5.0	body	body-21.jpg	0.0	156.42345582269263	0.11669985076150624
268.0	134.45337463535725	pulse	1.0	t		body	body-21.jpg	0.0	156.4757470345612	
269.0	134.51778327425018	body	0.0		46.0	body	body-70.jpg	0.0	156.54015567345414	0.38328686755085073
269.0	134.90107014180103	ISI	1.0		7.0	body	body-70.jpg	0.0	156.923442541005	0.11671916958039219
270.0	135.01778931138142	body	0.0		46.0	body	body-58.jpg	0.0	157.04016171058538	0.3832808304196078
270.0	135.1012100824919	pulse	0.0	t		body	body-58.jpg	0.0	157.12358248169585	
270.0	135.40107014180103	ISI	1.0		6.0	body	body-58.jpg	0.0	157.423442541005	0.11669622848239669
271.0	135.51776637028343	body	0.0		46.0	body	body-68.jpg	0.0	157.54013876948738	0.38329622510354966
271.0	135.8011861150826	pulse	0.0	t		body	body-68.jpg	0.0	157.82355851428656	
271.0	135.90106259538697	ISI	1.0		5.0	body	body-68.jpg	0.0	157.92343499459093	0.11670075633082888
272.0	136.0177633517178	body	0.0		46.0	body	body-124.jpg	0.0	158.04013575092176	0.38326996358409815
272.0	136.4010333153019	ISI	1.0		5.0	body	body-124.jpg	0.0	158.42340571450586	0.11670377489826933
273.0	136.51773709020017	body	0.0		45.0	body	body-89.jpg	0.0	158.54010948940413	0.38331131792983797
273.0	136.50817789733992	pulse	0.0	t		body	body-89.jpg	0.0	158.53055029654388	
273.0	136.90104840813	ISI	1.0		7.0	body	body-89.jpg	0.0	158.92342080733397	0.11668294679475366
274.0	137.01773135492476	body	0.0		46.0	body	body-89.jpg	1.0	159.04010375412872	0.38331041236051533
274.0	137.20117168633988	pulse	0.0	t		body	body-89.jpg	1.0	159.22354408554384	
274.0	137.40104176728528	ISI	1.0		5.0	body	body-89.jpg	1.0	159.42341416648924	0.11669683219770377
275.0	137.51773859948298	body	0.0		46.0	body	body-10.jpg	0.0	159.54011099868694	0.3832944139630854
275.0	137.72614850375794	response	0.0	b		body	body-10.jpg	0.0	159.7485209029619	
275.0	137.90103301344607	ISI	1.0		11.0	body	body-10.jpg	0.0	159.92340541265003	0.10000990089429251
275.0	137.90541023510923	pulse	1.0	t		body	body-10.jpg	0.0	159.9277826343132	
276.0	138.00104291434036	baseline	0.0		48.0		baseline	0.0	160.02341531354432	0.3999792322701978
276.0	138.40102214661056	ISI	1.0		11.0		baseline	0.0	160.42339454581452	0.10001201389059133
277.0	138.50103416050115	baseline	0.0		48.0		baseline	0.0	160.5234065597051	0.39998376011863
277.0	138.60113914620524	pulse	0.0	t			baseline	0.0	160.6235115454092	
277.0	138.90101792061978	ISI	1.0		11.0		baseline	0.0	160.92339031982374	0.09999661920664948
278.0	139.00101453982643	baseline	0.0		48.0		baseline	0.0	161.0233869390304	0.39999824923143024
278.0	139.3011399310326	pulse	0.0	t			baseline	0.0	161.32351233023655	
278.0	139.40101278905786	ISI	1.0		11.0		baseline	0.0	161.42338518826182	0.09999631735081493
279.0	139.50100910640867	baseline	0.0		48.0		baseline	0.0	161.52338150561263	0.4000649595272989
279.0	139.90107406593597	ISI	1.0		11.0		baseline	0.0	161.92344646513993	0.09999843034529476
280.0	140.00107249628127	baseline	0.0		47.0		baseline	0.0	162.02344489548523	0.39999704180627305
280.0	140.0054956001386	pulse	0.0	t			baseline	0.0	162.02786799934256	
280.0	140.40106953808754	ISI	1.0		11.0		baseline	0.0	162.4234419372915	0.09999299692753993
281.0	140.50106253501508	baseline	0.0		48.0		baseline	0.0	162.52343493421904	0.3999894953922194
281.0	140.70117379933617	pulse	0.0	t			baseline	0.0	162.72354619854013	
281.0	140.9010520304073	ISI	1.0		11.0		baseline	0.0	162.92342442961126	0.09999450621216965
282.0	141.00104653661947	baseline	0.0		48.0		baseline	0.0	163.02341893582343	0.4000136439153721
282.0	141.40106018053484	ISI	1.0		11.0		baseline	0.0	163.4234325797388	0.09999269507170538
282.0	141.40581864700653	pulse	1.0	t			baseline	0.0	163.4281910462105	
283.0	141.50105287560655	baseline	0.0		48.0		baseline	0.0	163.5234252748105	0.40000368264918507
283.0	141.90105655825573	ISI	1.0		11.0		baseline	0.0	163.9234289574597	0.1000032600513805
284.0	142.0010598183071	baseline	0.0		48.0		baseline	0.0	164.02343221751107	0.39997410070827755
284.0	142.10116721886334	pulse	0.0	t			baseline	0.0	164.1235396180673	
284.0	142.4010339190154	ISI	1.0		11.0		baseline	0.0	164.42340631821935	0.1000026563378924
285.0	142.50103657535328	baseline	0.0		48.0		baseline	0.0	164.52340897455724	0.39999311767132895
285.0	142.80114325145405	pulse	0.0	t			baseline	0.0	164.823515650658	
285.0	142.9010296930246	ISI	1.0		11.0		baseline	0.0	164.92340209222857	0.09999782663180667
286.0	143.00102751965642	baseline	0.0		48.0		baseline	0.0	165.02339991886038	0.4000045882203267
286.0	143.40103210787674	ISI	1.0		11.0		baseline	0.0	165.4234045070807	0.0999881672232732
287.0	143.50102027510002	baseline	0.0		47.0		baseline	0.0	165.52339267430398	0.39998647682659794
287.0	143.50545273651005	pulse	0.0	t			baseline	0.0	165.527825135714	
287.0	143.90100675192662	ISI	1.0		5.0		baseline	0.0	165.92337915113058	0.11665728899060923
288.0	144.01766404091723	house	0.0		46.0	place	house-106.jpg	0.0	166.04003644012118	0.3832847545545519
288.0	144.20108656279626	pulse	0.0	t		place	house-106.jpg	0.0	166.22345896200022	
288.0	144.40094879547178	ISI	1.0		5.0	place	house-106.jpg	0.0	166.42332119467574	0.11669773776702641
289.0	144.5176465332388	house	0.0		46.0	place	house-137.jpg	0.0	166.54001893244276	0.3832814341312769
289.0	144.90092796737008	ISI	1.0		5.0	place	house-137.jpg	0.0	166.92330036657404	0.11670196375780506
289.0	144.95026249444527	pulse	1.0	t		place	house-137.jpg	0.0	166.97263489364923	
290.0	145.01762993112789	house	0.0		46.0	place	house-54.jpg	0.0	167.04000233033184	0.3832898861164722
290.0	145.40091981724436	ISI	1.0		5.0	place	house-54.jpg	0.0	167.42329221644832	0.1167028693271277
291.0	145.51762268657149	house	0.0		46.0	place	house-51.jpg	0.0	167.53999508577544	0.3832684543012874
291.0	145.60120827135142	pulse	0.0	t		place	house-51.jpg	0.0	167.62358067055538	
291.0	145.90089114087277	ISI	1.0		6.0	place	house-51.jpg	0.0	167.92326354007673	0.11672460299814702
292.0	146.01761574387092	house	0.0		46.0	place	house-60.jpg	0.0	168.03998814307488	0.383291999110952
292.0	146.301020395842	pulse	0.0	t		place	house-60.jpg	0.0	168.32339279504595	
292.0	146.40090774298187	ISI	1.0		6.0	place	house-60.jpg	0.0	168.42328014218583	0.11670075633264787
293.0	146.51760849931452	house	0.0		46.0	place	house-130.jpg	0.0	168.53998089851848	0.38329471582073893
293.0	146.90090321513526	ISI	1.0		6.0	place	house-130.jpg	0.0	168.92327561433922	0.1166910969222954
294.0	147.01759431205755	house	0.0		45.0	place	house-67.jpg	0.0	169.0399667112615	0.38328958425881865
294.0	147.00809518864844	pulse	0.0	t		place	house-67.jpg	0.0	169.0304675878524	
294.0	147.40088389631637	ISI	1.0		6.0	place	house-67.jpg	0.0	169.42325629552033	0.11669019135297276
295.0	147.51757408766935	house	0.0		46.0	place	house-75.jpg	0.0	169.5399464868733	0.38331373278197134
295.0	147.70100717452624	pulse	0.0	t		place	house-75.jpg	0.0	169.7233795737302	
295.0	147.90088782045132	ISI	1.0		6.0	place	house-75.jpg	0.0	169.92326021965528	0.11670558603509562
296.0	148.0175934064864	house	0.0		46.0	place	house-141.jpg	0.0	170.03996580569037	0.38327901928096253
296.0	148.40087242576737	ISI	1.0		6.0	place	house-141.jpg	0.0	170.42324482497133	0.11670498232342652
296.0	148.44260982748347	pulse	1.0	t		place	house-141.jpg	0.0	170.46498222668743	
297.0	148.5175774080908	house	0.0		46.0	place	house-5.jpg	0.0	170.53994980729476	0.38329350839376275
297.0	148.90087091648456	ISI	1.0		7.0	place	house-5.jpg	0.0	170.92324331568852	0.11669924704983714
298.0	149.0175701635344	house	0.0		46.0	place	house-142.jpg	0.0	171.03994256273836	0.3832959232458961
298.0	149.10105190966533	pulse	0.0	t		place	house-142.jpg	0.0	171.1234243088693	
298.0	149.4008660867803	ISI	1.0		6.0	place	house-142.jpg	0.0	171.42323848598426	0.11669924704801815
299.0	149.51756533382832	house	0.0		46.0	place	house-88.jpg	0.0	171.53993773303227	0.38328445269871736
299.0	149.8009778340711	pulse	0.0	t		place	house-88.jpg	0.0	171.82335023327505	
299.0	149.90084978652703	ISI	1.0		6.0	place	house-88.jpg	0.0	171.923222185731	0.11668838021432748
300.0	150.01753816674136	body	0.0		46.0	body	body-78.jpg	0.0	172.03991056594532	0.38331644948993926
300.0	150.4008546162313	ISI	1.0		5.0	body	body-78.jpg	0.0	172.42322701543526	0.11666996696476417
301.0	150.51752458319606	body	0.0		45.0	body	body-19.jpg	0.0	172.53989698240002	0.3833469370019884
301.0	150.50828233970242	pulse	0.0	t		body	body-19.jpg	0.0	172.53065473890638	
301.0	150.90087152019805	ISI	1.0		7.0	body	body-19.jpg	0.0	172.923243919402	0.1166871727873513
302.0	151.0175586929854	body	0.0		46.0	body	body-19.jpg	1.0	173.03993109218936	0.3832769062846637
302.0	151.20095253849286	pulse	0.0	t		body	body-19.jpg	1.0	173.22332493769682	
302.0	151.40083559927007	ISI	1.0		6.0	body	body-19.jpg	1.0	173.42320799847403	0.11668385236589529
303.0	151.51751945163596	body	0.0		46.0	body	body-99.jpg	0.0	173.53989185083992	0.38330860122005106
303.0	151.63428389969704	response	0.0	b		body	body-99.jpg	0.0	173.656656298901	
303.0	151.900828052856	ISI	1.0		7.0	body	body-99.jpg	0.0	173.92320045205997	0.11668113565610838
303.0	151.9364244851531	pulse	1.0	t		body	body-99.jpg	0.0	173.95879688435707	
304.0	152.01750918851212	body	0.0		46.0	body	body-129.jpg	0.0	174.03988158771608	0.38332610890029173
304.0	152.4008352974124	ISI	1.0		5.0	body	body-129.jpg	0.0	174.42320769661637	0.1166832486524072
305.0	152.51751854606482	body	0.0		46.0	body	body-106.jpg	0.0	174.53989094526878	0.38328958426063764
305.0	152.6009414301716	pulse	0.0	t		body	body-106.jpg	0.0	174.62331382937555	
305.0	152.90080813032546	ISI	1.0		6.0	body	body-106.jpg	0.0	174.92318052952942	0.11670437860993843
306.0	153.0175125089354	body	0.0		46.0	body	body-132.jpg	0.0	175.03988490813936	0.38328233970241854
306.0	153.30093134816343	pulse	0.0	t		body	body-132.jpg	0.0	175.3233037473674	
306.0	153.40079484863782	ISI	1.0		5.0	body	body-132.jpg	0.0	175.42316724784177	0.11669441734375141
307.0	153.51748926598157	body	0.0		46.0	body	body-65.jpg	0.0	175.53986166518553	0.3833194680555607
307.0	153.90080873403713	ISI	1.0		5.0	body	body-65.jpg	0.0	175.9231811332411	0.11668958764130366
308.0	154.01749832167843	body	0.0		45.0	body	body-107.jpg	0.0	176.0398707208824	0.38330014923667477
308.0	154.0085286546382	pulse	0.0	t		body	body-107.jpg	0.0	176.03090105384217	
308.0	154.4007984709151	ISI	1.0		5.0	body	body-107.jpg	0.0	176.42317087011907	0.1166910969222954
309.0	154.5174895678374	body	0.0		46.0	body	body-43.jpg	0.0	176.53986196704136	0.38329411210725084
309.0	154.70090152473858	pulse	0.0	t		body	body-43.jpg	0.0	176.72327392394254	
309.0	154.90078367994465	ISI	1.0		6.0	body	body-43.jpg	0.0	176.9231560791486	0.1166983414805145
310.0	155.01748202142517	body	0.0		46.0	body	body-126.jpg	0.0	177.03985442062913	0.38329139539746393
310.0	155.40077341682263	ISI	1.0		5.0	body	body-126.jpg	0.0	177.4231458160266	0.11668355051006074
310.0	155.45237458464544	pulse	1.0	t		body	body-126.jpg	0.0	177.4747469838494	
311.0	155.5174569673327	body	0.0		46.0	body	body-133.jpg	0.0	177.53982936653665	0.3832971306710533
311.0	155.90075409800374	ISI	1.0		5.0	body	body-133.jpg	0.0	177.9231264972077	0.11669653034005023
312.0	156.0174506283438	word	0.0		46.0	character	word-41.jpg	0.0	178.03982302754775	0.3833285237524251
312.0	156.10088075700878	pulse	0.0	t		character	word-41.jpg	0.0	178.12325315621274	
312.0	156.40077915209622	ISI	1.0		6.0	character	word-41.jpg	0.0	178.42315155130018	0.11668023008860473
313.0	156.51745938218482	word	0.0		46.0	character	word-24.jpg	0.0	178.53983178138878	0.38329531953240803
313.0	156.80087429727791	pulse	0.0	t		character	word-24.jpg	0.0	178.82324669648187	
313.0	156.90075470171723	ISI	1.0		7.0	character	word-24.jpg	0.0	178.9231271009212	0.11668023008678574
314.0	157.01743493180402	word	0.0		46.0	character	word-79.jpg	0.0	179.03980733100798	0.3833402961572574
314.0	157.40077522796128	ISI	1.0		7.0	character	word-79.jpg	0.0	179.42314762716524	0.11671856586872309
315.0	157.51749379383	word	0.0		45.0	character	word-79.jpg	1.0	179.53986619303396	0.3832781137098209
315.0	157.50801972451336	pulse	0.0	t		character	word-79.jpg	1.0	179.53039212371732	
315.0	157.90077190753982	ISI	1.0		7.0	character	word-79.jpg	1.0	179.92314430674378	0.1166983414805145
316.0	158.01747024902033	word	0.0		46.0	character	word-43.jpg	0.0	180.0398426482243	0.3832956213882426
316.0	158.20087767807127	pulse	0.0	t		character	word-43.jpg	0.0	180.22325007727522	
316.0	158.40076587040858	ISI	1.0		4.0	character	word-43.jpg	0.0	180.42313826961254	0.11670015261915978
317.0	158.51746602302774	word	0.0		46.0	character	word-76.jpg	0.0	180.5398384222317	0.38326000231791113
317.0	158.90072602534565	ISI	1.0		5.0	character	word-76.jpg	0.0	180.9230984245496	0.11669743591119186
317.0	158.95406166083922	pulse	1.0	t		character	word-76.jpg	0.0	180.97643406004318	
318.0	159.01742346125684	word	0.0		46.0	character	word-30.jpg	0.0	181.0397958604608	0.38329290468027466
318.0	159.40071636593711	ISI	1.0		6.0	character	word-30.jpg	0.0	181.42308876514107	0.11670196375780506
319.0	159.51741832969492	word	0.0		46.0	character	word-15.jpg	0.0	181.53979072889888	0.38328777312017337
319.0	159.60084091194403	pulse	0.0	t		character	word-15.jpg	0.0	181.623213311148	
319.0	159.9007061028151	ISI	1.0		5.0	character	word-15.jpg	0.0	181.92307850201905	0.11667902265980956
320.0	160.0173851254749	word	0.0		46.0	character	word-13.jpg	0.0	182.03975752467886	0.3833140346396249
320.0	160.30081966124453	pulse	0.0	t		character	word-13.jpg	0.0	182.3231920604485	
320.0	160.40069916011453	ISI	1.0		7.0	character	word-13.jpg	0.0	182.4230715593185	0.11668687093151675
321.0	160.51738603104604	word	0.0		46.0	character	word-47.jpg	0.0	182.53975843025	0.38329531953240803
321.0	160.90068135057845	ISI	1.0		7.0	character	word-47.jpg	0.0	182.9230537497824	0.11670045447499433
322.0	161.01738180505345	word	0.0		45.0	character	word-141.jpg	0.0	183.0397542042574	0.3832989418115176
322.0	161.00818936788892	pulse	0.0	t		character	word-141.jpg	0.0	183.03056176709288	
322.0	161.40068074686496	ISI	1.0		7.0	character	word-141.jpg	0.0	183.42305314606892	0.11670468046759197
323.0	161.51738542733256	word	0.0		46.0	character	word-117.jpg	0.0	183.53975782653652	0.38329531953240803
323.0	161.70079496937979	pulse	0.0	t		character	word-117.jpg	0.0	183.72316736858374	
323.0	161.90068074686496	ISI	1.0		6.0	character	word-117.jpg	0.0	183.92305314606892	0.1166989451921836
324.0	162.01737969205715	car	0.0		46.0	object	car-26.jpg	0.0	184.0397520912611	0.38329109354344837
324.0	162.4006707856006	ISI	1.0		6.0	object	car-26.jpg	0.0	184.42304318480456	0.11668445607756439
324.0	162.4482008142877	pulse	1.0	t		object	car-26.jpg	0.0	184.47057321349166	
325.0	162.51735524167816	car	0.0		46.0	object	car-112.jpg	0.0	184.53972764088212	0.38331524206478207
325.0	162.90067048374294	ISI	1.0		5.0	object	car-112.jpg	0.0	184.9230428829469	0.11667600409600709
326.0	163.01734648783895	car	0.0		46.0	object	car-9.jpg	0.0	185.0397188870429	0.38331826063040353
326.0	163.1007778239291	pulse	0.0	t		object	car-9.jpg	0.0	185.12315022313305	
326.0	163.40066474846935	ISI	1.0		5.0	object	car-9.jpg	0.0	185.4230371476733	0.11671162316633854
327.0	163.5173763716357	car	0.0		46.0	object	car-142.jpg	0.0	185.53974877083965	0.3832651338798314
327.0	163.8007668363498	pulse	0.0	t		object	car-142.jpg	0.0	185.82313923555375	
327.0	163.90064150551552	ISI	1.0		6.0	object	car-142.jpg	0.0	185.92301390471948	0.11670739717555989
328.0	164.01734890269108	car	0.0		46.0	object	car-7.jpg	0.0	186.03972130189504	0.3832959232458961
328.0	164.40064482593698	ISI	1.0		6.0	object	car-7.jpg	0.0	186.42301722514094	0.11668023008678574
329.0	164.51732505602376	car	0.0		45.0	object	car-33.jpg	0.0	186.53969745522772	0.38335055928109796
329.0	164.5087324078013	pulse	0.0	t		object	car-33.jpg	0.0	186.53110480700525	
329.0	164.90067561530486	ISI	1.0		6.0	object	car-33.jpg	0.0	186.92304801450882	0.11667479666903091
330.0	165.0173504119739	car	0.0		46.0	object	car-115.jpg	0.0	187.03972281117785	0.3833061863679177
330.0	165.20077595241855	pulse	0.0	t		object	car-115.jpg	0.0	187.2231483516225	
330.0	165.4006565983418	ISI	1.0		7.0	object	car-115.jpg	0.0	187.42302899754577	0.11668838021432748
331.0	165.51734497855614	car	0.0		46.0	object	car-81.jpg	0.0	187.5397173777601	0.38330588451208314
331.0	165.90065086306822	ISI	1.0		7.0	object	car-81.jpg	0.0	187.92302326227218	0.11670317118478124
331.0	165.9399912220124	pulse	1.0	t		object	car-81.jpg	0.0	187.96236362121635	
332.0	166.017354034253	car	0.0		46.0	object	car-94.jpg	0.0	188.03972643345696	0.38329863995386404
332.0	166.40065267420687	ISI	1.0		5.0	object	car-94.jpg	0.0	188.42302507341083	0.11667721152298327
333.0	166.51732988572985	car	0.0		46.0	object	car-69.jpg	0.0	188.5397022849338	0.38331584577645117
333.0	166.6007388844355	pulse	0.0	t		object	car-69.jpg	0.0	188.62311128363945	
333.0	166.9006457315063	ISI	1.0		6.0	object	car-69.jpg	0.0	188.92301813071026	0.11669924704983714
334.0	167.01734497855614	car	0.0		46.0	object	car-87.jpg	0.0	189.0397173777601	0.38328445269871736
334.0	167.3007617047897	pulse	0.0	t		object	car-87.jpg	0.0	189.32313410399365	
334.0	167.40062943125486	ISI	1.0		7.0	object	car-87.jpg	0.0	189.42300183045882	0.1166917006339645
335.0	167.51732113188882	car	0.0		46.0	object	car-22.jpg	0.0	189.53969353109278	0.3833049789427605
335.0	167.90062611083158	ISI	1.0		5.0	object	car-22.jpg	0.0	189.92299851003554	0.11669924704983714
336.0	168.01732535788142	adult	0.0		45.0	face	adult-16.jpg	0.0	190.03969775708538	0.38328837683184247
336.0	168.0076734950635	pulse	0.0	t		face	adult-16.jpg	0.0	190.03004589426746	
336.0	168.40061373471326	ISI	1.0		6.0	face	adult-16.jpg	0.0	190.42298613391722	0.1166983414805145
337.0	168.51731207619378	adult	0.0		46.0	face	adult-134.jpg	0.0	190.53968447539773	0.38329562139006157
337.0	168.7007273535146	pulse	0.0	t		face	adult-134.jpg	0.0	190.72309975271855	
337.0	168.90060769758384	ISI	1.0		7.0	face	adult-134.jpg	0.0	190.9229800967878	0.1167028693271277
338.0	169.01731056691096	adult	0.0		46.0	face	adult-85.jpg	0.0	191.03968296611492	0.38325758746577776
338.0	169.40056815437674	ISI	1.0		7.0	face	adult-85.jpg	0.0	191.4229405535807	0.11668536164870602
338.0	169.43726123147826	pulse	1.0	t		face	adult-85.jpg	0.0	191.45963363068222	
339.0	169.51725351602545	adult	0.0		46.0	face	adult-85.jpg	1.0	191.5396259152294	0.38328777312017337
339.0	169.87567706421578	response	0.0	b		face	adult-85.jpg	1.0	191.89804946341974	
339.0	169.90054128914562	ISI	1.0		6.0	face	adult-85.jpg	1.0	191.92291368834958	0.11672007514971483
340.0	170.01726136429534	adult	0.0		46.0	face	adult-7.jpg	0.0	192.0396337634993	0.3832932065379282
340.0	170.10064772376063	pulse	0.0	t		face	adult-7.jpg	0.0	192.1230201229646	
340.0	170.40055457083326	ISI	1.0		7.0	face	adult-7.jpg	0.0	192.42292697003722	0.11670437860993843
341.0	170.5172589494432	adult	0.0		46.0	face	adult-82.jpg	0.0	192.53963134864716	0.38329139539746393
341.0	170.80066692183573	pulse	0.0	t		face	adult-82.jpg	0.0	192.8230393210397	
341.0	170.90055034484067	ISI	1.0		6.0	face	adult-82.jpg	0.0	192.92292274404463	0.11669743590937287
342.0	171.01724778075004	adult	0.0		46.0	face	adult-4.jpg	0.0	193.039620179954	0.3832714728669089
342.0	171.40051925361695	ISI	1.0		6.0	face	adult-4.jpg	0.0	193.4228916528209	0.1167022656154586
343.0	171.5172215192324	adult	0.0		45.0	face	adult-102.jpg	0.0	193.53959391843637	0.3833095067893737
343.0	171.50741389844006	pulse	0.0	t		face	adult-102.jpg	0.0	193.52978629764402	
343.0	171.90053102602178	ISI	1.0		4.0	face	adult-102.jpg	0.0	193.92290342522574	0.11669894519400259
344.0	172.01722997121578	adult	0.0		46.0	face	adult-13.jpg	0.0	194.03960237041974	0.38328958425881865
344.0	172.20064283368447	pulse	0.0	t		face	adult-13.jpg	0.0	194.22301523288843	
344.0	172.4005195554746	ISI	1.0		6.0	face	adult-13.jpg	0.0	194.42289195467856	0.11670800088722899
345.0	172.51722755636183	adult	0.0		46.0	face	adult-120.jpg	0.0	194.5395999555658	0.38329743253052584
345.0	172.90052498889236	ISI	1.0		5.0	face	adult-120.jpg	0.0	194.92289738809632	0.11670468046577298
345.0	172.95023502550066	pulse	1.0	t		face	adult-120.jpg	0.0	194.97260742470462	
346.0	173.01722966935813	adult	0.0		46.0	face	adult-113.jpg	0.0	195.0396020685621	0.3832781137116399
346.0	173.40050778306977	ISI	1.0		6.0	face	adult-113.jpg	0.0	195.42288018227373	0.11668355050824175
347.0	173.517191333578	adult	0.0		46.0	face	adult-36.jpg	0.0	195.53956373278197	0.3832892824029841
347.0	173.60062689565893	pulse	0.0	t		face	adult-36.jpg	0.0	195.6229992948629	
347.0	173.900480615981	ISI	1.0		5.0	face	adult-36.jpg	0.0	195.92285301518496	0.11672490485398157
348.0	174.01720552083498	body	0.0		46.0	body	body-14.jpg	0.0	196.03957792003894	0.38330256409062713
348.0	174.3006213414992	pulse	0.0	t		body	body-14.jpg	0.0	196.32299374070317	
348.0	174.4005080849256	ISI	1.0		4.0	body	body-14.jpg	0.0	196.42288048412956	0.11666966510892962
349.0	174.51717775003453	body	0.0		46.0	body	body-81.jpg	0.0	196.5395501492385	0.38330920493353915
349.0	174.90048695496807	ISI	1.0		5.0	body	body-81.jpg	0.0	196.92285935417203	0.11670256747129315
350.0	175.01718952243937	body	0.0		45.0	body	body-74.jpg	0.0	197.03956192164333	0.3833016585194855
350.0	175.00755275244956	pulse	0.0	t		body	body-74.jpg	0.0	197.02992515165352	
350.0	175.40049118095885	ISI	1.0		5.0	body	body-74.jpg	0.0	197.4228635801628	0.1167218862901791
351.0	175.51721306724903	body	0.0		46.0	body	body-98.jpg	0.0	197.539585466453	0.38327992485028517
351.0	175.70062532600423	pulse	0.0	t		body	body-98.jpg	0.0	197.7229977252082	
351.0	175.90049299209932	ISI	1.0		5.0	body	body-98.jpg	0.0	197.92286539130328	0.11669773776520742
352.0	176.01719072986452	body	0.0		46.0	body	body-26.jpg	0.0	198.03956312906848	0.3833082993642165
352.0	176.40049902922874	ISI	1.0		7.0	body	body-26.jpg	0.0	198.4228714284327	0.11671947143804573
352.0	176.4365029678538	pulse	1.0	t		body	body-26.jpg	0.0	198.45887536705777	
353.0	176.5172185006668	body	0.0		46.0	body	body-120.jpg	0.0	198.53959089987075	0.3832763025711756
353.0	176.90049480323796	ISI	1.0		5.0	body	body-120.jpg	0.0	198.92286720244192	0.11669532291307405
354.0	177.01719012615104	body	0.0		46.0	body	body-1.jpg	0.0	199.039562525355	0.3832926028244401
354.0	177.10061904738905	pulse	0.0	t		body	body-1.jpg	0.0	199.122991446593	
354.0	177.40048272897548	ISI	1.0		7.0	body	body-1.jpg	0.0	199.42285512817944	0.1166904932106263
355.0	177.5171732221861	body	0.0		46.0	body	body-1.jpg	1.0	199.53954562139006	0.38330709193724033
355.0	177.8005932688411	pulse	0.0	t		body	body-1.jpg	1.0	199.82296566804507	
355.0	177.90048031412334	ISI	1.0		7.0	body	body-1.jpg	1.0	199.9228527133273	0.11666332612185215
356.0	178.0171436402452	body	0.0		46.0	body	body-139.jpg	0.0	200.03951603944915	0.38330528079859505
356.0	178.08391943811148	response	0.0	b		body	body-139.jpg	0.0	200.10629183731544	
356.0	178.4004489210438	ISI	1.0		7.0	body	body-139.jpg	0.0	200.42282132024775	0.11671162316815753
357.0	178.51716054421195	body	0.0		45.0	body	body-13.jpg	0.0	200.5395329434159	0.3832938102495973
357.0	178.50743080240682	pulse	0.0	t		body	body-13.jpg	0.0	200.52980320161078	
357.0	178.90045435446154	ISI	1.0		5.0	body	body-13.jpg	0.0	200.9228267536655	0.11670890645837062
358.0	179.01716326091992	body	0.0		46.0	body	body-125.jpg	0.0	201.03953566012387	0.38329230096860556
358.0	179.20057219925366	pulse	0.0	t		body	body-125.jpg	0.0	201.22294459845762	
358.0	179.40045556188852	ISI	1.0		5.0	body	body-125.jpg	0.0	201.42282796109248	0.11668294679475366
359.0	179.51713850868327	body	0.0		46.0	body	body-50.jpg	0.0	201.53951090788723	0.3833076956525474
359.0	179.90044620433582	ISI	1.0		5.0	body	body-50.jpg	0.0	201.92281860353978	0.11668988949531922
359.0	179.9552711999877	pulse	1.0	t		body	body-50.jpg	0.0	201.97764359919165	
360.0	180.01713609383114	house	0.0		46.0	place	house-132.jpg	0.0	202.0395084930351	0.3832518521921884
360.0	180.40038794602333	ISI	1.0		6.0	place	house-132.jpg	0.0	202.4227603452273	0.11671464173196
361.0	180.5171025877553	house	0.0		46.0	place	house-11.jpg	0.0	202.53947498695925	0.3832983380998485
361.0	180.60052698114487	pulse	0.0	t		place	house-11.jpg	0.0	202.62289938034883	
361.0	180.90040092585514	ISI	1.0		6.0	place	house-11.jpg	0.0	202.9227733250591	0.11669864333453006
362.0	181.01709956918967	house	0.0		46.0	place	house-65.jpg	0.0	203.03947196839363	0.3832950176765735
362.0	181.30050905086682	pulse	0.0	t		place	house-65.jpg	0.0	203.32288145007078	
362.0	181.40039458686624	ISI	1.0		5.0	place	house-65.jpg	0.0	203.4227669860702	0.11669713405353832
363.0	181.51709172091978	house	0.0		46.0	place	house-103.jpg	0.0	203.53946412012374	0.3832959232477151
363.0	181.9003876441675	ISI	1.0		7.0	place	house-103.jpg	0.0	203.92276004337145	0.11667630595184164
364.0	182.01706395011934	house	0.0		45.0	place	house-138.jpg	0.0	204.0394363493233	0.38332278847701673
364.0	182.00724636806262	pulse	0.0	t		place	house-138.jpg	0.0	204.02961876726658	
364.0	182.40038673859635	ISI	1.0		6.0	place	house-138.jpg	0.0	204.4227591378003	0.11671252873748017
365.0	182.51709926733383	house	0.0		46.0	place	house-46.jpg	0.0	204.5394716665378	0.38327117100925534
365.0	182.70049160355848	pulse	0.0	t		place	house-46.jpg	0.0	204.72286400276244	
365.0	182.9003704383431	ISI	1.0		7.0	place	house-46.jpg	0.0	204.92274283754705	0.11670166190197051
366.0	183.01707210024506	house	0.0		46.0	place	house-46.jpg	1.0	205.03944449944902	0.3832965269593842
366.0	183.40036862720444	ISI	1.0		5.0	place	house-46.jpg	1.0	205.4227410264084	0.1166983414805145
366.0	183.44972760466044	pulse	1.0	t		place	house-46.jpg	1.0	205.4721000038644	
367.0	183.51706696868496	house	0.0		46.0	place	house-79.jpg	0.0	205.53943936788892	0.3832910935416294
367.0	183.80046045196286	response	0.0	b		place	house-79.jpg	0.0	205.82283285116682	
367.0	183.9003580622266	ISI	1.0		7.0	place	house-79.jpg	0.0	205.92273046143055	0.11668143751194293
368.0	184.01703949973853	house	0.0		46.0	place	house-120.jpg	0.0	206.0394118989425	0.383324599617481
368.0	184.10047234511148	pulse	0.0	t		place	house-120.jpg	0.0	206.12284474431544	
368.0	184.400364099356	ISI	1.0		6.0	place	house-120.jpg	0.0	206.42273649855997	0.11667057067825226
369.0	184.51703467003426	house	0.0		46.0	place	house-77.jpg	0.0	206.53940706923822	0.38331041236051533
369.0	184.80045894268187	pulse	0.0	t		place	house-77.jpg	0.0	206.82283134188583	
369.0	184.90034508239478	ISI	1.0		6.0	place	house-77.jpg	0.0	206.92271748159874	0.11669532291489304
370.0	185.01704040530967	house	0.0		46.0	place	house-127.jpg	0.0	207.03941280451363	0.38329018797048775
370.0	185.40033059328016	ISI	1.0		6.0	place	house-127.jpg	0.0	207.42270299248412	0.11668234308308456
371.0	185.51701293636324	house	0.0		45.0	place	house-19.jpg	0.0	207.5393853355672	0.38330920493535814
371.0	185.50724576434914	pulse	0.0	t		place	house-19.jpg	0.0	207.5296181635531	
371.0	185.9003221412986	ISI	1.0		5.0	place	house-19.jpg	0.0	207.92269454050256	0.11671826401106955
372.0	186.01704040530967	car	0.0		46.0	object	car-116.jpg	0.0	208.03941280451363	0.3833082993642165
372.0	186.20046534203902	pulse	0.0	t		object	car-116.jpg	0.0	208.22283774124298	
372.0	186.4003487046739	ISI	1.0		6.0	object	car-116.jpg	0.0	208.42272110387785	0.11669713405171933
373.0	186.5170458387256	car	0.0		46.0	object	car-133.jpg	0.0	208.53941823792957	0.38327781185580534
373.0	186.9003236505814	ISI	1.0		5.0	object	car-133.jpg	0.0	208.92269604978537	0.11670709531790635
373.0	186.95513174226835	pulse	1.0	t		object	car-133.jpg	0.0	208.9775041414723	
374.0	187.01703074589932	car	0.0		46.0	object	car-38.jpg	0.0	209.03940314510328	0.3833095067911927
374.0	187.4003402526905	ISI	1.0		5.0	object	car-38.jpg	0.0	209.42271265189447	0.11668083380027383
375.0	187.5170210864908	car	0.0		46.0	object	car-103.jpg	0.0	209.53939348569475	0.3833206754825369
375.0	187.60045212072328	pulse	0.0	t		object	car-103.jpg	0.0	209.62282451992724	
375.0	187.90034176197332	ISI	1.0		5.0	object	car-103.jpg	0.0	209.92271416117728	0.11667449481319636
376.0	188.01701625678652	car	0.0		46.0	object	car-119.jpg	0.0	210.03938865599048	0.3833028659464617
376.0	188.3004405294323	pulse	0.0	t		object	car-119.jpg	0.0	210.32281292863627	
376.0	188.40031912273298	ISI	1.0		7.0	object	car-119.jpg	0.0	210.42269152193694	0.11669351177442877
377.0	188.5170126345074	car	0.0		46.0	object	car-23.jpg	0.0	210.53938503371137	0.3833149402089475
377.0	188.90032757471636	ISI	1.0		5.0	object	car-23.jpg	0.0	210.92269997392032	0.11668747464318585
378.0	189.01701504935954	car	0.0		45.0	object	car-56.jpg	0.0	211.0393874485635	0.38330075295016286
378.0	189.00702903135425	pulse	0.0	t		object	car-56.jpg	0.0	211.0294014305582	
378.0	189.4003158023097	ISI	1.0		6.0	object	car-56.jpg	0.0	211.42268820151367	0.11669864333634905
379.0	189.51701444564605	car	0.0		46.0	object	car-29.jpg	0.0	211.53938684485001	0.3832512484787003
379.0	189.7003865574825	pulse	0.0	t		object	car-29.jpg	0.0	211.72275895668645	
379.0	189.90026569412476	ISI	1.0		7.0	object	car-29.jpg	0.0	211.92263809332871	0.11668385236589529
380.0	190.01694954649065	car	0.0		46.0	object	car-29.jpg	1.0	212.0393219456946	0.38332882560825965
380.0	190.4002783720989	ISI	1.0		5.0	object	car-29.jpg	1.0	212.42265077130287	0.11666634468747361
380.0	190.45263840725966	pulse	1.0	t		object	car-29.jpg	1.0	212.47501080646362	
380.0	190.47537424173606	response	1.0	b		object	car-29.jpg	1.0	212.49774664094002	
381.0	190.51694471678638	car	0.0		46.0	object	car-63.jpg	0.0	212.53931711599034	0.3832950176765735
381.0	190.90023973446296	ISI	1.0		5.0	object	car-63.jpg	0.0	212.92261213366692	0.11669260620510613
382.0	191.01693234066806	car	0.0		46.0	object	car-108.jpg	0.0	213.03930473987202	0.38333093860455847
382.0	191.10036428046988	pulse	0.0	t		object	car-108.jpg	0.0	213.12273667967384	
382.0	191.40026327927262	ISI	1.0		6.0	object	car-108.jpg	0.0	213.42263567847658	0.11668355051006074
383.0	191.51694682978268	car	0.0		46.0	object	car-11.jpg	0.0	213.53931922898664	0.3832892824011651
383.0	191.80036566901072	pulse	0.0	t		object	car-11.jpg	0.0	213.82273806821468	
383.0	191.90023611218385	ISI	1.0		11.0	object	car-11.jpg	0.0	213.9226085113878	0.09999812848946021
384.0	192.0002342406733	baseline	0.0		48.0		baseline	0.0	214.02260663987727	0.3999985510890838
384.0	192.4002327917624	ISI	1.0		11.0		baseline	0.0	214.42260519096635	0.10000929718080442
385.0	192.5002420889432	baseline	0.0		47.0		baseline	0.0	214.52261448814716	0.3999786285585287
385.0	192.50476540917225	pulse	0.0	t			baseline	0.0	214.5271378083762	
385.0	192.90022071750172	ISI	1.0		11.0		baseline	0.0	214.92259311670568	0.1000418976873334
386.0	193.00026261518906	baseline	0.0		48.0		baseline	0.0	215.02263501439302	0.3999647431555786
386.0	193.2003361474417	pulse	0.0	t			baseline	0.0	215.22270854664566	
386.0	193.40022735834464	ISI	1.0		11.0		baseline	0.0	215.4225997575486	0.09998967650608392
387.0	193.50021703485072	baseline	0.0		48.0		baseline	0.0	215.52258943405468	0.4000067012148065
387.0	193.90022373606553	ISI	1.0		11.0		baseline	0.0	215.9225961352695	0.09998424309014808
387.0	193.90506008152624	pulse	1.0	t			baseline	0.0	215.9274324807302	
388.0	194.00020797915568	baseline	0.0		48.0		baseline	0.0	216.02258037835963	0.3999916083866992
388.0	194.40019958754237	ISI	1.0		11.0		baseline	0.0	216.42257198674633	0.09999209136003628
