trial_nr	onset	event_type	phase	response	nr_frames	rating_type	face_id	repetition	session	rating	onset_abs	duration
0.0	0.006786018406273797	cue	0.0		480						1224.608543543145	4.0005065138830105
0.0	4.007292532289284	fix	1.0		119						1228.609050057028	1.0167907243449008
0.0	5.024083256634185	face	0.0		146	attractiveness	024	1.0	2		1229.625840781373	1.2753805570537224
0.0	6.2994638136879075	rating	1.0		183	attractiveness	024	1.0	2		1230.9012213384267	1.5332423137733713
0.0	7.832706127461279	fix	2.0		60	attractiveness	024	1.0	2	-2.05	1232.4344636522	0.5167513321648585
1.0	8.349457459626137	face	0.0		147	attractiveness	062	1.0	2		1232.951214984365	1.2334609478566563
1.0	9.582918407482794	rating	1.0		72	attractiveness	062	1.0	2		1234.1846759322216	0.6084080099244602
1.0	10.191326417407254	fix	2.0		60	attractiveness	062	1.0	2	-1.29	1234.793083942146	0.5167440876248293
2.0	10.708070505032083	face	0.0		147	attractiveness	066	1.0	2		1235.3098280297709	1.2334585330245318
2.0	11.941529038056615	rating	1.0		58	attractiveness	066	1.0	2		1236.5432865627954	0.4917235689936206
2.0	12.433252607050235	fix	2.0		60	attractiveness	066	1.0	2	0.7400000000000002	1237.035010131789	0.5167570674238959
3.0	12.950009674474131	face	0.0		147	attractiveness	006	1.0	2		1237.551767199213	1.2334527977654943
3.0	14.183462472239626	rating	1.0		63	attractiveness	006	1.0	2		1238.7852199969784	0.5333947509061545
3.0	14.71685722314578	fix	2.0		60	attractiveness	006	1.0	2	-0.6499999999999999	1239.3186147478846	0.516754350726842
4.0	15.233611573872622	face	0.0		147	attractiveness	092	1.0	2		1239.8353690986114	1.2334639664186398
4.0	16.467075540291262	rating	1.0		85	attractiveness	092	1.0	2		1241.06883306503	0.7167467439576285
4.0	17.18382228424889	fix	2.0		60	attractiveness	092	1.0	2	-0.9500000000000002	1241.7855798089877	0.5167555581429042
5.0	17.700577842391795	face	0.0		147	attractiveness	064	1.0	2		1242.3023353671306	1.2334470625064569
5.0	18.93402490489825	rating	1.0		49	attractiveness	064	1.0	2		1243.535782429637	0.41671664894965943
5.0	19.35074155384791	fix	2.0		60	attractiveness	064	1.0	2	0.1299999999999999	1243.9524990785867	0.5167498228838667
6.0	19.867491376731778	face	0.0		147	attractiveness	005	1.0	2		1244.4692489014706	1.2334567218931625
6.0	21.10094809862494	rating	1.0		153	attractiveness	005	1.0	2		1245.7027056233637	1.2835312651586719
6.0	22.384479363783612	fix	2.0		60	attractiveness	005	1.0	2	-3.78	1246.9862368885224	0.5167148076143349
7.0	22.901194171397947	face	0.0		147	attractiveness	034	1.0	2		1247.5029516961367	1.2334561181778554
7.0	24.134650289575802	rating	1.0		60	attractiveness	034	1.0	2		1248.7364078143146	0.5083847972273361
7.0	24.64303508680314	fix	2.0		60	attractiveness	034	1.0	2	-1.6400000000000001	1249.244792611542	0.5167504265991738
8.0	25.159785513402312	face	0.0		147	attractiveness	018	1.0	2		1249.761543038141	1.233459136725287
8.0	26.3932446501276	rating	1.0		104	attractiveness	018	1.0	2		1250.9950021748664	0.8751081020891434
8.0	27.268352752216742	fix	2.0		60	attractiveness	018	1.0	2	-0.08999999999999986	1251.8701102769555	0.516742276478908
9.0	27.78509502869565	face	0.0		147	attractiveness	038	1.0	2		1252.3868525534344	1.2334624571522
9.0	29.01855748584785	rating	1.0		102	attractiveness	038	1.0	2		1253.6203150105866	0.8584320829249918
9.0	29.876989568772842	fix	2.0		60	attractiveness	038	1.0	2	-3.83	1254.4787470935116	0.5167480117524974
10.0	30.39373758052534	face	0.0		147	attractiveness	027	1.0	2		1254.9954951052641	1.2334609478566563
10.0	31.627198528381996	rating	1.0		140	attractiveness	027	1.0	2		1256.2289560531208	1.175138498962042
10.0	32.80233702734404	fix	2.0		60	attractiveness	027	1.0	2	0.5800000000000001	1257.4040945520828	0.5167501247342443
11.0	33.31908715207828	face	0.0		147	attractiveness	124	1.0	2		1257.920844676817	1.2334603441559011
11.0	34.55254749623418	rating	1.0		116	attractiveness	124	1.0	2		1259.154305020973	0.9751119960274082
11.0	35.52765949226159	fix	2.0		60	attractiveness	124	1.0	2	3.1799999999999997	1260.1294170170004	0.516751030299929
12.0	36.04441052256152	face	0.0		147	attractiveness	030	1.0	2		1260.6461680473003	1.2334983779874165
12.0	37.27790890054894	rating	1.0		56	attractiveness	030	1.0	2		1261.8796664252877	0.47501555310736876
12.0	37.752924453656306	fix	2.0		60	attractiveness	030	1.0	2	0.9400000000000004	1262.354681978395	0.5167507284495514
13.0	38.26967518210586	face	0.0		147	attractiveness	102	1.0	2		1262.8714327068446	1.2334567218931625
13.0	39.50313190399902	rating	1.0		69	attractiveness	102	1.0	2		1264.1048894287378	0.5834068100521108
13.0	40.08653871405113	fix	2.0		60	attractiveness	102	1.0	2	-1.56	1264.68829623879	0.516751634015236
14.0	40.603290348066366	face	0.0		147	attractiveness	137	1.0	2		1265.2050478728052	1.233453703331179
14.0	41.836744051397545	rating	1.0		93	attractiveness	137	1.0	2		1266.4385015761363	0.7834269740124
14.0	42.620171025409945	fix	2.0		60	attractiveness	137	1.0	2	0.7000000000000002	1267.2219285501487	0.5167468043218832
15.0	43.13691782973183	face	0.0		147	attractiveness	061	1.0	2		1267.7386753544706	1.2334600423055235
15.0	44.37037787203735	rating	1.0		36	attractiveness	061	1.0	2		1268.9721353967761	0.30836825552978553
15.0	44.67874612756714	fix	2.0		60	attractiveness	061	1.0	2	0.0	1269.280503652306	0.5167546525772195
16.0	45.19550078014436	face	0.0		147	attractiveness	121	1.0	2		1269.7972583048831	1.2334567218786106
16.0	46.42895750202297	rating	1.0		85	attractiveness	121	1.0	2		1271.0307150267618	0.7167476495378651
16.0	47.14570515156083	fix	2.0		60	attractiveness	121	1.0	2	-1.15	1271.7474626762996	0.5167561618436594
17.0	47.66246131340449	face	0.0		147	attractiveness	101	1.0	2		1272.2642188381433	1.2334518921998097
17.0	48.8959132056043	rating	1.0		93	attractiveness	101	1.0	2		1273.497670730343	0.7834251628810307
17.0	49.67933836848533	fix	2.0		60	attractiveness	101	1.0	2	1.3600000000000003	1274.2810958932241	0.5167567655589664
18.0	50.1960951340443	face	0.0		147	attractiveness	011	1.0	2		1274.797852658783	1.2334552126121707
18.0	51.42955034665647	rating	1.0		93	attractiveness	011	1.0	2		1276.0313078713953	0.7834218424686696
18.0	52.21297218912514	fix	2.0		60	attractiveness	011	1.0	2	0.2599999999999998	1276.814729713864	0.5167567655589664
19.0	52.729728954684106	face	0.0		147	attractiveness	144	1.0	2		1277.331486479423	1.2334624571522
19.0	53.963191411836306	rating	1.0		58	attractiveness	144	1.0	2		1278.564948936575	0.49172205971262883
19.0	54.454913471548934	fix	2.0		60	attractiveness	144	1.0	2	0.8700000000000001	1279.0566709962877	0.5167416727781529
20.0	54.97165514432709	face	0.0		147	attractiveness	126	1.0	2		1279.5734126690659	1.233467890546308
20.0	56.205123034873395	rating	1.0		63	attractiveness	126	1.0	2		1280.8068805596122	0.5333875063806772
20.0	56.73851054125407	fix	2.0		60	attractiveness	126	1.0	2	1.7199999999999998	1281.3402680659929	0.5167827251570998
21.0	57.25529326641117	face	0.0		147	attractiveness	070	1.0	2		1281.85705079115	1.233426234452054
21.0	58.488719500863226	rating	1.0		85	attractiveness	070	1.0	2		1283.090477025602	0.7167594219063176
21.0	59.205478922769544	fix	2.0		60	attractiveness	070	1.0	2	-1.69	1283.8072364475083	0.5167398616467835
22.0	59.72221878441633	face	0.0		147	attractiveness	099	1.0	2		1284.3239763091551	1.2334606460062787
22.0	60.955679430422606	rating	1.0		167	attractiveness	099	1.0	2		1285.5574369551614	1.4001640887727262
22.0	62.35584351919533	fix	2.0		60	attractiveness	099	1.0	2	0.16000000000000014	1286.9576010439341	0.5167570674238959
23.0	62.87260058661923	face	0.0		147	attractiveness	087	1.0	2		1287.474358111358	1.2334521940501872
23.0	64.10605278066942	rating	1.0		37	attractiveness	087	1.0	2		1288.7078103054082	0.316703095624689
23.0	64.4227558762941	fix	2.0		60	attractiveness	087	1.0	2	-0.5099999999999998	1289.024513401033	0.5167507284495514
24.0	64.93950660474366	face	0.0		147	attractiveness	036	1.0	2		1289.5412641294824	1.2334648719988763
24.0	66.17297147674253	rating	1.0		55	attractiveness	036	1.0	2		1290.7747290014813	0.46671995426004287
24.0	66.63969143100257	fix	2.0		60	attractiveness	036	1.0	2	1.4400000000000004	1291.2414489557414	0.5167437857744517
25.0	67.15643521677703	face	0.0		147	attractiveness	117	1.0	2		1291.7581927415158	1.2334748332359595
25.0	68.38991005001299	rating	1.0		41	attractiveness	117	1.0	2		1292.9916675747518	0.350030985486228
25.0	68.73994103549921	fix	2.0		60	attractiveness	117	1.0	2	-0.6000000000000001	1293.341698560238	0.5167495210334891
26.0	69.2566905565327	face	0.0		147	attractiveness	091	1.0	2		1293.8584480812715	1.233459740440594
26.0	70.4901502969733	rating	1.0		48	attractiveness	091	1.0	2		1295.091907821712	0.4083727531833574
26.0	70.89852305015665	fix	2.0		60	attractiveness	091	1.0	2	0.2599999999999998	1295.5002805748954	0.5167567655589664
27.0	71.41527981571562	face	0.0		147	attractiveness	172	1.0	2		1296.0170373404544	1.233454307046486
27.0	72.64873412276211	rating	1.0		95	attractiveness	172	1.0	2		1297.250491647501	0.8000930319249164
27.0	73.44882715468702	fix	2.0		60	attractiveness	172	1.0	2	-3.67	1298.0505846794258	0.5167573692888254
28.0	73.96558452397585	face	0.0		147	attractiveness	043	1.0	2		1298.5673420487146	1.233450382918818
28.0	75.19903490689467	rating	1.0		79	attractiveness	043	1.0	2		1299.8007924316335	0.6667458534793695
28.0	75.86578076037404	fix	2.0		60	attractiveness	043	1.0	2	-1.1600000000000001	1300.4675382851128	0.5167501247487962
29.0	76.38253088512283	face	0.0		147	attractiveness	039	1.0	2		1300.9842884098616	1.2334757387870923
29.0	77.61600662390993	rating	1.0		51	attractiveness	039	1.0	2		1302.2177641486487	0.4334204388433136
29.0	78.04942706275324	fix	2.0		60	attractiveness	039	1.0	2	0.9299999999999997	1302.651184587492	0.5167036389611894
30.0	78.56613070171443	face	0.0		147	attractiveness	141	1.0	2		1303.1678882264532	1.233450986619573
30.0	79.799581688334	rating	1.0		37	attractiveness	141	1.0	2		1304.4013392130728	0.31670460490568075
30.0	80.11628629323968	fix	2.0		60	attractiveness	141	1.0	2	-0.3799999999999999	1304.7180438179785	0.5167507284495514
31.0	80.63303702168923	face	0.0		147	attractiveness	009	1.0	2		1305.234794546428	1.2334573256084695
31.0	81.8664943472977	rating	1.0		55	attractiveness	009	1.0	2		1306.4682518720365	0.46672568951908033
31.0	82.33322003681678	fix	2.0		60	attractiveness	009	1.0	2	2.08	1306.9349775615556	0.5167422764934599
32.0	82.84996231331024	face	0.0		147	attractiveness	100	1.0	2		1307.451719838049	1.2334591367398389
32.0	84.08342145005008	rating	1.0		36	attractiveness	100	1.0	2		1308.6851789747889	0.30837067036191
32.0	84.39179212041199	fix	2.0		60	attractiveness	100	1.0	2	0.7199999999999998	1308.9935496451508	0.5167495210334891
33.0	84.90854164144548	face	0.0		147	attractiveness	012	1.0	2		1309.5102991661843	1.2334618534368929
33.0	86.14200349488237	rating	1.0		55	attractiveness	012	1.0	2		1310.7437610196212	0.4667193505447358
33.0	86.60872284542711	fix	2.0		60	attractiveness	012	1.0	2	1.5199999999999996	1311.210480370166	0.5167474080517422
34.0	87.12547025347885	face	0.0		147	attractiveness	136	1.0	2		1311.7272277782176	1.2334600422909716
34.0	88.35893029576982	rating	1.0		153	attractiveness	136	1.0	2		1312.9606878205086	1.2834859868016792
34.0	89.6424162825715	fix	2.0		60	attractiveness	136	1.0	2	-2.29	1314.2441738073103	0.5167709527886473
35.0	90.15918723536015	face	0.0		147	attractiveness	130	1.0	2		1314.760944760099	1.2334377049846807
35.0	91.39262494034483	rating	1.0		82	attractiveness	130	1.0	2		1315.9943824650836	0.6917473552166484
35.0	92.08437229556148	fix	2.0		60	attractiveness	130	1.0	2	-1.2799999999999998	1316.6861298203003	0.5167567655589664
36.0	92.60112906112045	face	0.0		147	attractiveness	042	1.0	2		1317.2028865858592	1.2334591367398389
36.0	93.83458819786028	rating	1.0		126	attractiveness	042	1.0	2		1318.436345722599	1.058448926458368
36.0	94.89303712431865	fix	2.0		60	attractiveness	042	1.0	2	-0.2599999999999998	1319.4947946490574	0.5167531433107797
37.0	95.40979026762943	face	0.0		147	attractiveness	033	1.0	2		1320.0115477923682	1.2334633627033327
37.0	96.64325363033277	rating	1.0		44	attractiveness	033	1.0	2		1321.2450111550716	0.3750445614568889
37.0	97.01829819178965	fix	2.0		60	attractiveness	033	1.0	2	0.28000000000000025	1321.6200557165284	0.5167422764934599
38.0	97.53504046828311	face	0.0		147	attractiveness	044	1.0	2		1322.136797993022	1.2334648719988763
38.0	98.76850534028199	rating	1.0		40	attractiveness	044	1.0	2		1323.3702628650208	0.3417021825007396
38.0	99.11020752278273	fix	2.0		60	attractiveness	044	1.0	2	0.3200000000000003	1323.7119650475215	0.5167477099021198
39.0	99.62695523268485	face	0.0		147	attractiveness	082	1.0	2		1324.2287127574236	1.233465777550009
39.0	100.86042101023486	rating	1.0		92	attractiveness	082	1.0	2		1325.4621785349736	0.7750903227861272
39.0	101.63551133302099	fix	2.0		60	attractiveness	082	1.0	2	0.0	1326.2372688577598	0.5000596165045863
40.0	102.13557094952557	cue	0.0		480						1326.7373284742644	4.000474517190014
40.0	106.13604546671559	fix	1.0		120						1330.7378029914544	1.0168024966988014
40.0	107.15284796341439	face	0.0		147	trustworthiness	087	1.0	2		1331.7546054881532	1.2334600423055235
40.0	108.38630800571991	rating	1.0		286	trustworthiness	087	1.0	2		1332.9880655304587	2.391956028077402
40.0	110.77826403379731	fix	2.0		60	trustworthiness	087	1.0	2	-0.27	1335.380021558536	0.516748313602875
41.0	111.29501234740019	face	0.0		147	trustworthiness	172	1.0	2		1335.896769872139	1.2334603441559011
41.0	112.52847269155609	rating	1.0		197	trustworthiness	172	1.0	2		1337.1302302162949	1.6501938970322954
41.0	114.17866658858838	fix	2.0		60	trustworthiness	172	1.0	2	-0.27	1338.7804241133272	0.5167428801942151
42.0	114.6954094687826	face	0.0		147	trustworthiness	102	1.0	2		1339.2971669935214	1.2334615515865153
42.0	115.92887102036912	rating	1.0		44	trustworthiness	102	1.0	2		1340.530628545108	0.3750421465956606
42.0	116.30391316696478	fix	2.0		60	trustworthiness	102	1.0	2	-0.5299999999999998	1340.9056706917036	0.516748917332734
43.0	116.82066208429751	face	0.0		147	trustworthiness	064	1.0	2		1341.4224196090363	1.2334579293092247
43.0	118.05412001360673	rating	1.0		77	trustworthiness	064	1.0	2		1342.6558775383455	0.6500831159646623
43.0	118.7042031295714	fix	2.0		60	trustworthiness	064	1.0	2	-0.8300000000000001	1343.3059606543102	0.5167425783583894
44.0	119.22094570792979	face	0.0		147	trustworthiness	061	1.0	2		1343.8227032326686	1.233459740440594
44.0	120.45440544837038	rating	1.0		170	trustworthiness	061	1.0	2		1345.0561629731092	1.4251767591631506
44.0	121.87958220753353	fix	2.0		60	trustworthiness	061	1.0	2	-0.04999999999999982	1346.4813397322723	0.5167474080371903
45.0	122.39632961557072	face	0.0		147	trustworthiness	141	1.0	2		1346.9980871403095	1.2334600423055235
45.0	123.62978965787624	rating	1.0		96	trustworthiness	141	1.0	2		1348.231547182615	0.808428475735127
45.0	124.43821813361137	fix	2.0		60	trustworthiness	141	1.0	2	0.1900000000000004	1349.0399756583502	0.5167458987707505
46.0	124.95496403238212	face	0.0		147	trustworthiness	027	1.0	2		1349.556721557121	1.233455816312926
46.0	126.18841984869505	rating	1.0		36	trustworthiness	027	1.0	2		1350.7901773734338	0.3083758019201923
46.0	126.49679565061524	fix	2.0		60	trustworthiness	027	1.0	2	0.5599999999999996	1351.098553175354	0.516742880208767
47.0	127.01353853082401	face	0.0		147	trustworthiness	082	1.0	2		1351.6152960555628	1.2334585330245318
47.0	128.24699706384854	rating	1.0		67	trustworthiness	082	1.0	2		1352.8487545885873	0.5667386391287437
47.0	128.81373570297728	fix	2.0		60	trustworthiness	082	1.0	2	1.0300000000000002	1353.415493227716	0.5167510303144809
48.0	129.33048673329176	face	0.0		147	trustworthiness	066	1.0	2		1353.9322442580306	1.2334579293092247
48.0	130.563944662601	rating	1.0		84	trustworthiness	066	1.0	2		1355.1657021873398	0.7084097908664262
48.0	131.27235445346741	fix	2.0		60	trustworthiness	066	1.0	2	-0.81	1355.8741119782062	0.516754350726842
49.0	131.78910880419426	face	0.0		147	trustworthiness	009	1.0	2		1356.390866328933	1.2334549107472412
49.0	133.0225637149415	rating	1.0		87	trustworthiness	009	1.0	2		1357.6243212396803	0.7334179334284272
49.0	133.75598164836993	fix	2.0		60	trustworthiness	009	1.0	2	1.9400000000000004	1358.3577391731087	0.5167510303144809
50.0	134.2727326786844	face	0.0		147	trustworthiness	091	1.0	2		1358.8744902034232	1.2334612497215858
50.0	135.506193928406	rating	1.0		203	trustworthiness	091	1.0	2		1360.1079514531448	1.7001981079083635
50.0	137.20639203631436	fix	2.0		60	trustworthiness	091	1.0	2	-0.14000000000000012	1361.8081495610531	0.5167570674238959
51.0	137.72314910373825	face	0.0		147	trustworthiness	034	1.0	2		1362.324906628477	1.233453703331179
51.0	138.95660280706943	rating	1.0		64	trustworthiness	034	1.0	2		1363.5583603318082	0.5417289873003028
51.0	139.49833179436973	fix	2.0		60	trustworthiness	034	1.0	2	-0.5299999999999998	1364.1000893191085	0.5167504265991738
52.0	140.0150822209689	face	0.0		147	trustworthiness	099	1.0	2		1364.6168397457077	1.233465173849254
52.0	141.24854739481816	rating	1.0		59	trustworthiness	099	1.0	2		1365.850304919557	0.5000508626835654
52.0	141.74859825750173	fix	2.0		60	trustworthiness	099	1.0	2	0.4800000000000004	1366.3503557822405	0.5167471061868127
53.0	142.26534536368854	face	0.0		147	trustworthiness	117	1.0	2		1366.8671028884273	1.23351347076823
53.0	143.49885883445677	rating	1.0		116	trustworthiness	117	1.0	2		1368.1006163591956	0.9750694343529176
53.0	144.4739282688097	fix	2.0		60	trustworthiness	117	1.0	2	0.0	1369.0756857935485	0.5167431820591446
54.0	144.99067145086883	face	0.0		147	trustworthiness	012	1.0	2		1369.5924289756076	1.2334666831302457
54.0	146.22413813399908	rating	1.0		91	trustworthiness	012	1.0	2		1370.8258956587379	0.7667548789759167
54.0	146.990893012975	fix	2.0		60	trustworthiness	012	1.0	2	-2.21	1371.5926505377138	0.5167440876248293
55.0	147.50763710059982	face	0.0		147	trustworthiness	136	1.0	2		1372.1093946253386	1.2334672868310008
55.0	148.74110438743082	rating	1.0		70	trustworthiness	136	1.0	2		1373.3428619121696	0.5917289722128771
55.0	149.3328333596437	fix	2.0		60	trustworthiness	136	1.0	2	-1.42	1373.9345908843825	0.5167471061868127
56.0	149.8495804658305	face	0.0		147	trustworthiness	070	1.0	2		1374.4513379905693	1.2334603441559011
56.0	151.08304080998641	rating	1.0		46	trustworthiness	070	1.0	2		1375.6847983347252	0.39171967504080385
56.0	151.47476048502722	fix	2.0		60	trustworthiness	070	1.0	2	-0.54	1376.076518009766	0.5167407672124682
57.0	151.9915012522397	face	0.0		147	trustworthiness	100	1.0	2		1376.5932587769785	1.233459740455146
57.0	153.22496099269483	rating	1.0		185	trustworthiness	100	1.0	2		1377.8267185174336	1.550183060389827
57.0	154.77514405308466	fix	2.0		60	trustworthiness	100	1.0	2	-0.18999999999999995	1379.3769015778234	0.5167534451611573
58.0	155.29189749824582	face	0.0		147	trustworthiness	126	1.0	2		1379.8936550229846	1.2334558163274778
58.0	156.5253533145733	rating	1.0		203	trustworthiness	126	1.0	2		1381.127110839312	1.7001999190397328
58.0	158.22555323361303	fix	2.0		60	trustworthiness	126	1.0	2	-0.08000000000000007	1382.8273107583518	0.516751634015236
59.0	158.74230486762826	face	0.0		147	trustworthiness	130	1.0	2		1383.344062392367	1.2334579293092247
59.0	159.9757627969375	rating	1.0		210	trustworthiness	130	1.0	2		1384.5775203216763	1.7585480256966548
59.0	161.73431082263414	fix	2.0		60	trustworthiness	130	1.0	2	0.08000000000000007	1386.336068347373	0.516739559796406
60.0	162.25105038243055	face	0.0		147	trustworthiness	011	1.0	2		1386.8528079071693	1.233469097976922
60.0	163.48451948040747	rating	1.0		95	trustworthiness	011	1.0	2		1388.0862770051463	0.8000866929651238
60.0	164.2846061733726	fix	2.0		60	trustworthiness	011	1.0	2	0.71	1388.8863636981114	0.5167501247342443
61.0	164.80135629810684	face	0.0		147	trustworthiness	024	1.0	2		1389.4031138228456	1.2334567218931625
61.0	166.03481302	rating	1.0		64	trustworthiness	024	1.0	2		1390.6365705447388	0.5417323077126639
61.0	166.57654532771267	fix	2.0		60	trustworthiness	024	1.0	2	0.8099999999999996	1391.1783028524515	0.516751030299929
62.0	167.0932963580126	face	0.0		147	trustworthiness	144	1.0	2		1391.6950538827514	1.2334582311741542
62.0	168.32675458918675	rating	1.0		60	trustworthiness	144	1.0	2		1392.9285121139255	0.5083902306214441
62.0	168.8351448198082	fix	2.0		60	trustworthiness	144	1.0	2	1.7599999999999998	1393.436902344547	0.51679329010949
63.0	169.35193810991768	face	0.0		147	trustworthiness	042	1.0	2		1393.9536956346565	1.2334253288863692
63.0	170.58536343880405	rating	1.0		39	trustworthiness	042	1.0	2		1395.1871209635428	0.3333676442707656
63.0	170.91873108307482	fix	2.0		60	trustworthiness	042	1.0	2	-0.2200000000000002	1395.5204886078136	0.5167513321648585
64.0	171.43548241523968	face	0.0		147	trustworthiness	101	1.0	2		1396.0372399399785	1.2334518921998097
64.0	172.66893430743949	rating	1.0		93	trustworthiness	101	1.0	2		1397.2706918321783	0.7834254647314083
64.0	173.4523597721709	fix	2.0		60	trustworthiness	101	1.0	2	0.7400000000000002	1398.0541172969097	0.5167561618582113
65.0	173.9691159340291	face	0.0		147	trustworthiness	036	1.0	2		1398.570873458768	1.23347996477969
65.0	175.2025958988088	rating	1.0		78	trustworthiness	036	1.0	2		1399.8043534235476	0.658383544505341
65.0	175.86097944331414	fix	2.0		60	trustworthiness	036	1.0	2	0.6699999999999999	1400.462736968053	0.5167661230952945
66.0	176.37774556640943	face	0.0		147	trustworthiness	038	1.0	2		1400.9795030911482	1.2334561181778554
66.0	177.6112016845873	rating	1.0		197	trustworthiness	038	1.0	2		1402.212959209326	1.650183332079905
66.0	179.2613850166672	fix	2.0		60	trustworthiness	038	1.0	2	0.03000000000000025	1403.863142541406	0.5167549544275971
67.0	179.7781399710948	face	0.0		147	trustworthiness	044	1.0	2		1404.3798974958336	1.2334546088968636
67.0	181.01159457999165	rating	1.0		47	trustworthiness	044	1.0	2		1405.6133521047304	0.4000460631796159
67.0	181.41164064317127	fix	2.0		60	trustworthiness	044	1.0	2	0.5499999999999998	1406.01339816791	0.5167465024860576
68.0	181.92838714565733	face	0.0		147	trustworthiness	092	1.0	2		1406.530144670396	1.2334609478566563
68.0	183.16184809351398	rating	1.0		207	trustworthiness	092	1.0	2		1407.7636056182528	1.7335425998462597
68.0	184.89539069336024	fix	2.0		60	trustworthiness	092	1.0	2	0.09999999999999964	1409.497148218099	0.5167501247487962
69.0	185.41214081810904	face	0.0		147	trustworthiness	124	1.0	2		1410.0138983428478	1.2334615515719634
69.0	186.645602369681	rating	1.0		219	trustworthiness	124	1.0	2		1411.2473598944198	1.8335470974998316
69.0	188.47914946718083	fix	2.0		60	trustworthiness	124	1.0	2	0.0	1413.0809069919196	0.5167443894752068
70.0	188.99589385665604	face	0.0		147	trustworthiness	005	1.0	2		1413.5976513813948	1.2334585330245318
70.0	190.22935238968057	rating	1.0		105	trustworthiness	005	1.0	2		1414.8311099144194	0.883437508775387
70.0	191.11278989845596	fix	2.0		60	trustworthiness	005	1.0	2	-0.45999999999999996	1415.7145474231947	0.5167486154678045
71.0	191.62953851392376	face	0.0		147	trustworthiness	030	1.0	2		1416.2312960386625	1.233465173849254
71.0	192.86300368777302	rating	1.0		60	trustworthiness	030	1.0	2		1417.4647612125118	0.5083938528841827
71.0	193.3713975406572	fix	2.0		60	trustworthiness	030	1.0	2	0.4299999999999997	1417.973155065396	0.516748313602875
72.0	193.88814585426007	face	0.0		147	trustworthiness	121	1.0	2		1418.4899033789989	1.2334612497215858
72.0	195.12160710398166	rating	1.0		82	trustworthiness	121	1.0	2		1419.7233646287204	0.6917458459502086
72.0	195.81335294993187	fix	2.0		60	trustworthiness	121	1.0	2	-1.44	1420.4151104746707	0.516751634015236
73.0	196.3301045839471	face	0.0		147	trustworthiness	043	1.0	2		1420.931862108686	1.2334521940501872
73.0	197.5635567779973	rating	1.0		37	trustworthiness	043	1.0	2		1422.165314302736	0.316703095624689
73.0	197.88025987362198	fix	2.0		60	trustworthiness	043	1.0	2	0.0	1422.4820173983608	0.5167507284495514
74.0	198.39701060207153	face	0.0		147	trustworthiness	137	1.0	2		1422.9987681268103	1.233466381279868
74.0	199.6304769833514	rating	1.0		63	trustworthiness	137	1.0	2		1424.2322345080902	0.5333920342091005
74.0	200.1638690175605	fix	2.0		60	trustworthiness	137	1.0	2	0.16999999999999993	1424.7656265422993	0.5167507284495514
75.0	200.68061974601005	face	0.0		147	trustworthiness	062	1.0	2		1425.2823772707488	1.2334527977654943
75.0	201.91407254377555	rating	1.0		36	trustworthiness	062	1.0	2		1426.5158300685143	0.3083761037705699
75.0	202.22244864754612	fix	2.0		60	trustworthiness	062	1.0	2	0.0	1426.824206172285	0.516742880208767
76.0	202.73919152775488	face	0.0		147	trustworthiness	033	1.0	2		1427.3409490524937	1.233459740440594
76.0	203.97265126819548	rating	1.0		156	trustworthiness	033	1.0	2		1428.5744087929343	1.3084850736922817
76.0	205.28113634188776	fix	2.0		60	trustworthiness	033	1.0	2	-1.31	1429.8828938666265	0.5167495210334891
77.0	205.79788586292125	face	0.0		147	trustworthiness	006	1.0	2		1430.39964338766	1.2334612497215858
77.0	207.03134711264283	rating	1.0		52	trustworthiness	006	1.0	2		1431.6331046373816	0.4417232822161168
77.0	207.47307039485895	fix	2.0		60	trustworthiness	006	1.0	2	0.5599999999999996	1432.0748279195977	0.5167431820591446
78.0	207.9898135769181	face	0.0		147	trustworthiness	039	1.0	2		1432.5915711016569	1.2334600423055235
78.0	209.22327361922362	rating	1.0		65	trustworthiness	039	1.0	2		1433.8250311439624	0.5500683552236296
78.0	209.77334197444725	fix	2.0		60	trustworthiness	039	1.0	2	2.04	1434.375099499186	0.5167513321648585
79.0	210.2900933066121	face	0.0		147	trustworthiness	018	1.0	2		1434.891850831351	1.2334527977654943
79.0	211.5235461043776	rating	1.0		56	trustworthiness	018	1.0	2		1436.1253036291164	0.4750638500408968
79.0	211.9986099544185	fix	2.0		60	trustworthiness	018	1.0	2	1.0300000000000002	1436.6003674791573	0.5000520700996276
80.0	212.49866202451813	cue	0.0		480						1437.100419549257	4.0004714986425824
80.0	216.4991335231607	fix	1.0		120						1441.1008910478995	1.0168139672168763
80.0	217.51594749037758	face	0.0		147	dominance	034	1.0	2		1442.1177050151164	1.2334624571522
80.0	218.74940994752978	rating	1.0		37	dominance	034	1.0	2		1443.3511674722686	0.3166958510846598
80.0	219.06610579861444	fix	2.0		60	dominance	034	1.0	2	-0.1200000000000001	1443.6678633233532	0.5167528414458502
81.0	219.5828586400603	face	0.0		147	dominance	066	1.0	2		1444.184616164799	1.2334603441559011
81.0	220.8163189842162	rating	1.0		41	dominance	066	1.0	2		1445.418076508955	0.35003490961389616
81.0	221.1663538938301	fix	2.0		60	dominance	066	1.0	2	0.2400000000000002	1445.7681114185689	0.5167564637085889
82.0	221.68311035753868	face	0.0		147	dominance	137	1.0	2		1446.2848678822775	1.2334603441559011
82.0	222.91657070169458	rating	1.0		57	dominance	137	1.0	2		1447.5183282264334	0.4833911437308416
82.0	223.39996184542542	fix	2.0		60	dominance	137	1.0	2	0.8600000000000003	1448.0017193701642	0.5167492191831116
83.0	223.91671106460853	face	0.0		147	dominance	005	1.0	2		1448.5184685893473	1.2334524959005648
83.0	225.1501635605091	rating	1.0		85	dominance	005	1.0	2		1449.751921085248	0.716749762519612
83.0	225.8669133230287	fix	2.0		60	dominance	005	1.0	2	-1.27	1450.4686708477675	0.5167495210334891
84.0	226.3836628440622	face	0.0		147	dominance	061	1.0	2		1450.985420368801	1.233459740440594
84.0	227.6171225845028	rating	1.0		58	dominance	061	1.0	2		1452.2188801092416	0.49174862301151734
84.0	228.1088712075143	fix	2.0		60	dominance	061	1.0	2	0.46999999999999975	1452.710628732253	0.5167341263877461
85.0	228.62560533390206	face	0.0		147	dominance	043	1.0	2		1453.2273628586408	1.2334555144771002
85.0	229.85906084837916	rating	1.0		52	dominance	043	1.0	2		1454.460818373118	0.44171181169804186
85.0	230.3007726600772	fix	2.0		60	dominance	043	1.0	2	-0.20000000000000018	1454.902530184816	0.516751634015236
86.0	230.81752429409244	face	0.0		147	dominance	101	1.0	2		1455.4192818188312	1.2334582311741542
86.0	232.0509825252666	rating	1.0		47	dominance	101	1.0	2		1456.6527400500054	0.4000901341205463
86.0	232.45107265938714	fix	2.0		60	dominance	101	1.0	2	1.88	1457.052830184126	0.5167114872019738
87.0	232.9677841465891	face	0.0		147	dominance	136	1.0	2		1457.569541671328	1.233454307046486
87.0	234.2012384536356	rating	1.0		60	dominance	136	1.0	2		1458.8029959783744	0.5083917399024358
87.0	234.70963019353803	fix	2.0		60	dominance	136	1.0	2	1.4299999999999997	1459.3113877182768	0.516751030299929
88.0	235.22638122383796	face	0.0		147	dominance	027	1.0	2		1459.8281387485767	1.2334588348894613
88.0	236.45984005872742	rating	1.0		76	dominance	027	1.0	2		1461.0615975834662	0.6417488795850659
88.0	237.1015889383125	fix	2.0		60	dominance	027	1.0	2	1.2599999999999998	1461.7033464630513	0.5167407672124682
89.0	237.61832970552496	face	0.0		147	dominance	099	1.0	2		1462.2200872302637	1.2334591367398389
89.0	238.8517888422648	rating	1.0		55	dominance	099	1.0	2		1463.4535463670036	0.4667214635410346
89.0	239.31851030580583	fix	2.0		60	dominance	099	1.0	2	0.28000000000000025	1463.9202678305446	0.5167492191685596
90.0	239.8352595249744	face	0.0		147	dominance	130	1.0	2		1464.4370170497132	1.2334675886959303
90.0	241.06872711367032	rating	1.0		59	dominance	130	1.0	2		1465.670484638409	0.5000575035228394
90.0	241.56878461719316	fix	2.0		60	dominance	130	1.0	2	-1.4	1466.170542141932	0.516742276478908
91.0	242.08552689367207	face	0.0		147	dominance	062	1.0	2		1466.6872844184109	1.2334609478712082
91.0	243.31898784154328	rating	1.0		58	dominance	062	1.0	2		1467.920745366282	0.49172145599732175
91.0	243.8107092975406	fix	2.0		60	dominance	062	1.0	2	1.87	1468.4124668222794	0.5167567655735184
92.0	244.32746606311412	face	0.0		147	dominance	024	1.0	2		1468.929223587853	1.2334612497215858
92.0	245.5609273128357	rating	1.0		59	dominance	024	1.0	2		1470.1626848375745	0.5000499571178807
92.0	246.06097726995358	fix	2.0		60	dominance	024	1.0	2	-0.3799999999999999	1470.6627347946924	0.5167513321648585
93.0	246.57772860211844	face	0.0		147	dominance	009	1.0	2		1471.1794861268572	1.2334573256084695
93.0	247.8111859277269	rating	1.0		95	dominance	009	1.0	2		1472.4129434524657	0.8001023894612445
93.0	248.61128831718815	fix	2.0		60	dominance	009	1.0	2	0.5800000000000001	1473.213045841927	0.5167452950408915
94.0	249.12803361222905	face	0.0		147	dominance	039	1.0	2		1473.7297911369678	1.2334618534368929
94.0	250.36149546566594	rating	1.0		63	dominance	039	1.0	2		1474.9632529904047	0.5333392094617011
94.0	250.89483467512764	fix	2.0		60	dominance	039	1.0	2	-2.56	1475.4965921998664	0.5168062699085567
95.0	251.4116409450362	face	0.0		147	dominance	126	1.0	2		1476.013398469775	1.233459136725287
95.0	252.64510008176148	rating	1.0		81	dominance	126	1.0	2		1477.2468576065003	0.6834113077056827
95.0	253.32851138946717	fix	2.0		60	dominance	126	1.0	2	0.7599999999999998	1477.930268914206	0.5167434839095222
96.0	253.8452548733767	face	0.0		147	dominance	044	1.0	2		1478.4470123981155	1.2334588348894613
96.0	255.07871370826615	rating	1.0		110	dominance	044	1.0	2		1479.680471233005	0.9251141240965808
96.0	256.00382783236273	fix	2.0		60	dominance	044	1.0	2	0.3099999999999996	1480.6055853571015	0.5167449931905139
97.0	256.52057282555324	face	0.0		147	dominance	033	1.0	2		1481.122330350292	1.2334669849806232
97.0	257.75403981053387	rating	1.0		56	dominance	033	1.0	2		1482.3557973352727	0.4750532850885065
97.0	258.2290930956224	fix	2.0		60	dominance	033	1.0	2	2.2800000000000002	1482.8308506203612	0.5167416727781529
98.0	258.7458347684005	face	0.0		147	dominance	121	1.0	2		1483.3475922931393	1.2334609478712082
98.0	259.97929571627174	rating	1.0		61	dominance	121	1.0	2		1484.5810532410105	0.5167265799973393
98.0	260.4960222962691	fix	2.0		60	dominance	121	1.0	2	1.7800000000000002	1485.0977798210079	0.5167522377305431
99.0	261.0127745339996	face	0.0		147	dominance	038	1.0	2		1485.6145320587384	1.2334573255939176
99.0	262.24623185959354	rating	1.0		69	dominance	038	1.0	2		1486.8479893843323	0.5834004710777663
99.0	262.8296323306713	fix	2.0		60	dominance	038	1.0	2	-1.9900000000000002	1487.43138985541	0.5167489173181821
100.0	263.3463812479895	face	0.0		147	dominance	172	1.0	2		1487.9481387727283	1.2334594385902165
100.0	264.5798406865797	rating	1.0		147	dominance	172	1.0	2		1489.1815982113185	1.2334784554986982
100.0	265.8133191420784	fix	2.0		60	dominance	172	1.0	2	-2.67	1490.4150766668172	0.516751634029788
101.0	266.3300707761082	face	0.0		147	dominance	144	1.0	2		1490.931828300847	1.2334579293092247
101.0	267.5635287054174	rating	1.0		63	dominance	144	1.0	2		1492.1652862301562	0.5333947509061545
101.0	268.09692345632357	fix	2.0		60	dominance	144	1.0	2	-1.62	1492.6986809810624	0.5167558600078337
102.0	268.6136793163314	face	0.0		147	dominance	124	1.0	2		1493.2154368410702	1.233455816312926
102.0	269.8471351326443	rating	1.0		41	dominance	124	1.0	2		1494.448892657383	0.3500364188948879
102.0	270.1971715515392	fix	2.0		60	dominance	124	1.0	2	1.5700000000000003	1494.798929076278	0.5167525395954726
103.0	270.7139240911347	face	0.0		147	dominance	042	1.0	2		1495.3156816158735	1.2334588348749094
103.0	271.9473829260096	rating	1.0		81	dominance	042	1.0	2		1496.5491404507484	0.6834134206874296
103.0	272.630796346697	fix	2.0		60	dominance	042	1.0	2	-1.29	1497.2325538714358	0.5167486154678045
104.0	273.14754496216483	face	0.0		147	dominance	141	1.0	2		1497.7493024869036	1.2334618534368929
104.0	274.3810068156017	rating	1.0		97	dominance	141	1.0	2		1498.9827643403405	0.8167599954176694
104.0	275.1977668110194	fix	2.0		60	dominance	141	1.0	2	-2.5	1499.7995243357582	0.5167591804201948
105.0	275.7145259914396	face	0.0		147	dominance	117	1.0	2		1500.3162835161784	1.2334567218786106
105.0	276.9479827133182	rating	1.0		154	dominance	117	1.0	2		1501.549740238057	1.2918117712251842
105.0	278.2397944845434	fix	2.0		60	dominance	117	1.0	2	0.4400000000000004	1502.8415520092822	0.5167489173181821
106.0	278.75654340186156	face	0.0		147	dominance	012	1.0	2		1503.3583009266004	1.2334681924112374
106.0	279.9900115942728	rating	1.0		41	dominance	012	1.0	2		1504.5917691190116	0.3500394374568714
106.0	280.3400510317297	fix	2.0		60	dominance	012	1.0	2	1.4500000000000002	1504.9418085564685	0.5167416727781529
107.0	280.8567927045078	face	0.0		147	dominance	064	1.0	2		1505.4585502292466	1.2334621552872704
107.0	282.0902548597951	rating	1.0		39	dominance	064	1.0	2		1506.6920123845339	0.3333773036574712
107.0	282.42363216345257	fix	2.0		60	dominance	064	1.0	2	1.21	1507.0253896881914	0.5167410690628458
108.0	282.9403732325154	face	0.0		147	dominance	087	1.0	2		1507.5421307572542	1.233467890546308
108.0	284.1738411230617	rating	1.0		86	dominance	087	1.0	2		1508.7755986478005	0.7250770562241087
108.0	284.89891817928583	fix	2.0		60	dominance	087	1.0	2	0.07000000000000028	1509.5006757040246	0.5167570674238959
109.0	285.4156752467097	face	0.0		147	dominance	082	1.0	2		1510.0174327714485	1.2334506847691955
109.0	286.6491259314789	rating	1.0		37	dominance	082	1.0	2		1511.2508834562177	0.31670943459903356
109.0	286.96583536607795	fix	2.0		60	dominance	082	1.0	2	-0.6499999999999999	1511.5675928908167	0.5167437857744517
110.0	287.4825791518524	face	0.0		147	dominance	091	1.0	2		1512.0843366765912	1.2334675886959303
110.0	288.71604674054834	rating	1.0		169	dominance	091	1.0	2		1513.3178042652871	1.4168316559662344
110.0	290.13287839651457	fix	2.0		60	dominance	091	1.0	2	0.9199999999999999	1514.7346359212534	0.5167501247342443
111.0	290.6496285212488	face	0.0		147	dominance	092	1.0	2		1515.2513860459876	1.233460344170453
111.0	291.88308886541927	rating	1.0		125	dominance	092	1.0	2		1516.484846390158	1.050115897494834
111.0	292.9332047629141	fix	2.0		60	dominance	092	1.0	2	-0.7400000000000002	1517.534962287653	0.516748313602875
112.0	293.449953076517	face	0.0		147	dominance	102	1.0	2		1518.0517106012558	1.2334609478712082
112.0	294.6834140243882	rating	1.0		38	dominance	102	1.0	2		1519.285171549127	0.325038237584522
112.0	295.0084522619727	fix	2.0		60	dominance	102	1.0	2	0.9500000000000002	1519.6102097867115	0.5167914789635688
113.0	295.5252437409363	face	0.0		147	dominance	036	1.0	2		1520.127001265675	1.2334174806455849
113.0	296.75866122158186	rating	1.0		84	dominance	036	1.0	2		1521.3604187463206	0.7084303170704516
113.0	297.4670915386523	fix	2.0		60	dominance	036	1.0	2	0.1900000000000004	1522.068849063391	0.5167329189571319
114.0	297.98382445760944	face	0.0		147	dominance	030	1.0	2		1522.5855819823482	1.2334697016922291
114.0	299.2172941593017	rating	1.0		135	dominance	030	1.0	2		1523.8190516840405	1.1334570539329434
114.0	300.3507512132346	fix	2.0		60	dominance	030	1.0	2	0.8799999999999999	1524.9525087379734	0.5167573692742735
115.0	300.8675085825089	face	0.0		147	dominance	006	1.0	2		1525.4692661072477	1.2334515903348802
115.0	302.10096017284377	rating	1.0		300	dominance	006	1.0	2		1526.7027176975826	2.508639563457109
115.0	304.6095997363009	fix	2.0		60	dominance	006	1.0	2	-0.1200000000000001	1529.2113572610397	0.516742276478908
116.0	305.1263420127798	face	0.0		147	dominance	100	1.0	2		1529.7280995375186	1.233463060867507
116.0	306.3598050736473	rating	1.0		39	dominance	100	1.0	2		1530.961562598386	0.3333673424058361
116.0	306.69317241605313	fix	2.0		60	dominance	100	1.0	2	0.6100000000000003	1531.294929940792	0.5167495210334891
117.0	307.2099219370866	face	0.0		147	dominance	018	1.0	2		1531.8116794618254	1.23345702374354
117.0	308.44337896083016	rating	1.0		64	dominance	018	1.0	2		1533.045136485569	0.5417295910156099
117.0	308.98510855184577	fix	2.0		60	dominance	018	1.0	2	-2.2199999999999998	1533.5868660765846	0.5167582748399582
118.0	309.5018668266857	face	0.0		147	dominance	070	1.0	2		1534.1036243514245	1.233459740440594
118.0	310.7353265671263	rating	1.0		84	dominance	070	1.0	2		1535.337084091865	0.7084152242750861
118.0	311.4437417914014	fix	2.0		60	dominance	070	1.0	2	0.1900000000000004	1536.0454993161402	0.5167477099021198
119.0	311.9604895013035	face	0.0		147	dominance	011	1.0	2		1536.5622470260423	1.2334606460062787
119.0	313.1939501473098	rating	1.0		58	dominance	011	1.0	2		1537.7957076720486	0.49171662630396895
119.0	313.6856667736138	fix	2.0		60	dominance	011	1.0	2	1.4299999999999997	1538.2874242983526	0.5000674647599226
120.0	314.1857342383737	cue	0.0		3600						1538.7874917631125	30.003557369636837
120.0	344.18929160801054	fix	1.0		120						1568.7910491327493	1.000121647855849
120.0	345.1894132558664	cue	0.0		480						1569.7911707806052	4.000473309773952
120.0	349.18988656564034	fix	1.0		120						1573.7916440903791	1.0168015911331167
120.0	350.20668815677345	face	0.0		147	attractiveness	144	2.0	2		1574.8084456815122	1.233466381279868
120.0	351.4401545380533	rating	1.0		245	attractiveness	144	2.0	2		1576.041912062792	2.0502426768944133
120.0	353.49039721494773	fix	2.0		60	attractiveness	144	2.0	2	0.7400000000000002	1578.0921547396865	0.5167510303144809
121.0	354.0071482452622	face	0.0		147	attractiveness	043	2.0	2		1578.608905770001	1.233453099615872
121.0	355.2406013448781	rating	1.0		73	attractiveness	043	2.0	2		1579.8423588696169	0.6167350017785793
121.0	355.85733634665667	fix	2.0		60	attractiveness	043	2.0	2	-0.029999999999999805	1580.4590938713955	0.5167534451466054
122.0	356.37408979180327	face	0.0		147	attractiveness	066	2.0	2		1580.975847316542	1.2334645701484988
122.0	357.60755436195177	rating	1.0		50	attractiveness	066	2.0	2		1582.2093118866906	0.42504756490234286
122.0	358.0326019268541	fix	2.0		60	attractiveness	066	2.0	2	0.34999999999999964	1582.634359451593	0.516752237745095
123.0	358.5493541645992	face	0.0		147	attractiveness	136	2.0	2		1583.151111689338	1.2334579293092247
123.0	359.78281209390843	rating	1.0		54	attractiveness	136	2.0	2		1584.3845696186472	0.458379982621409
123.0	360.24119207652984	fix	2.0		60	attractiveness	136	2.0	2	-2.38	1584.8429496012686	0.5167480117524974
124.0	360.75794008828234	face	0.0		147	attractiveness	034	2.0	2		1585.3596976130211	1.2334588348749094
124.0	361.99139892315725	rating	1.0		87	attractiveness	034	2.0	2		1586.593156447896	0.7750906246365048
124.0	362.76648954779375	fix	2.0		60	attractiveness	034	2.0	2	-1.6600000000000001	1587.3682470725325	0.5167519358656136
125.0	363.28324148365937	face	0.0		147	attractiveness	012	2.0	2		1587.8849990083982	1.2334588348894613
125.0	364.5167003185488	rating	1.0		63	attractiveness	012	2.0	2		1589.1184578432876	0.5333950527565321
125.0	365.05009537130536	fix	2.0		60	attractiveness	012	2.0	2	1.5199999999999996	1589.6518528960441	0.5167908752628136
126.0	365.5668862465682	face	0.0		147	attractiveness	137	2.0	2		1590.168643771307	1.2334192917915061
126.0	366.8003055383597	rating	1.0		81	attractiveness	137	2.0	2		1591.4020630630985	0.6834200615121517
126.0	367.48372559987183	fix	2.0		60	attractiveness	137	2.0	2	0.5899999999999999	1592.0854831246106	0.5167404653475387
127.0	368.00046606521937	face	0.0		147	attractiveness	006	2.0	2		1592.6022235899582	1.2334615515865153
127.0	369.2339276168059	rating	1.0		74	attractiveness	006	2.0	2		1593.8356851415447	0.6250701437238604
127.0	369.85899776052975	fix	2.0		60	attractiveness	006	2.0	2	-2.0300000000000002	1594.4607552852685	0.5167739713360788
128.0	370.3757717318658	face	0.0		147	attractiveness	172	2.0	2		1594.9775292566046	1.2334364975540666
128.0	371.6092082294199	rating	1.0		154	attractiveness	172	2.0	2		1596.2109657541587	1.2918178083491512
128.0	372.90102603776904	fix	2.0		60	attractiveness	172	2.0	2	-3.71	1597.5027835625078	0.516757671139203
129.0	373.41778370890825	face	0.0		147	attractiveness	101	2.0	2		1598.019541233647	1.233453099615872
129.0	374.6512368085241	rating	1.0		64	attractiveness	101	2.0	2		1599.252994333263	0.5417392503877636
129.0	375.1929760589119	fix	2.0		60	attractiveness	101	2.0	2	2.87	1599.7947335836507	0.5167462006211281
130.0	375.709722259533	face	0.0		147	attractiveness	062	2.0	2		1600.3114797842718	1.2334582311596023
130.0	376.9431804906926	rating	1.0		208	attractiveness	062	2.0	2		1601.5449380154314	1.7418738176784245
130.0	378.68505430837104	fix	2.0		60	attractiveness	062	2.0	2	0.03000000000000025	1603.2868118331098	0.5167492191685596
131.0	379.2018035275396	face	0.0		147	attractiveness	005	2.0	2		1603.8035610522784	1.2334585330245318
131.0	380.4352620605641	rating	1.0		160	attractiveness	005	2.0	2		1605.037019585303	1.3418177932471735
131.0	381.7770798538113	fix	2.0		60	attractiveness	005	2.0	2	-3.69	1606.37883737855	0.5167561618582113
132.0	382.2938360156695	face	0.0		147	attractiveness	100	2.0	2		1606.8955935404083	1.2334567218931625
132.0	383.5272927375627	rating	1.0		43	attractiveness	100	2.0	2		1608.1290502623015	0.3667051935190102
132.0	383.8939979310817	fix	2.0		60	attractiveness	100	2.0	2	1.7599999999999998	1608.4957554558205	0.5167552562779747
133.0	384.41075318735966	face	0.0		147	attractiveness	102	2.0	2		1609.0125107120984	1.233463060867507
133.0	385.64421624822717	rating	1.0		40	attractiveness	102	2.0	2		1610.245973772966	0.3416949379607104
133.0	385.9859111861879	fix	2.0		60	attractiveness	102	2.0	2	-1.75	1610.5876687109267	0.516751634029788
134.0	386.50266282021767	face	0.0		147	attractiveness	036	2.0	2		1611.1044203449565	1.2334666831302457
134.0	387.7361295033479	rating	1.0		54	attractiveness	036	2.0	2		1612.3378870280867	0.4583790770411724
134.0	388.1945085803891	fix	2.0		60	attractiveness	036	2.0	2	1.25	1612.7962661051279	0.5167480117524974
135.0	388.7112565921416	face	0.0		147	attractiveness	039	2.0	2		1613.3130141168804	1.2334802666446194
135.0	389.9447368587862	rating	1.0		59	attractiveness	039	2.0	2		1614.546494383525	0.5000448255741503
135.0	390.44478168436035	fix	2.0		60	attractiveness	039	2.0	2	1.29	1615.0465392090991	0.5167413709277753
136.0	390.9615230552881	face	0.0		147	attractiveness	027	2.0	2		1615.563280580027	1.2334615515719634
136.0	392.1949846068601	rating	1.0		58	attractiveness	027	2.0	2		1616.7967421315989	0.4917229652783135
136.0	392.6867075721384	fix	2.0		60	attractiveness	027	2.0	2	1.8399999999999999	1617.2884650968772	0.5167558599932818
137.0	393.2034634321317	face	0.0		147	attractiveness	099	2.0	2		1617.8052209568705	1.2334588348894613
137.0	394.43692226702115	rating	1.0		53	attractiveness	099	2.0	2		1619.03867979176	0.4500451425119536
137.0	394.8869674095331	fix	2.0		60	attractiveness	099	2.0	2	0.6799999999999997	1619.4887249342719	0.5167546525772195
138.0	395.4037220621103	face	0.0		147	attractiveness	042	2.0	2		1620.005479586849	1.2334835870569805
138.0	396.6372056491673	rating	1.0		43	attractiveness	042	2.0	2		1621.238963173906	0.366680441351491
138.0	397.0038860905188	fix	2.0		60	attractiveness	042	2.0	2	0.6399999999999997	1621.6056436152576	0.5167513321648585
139.0	397.52063742268365	face	0.0		147	attractiveness	061	2.0	2		1622.1223949474224	1.2334660794149386
139.0	398.7541035020986	rating	1.0		55	attractiveness	061	2.0	2		1623.3558610268374	0.4667211616761051
139.0	399.2208246637747	fix	2.0		60	attractiveness	061	2.0	2	-0.6499999999999999	1623.8225821885135	0.5167480117524974
140.0	399.7375726755272	face	0.0		147	attractiveness	030	2.0	2		1624.339330200266	1.2334591367398389
140.0	400.97103181226703	rating	1.0		36	attractiveness	030	2.0	2		1625.5727893370058	0.30836252027074806
140.0	401.2793943325378	fix	2.0		60	attractiveness	030	2.0	2	0.3200000000000003	1625.8811518572766	0.5167567655589664
141.0	401.79615109809674	face	0.0		147	attractiveness	087	2.0	2		1626.3979086228355	1.233459740455146
141.0	403.0296108385519	rating	1.0		57	attractiveness	087	2.0	2		1627.6313683632907	0.4833884270337876
141.0	403.5129992655857	fix	2.0		60	attractiveness	087	2.0	2	-0.54	1628.1147567903245	0.5167480117524974
142.0	404.0297472773382	face	0.0		147	attractiveness	141	2.0	2		1628.631504802077	1.233459136725287
142.0	405.26320641406346	rating	1.0		249	attractiveness	141	2.0	2		1629.8649639388022	2.0835796224419028
142.0	407.34678603650536	fix	2.0		60	attractiveness	141	2.0	2	-1.7999999999999998	1631.9485435612442	0.5167434839240741
143.0	407.86352952042944	face	0.0		147	attractiveness	082	2.0	2		1632.4652870451682	1.2334675886959303
143.0	409.09699710912537	rating	1.0		111	attractiveness	082	2.0	2		1633.6987546338642	0.9334420215163846
143.0	410.03043913064175	fix	2.0		60	attractiveness	082	2.0	2	0.2400000000000002	1634.6321966553805	0.5167504265991738
144.0	410.5471895572409	face	0.0		147	attractiveness	024	2.0	2		1635.1489470819797	1.2334521940501872
144.0	411.7806417512911	rating	1.0		274	attractiveness	024	2.0	2		1636.38239927603	2.291945795164793
144.0	414.0725875464559	fix	2.0		60	attractiveness	024	2.0	2	-2.6	1638.6743450711947	0.5167498228838667
145.0	414.5893373693398	face	0.0		147	attractiveness	064	2.0	2		1639.1910948940786	1.2334609478712082
145.0	415.822798317211	rating	1.0		36	attractiveness	064	2.0	2		1640.4245558419498	0.3083588979934575
145.0	416.13115721520444	fix	2.0		60	attractiveness	064	2.0	2	0.4500000000000002	1640.7329147399432	0.516748313602875
146.0	416.6479055288073	face	0.0		147	attractiveness	091	2.0	2		1641.249663053546	1.233463664582814
146.0	417.8813691933901	rating	1.0		37	attractiveness	091	2.0	2		1642.483126718129	0.31672845149296336
146.0	418.1980976448831	fix	2.0		60	attractiveness	091	2.0	2	0.33999999999999986	1642.7998551696219	0.516728089278331
147.0	418.7148257341614	face	0.0		147	attractiveness	038	2.0	2		1643.3165832589002	1.2334600423055235
147.0	419.94828577646695	rating	1.0		62	attractiveness	038	2.0	2		1644.5500433012057	0.525059910811251
147.0	420.4733456872782	fix	2.0		60	attractiveness	038	2.0	2	-3.86	1645.075103212017	0.5167486154678045
148.0	420.990094302746	face	0.0		147	attractiveness	009	2.0	2		1645.5918518274848	1.2334618534368929
148.0	422.2235561561829	rating	1.0		98	attractiveness	009	2.0	2		1646.8253136809217	0.8250948355125729
148.0	423.04865099169547	fix	2.0		60	attractiveness	009	2.0	2	3.3099999999999996	1647.6504085164343	0.5167498228838667
149.0	423.56540081457933	face	0.0		147	attractiveness	011	2.0	2		1648.1671583393181	1.2334609478712082
149.0	424.79886176245054	rating	1.0		39	attractiveness	011	2.0	2		1649.4006192871893	0.3333682479860727
149.0	425.1322300104366	fix	2.0		60	attractiveness	011	2.0	2	0.4900000000000002	1649.7339875351754	0.5167534451466054
150.0	425.6489834555832	face	0.0		147	attractiveness	033	2.0	2		1650.250740980322	1.233450986634125
150.0	426.88243444221735	rating	1.0		87	attractiveness	033	2.0	2		1651.4841919669561	0.7334224612568505
150.0	427.6158569034742	fix	2.0		60	attractiveness	033	2.0	2	1.5599999999999996	1652.217614428213	0.5167504265991738
151.0	428.13260733007337	face	0.0		147	attractiveness	092	2.0	2		1652.7343648548122	1.2334606460208306
151.0	429.3660679760942	rating	1.0		120	attractiveness	092	2.0	2		1653.967825500833	1.0084453192830551
151.0	430.37451329537726	fix	2.0		60	attractiveness	092	2.0	2	-1.7599999999999998	1654.976270820116	0.5167546525772195
152.0	430.8912679479545	face	0.0		147	attractiveness	121	2.0	2		1655.4930254726933	1.233454307046486
152.0	432.12472225500096	rating	1.0		48	attractiveness	121	2.0	2		1656.7264797797397	0.4083799977088347
152.0	432.5331022527098	fix	2.0		60	attractiveness	121	2.0	2	-2.51	1657.1348597774486	0.5167606897011865
153.0	433.049862942411	face	0.0		147	attractiveness	018	2.0	2		1657.6516204671498	1.2334494773531333
153.0	434.2833124197641	rating	1.0		44	attractiveness	018	2.0	2		1658.885069944503	0.3750499948509969
153.0	434.6583624146151	fix	2.0		60	attractiveness	018	2.0	2	-0.98	1659.260119939354	0.5167498228838667
154.0	435.175112237499	face	0.0		147	attractiveness	126	2.0	2		1659.7768697622378	1.2334540051815566
154.0	436.40856624268054	rating	1.0		37	attractiveness	126	2.0	2		1661.0103237674193	0.31670007706270553
154.0	436.72526631974324	fix	2.0		60	attractiveness	126	2.0	2	0.1200000000000001	1661.327023844482	0.5167588785698172
155.0	437.24202519831306	face	0.0		147	attractiveness	070	2.0	2		1661.8437827230518	1.2334494773385813
155.0	438.47547467565164	rating	1.0		43	attractiveness	070	2.0	2		1663.0772322003904	0.3667103250772925
155.0	438.84218500072893	fix	2.0		60	attractiveness	070	2.0	2	-3.02	1663.4439425254677	0.516751634015236
156.0	439.35893663474417	face	0.0		147	attractiveness	117	2.0	2		1663.960694159483	1.2334594385902165
156.0	440.5923960733344	rating	1.0		60	attractiveness	117	2.0	2		1665.1941535980732	0.5083887213404523
156.0	441.10078479467484	fix	2.0		60	attractiveness	117	2.0	2	0.2400000000000002	1665.7025423194136	0.5167495210334891
157.0	441.6175343157083	face	0.0		147	attractiveness	124	2.0	2		1666.219291840447	1.2334612497215858
157.0	442.8509955654299	rating	1.0		162	attractiveness	124	2.0	2		1667.4527530901687	1.3584913975646487
157.0	444.20948696299456	fix	2.0		60	attractiveness	124	2.0	2	3.58	1668.8112444877333	0.516757671139203
158.0	444.72624463413376	face	0.0		147	attractiveness	130	2.0	2		1669.3280021588726	1.233459740440594
158.0	445.95970437457436	rating	1.0		84	attractiveness	130	2.0	2		1670.5614618993131	0.7084116020123474
158.0	446.6681159765867	fix	2.0		60	attractiveness	130	2.0	2	-2.21	1671.2698735013255	0.51675435071229
159.0	447.184870327299	face	0.0		147	attractiveness	044	2.0	2		1671.7866278520378	1.2334503829333698
159.0	448.41832071023236	rating	1.0		38	attractiveness	044	2.0	2		1673.0200782349712	0.32503914313565474
159.0	448.743359853368	fix	2.0		60	attractiveness	044	2.0	2	0.20999999999999996	1673.3451173781068	0.5000590127892792
160.0	449.2434188661573	cue	0.0		480						1673.845176390896	4.000481761730043
160.0	453.24390062788734	fix	1.0		120						1677.8456581526261	1.0168082319723908
160.0	454.26070885985973	face	0.0		147	trustworthiness	101	2.0	2		1678.8624663845985	1.2334540051815566
160.0	455.4941628650413	rating	1.0		246	trustworthiness	101	2.0	2		1680.09592038978	2.0585808374162298
160.0	457.5527437024575	fix	2.0		60	trustworthiness	101	2.0	2	-0.16999999999999993	1682.1545012271963	0.516742880208767
161.0	458.0694865826663	face	0.0		147	trustworthiness	102	2.0	2		1682.671244107405	1.2334666831156937
161.0	459.302953265782	rating	1.0		86	trustworthiness	102	2.0	2		1683.9047107905208	0.7250855081802001
161.0	460.0280387739622	fix	2.0		60	trustworthiness	102	2.0	2	-0.6499999999999999	1684.629796298701	0.5167489173181821
162.0	460.54478769128036	face	0.0		147	trustworthiness	137	2.0	2		1685.1465452160191	1.2334549107617931
162.0	461.77824260204216	rating	1.0		37	trustworthiness	137	2.0	2		1686.380000126781	0.31669977521232795
162.0	462.0949423772545	fix	2.0		60	trustworthiness	137	2.0	2	0.45999999999999996	1686.6966999019933	0.5167564637085889
163.0	462.6116988409631	face	0.0		147	trustworthiness	141	2.0	2		1687.2134563657019	1.2334579293092247
163.0	463.8451567702723	rating	1.0		85	trustworthiness	141	2.0	2		1688.446914295011	0.7167461402423214
163.0	464.5619029105146	fix	2.0		60	trustworthiness	141	2.0	2	0.0	1689.1636604352534	0.5167504265991738
164.0	465.0786533371138	face	0.0		147	trustworthiness	038	2.0	2		1689.6804108618526	1.2334585330245318
164.0	466.3121118701383	rating	1.0		109	trustworthiness	038	2.0	2		1690.913869394877	0.9167732468922623
164.0	467.2288851170306	fix	2.0		60	trustworthiness	038	2.0	2	-1.69	1691.8306426417694	0.5167507284495514
165.0	467.74563584548014	face	0.0		147	trustworthiness	005	2.0	2		1692.347393370219	1.2334636645682622
165.0	468.9790995100484	rating	1.0		52	trustworthiness	005	2.0	2		1693.5808570347872	0.44171965995337814
165.0	469.4208191700018	fix	2.0		60	trustworthiness	005	2.0	2	-1.4700000000000002	1694.0225766947406	0.5167501247487962
166.0	469.9375692947506	face	0.0		147	trustworthiness	087	2.0	2		1694.5393268194894	1.2334515903348802
166.0	471.17102088508545	rating	1.0		200	trustworthiness	087	2.0	2		1695.7727784098242	1.6752053599921055
166.0	472.84622624507756	fix	2.0		60	trustworthiness	087	2.0	2	-0.2599999999999998	1697.4479837698163	0.5167489173181821
167.0	473.36297516239574	face	0.0		147	trustworthiness	091	2.0	2		1697.9647326871345	1.2334624571522
167.0	474.59643761954794	rating	1.0		68	trustworthiness	091	2.0	2		1699.1981951442867	0.5750632161361864
167.0	475.1715008356841	fix	2.0		60	trustworthiness	091	2.0	2	-0.08000000000000007	1699.773258360423	0.516748313602875
168.0	475.688249149287	face	0.0		147	trustworthiness	121	2.0	2		1700.2900066740258	1.233454307046486
168.0	476.9217034563335	rating	1.0		52	trustworthiness	121	2.0	2		1701.5234609810723	0.4417380731465528
168.0	477.36344152948004	fix	2.0		60	trustworthiness	121	2.0	2	-1.6	1701.9651990542188	0.5167292967089452
169.0	477.880170826189	face	0.0		147	trustworthiness	100	2.0	2		1702.4819283509278	1.233459740440594
169.0	479.1136305666296	rating	1.0		94	trustworthiness	100	2.0	2		1703.7153880913684	0.7917578899796354
169.0	479.9053884566092	fix	2.0		60	trustworthiness	100	2.0	2	0.0	1704.507145981348	0.5167534451611573
170.0	480.4221419017704	face	0.0		147	trustworthiness	064	2.0	2		1705.0238994265092	1.2334633627033327
170.0	481.6556052644737	rating	1.0		37	trustworthiness	064	2.0	2		1706.2573627892125	0.316703095624689
170.0	481.9723083600984	fix	2.0		60	trustworthiness	064	2.0	2	0.21999999999999975	1706.5740658848372	0.5167492191831116
171.0	482.4890575792815	face	0.0		147	trustworthiness	036	2.0	2		1707.0908151040203	1.2334609478566563
171.0	483.72251852713816	rating	1.0		68	trustworthiness	036	2.0	2		1708.324276051877	0.5750656309828628
171.0	484.297584158121	fix	2.0		60	trustworthiness	036	2.0	2	0.46999999999999975	1708.8993416828598	0.5167437857744517
172.0	484.8143279438955	face	0.0		147	trustworthiness	012	2.0	2		1709.4160854686343	1.2334666831302457
172.0	486.0477946270257	rating	1.0		67	trustworthiness	012	2.0	2		1710.6495521517645	0.566731696453644
172.0	486.61452632347937	fix	2.0		60	trustworthiness	012	2.0	2	-1.06	1711.2162838482182	0.516751030299929
173.0	487.1312773537793	face	0.0		147	trustworthiness	033	2.0	2		1711.733034878518	1.2334564200427849
173.0	488.3647337738221	rating	1.0		60	trustworthiness	033	2.0	2		1712.9664912985609	0.5083875139098382
173.0	488.8731212877319	fix	2.0		60	trustworthiness	033	2.0	2	-1.69	1713.4748788124707	0.5167555581429042
174.0	489.3898768458748	face	0.0		147	trustworthiness	030	2.0	2		1713.9916343706136	1.2334521940647392
174.0	490.62332903993956	rating	1.0		68	trustworthiness	030	2.0	2		1715.2250865646783	0.5750774033513153
174.0	491.1984064432909	fix	2.0		60	trustworthiness	030	2.0	2	0.13999999999999968	1715.8001639680297	0.5167468043218832
175.0	491.71515324761276	face	0.0		147	trustworthiness	061	2.0	2		1716.3169107723515	1.233453703331179
175.0	492.94860695094394	rating	1.0		85	trustworthiness	061	2.0	2		1717.5503644756827	0.7167494606692344
175.0	493.6653564116132	fix	2.0		60	trustworthiness	061	2.0	2	-0.33999999999999986	1718.267113936352	0.5167525395809207
176.0	494.1821089511941	face	0.0		147	trustworthiness	066	2.0	2		1718.7838664759329	1.233463060852955
176.0	495.41557201204705	rating	1.0		40	trustworthiness	066	2.0	2		1720.0173295367858	0.34169825838762335
176.0	495.7572702704347	fix	2.0		60	trustworthiness	066	2.0	2	-0.43999999999999995	1720.3590277951735	0.5167534451611573
177.0	496.27402371559583	face	0.0		147	trustworthiness	144	2.0	2		1720.8757812403346	1.2334576274588471
177.0	497.5074813430547	rating	1.0		39	trustworthiness	144	2.0	2		1722.1092388677935	0.3333679461211432
177.0	497.8408492891758	fix	2.0		60	trustworthiness	144	2.0	2	0.9000000000000004	1722.4426068139146	0.5167549544275971
178.0	498.3576042436034	face	0.0		147	trustworthiness	009	2.0	2		1722.9593617683422	1.2334636645682622
178.0	499.5910679081717	rating	1.0		55	trustworthiness	009	2.0	2		1724.1928254329105	0.4667214635410346
178.0	500.0577893717127	fix	2.0		60	trustworthiness	009	2.0	2	1.5	1724.6595468964515	0.5167492191831116
179.0	500.5745385908958	face	0.0		147	trustworthiness	117	2.0	2		1725.1762961156346	1.2334579293092247
179.0	501.80799652020505	rating	1.0		42	trustworthiness	117	2.0	2		1726.4097540449438	0.3583730701211607
179.0	502.1663695903262	fix	2.0		60	trustworthiness	117	2.0	2	-0.4900000000000002	1726.768127115065	0.5167458987561986
180.0	502.6831154890824	face	0.0		147	trustworthiness	011	2.0	2		1727.2848730138212	1.2334576274588471
180.0	503.91657311654126	rating	1.0		204	trustworthiness	011	2.0	2		1728.51833064128	1.7085359665652504
180.0	505.6251090831065	fix	2.0		60	trustworthiness	011	2.0	2	0.2599999999999998	1730.2268666078453	0.5167561618582113
181.0	506.1418652449647	face	0.0		147	trustworthiness	027	2.0	2		1730.7436227697035	1.2334600423055235
181.0	507.37532528727024	rating	1.0		71	trustworthiness	027	2.0	2		1731.977082812009	0.6000610955961747
181.0	507.9753863828664	fix	2.0		61	trustworthiness	027	2.0	2	0.13999999999999968	1732.5771439076052	0.5250913038034923
182.0	508.5004776866699	face	0.0		146	trustworthiness	039	2.0	2		1733.1022352114087	1.2251197688019602
182.0	509.72559745547187	rating	1.0		91	trustworthiness	039	2.0	2		1734.3273549802107	0.766760010519647
182.0	510.4923574659915	fix	2.0		60	trustworthiness	039	2.0	2	3.17	1735.0941149907303	0.5167452950408915
183.0	511.0091027610324	face	0.0		147	trustworthiness	124	2.0	2		1735.6108602857712	1.2334573256084695
183.0	512.2425600866409	rating	1.0		43	trustworthiness	124	2.0	2		1736.8443176113797	0.36670851393137127
183.0	512.6092686005722	fix	2.0		60	trustworthiness	124	2.0	2	0.41999999999999993	1737.211026125311	0.5167522377305431
184.0	513.1260208383028	face	0.0		147	trustworthiness	099	2.0	2		1737.7277783630416	1.2334666831302457
184.0	514.359487521433	rating	1.0		67	trustworthiness	099	2.0	2		1738.9612450461718	0.5667301871726522
184.0	514.9262177086057	fix	2.0		60	trustworthiness	099	2.0	2	0.2699999999999996	1739.5279752333445	0.5167513321648585
185.0	515.4429690407705	face	0.0		147	trustworthiness	130	2.0	2		1740.0447265655093	1.2334588348749094
185.0	516.6764278756455	rating	1.0		232	trustworthiness	130	2.0	2		1741.2781854003842	1.9418936797737842
185.0	518.6183215554192	fix	2.0		60	trustworthiness	130	2.0	2	0.019999999999999574	1743.220079080158	0.516751634015236
186.0	519.1350731894345	face	0.0		147	trustworthiness	042	2.0	2		1743.7368307141733	1.2334588348894613
186.0	520.3685320243239	rating	1.0		37	trustworthiness	042	2.0	2		1744.9702895490627	0.31669494551897515
186.0	520.6852269698429	fix	2.0		60	trustworthiness	042	2.0	2	-0.4900000000000002	1745.2869844945817	0.5167501247342443
187.0	521.2019770945772	face	0.0		147	trustworthiness	172	2.0	2		1745.803734619316	1.2334591367398389
187.0	522.435436231317	rating	1.0		50	trustworthiness	172	2.0	2		1747.0371937560558	0.42510129522997886
187.0	522.860537526547	fix	2.0		60	trustworthiness	172	2.0	2	-1.1600000000000001	1747.4622950512858	0.5166997148335213
188.0	523.3772372413805	face	0.0		147	trustworthiness	034	2.0	2		1747.9789947661193	1.2334633627178846
188.0	524.6107006040984	rating	1.0		49	trustworthiness	034	2.0	2		1749.2124581288372	0.4167094044096302
188.0	525.027410008508	fix	2.0		60	trustworthiness	034	2.0	2	-0.48	1749.6291675332468	0.5167549544275971
189.0	525.5441649629356	face	0.0		147	trustworthiness	082	2.0	2		1750.1459224876744	1.233454307046486
189.0	526.7776192699821	rating	1.0		37	trustworthiness	082	2.0	2		1751.3793767947209	0.3167109438654734
189.0	527.0943302138476	fix	2.0		60	trustworthiness	082	2.0	2	0.2400000000000002	1751.6960877385864	0.516745596905821
190.0	527.6110758107534	face	0.0		147	trustworthiness	043	2.0	2		1752.2128333354922	1.2334546088968636
190.0	528.8445304196503	rating	1.0		82	trustworthiness	043	2.0	2		1753.446287944389	0.6917530904756859
190.0	529.5362835101259	fix	2.0		60	trustworthiness	043	2.0	2	-0.7799999999999998	1754.1380410348647	0.5167525395954726
191.0	530.0530360497214	face	0.0		147	trustworthiness	006	2.0	2		1754.6547935744602	1.23345702374354
191.0	531.286493073465	rating	1.0		36	trustworthiness	006	2.0	2		1755.8882505982037	0.3083616146905115
191.0	531.5948546881555	fix	2.0		60	trustworthiness	006	2.0	2	0.1900000000000004	1756.1966122128943	0.516754350726842
192.0	532.1116090388823	face	0.0		147	trustworthiness	024	2.0	2		1756.713366563621	1.233456420028233
192.0	533.3450654589105	rating	1.0		38	trustworthiness	024	2.0	2		1757.9468229836493	0.325040954281576
192.0	533.6701064131921	fix	2.0		60	trustworthiness	024	2.0	2	0.16000000000000014	1758.271863937931	0.5167465024715057
193.0	534.1868529156636	face	0.0		147	trustworthiness	126	2.0	2		1758.7886104404024	1.2334588348749094
193.0	535.4203117505385	rating	1.0		140	trustworthiness	126	2.0	2		1760.0220692752773	1.1751406119437888
193.0	536.5954523624823	fix	2.0		60	trustworthiness	126	2.0	2	-0.3500000000000001	1761.197209887221	0.5167531432962278
194.0	537.1122055057785	face	0.0		147	trustworthiness	136	2.0	2		1761.7139630305173	1.2334591367398389
194.0	538.3456646425184	rating	1.0		86	trustworthiness	136	2.0	2		1762.9474221672572	0.7250839988992084
194.0	539.0707486414176	fix	2.0		60	trustworthiness	136	2.0	2	-1.38	1763.6725061661564	0.5167446913401363
195.0	539.5874933327577	face	0.0		147	trustworthiness	044	2.0	2		1764.1892508574965	1.2334660794149386
195.0	540.8209594121727	rating	1.0		65	trustworthiness	044	2.0	2		1765.4227169369115	0.5500617143989075
195.0	541.3710211265716	fix	2.0		60	trustworthiness	044	2.0	2	0.13999999999999968	1765.9727786513104	0.5167510303144809
196.0	541.8877721568861	face	0.0		147	trustworthiness	070	2.0	2		1766.4895296816248	1.2334527977654943
196.0	543.1212249546516	rating	1.0		41	trustworthiness	070	2.0	2		1767.7229824793903	0.35004487085097935
196.0	543.4712698255025	fix	2.0		60	trustworthiness	070	2.0	2	-0.2999999999999998	1768.0730273502413	0.5167742732010083
197.0	543.9880440987035	face	0.0		147	trustworthiness	092	2.0	2		1768.5898016234423	1.2334367994044442
197.0	545.221480898108	rating	1.0		113	trustworthiness	092	2.0	2		1769.8232384228468	0.9501110980054364
197.0	546.1715919961134	fix	2.0		60	trustworthiness	092	2.0	2	-0.4900000000000002	1770.7733495208522	0.5167419746285304
198.0	546.688333970742	face	0.0		147	trustworthiness	018	2.0	2		1771.2900914954807	1.2335010946844704
198.0	547.9218350654264	rating	1.0		51	trustworthiness	018	2.0	2		1772.5235925901652	0.43334316376422066
198.0	548.3551782291906	fix	2.0		60	trustworthiness	018	2.0	2	1.4699999999999998	1772.9569357539294	0.5167495210334891
199.0	548.8719277502241	face	0.0		147	trustworthiness	062	2.0	2		1773.473685274963	1.2334588348749094
199.0	550.105386585099	rating	1.0		88	trustworthiness	062	2.0	2		1774.7071441098378	0.7417597162129823
199.0	550.847146301312	fix	2.0		60	trustworthiness	062	2.0	2	-0.7400000000000002	1775.4489038260508	0.5000620313512627
200.0	551.3472083326633	cue	0.0		480						1775.948965857402	4.000464254088001
200.0	555.3476725867513	fix	1.0		120						1779.94943011149	1.0168184950744035
200.0	556.3644910818257	face	0.0		147	dominance	137	2.0	2		1780.9662486065645	1.2334527977509424
200.0	557.5979438795766	rating	1.0		154	dominance	137	2.0	2		1782.1997014043154	1.2918241473234957
200.0	558.8897680269001	fix	2.0		60	dominance	137	2.0	2	1.0	1783.491525551639	0.5167452950408915
201.0	559.406513321941	face	0.0		147	dominance	117	2.0	2		1784.0082708466798	1.2334549107617931
201.0	560.6399682327028	rating	1.0		41	dominance	117	2.0	2		1785.2417257574416	0.35004185228899587
201.0	560.9900100849918	fix	2.0		60	dominance	117	2.0	2	1.0899999999999999	1785.5917676097306	0.5167498228838667
202.0	561.5067599078757	face	0.0		147	dominance	124	2.0	2		1786.1085174326145	1.2334642682835693
202.0	562.7402241761592	rating	1.0		50	dominance	124	2.0	2		1787.341981700898	0.42504273522354197
202.0	563.1652669113828	fix	2.0		60	dominance	124	2.0	2	1.3099999999999996	1787.7670244361216	0.5167513321648585
203.0	563.6820182435476	face	0.0		147	dominance	030	2.0	2		1788.2837757682864	1.2334582311741542
203.0	564.9154764747218	rating	1.0		200	dominance	030	2.0	2		1789.5172339994606	1.6752059636928607
203.0	566.5906824384147	fix	2.0		60	dominance	030	2.0	2	0.46999999999999975	1791.1924399631534	0.5167585767048877
204.0	567.1074410151195	face	0.0		147	dominance	006	2.0	2		1791.7091985398583	1.2334410253970418
204.0	568.3408820405166	rating	1.0		44	dominance	006	2.0	2		1792.9426395652554	0.37509980105096474
204.0	568.7159818415676	fix	2.0		60	dominance	006	2.0	2	-1.37	1793.3177393663063	0.5167051482276293
205.0	569.2326869897952	face	0.0		147	dominance	043	2.0	2		1793.834444514534	1.2334558163274778
205.0	570.4661428061227	rating	1.0		53	dominance	043	2.0	2		1795.0679003308614	0.450050877785543
205.0	570.9161936839082	fix	2.0		60	dominance	043	2.0	2	-1.3900000000000001	1795.517951208647	0.5167513321648585
206.0	571.4329450160731	face	0.0		147	dominance	024	2.0	2		1796.0347025408118	1.2334515903348802
206.0	572.666396606408	rating	1.0		49	dominance	024	2.0	2		1797.2681541311467	0.41671393225260545
206.0	573.0831105386605	fix	2.0		60	dominance	024	2.0	2	-2.13	1797.6848680633993	0.5167594822560204
207.0	573.5998700209166	face	0.0		147	dominance	087	2.0	2		1798.2016275456554	1.2334497792180628
207.0	574.8333198001346	rating	1.0		48	dominance	087	2.0	2		1799.4350773248734	0.40838180884020403
207.0	575.2417016089748	fix	2.0		60	dominance	087	2.0	2	0.28000000000000025	1799.8434591337136	0.5167492191831116
208.0	575.758450828158	face	0.0		147	dominance	136	2.0	2		1800.3602083528967	1.2334585330099799
208.0	576.9919093611679	rating	1.0		45	dominance	136	2.0	2		1801.5936668859067	0.3833794015517924
208.0	577.3752887627197	fix	2.0		60	dominance	136	2.0	2	1.5899999999999999	1801.9770462874585	0.5167495210334891
209.0	577.8920382837532	face	0.0		147	dominance	144	2.0	2		1802.493795808492	1.2334663812653162
209.0	579.1255046650185	rating	1.0		37	dominance	144	2.0	2		1803.7272621897573	0.31670007706270553
209.0	579.4422047420812	fix	2.0		60	dominance	144	2.0	2	-0.8999999999999999	1804.04396226682	0.5167440876393812
210.0	579.9589488297206	face	0.0		147	dominance	061	2.0	2		1804.5607063544594	1.2334603441559011
210.0	581.1924091738765	rating	1.0		36	dominance	061	2.0	2		1805.7941666986153	0.30836553881817963
210.0	581.5007747126947	fix	2.0		61	dominance	061	2.0	2	0.0	1806.1025322374335	0.5251468452624977
211.0	582.0259215579572	face	0.0		146	dominance	044	2.0	2		1806.627679082696	1.225062114361208
211.0	583.2509836723184	rating	1.0		103	dominance	044	2.0	2		1807.8527411970572	0.866776582392049
211.0	584.1177602547104	fix	2.0		60	dominance	044	2.0	2	0.1200000000000001	1808.7195177794492	0.5167531432962278
212.0	584.6345133980067	face	0.0		147	dominance	005	2.0	2		1809.2362709227455	1.2334497792180628
212.0	585.8679631772247	rating	1.0		54	dominance	005	2.0	2		1810.4697207019635	0.4583866234461311
212.0	586.3263498006709	fix	2.0		60	dominance	005	2.0	2	-1.88	1810.9281073254097	0.5167501247342443
213.0	586.8430999254051	face	0.0		147	dominance	009	2.0	2		1811.444857450144	1.2334600423055235
213.0	588.0765599677106	rating	1.0		42	dominance	009	2.0	2		1812.6783174924494	0.358377597949584
213.0	588.4349375656602	fix	2.0		60	dominance	009	2.0	2	0.6799999999999997	1813.036695090399	0.5167468043364352
214.0	588.9516843699967	face	0.0		147	dominance	070	2.0	2		1813.5534418947354	1.23345702374354
214.0	590.1851413937402	rating	1.0		71	dominance	070	2.0	2		1814.786898918479	0.6000725661142496
214.0	590.7852139598544	fix	2.0		60	dominance	070	2.0	2	-1.44	1815.3869714845932	0.516748313602875
215.0	591.3019622734573	face	0.0		147	dominance	121	2.0	2		1815.903719798196	1.2334588348894613
215.0	592.5354211083468	rating	1.0		47	dominance	121	2.0	2		1817.1371786330856	0.40004666689492296
215.0	592.9354677752417	fix	2.0		60	dominance	121	2.0	2	1.67	1817.5372252999805	0.5167492191685596
216.0	593.4522169944103	face	0.0		147	dominance	012	2.0	2		1818.053974519149	1.233465173849254
216.0	594.6856821682595	rating	1.0		52	dominance	012	2.0	2		1819.2874396929983	0.44170969871629495
216.0	595.1273918669758	fix	2.0		60	dominance	012	2.0	2	2.2699999999999996	1819.7291493917146	0.5167534451611573
217.0	595.644145312137	face	0.0		147	dominance	130	2.0	2		1820.2459028368758	1.2334567218786106
217.0	596.8776020340156	rating	1.0		57	dominance	130	2.0	2		1821.4793595587544	0.48338721961772535
217.0	597.3609892536333	fix	2.0		60	dominance	130	2.0	2	-2.65	1821.962746778372	0.5167519358656136
218.0	597.8777411894989	face	0.0		147	dominance	172	2.0	2		1822.4794987142377	1.2334672868455527
218.0	599.1112084763445	rating	1.0		60	dominance	172	2.0	2		1823.7129660010833	0.508384193512029
218.0	599.6195926698565	fix	2.0		60	dominance	172	2.0	2	-2.83	1824.2213501945953	0.5167585766903358
219.0	600.1363512465468	face	0.0		147	dominance	066	2.0	2		1824.7381087712856	1.233457023758092
219.0	601.3698082703049	rating	1.0		49	dominance	066	2.0	2		1825.9715657950437	0.41670789511408657
219.0	601.786516165419	fix	2.0		60	dominance	066	2.0	2	0.9400000000000004	1826.3882736901578	0.5167504265991738
220.0	602.3032665920182	face	0.0		147	dominance	126	2.0	2		1826.905024116757	1.2334540051961085
220.0	603.5367205972143	rating	1.0		49	dominance	126	2.0	2		1828.138478121953	0.4167193656467134
220.0	603.953439962861	fix	2.0		60	dominance	126	2.0	2	1.5300000000000002	1828.5551974875998	0.5167507284495514
221.0	604.4701906913106	face	0.0		147	dominance	036	2.0	2		1829.0719482160493	1.2334585330245318
221.0	605.7036492243351	rating	1.0		36	dominance	036	2.0	2		1830.3054067490739	0.3083682555152336
221.0	606.0120174798503	fix	2.0		60	dominance	036	2.0	2	0.6399999999999997	1830.6137750045891	0.5167528414458502
222.0	606.5287703212962	face	0.0		147	dominance	082	2.0	2		1831.130527846035	1.233477851797943
222.0	607.7622481730941	rating	1.0		51	dominance	082	2.0	2		1832.364005697833	0.43338210314686876
222.0	608.195630276241	fix	2.0		61	dominance	082	2.0	2	-0.2200000000000002	1832.7973878009798	0.5250680609169649
223.0	608.720698337158	face	0.0		146	dominance	018	2.0	2		1833.3224558618967	1.2251276170572964
223.0	609.9458259542153	rating	1.0		90	dominance	018	2.0	2		1834.547583478954	0.7584212462970754
223.0	610.7042472005123	fix	2.0		60	dominance	018	2.0	2	-2.96	1835.3060047252511	0.5167419746285304
224.0	611.2209891751409	face	0.0		147	dominance	102	2.0	2		1835.8227466998796	1.2334675886959303
224.0	612.4544567638368	rating	1.0		509	dominance	102	2.0	2		1837.0562142885756	4.250502816168591
224.0	616.7049595800054	fix	2.0		60	dominance	102	2.0	2	0.3799999999999999	1841.3067171047442	0.5167480117524974
225.0	617.2217075917579	face	0.0		147	dominance	042	2.0	2		1841.8234651164967	1.2334890204510884
225.0	618.455196612209	rating	1.0		70	dominance	042	2.0	2		1843.0569541369478	0.591701503333752
225.0	619.0468981155427	fix	2.0		60	dominance	042	2.0	2	1.0999999999999996	1843.6486556402815	0.5167492191685596
226.0	619.5636473347113	face	0.0		147	dominance	091	2.0	2		1844.16540485945	1.2334600423055235
226.0	620.7971073770168	rating	1.0		37	dominance	091	2.0	2		1845.3988649017556	0.3167003789130831
226.0	621.1138077559299	fix	2.0		60	dominance	091	2.0	2	0.79	1845.7155652806687	0.5167534451611573
227.0	621.630561201091	face	0.0		147	dominance	011	2.0	2		1846.2323187258298	1.2334576274588471
227.0	622.8640188285499	rating	1.0		99	dominance	011	2.0	2		1847.4657763532887	0.8334314867533976
227.0	623.6974503153033	fix	2.0		60	dominance	011	2.0	2	1.2199999999999998	1848.299207840042	0.5167570674238959
228.0	624.2142073827272	face	0.0		147	dominance	034	2.0	2		1848.815964907466	1.2334512884845026
228.0	625.4476586712117	rating	1.0		49	dominance	034	2.0	2		1850.0494161959505	0.4167148378037382
228.0	625.8643735090154	fix	2.0		60	dominance	034	2.0	2	-0.6800000000000002	1850.4661310337542	0.5167495210334891
229.0	626.3811230300489	face	0.0		147	dominance	062	2.0	2		1850.9828805547877	1.2334576274588471
229.0	627.6145806575078	rating	1.0		36	dominance	062	2.0	2		1852.2163381822465	0.30836795366485603
229.0	627.9229486111726	fix	2.0		60	dominance	062	2.0	2	0.5800000000000001	1852.5247061359114	0.516760387836257
230.0	628.4397089990089	face	0.0		147	dominance	101	2.0	2		1853.0414665237477	1.2334518921998097
230.0	629.6731608912087	rating	1.0		51	dominance	101	2.0	2		1854.2749184159475	0.43338029201549944
230.0	630.1065411832242	fix	2.0		60	dominance	101	2.0	2	0.9699999999999998	1854.708298707963	0.5167528414458502
231.0	630.62329402467	face	0.0		147	dominance	099	2.0	2		1855.2250515494088	1.2334588348749094
231.0	631.8567528595449	rating	1.0		101	dominance	099	2.0	2		1856.4585103842837	0.850098148395773
231.0	632.7068510079407	fix	2.0		60	dominance	099	2.0	2	1.4000000000000004	1857.3086085326795	0.5167474080371903
232.0	633.2235984159779	face	0.0		147	dominance	033	2.0	2		1857.8253559407167	1.2334700035426067
232.0	634.4570684195205	rating	1.0		55	dominance	033	2.0	2		1859.0588259442593	0.46672085982572753
232.0	634.9237892793462	fix	2.0		60	dominance	033	2.0	2	1.6799999999999997	1859.525546804085	0.5167507284495514
233.0	635.4405400077958	face	0.0		147	dominance	064	2.0	2		1860.0422975325346	1.2334579293237766
233.0	636.6739979371196	rating	1.0		36	dominance	064	2.0	2		1861.2757554618584	0.30836704809917137
233.0	636.9823649852187	fix	2.0		60	dominance	064	2.0	2	0.5599999999999996	1861.5841225099575	0.5167477098875679
234.0	637.4991126951063	face	0.0		147	dominance	039	2.0	2		1862.100870219845	1.2334546088968636
234.0	638.7325673040032	rating	1.0		67	dominance	039	2.0	2		1863.334324828742	0.5667392428440508
234.0	639.2993065468472	fix	2.0		60	dominance	039	2.0	2	-3.35	1863.901064071586	0.5167486154678045
235.0	639.816055162315	face	0.0		147	dominance	027	2.0	2		1864.4178126870538	1.2334621552872704
235.0	641.0495173176023	rating	1.0		76	dominance	027	2.0	2		1865.651274842341	0.641731975672883
235.0	641.6912492932752	fix	2.0		60	dominance	027	2.0	2	0.8899999999999997	1866.293006818014	0.5167618971172487
236.0	642.2080111903924	face	0.0		147	dominance	092	2.0	2		1866.8097687151312	1.2334534014808014
236.0	643.4414645918732	rating	1.0		43	dominance	092	2.0	2		1868.043222116612	0.3667027786723338
236.0	643.8081673705456	fix	2.0		60	dominance	092	2.0	2	-1.8199999999999998	1868.4099248952843	0.5167507284495514
237.0	644.3249180989951	face	0.0		147	dominance	038	2.0	2		1868.926675623734	1.2334600423055235
237.0	645.5583781413006	rating	1.0		78	dominance	038	2.0	2		1870.1601356660394	0.658407692972105
237.0	646.2167858342727	fix	2.0		60	dominance	038	2.0	2	0.7199999999999998	1870.8185433590115	0.5167519358656136
238.0	646.7335377701384	face	0.0		147	dominance	141	2.0	2		1871.3352952948771	1.2334660794294905
238.0	647.9670038495678	rating	1.0		42	dominance	141	2.0	2		1872.5687613743066	0.35837246640585363
238.0	648.3253763159737	fix	2.0		60	dominance	141	2.0	2	-0.69	1872.9271338407125	0.5167468043218832
239.0	648.8421231202956	face	0.0		147	dominance	100	2.0	2		1873.4438806450344	1.2334582311741542
239.0	650.0755813514697	rating	1.0		37	dominance	100	2.0	2		1874.6773388762085	0.3167079253180418
239.0	650.3922892767878	fix	2.0		60	dominance	100	2.0	2	1.58	1874.9940468015266	0.5000596165045863
