trial_nr	onset	event_type	phase	response	nr_frames	face_age	face_sex	face_eth	attractiveness	expression	face_id	sub_id	ses	run	trial_type	catch	rating_type	onset_abs	duration
-1.0	0.07400898503715325	fix	0.0		712													128.05140814183346	5.957955724406929
-1.0	0.707199953151985	pulse	0.0	t														128.6845991099483	
-1.0	1.407192497315691	pulse	0.0	t														129.384591654112	
-1.0	2.1071750802407223	pulse	0.0	t														130.08457423703703	
-1.0	2.8071878487376125	pulse	0.0	t														130.78458700553392	
-1.0	3.5071659038269445	pulse	0.0	t														131.48456506062325	
-1.0	4.207143355204835	pulse	0.0	t														132.18454251200114	
-1.0	4.907163066383191	pulse	0.0	t														132.8845622231795	
-1.0	5.607137499203873	pulse	0.0	t														133.58453665600018	
0.0	6.0319647094440825	face	0.0		142	40.0	male	black	2.408674890569041	smiling	061	sub-15	1.0	1.0	061_smiling	0.0		134.0093638662404	1.2250283065200165
0.0	6.307136684193438	pulse	0.0	t		40.0	male	black	2.408674890569041	smiling	061	sub-15	1.0	1.0	061_smiling	0.0		134.28453584098975	
0.0	7.007122285675678	pulse	0.0	t		40.0	male	black	2.408674890569041	smiling	061	sub-15	1.0	1.0	061_smiling	0.0		134.984521442472	
0.0	7.256993015964099	fix	1.0		445	40.0	male	black	2.408674890569041	smiling	061	sub-15	1.0	1.0	061_smiling	0.0		135.2343921727604	3.76657497296128
0.0	7.707084946123132	pulse	1.0	t		40.0	male	black	2.408674890569041	smiling	061	sub-15	1.0	1.0	061_smiling	0.0		135.68448410291944	
0.0	8.407084734824139	pulse	1.0	t		40.0	male	black	2.408674890569041	smiling	061	sub-15	1.0	1.0	061_smiling	0.0		136.38448389162045	
0.0	9.10707758084368	pulse	1.0	t		40.0	male	black	2.408674890569041	smiling	061	sub-15	1.0	1.0	061_smiling	0.0		137.08447673764	
0.0	9.807066200883128	pulse	1.0	t		40.0	male	black	2.408674890569041	smiling	061	sub-15	1.0	1.0	061_smiling	0.0		137.78446535767944	
0.0	10.507069913708392	pulse	1.0	t		40.0	male	black	2.408674890569041	smiling	061	sub-15	1.0	1.0	061_smiling	0.0		138.4844690705047	
1.0	11.023567988925379	face	0.0		145	37.0	male	white	3.898925586947871	smiling	101	sub-15	1.0	1.0	101_smiling	0.0		139.0009671457217	1.2333281313531188
1.0	11.207025631474608	pulse	0.0	t		37.0	male	white	3.898925586947871	smiling	101	sub-15	1.0	1.0	101_smiling	0.0		139.18442478827092	
1.0	11.907047153787289	pulse	0.0	t		37.0	male	white	3.898925586947871	smiling	101	sub-15	1.0	1.0	101_smiling	0.0		139.8844463105836	
1.0	12.256896120278498	fix	1.0		444	37.0	male	white	3.898925586947871	smiling	101	sub-15	1.0	1.0	101_smiling	0.0		140.2342952770748	3.766586141622838
1.0	12.607022794030854	pulse	1.0	t		37.0	male	white	3.898925586947871	smiling	101	sub-15	1.0	1.0	101_smiling	0.0		140.58442195082716	
1.0	13.30698454891126	pulse	1.0	t		37.0	male	white	3.898925586947871	smiling	101	sub-15	1.0	1.0	101_smiling	0.0		141.28438370570757	
1.0	14.006988261736524	pulse	1.0	t		37.0	male	white	3.898925586947871	smiling	101	sub-15	1.0	1.0	101_smiling	0.0		141.98438741853283	
1.0	14.706958770432948	pulse	1.0	t		37.0	male	white	3.898925586947871	smiling	101	sub-15	1.0	1.0	101_smiling	0.0		142.68435792722926	
1.0	15.406948296039445	pulse	1.0	t		37.0	male	white	3.898925586947871	smiling	101	sub-15	1.0	1.0	101_smiling	0.0		143.38434745283575	
2.0	16.023482261901336	face	0.0		145	24.0	female	east_asian	2.9076800636689217	neutral	034	sub-15	1.0	1.0	034_neutral	0.0		144.00088141869765	1.2333051903185606
2.0	16.106941142058986	pulse	0.0	t		24.0	female	east_asian	2.9076800636689217	neutral	034	sub-15	1.0	1.0	034_neutral	0.0		144.0843402988553	
2.0	16.806930667665483	pulse	0.0	t		24.0	female	east_asian	2.9076800636689217	neutral	034	sub-15	1.0	1.0	034_neutral	0.0		144.7843298244618	
2.0	17.256787452219896	fix	1.0		444	24.0	female	east_asian	2.9076800636689217	neutral	034	sub-15	1.0	1.0	034_neutral	0.0		145.2341866090162	3.7666172327619734
2.0	17.506897855948864	pulse	1.0	t		24.0	female	east_asian	2.9076800636689217	neutral	034	sub-15	1.0	1.0	034_neutral	0.0		145.48429701274517	
2.0	18.206910322590147	pulse	1.0	t		24.0	female	east_asian	2.9076800636689217	neutral	034	sub-15	1.0	1.0	034_neutral	0.0		146.18430947938646	
2.0	18.906891999947902	pulse	1.0	t		24.0	female	east_asian	2.9076800636689217	neutral	034	sub-15	1.0	1.0	034_neutral	0.0		146.8842911567442	
2.0	19.606904466589185	pulse	1.0	t		24.0	female	east_asian	2.9076800636689217	neutral	034	sub-15	1.0	1.0	034_neutral	0.0		147.5843036233855	
2.0	20.306883427245566	pulse	1.0	t		24.0	female	east_asian	2.9076800636689217	neutral	034	sub-15	1.0	1.0	034_neutral	0.0		148.28428258404188	
3.0	21.02340468498187	face	0.0		145	24.0	female	east_asian	4.409868682849185	smiling	030	sub-15	1.0	1.0	030_smiling	0.0		149.00080384177818	1.233319075681493
3.0	21.009363866240392	pulse	0.0	t		24.0	female	east_asian	4.409868682849185	smiling	030	sub-15	1.0	1.0	030_smiling	0.0		148.9867630230367	
3.0	21.706849800518512	pulse	0.0	t		24.0	female	east_asian	4.409868682849185	smiling	030	sub-15	1.0	1.0	030_smiling	0.0		149.68424895731482	
3.0	22.256723760663363	fix	1.0		442	24.0	female	east_asian	4.409868682849185	smiling	030	sub-15	1.0	1.0	030_smiling	0.0		150.23412291745967	3.766591876881421
3.0	22.40680974426482	pulse	1.0	t		24.0	female	east_asian	4.409868682849185	smiling	030	sub-15	1.0	1.0	030_smiling	0.0		150.38420890106113	
3.0	23.106824323896035	pulse	1.0	t		24.0	female	east_asian	4.409868682849185	smiling	030	sub-15	1.0	1.0	030_smiling	0.0		151.08422348069234	
3.0	23.80684041280574	pulse	1.0	t		24.0	female	east_asian	4.409868682849185	smiling	030	sub-15	1.0	1.0	030_smiling	0.0		151.78423956960205	
3.0	24.506797036139005	pulse	1.0	t		24.0	female	east_asian	4.409868682849185	smiling	030	sub-15	1.0	1.0	030_smiling	0.0		152.48419619293531	
3.0	25.023476224787146	response	1.0	g		24.0	female	east_asian	4.409868682849185	smiling	030	sub-15	1.0	1.0	030_smiling	0.0		153.00087538158346	
3.0	25.20679320257136	pulse	1.0	t		24.0	female	east_asian	4.409868682849185	smiling	030	sub-15	1.0	1.0	030_smiling	0.0		153.18419235936767	
3.0	25.90679721725246	pulse	1.0	t		24.0	female	east_asian	4.409868682849185	smiling	030	sub-15	1.0	1.0	030_smiling	0.0		153.88419637404877	
4.0	26.023315637544783	face	0.0		146	32.0	male	white	2.389176283326701	neutral	092	sub-15	1.0	1.0	092_neutral	0.0		154.0007147943411	1.2333211886716526
4.0	26.606766518525774	pulse	0.0	t		32.0	male	white	2.389176283326701	neutral	092	sub-15	1.0	1.0	092_neutral	0.0		154.58416567532208	
4.0	27.256636826216436	fix	1.0		443	32.0	male	white	2.389176283326701	neutral	092	sub-15	1.0	1.0	092_neutral	0.0		155.23403598301275	3.7665964047173475
4.0	27.3067442717595	pulse	1.0	t		32.0	male	white	2.389176283326701	neutral	092	sub-15	1.0	1.0	092_neutral	0.0		155.2841434285558	
4.0	28.00673047695318	pulse	1.0	t		32.0	male	white	2.389176283326701	neutral	092	sub-15	1.0	1.0	092_neutral	0.0		155.9841296337495	
4.0	28.173429090016725	response	1.0	e		32.0	male	white	2.389176283326701	neutral	092	sub-15	1.0	1.0	092_neutral	0.0		156.15082824681303	
4.0	28.70670883389812	pulse	1.0	t		32.0	male	white	2.389176283326701	neutral	092	sub-15	1.0	1.0	092_neutral	0.0		156.68410799069443	
4.0	29.40674605270806	pulse	1.0	t		32.0	male	white	2.389176283326701	neutral	092	sub-15	1.0	1.0	092_neutral	0.0		157.38414520950437	
4.0	30.106692714802648	pulse	1.0	t		32.0	male	white	2.389176283326701	neutral	092	sub-15	1.0	1.0	092_neutral	0.0		158.08409187159896	
4.0	30.806691597936606	pulse	1.0	t		32.0	male	white	2.389176283326701	neutral	092	sub-15	1.0	1.0	092_neutral	0.0		158.78409075473292	
5.0	31.023233230933783	face	0.0		145	20.0	female	white	3.9502586549940313	neutral	091	sub-15	1.0	1.0	091_neutral	0.0		159.0006323877301	1.2333018699055174
5.0	31.50667840684173	pulse	0.0	t		20.0	female	white	3.9502586549940313	neutral	091	sub-15	1.0	1.0	091_neutral	0.0		159.48407756363804	
5.0	32.20665766935372	pulse	0.0	t		20.0	female	white	3.9502586549940313	neutral	091	sub-15	1.0	1.0	091_neutral	0.0		160.18405682615003	
5.0	32.2565351008393	fix	1.0		444	20.0	female	white	3.9502586549940313	neutral	091	sub-15	1.0	1.0	091_neutral	0.0		160.2339342576356	3.76661602533909
5.0	32.906649307950374	pulse	1.0	t		20.0	female	white	3.9502586549940313	neutral	091	sub-15	1.0	1.0	091_neutral	0.0		160.88404846474668	
5.0	33.13163444910265	response	1.0	n		20.0	female	white	3.9502586549940313	neutral	091	sub-15	1.0	1.0	091_neutral	0.0		161.10903360589896	
5.0	33.60665211520859	pulse	1.0	t		20.0	female	white	3.9502586549940313	neutral	091	sub-15	1.0	1.0	091_neutral	0.0		161.5840512720049	
5.0	34.30661990720341	pulse	1.0	t		20.0	female	white	3.9502586549940313	neutral	091	sub-15	1.0	1.0	091_neutral	0.0		162.28401906399972	
5.0	35.006618488481536	pulse	1.0	t		20.0	female	white	3.9502586549940313	neutral	091	sub-15	1.0	1.0	091_neutral	0.0		162.98401764527785	
5.0	35.706603486252334	pulse	1.0	t		20.0	female	white	3.9502586549940313	neutral	091	sub-15	1.0	1.0	091_neutral	0.0		163.68400264304864	
6.0	36.02315112617839	face	0.0		145	34.0	male	white	2.651014723438122	smiling	121	sub-15	1.0	1.0	121_smiling	0.0		164.0005502829747	1.233315755268677
6.0	36.40659452113755	pulse	0.0	t		34.0	male	white	2.651014723438122	smiling	121	sub-15	1.0	1.0	121_smiling	0.0		164.38399367793386	
6.0	37.106595215405605	pulse	0.0	t		34.0	male	white	2.651014723438122	smiling	121	sub-15	1.0	1.0	121_smiling	0.0		165.08399437220191	
6.0	37.25646688144707	fix	1.0		443	34.0	male	white	2.651014723438122	smiling	121	sub-15	1.0	1.0	121_smiling	0.0		165.23386603824338	3.766581915642746
6.0	37.44823491377929	response	1.0	w		34.0	male	white	2.651014723438122	smiling	121	sub-15	1.0	1.0	121_smiling	0.0		165.4256340705756	
6.0	37.80657508162926	pulse	1.0	t		34.0	male	white	2.651014723438122	smiling	121	sub-15	1.0	1.0	121_smiling	0.0		165.78397423842557	
6.0	38.506553136718594	pulse	1.0	t		34.0	male	white	2.651014723438122	smiling	121	sub-15	1.0	1.0	121_smiling	0.0		166.4839522935149	
6.0	39.206554736553926	pulse	1.0	t		34.0	male	white	2.651014723438122	smiling	121	sub-15	1.0	1.0	121_smiling	0.0		167.18395389335024	
6.0	39.9065261508174	pulse	1.0	t		34.0	male	white	2.651014723438122	smiling	121	sub-15	1.0	1.0	121_smiling	0.0		167.8839253076137	
6.0	40.60654344714999	pulse	1.0	t		34.0	male	white	2.651014723438122	smiling	121	sub-15	1.0	1.0	121_smiling	0.0		168.5839426039463	
7.0	41.023048797089814	face	0.0		145	21.0	male	east_asian/white	3.501790688420215	neutral	036	sub-15	1.0	1.0	036_neutral	0.0		169.00044795388612	1.233330848054493
7.0	41.30651123914481	pulse	0.0	t		21.0	male	east_asian/white	3.501790688420215	neutral	036	sub-15	1.0	1.0	036_neutral	0.0		169.28391039594112	
7.0	42.006520083517444	pulse	0.0	t		21.0	male	east_asian/white	3.501790688420215	neutral	036	sub-15	1.0	1.0	036_neutral	0.0		169.98391924031375	
7.0	42.25637964514431	fix	1.0		443	21.0	male	east_asian/white	3.501790688420215	neutral	036	sub-15	1.0	1.0	036_neutral	0.0		170.23377880194062	3.7665776896628813
7.0	42.65648638132643	response	1.0	n		21.0	male	east_asian/white	3.501790688420215	neutral	036	sub-15	1.0	1.0	036_neutral	0.0		170.63388553812274	
7.0	42.706490894069475	pulse	1.0	t		21.0	male	east_asian/white	3.501790688420215	neutral	036	sub-15	1.0	1.0	036_neutral	0.0		170.68389005086578	
7.0	43.40649671988467	pulse	1.0	t		21.0	male	east_asian/white	3.501790688420215	neutral	036	sub-15	1.0	1.0	036_neutral	0.0		171.38389587668098	
7.0	44.10645787105386	pulse	1.0	t		21.0	male	east_asian/white	3.501790688420215	neutral	036	sub-15	1.0	1.0	036_neutral	0.0		172.08385702785017	
7.0	44.806435926143195	pulse	1.0	t		21.0	male	east_asian/white	3.501790688420215	neutral	036	sub-15	1.0	1.0	036_neutral	0.0		172.7838350829395	
7.0	45.506433299998434	pulse	1.0	t		21.0	male	east_asian/white	3.501790688420215	neutral	036	sub-15	1.0	1.0	036_neutral	0.0		173.48383245679474	
8.0	46.02295733480719	face	0.0		144	28.0	male	east_asian	1.5563072025467568	smiling	005	sub-15	1.0	1.0	005_smiling	0.0		174.0003564916035	1.2333429222833274
8.0	46.206421920037656	pulse	0.0	t		28.0	male	east_asian	1.5563072025467568	smiling	005	sub-15	1.0	1.0	005_smiling	0.0		174.18382107683396	
8.0	46.90640571038557	pulse	0.0	t		28.0	male	east_asian	1.5563072025467568	smiling	005	sub-15	1.0	1.0	005_smiling	0.0		174.88380486718188	
8.0	47.21475887312431	response	0.0	e		28.0	male	east_asian	1.5563072025467568	smiling	005	sub-15	1.0	1.0	005_smiling	0.0		175.19215802992062	
8.0	47.256300257090516	fix	1.0		445	28.0	male	east_asian	1.5563072025467568	smiling	005	sub-15	1.0	1.0	005_smiling	0.0		175.23369941388682	3.7665930843043043
8.0	47.6064263271312	pulse	1.0	t		28.0	male	east_asian	1.5563072025467568	smiling	005	sub-15	1.0	1.0	005_smiling	0.0		175.5838254839275	
8.0	48.30648256285167	pulse	1.0	t		28.0	male	east_asian	1.5563072025467568	smiling	005	sub-15	1.0	1.0	005_smiling	0.0		176.28388171964798	
8.0	49.00638153174259	pulse	1.0	t		28.0	male	east_asian	1.5563072025467568	smiling	005	sub-15	1.0	1.0	005_smiling	0.0		176.9837806885389	
8.0	49.70636290724474	pulse	1.0	t		28.0	male	east_asian	1.5563072025467568	smiling	005	sub-15	1.0	1.0	005_smiling	0.0		177.68376206404105	
8.0	50.40634911243842	pulse	1.0	t		28.0	male	east_asian	1.5563072025467568	smiling	005	sub-15	1.0	1.0	005_smiling	0.0		178.38374826923473	
9.0	51.02289334139482	face	0.0		145	24.0	female	east_asian	4.409868682849185	neutral	030	sub-15	1.0	1.0	030_neutral	0.0		179.00029249819113	1.233308812587211
9.0	51.106339543612194	pulse	0.0	t		24.0	female	east_asian	4.409868682849185	neutral	030	sub-15	1.0	1.0	030_neutral	0.0		179.0837387004085	
9.0	51.80630492076125	pulse	0.0	t		24.0	female	east_asian	4.409868682849185	neutral	030	sub-15	1.0	1.0	030_neutral	0.0		179.78370407755756	
9.0	52.25620215398203	fix	1.0		444	24.0	female	east_asian	4.409868682849185	neutral	030	sub-15	1.0	1.0	030_neutral	0.0		180.23360131077834	3.766582217498353
9.0	52.26347959349687	response	1.0	w		24.0	female	east_asian	4.409868682849185	neutral	030	sub-15	1.0	1.0	030_neutral	0.0		180.24087875029318	
9.0	52.50628991853205	pulse	1.0	t		24.0	female	east_asian	4.409868682849185	neutral	030	sub-15	1.0	1.0	030_neutral	0.0		180.48368907532836	
9.0	53.20631868538203	pulse	1.0	t		24.0	female	east_asian	4.409868682849185	neutral	030	sub-15	1.0	1.0	030_neutral	0.0		181.18371784217834	
9.0	53.9062946274812	pulse	1.0	t		24.0	female	east_asian	4.409868682849185	neutral	030	sub-15	1.0	1.0	030_neutral	0.0		181.8836937842775	
9.0	54.60627388999342	pulse	1.0	t		24.0	female	east_asian	4.409868682849185	neutral	030	sub-15	1.0	1.0	030_neutral	0.0		182.58367304678973	
9.0	55.3062863566347	pulse	1.0	t		24.0	female	east_asian	4.409868682849185	neutral	030	sub-15	1.0	1.0	030_neutral	0.0		183.283685513431	
10.0	56.022784371480384	face	0.0		146	20.0	male	black	2.609629924393156	neutral	043	sub-15	1.0	1.0	043_neutral	0.0		184.0001835282767	1.2333359796018613
10.0	56.009341528917275	pulse	0.0	t		20.0	male	black	2.609629924393156	neutral	043	sub-15	1.0	1.0	043_neutral	0.0		183.98674068571358	
10.0	56.70624337238041	pulse	0.0	t		20.0	male	black	2.609629924393156	neutral	043	sub-15	1.0	1.0	043_neutral	0.0		184.68364252917672	
10.0	56.70640878931408	response	0.0	w		20.0	male	black	2.609629924393156	neutral	043	sub-15	1.0	1.0	043_neutral	0.0		184.6838079461104	
10.0	57.256120351082245	fix	1.0		443	20.0	male	black	2.609629924393156	neutral	043	sub-15	1.0	1.0	043_neutral	0.0		185.23351950787855	3.766603649254648
10.0	57.406231086852586	pulse	1.0	t		20.0	male	black	2.609629924393156	neutral	043	sub-15	1.0	1.0	043_neutral	0.0		185.3836302436489	
10.0	58.10624596833941	pulse	1.0	t		20.0	male	black	2.609629924393156	neutral	043	sub-15	1.0	1.0	043_neutral	0.0		186.08364512513572	
10.0	58.80622674013034	pulse	1.0	t		20.0	male	black	2.609629924393156	neutral	043	sub-15	1.0	1.0	043_neutral	0.0		186.78362589692665	
10.0	59.50619181542356	pulse	1.0	t		20.0	male	black	2.609629924393156	neutral	043	sub-15	1.0	1.0	043_neutral	0.0		187.48359097221987	
10.0	60.20621001732343	pulse	1.0	t		20.0	male	black	2.609629924393156	neutral	043	sub-15	1.0	1.0	043_neutral	0.0		188.18360917411974	
10.0	60.90618475199972	pulse	1.0	t		20.0	male	black	2.609629924393156	neutral	043	sub-15	1.0	1.0	043_neutral	0.0		188.88358390879603	
11.0	61.02272400033689	face	0.0		145	27.0	female	white	4.181058495821727	smiling	039	sub-15	1.0	1.0	039_smiling	0.0		189.0001231571332	1.2333112274327505
11.0	61.6061782017307	pulse	0.0	t		27.0	female	white	4.181058495821727	smiling	039	sub-15	1.0	1.0	039_smiling	0.0		189.583577358527	
11.0	62.16449174590616	response	0.0	e		27.0	female	white	4.181058495821727	smiling	039	sub-15	1.0	1.0	039_smiling	0.0		190.14189090270247	
11.0	62.256035227769644	fix	1.0		443	27.0	female	white	4.181058495821727	smiling	039	sub-15	1.0	1.0	039_smiling	0.0		190.23343438456595	3.7665997251301633
11.0	62.306142975168314	pulse	1.0	t		27.0	female	white	4.181058495821727	smiling	039	sub-15	1.0	1.0	039_smiling	0.0		190.28354213196462	
11.0	63.006132802630646	pulse	1.0	t		27.0	female	white	4.181058495821727	smiling	039	sub-15	1.0	1.0	039_smiling	0.0		190.98353195942695	
11.0	63.70611538555568	pulse	1.0	t		27.0	female	white	4.181058495821727	smiling	039	sub-15	1.0	1.0	039_smiling	0.0		191.683514542352	
11.0	64.40610762786378	pulse	1.0	t		27.0	female	white	4.181058495821727	smiling	039	sub-15	1.0	1.0	039_smiling	0.0		192.38350678466009	
11.0	65.10610258687325	pulse	1.0	t		27.0	female	white	4.181058495821727	smiling	039	sub-15	1.0	1.0	039_smiling	0.0		193.08350174366956	
11.0	65.80608275495251	pulse	1.0	t		27.0	female	white	4.181058495821727	smiling	039	sub-15	1.0	1.0	039_smiling	0.0		193.78348191174882	
12.0	66.0226349528998	face	0.0		145	28.0	male	white	3.9076800636689217	neutral	033	sub-15	1.0	1.0	033_neutral	0.0		194.00003410969612	1.2333142459901865
12.0	66.50607228055924	pulse	0.0	t		28.0	male	white	3.9076800636689217	neutral	033	sub-15	1.0	1.0	033_neutral	0.0		194.48347143735555	
12.0	67.20606361730006	pulse	0.0	t		28.0	male	white	3.9076800636689217	neutral	033	sub-15	1.0	1.0	033_neutral	0.0		195.18346277409637	
12.0	67.25594919889	fix	1.0		444	28.0	male	white	3.9076800636689217	neutral	033	sub-15	1.0	1.0	033_neutral	0.0		195.2333483556863	3.7666024418315374
12.0	67.67273557650356	response	1.0	n		28.0	male	white	3.9076800636689217	neutral	033	sub-15	1.0	1.0	033_neutral	0.0		195.65013473329986	
12.0	67.90604257795644	pulse	1.0	t		28.0	male	white	3.9076800636689217	neutral	033	sub-15	1.0	1.0	033_neutral	0.0		195.88344173475275	
12.0	68.60608613573663	pulse	1.0	t		28.0	male	white	3.9076800636689217	neutral	033	sub-15	1.0	1.0	033_neutral	0.0		196.58348529253294	
12.0	69.30603249597539	pulse	1.0	t		28.0	male	white	3.9076800636689217	neutral	033	sub-15	1.0	1.0	033_neutral	0.0		197.2834316527717	
12.0	70.006023229005	pulse	1.0	t		28.0	male	white	3.9076800636689217	neutral	033	sub-15	1.0	1.0	033_neutral	0.0		197.9834223858013	
12.0	70.7060085286314	pulse	1.0	t		28.0	male	white	3.9076800636689217	neutral	033	sub-15	1.0	1.0	033_neutral	0.0		198.6834076854277	
13.0	71.02255164072153	face	0.0		144	31.0	female	west_asian	2.364902506963788	neutral	006	sub-15	1.0	1.0	006_neutral	0.0		198.99995079751784	1.2333121330000267
13.0	71.40600469506376	pulse	0.0	t		31.0	female	west_asian	2.364902506963788	neutral	006	sub-15	1.0	1.0	006_neutral	0.0		199.38340385186007	
13.0	71.9143152357749	response	0.0	w		31.0	female	west_asian	2.364902506963788	neutral	006	sub-15	1.0	1.0	006_neutral	0.0		199.8917143925712	
13.0	72.105954979427	pulse	0.0	t		31.0	female	west_asian	2.364902506963788	neutral	006	sub-15	1.0	1.0	006_neutral	0.0		200.0833541362233	
13.0	72.25586377372156	fix	1.0		445	31.0	female	west_asian	2.364902506963788	neutral	006	sub-15	1.0	1.0	006_neutral	0.0		200.23326293051787	3.758266394312386
13.0	72.80598163328682	pulse	1.0	t		31.0	female	west_asian	2.364902506963788	neutral	006	sub-15	1.0	1.0	006_neutral	0.0		200.78338079008313	
13.0	73.50595848095327	pulse	1.0	t		31.0	female	west_asian	2.364902506963788	neutral	006	sub-15	1.0	1.0	006_neutral	0.0		201.48335763774958	
13.0	74.20595223253986	pulse	1.0	t		31.0	female	west_asian	2.364902506963788	neutral	006	sub-15	1.0	1.0	006_neutral	0.0		202.18335138933617	
13.0	74.90595503979807	pulse	1.0	t		31.0	female	west_asian	2.364902506963788	neutral	006	sub-15	1.0	1.0	006_neutral	0.0		202.88335419659438	
13.0	75.60591679467848	pulse	1.0	t		31.0	female	west_asian	2.364902506963788	neutral	006	sub-15	1.0	1.0	006_neutral	0.0		203.5833159514748	
14.0	76.01413016803394	face	0.0		145	54.0	female	white	2.286908077994429	neutral	136	sub-15	1.0	1.0	136_neutral	0.0		203.99152932483025	1.2416478786635707
14.0	76.30594073183715	pulse	0.0	t		54.0	female	white	2.286908077994429	neutral	136	sub-15	1.0	1.0	136_neutral	0.0		204.28333988863346	
14.0	76.92256253771302	response	0.0	w		54.0	female	white	2.286908077994429	neutral	136	sub-15	1.0	1.0	136_neutral	0.0		204.89996169450933	
14.0	77.00590852383198	pulse	0.0	t		54.0	female	white	2.286908077994429	neutral	136	sub-15	1.0	1.0	136_neutral	0.0		204.9833076806283	
14.0	77.25577804669751	fix	1.0		444	54.0	female	white	2.286908077994429	neutral	136	sub-15	1.0	1.0	136_neutral	0.0		205.23317720349382	3.7582950706057545
14.0	77.7059119348014	pulse	1.0	t		54.0	female	white	2.286908077994429	neutral	136	sub-15	1.0	1.0	136_neutral	0.0		205.68331109159772	
14.0	78.40586614328913	pulse	1.0	t		54.0	female	white	2.286908077994429	neutral	136	sub-15	1.0	1.0	136_neutral	0.0		206.38326530008544	
14.0	79.10585566889563	pulse	1.0	t		54.0	female	white	2.286908077994429	neutral	136	sub-15	1.0	1.0	136_neutral	0.0		207.08325482569194	
14.0	79.80583523326345	pulse	1.0	t		54.0	female	white	2.286908077994429	neutral	136	sub-15	1.0	1.0	136_neutral	0.0		207.78323439005976	
14.0	80.50585222774043	pulse	1.0	t		54.0	female	white	2.286908077994429	neutral	136	sub-15	1.0	1.0	136_neutral	0.0		208.48325138453674	
15.0	81.01407311730327	face	0.0		145	26.0	male	white	2.7966573816155993	neutral	117	sub-15	1.0	1.0	117_neutral	0.0		208.99147227409958	1.2416176930917118
15.0	81.20584990345128	pulse	0.0	t		26.0	male	white	2.7966573816155993	neutral	117	sub-15	1.0	1.0	117_neutral	0.0		209.1832490602476	
15.0	81.90580773420743	pulse	0.0	t		26.0	male	white	2.7966573816155993	neutral	117	sub-15	1.0	1.0	117_neutral	0.0		209.88320689100374	
15.0	81.94744722128212	response	0.0	w		26.0	male	white	2.7966573816155993	neutral	117	sub-15	1.0	1.0	117_neutral	0.0		209.92484637807843	
15.0	82.25569081039498	fix	1.0		444	26.0	male	white	2.7966573816155993	neutral	117	sub-15	1.0	1.0	117_neutral	0.0		210.2330899671913	3.7582685073023185
15.0	82.605795146824	pulse	1.0	t		26.0	male	white	2.7966573816155993	neutral	117	sub-15	1.0	1.0	117_neutral	0.0		210.5831943036203	
15.0	83.30578255944056	pulse	1.0	t		26.0	male	white	2.7966573816155993	neutral	117	sub-15	1.0	1.0	117_neutral	0.0		211.28318171623687	
15.0	84.00577299061433	pulse	1.0	t		26.0	male	white	2.7966573816155993	neutral	117	sub-15	1.0	1.0	117_neutral	0.0		211.98317214741064	
15.0	84.70575436611648	pulse	1.0	t		26.0	male	white	2.7966573816155993	neutral	117	sub-15	1.0	1.0	117_neutral	0.0		212.6831535229128	
15.0	85.40574932512595	pulse	1.0	t		26.0	male	white	2.7966573816155993	neutral	117	sub-15	1.0	1.0	117_neutral	0.0		213.38314848192226	
16.0	86.0139593176973	face	0.0		145	19.0	male	white	3.2522881018702745	neutral	018	sub-15	1.0	1.0	018_neutral	1.0	trustworthiness	213.9913584744936	1.2416472749523564
16.0	86.10575333980705	pulse	0.0	t		19.0	male	white	3.2522881018702745	neutral	018	sub-15	1.0	1.0	018_neutral	1.0	trustworthiness	214.08315249660336	
16.0	86.80573411159776	pulse	0.0	t		19.0	male	white	3.2522881018702745	neutral	018	sub-15	1.0	1.0	018_neutral	1.0	trustworthiness	214.78313326839407	
16.0	87.12238317504512	response	0.0	b		19.0	male	white	3.2522881018702745	neutral	018	sub-15	1.0	1.0	018_neutral	1.0	trustworthiness	215.09978233184142	
16.0	87.25560659264966	fix	1.0		177	19.0	male	white	3.2522881018702745	neutral	018	sub-15	1.0	1.0	018_neutral	1.0	trustworthiness	215.23300574944597	1.5083301613326512
16.0	87.50569858317976	pulse	1.0	t		19.0	male	white	3.2522881018702745	neutral	018	sub-15	1.0	1.0	018_neutral	1.0	trustworthiness	215.48309773997607	
16.0	88.20572101105972	pulse	1.0	t		19.0	male	white	3.2522881018702745	neutral	018	sub-15	1.0	1.0	018_neutral	1.0	trustworthiness	216.18312016785603	
16.0	88.7639367539823	rating	2.0		294	19.0	male	white	3.2522881018702745	neutral	018	sub-15	1.0	1.0	018_neutral	1.0	trustworthiness	216.74133591077862	2.491600109996398
16.0	88.9004337968529	pulse	2.0	t		19.0	male	white	3.2522881018702745	neutral	018	sub-15	1.0	1.0	018_neutral	1.0	trustworthiness	216.8778329536492	
16.0	89.60569976041711	pulse	2.0	t		19.0	male	white	3.2522881018702745	neutral	018	sub-15	1.0	1.0	018_neutral	1.0	trustworthiness	217.58309891721342	
16.0	90.30566785426754	pulse	2.0	t		19.0	male	white	3.2522881018702745	neutral	018	sub-15	1.0	1.0	018_neutral	1.0	trustworthiness	218.28306701106385	
16.0	91.00568967843606	pulse	2.0	t		19.0	male	white	3.2522881018702745	neutral	018	sub-15	1.0	1.0	018_neutral	1.0	trustworthiness	218.98308883523237	
16.0	91.2555368639787	fix	3.0		444	19.0	male	white	3.2522881018702745	neutral	018	sub-15	1.0	1.0	018_neutral	1.0	trustworthiness	219.232936020775	3.7665638042994942
16.0	91.70566562053523	pulse	3.0	t		19.0	male	white	3.2522881018702745	neutral	018	sub-15	1.0	1.0	018_neutral	1.0	trustworthiness	219.68306477733154	
16.0	92.40562737541586	pulse	3.0	t		19.0	male	white	3.2522881018702745	neutral	018	sub-15	1.0	1.0	018_neutral	1.0	trustworthiness	220.38302653221217	
16.0	93.10561599545508	pulse	3.0	t		19.0	male	white	3.2522881018702745	neutral	018	sub-15	1.0	1.0	018_neutral	1.0	trustworthiness	221.0830151522514	
16.0	93.80560069137027	pulse	3.0	t		19.0	male	white	3.2522881018702745	neutral	018	sub-15	1.0	1.0	018_neutral	1.0	trustworthiness	221.78299984816658	
16.0	94.50559232996693	pulse	3.0	t		19.0	male	white	3.2522881018702745	neutral	018	sub-15	1.0	1.0	018_neutral	1.0	trustworthiness	222.48299148676324	
17.0	95.0221006682782	face	0.0		144	28.0	male	white	3.9076800636689217	smiling	033	sub-15	1.0	1.0	033_smiling	0.0		222.9994998250745	1.2333504686764627
17.0	95.2055990613494	pulse	0.0	t		28.0	male	white	3.9076800636689217	smiling	033	sub-15	1.0	1.0	033_smiling	0.0		223.1829982181457	
17.0	95.82223384702115	response	0.0	w		28.0	male	white	3.9076800636689217	smiling	033	sub-15	1.0	1.0	033_smiling	0.0		223.79963300381746	
17.0	95.90557379602569	pulse	0.0	t		28.0	male	white	3.9076800636689217	smiling	033	sub-15	1.0	1.0	033_smiling	0.0		223.882972952822	
17.0	96.25545113695466	fix	1.0		444	28.0	male	white	3.9076800636689217	smiling	033	sub-15	1.0	1.0	033_smiling	0.0		224.23285029375097	3.7582645831778336
17.0	96.60555788822944	pulse	1.0	t		28.0	male	white	3.9076800636689217	smiling	033	sub-15	1.0	1.0	033_smiling	0.0		224.58295704502575	
17.0	97.30554348971168	pulse	1.0	t		28.0	male	white	3.9076800636689217	smiling	033	sub-15	1.0	1.0	033_smiling	0.0		225.282942646508	
17.0	98.00552909119392	pulse	1.0	t		28.0	male	white	3.9076800636689217	smiling	033	sub-15	1.0	1.0	033_smiling	0.0		225.98292824799023	
17.0	98.70551620195465	pulse	1.0	t		28.0	male	white	3.9076800636689217	smiling	033	sub-15	1.0	1.0	033_smiling	0.0		226.68291535875096	
17.0	99.40550844426275	pulse	1.0	t		28.0	male	white	3.9076800636689217	smiling	033	sub-15	1.0	1.0	033_smiling	0.0		227.38290760105906	
18.0	100.0137157201325	face	0.0		145	25.0	female	west_asian	2.6756864305610826	neutral	064	sub-15	1.0	1.0	064_neutral	0.0		227.9911148769288	1.2416451619621967
18.0	100.1054970643022	pulse	0.0	t		25.0	female	west_asian	2.6756864305610826	neutral	064	sub-15	1.0	1.0	064_neutral	0.0		228.0828962210985	
18.0	100.8054823639286	pulse	0.0	t		25.0	female	west_asian	2.6756864305610826	neutral	064	sub-15	1.0	1.0	064_neutral	0.0		228.7828815207249	
18.0	100.92278138310894	response	0.0	w		25.0	female	west_asian	2.6756864305610826	neutral	064	sub-15	1.0	1.0	064_neutral	0.0		228.90018053990525	
18.0	101.25536088209469	fix	1.0		444	25.0	female	west_asian	2.6756864305610826	neutral	064	sub-15	1.0	1.0	064_neutral	0.0		229.232760038891	3.7665988195631144
18.0	101.50546977654517	pulse	1.0	t		25.0	female	west_asian	2.6756864305610826	neutral	064	sub-15	1.0	1.0	064_neutral	0.0		229.48286893334148	
18.0	102.20546111328599	pulse	1.0	t		25.0	female	west_asian	2.6756864305610826	neutral	064	sub-15	1.0	1.0	064_neutral	0.0		230.1828602700823	
18.0	102.90544882775839	pulse	1.0	t		25.0	female	west_asian	2.6756864305610826	neutral	064	sub-15	1.0	1.0	064_neutral	0.0		230.8828479845547	
18.0	103.60542326057907	pulse	1.0	t		25.0	female	west_asian	2.6756864305610826	neutral	064	sub-15	1.0	1.0	064_neutral	0.0		231.58282241737538	
18.0	104.30548583526934	pulse	1.0	t		25.0	female	west_asian	2.6756864305610826	neutral	064	sub-15	1.0	1.0	064_neutral	0.0		232.28288499206565	
19.0	105.0219597016578	face	0.0		145	26.0	male	white	2.7966573816155993	smiling	117	sub-15	1.0	1.0	117_smiling	0.0		232.99935885845412	1.2333311499103274
19.0	105.0081178058349	pulse	0.0	t		26.0	male	white	2.7966573816155993	smiling	117	sub-15	1.0	1.0	117_smiling	0.0		232.9855169626312	
19.0	105.67207934217186	response	0.0	b		26.0	male	white	2.7966573816155993	smiling	117	sub-15	1.0	1.0	117_smiling	0.0		233.64947849896816	
19.0	105.70541175987614	pulse	0.0	t		26.0	male	white	2.7966573816155993	smiling	117	sub-15	1.0	1.0	117_smiling	0.0		233.68281091667245	
19.0	106.25529085156813	fix	1.0		443	26.0	male	white	2.7966573816155993	smiling	117	sub-15	1.0	1.0	117_smiling	0.0		234.23269000836444	3.7665761803841633
19.0	106.40540430403985	pulse	1.0	t		26.0	male	white	2.7966573816155993	smiling	117	sub-15	1.0	1.0	117_smiling	0.0		234.38280346083616	
19.0	107.10541435583536	pulse	1.0	t		26.0	male	white	2.7966573816155993	smiling	117	sub-15	1.0	1.0	117_smiling	0.0		235.08281351263167	
19.0	107.80538184597435	pulse	1.0	t		26.0	male	white	2.7966573816155993	smiling	117	sub-15	1.0	1.0	117_smiling	0.0		235.78278100277066	
19.0	108.5053614103424	pulse	1.0	t		26.0	male	white	2.7966573816155993	smiling	117	sub-15	1.0	1.0	117_smiling	0.0		236.4827605671387	
19.0	109.2053482192473	pulse	1.0	t		26.0	male	white	2.7966573816155993	smiling	117	sub-15	1.0	1.0	117_smiling	0.0		237.1827473760436	
19.0	109.90536642114716	pulse	1.0	t		26.0	male	white	2.7966573816155993	smiling	117	sub-15	1.0	1.0	117_smiling	0.0		237.88276557794347	
20.0	110.0218670319523	face	0.0		145	26.0	female	white	4.854755272582572	smiling	027	sub-15	1.0	1.0	027_smiling	0.0		237.9992661887486	1.2333287350645605
20.0	110.60534930592803	pulse	0.0	t		26.0	female	white	4.854755272582572	smiling	027	sub-15	1.0	1.0	027_smiling	0.0		238.58274846272434	
20.0	110.73029402859947	response	0.0	b		26.0	female	white	4.854755272582572	smiling	027	sub-15	1.0	1.0	027_smiling	0.0		238.70769318539578	
20.0	111.25519576701686	fix	1.0		1184	26.0	female	white	4.854755272582572	smiling	027	sub-15	1.0	1.0	027_smiling	0.0		239.23259492381317	10.00815674522255
20.0	111.30534003895741	pulse	1.0	t		26.0	female	white	4.854755272582572	smiling	027	sub-15	1.0	1.0	027_smiling	0.0		239.28273919575372	
20.0	112.00529243631058	pulse	1.0	t		26.0	female	white	4.854755272582572	smiling	027	sub-15	1.0	1.0	027_smiling	0.0		239.9826915931069	
20.0	112.70528226377292	pulse	1.0	t		26.0	female	white	4.854755272582572	smiling	027	sub-15	1.0	1.0	027_smiling	0.0		240.68268142056922	
20.0	113.40529442855836	pulse	1.0	t		26.0	female	white	4.854755272582572	smiling	027	sub-15	1.0	1.0	027_smiling	0.0		241.38269358535467	
20.0	114.10526191869758	pulse	1.0	t		26.0	female	white	4.854755272582572	smiling	027	sub-15	1.0	1.0	027_smiling	0.0		242.0826610754939	
20.0	114.80526985750294	pulse	1.0	t		26.0	female	white	4.854755272582572	smiling	027	sub-15	1.0	1.0	027_smiling	0.0		242.78266901429924	
20.0	115.50523312166206	pulse	1.0	t		26.0	female	white	4.854755272582572	smiling	027	sub-15	1.0	1.0	027_smiling	0.0		243.48263227845837	
20.0	116.20522113799007	pulse	1.0	t		26.0	female	white	4.854755272582572	smiling	027	sub-15	1.0	1.0	027_smiling	0.0		244.18262029478637	
20.0	116.90524567885996	pulse	1.0	t		26.0	female	white	4.854755272582572	smiling	027	sub-15	1.0	1.0	027_smiling	0.0		244.88264483565627	
20.0	117.60519535951153	pulse	1.0	t		26.0	female	white	4.854755272582572	smiling	027	sub-15	1.0	1.0	027_smiling	0.0		245.58259451630784	
20.0	118.30518458326242	pulse	1.0	t		26.0	female	white	4.854755272582572	smiling	027	sub-15	1.0	1.0	027_smiling	0.0		246.28258374005873	
20.0	119.00519976660507	pulse	1.0	t		26.0	female	white	4.854755272582572	smiling	027	sub-15	1.0	1.0	027_smiling	0.0		246.98259892340138	
20.0	119.70516786045573	pulse	1.0	t		26.0	female	white	4.854755272582572	smiling	027	sub-15	1.0	1.0	027_smiling	0.0		247.68256701725204	
20.0	120.4051525563707	pulse	1.0	t		26.0	female	white	4.854755272582572	smiling	027	sub-15	1.0	1.0	027_smiling	0.0		248.382551713167	
20.0	121.10513725228589	pulse	1.0	t		26.0	female	white	4.854755272582572	smiling	027	sub-15	1.0	1.0	027_smiling	0.0		249.0825364090822	
21.0	121.26335251223941	face	0.0		146	27.0	male	black	3.5523278949462798	neutral	042	sub-15	1.0	1.0	042_neutral	0.0		249.24075166903572	1.241651500932221
21.0	121.80514549294685	pulse	0.0	t		27.0	male	black	3.5523278949462798	neutral	042	sub-15	1.0	1.0	042_neutral	0.0		249.78254464974316	
21.0	122.29677941078353	response	0.0	e		27.0	male	black	3.5523278949462798	neutral	042	sub-15	1.0	1.0	042_neutral	0.0		250.27417856757984	
21.0	122.50500401317163	fix	1.0		444	27.0	male	black	3.5523278949462798	neutral	042	sub-15	1.0	1.0	042_neutral	0.0		250.48240316996794	3.7583095596801286
21.0	122.51222530752307	pulse	1.0	t		27.0	male	black	3.5523278949462798	neutral	042	sub-15	1.0	1.0	042_neutral	0.0		250.48962446431938	
21.0	123.20513118498593	pulse	1.0	t		27.0	male	black	3.5523278949462798	neutral	042	sub-15	1.0	1.0	042_neutral	0.0		251.18253034178224	
21.0	123.90508237491622	pulse	1.0	t		27.0	male	black	3.5523278949462798	neutral	042	sub-15	1.0	1.0	042_neutral	0.0		251.88248153171253	
21.0	124.60509001186597	pulse	1.0	t		27.0	male	black	3.5523278949462798	neutral	042	sub-15	1.0	1.0	042_neutral	0.0		252.58248916866228	
21.0	125.30506655767658	pulse	1.0	t		27.0	male	black	3.5523278949462798	neutral	042	sub-15	1.0	1.0	042_neutral	0.0		253.2824657144729	
21.0	126.0050784206062	pulse	1.0	t		27.0	male	black	3.5523278949462798	neutral	042	sub-15	1.0	1.0	042_neutral	0.0		253.9824775774025	
22.0	126.26331357285176	face	0.0		145	54.0	female	white	2.286908077994429	smiling	136	sub-15	1.0	1.0	136_smiling	1.0	attractiveness	254.24071272964807	1.2416013928830125
22.0	126.70504108105388	pulse	0.0	t		54.0	female	white	2.286908077994429	smiling	136	sub-15	1.0	1.0	136_smiling	1.0	attractiveness	254.6824402378502	
22.0	127.12169977369877	response	0.0	b		54.0	female	white	2.286908077994429	smiling	136	sub-15	1.0	1.0	136_smiling	1.0	attractiveness	255.09909893049507	
22.0	127.40500404335717	pulse	0.0	t		54.0	female	white	2.286908077994429	smiling	136	sub-15	1.0	1.0	136_smiling	1.0	attractiveness	255.38240320015348	
22.0	127.50491496573477	fix	1.0		177	54.0	female	white	2.286908077994429	smiling	136	sub-15	1.0	1.0	136_smiling	1.0	attractiveness	255.48231412253108	1.4999766061819173
22.0	128.10501771742133	pulse	1.0	t		54.0	female	white	2.286908077994429	smiling	136	sub-15	1.0	1.0	136_smiling	1.0	attractiveness	256.08241687421764	
22.0	128.80499879106787	pulse	1.0	t		54.0	female	white	2.286908077994429	smiling	136	sub-15	1.0	1.0	136_smiling	1.0	attractiveness	256.7823979478642	
22.0	129.0048915719167	rating	2.0		296	54.0	female	white	2.286908077994429	smiling	136	sub-15	1.0	1.0	136_smiling	1.0	attractiveness	256.982290728713	2.4999630226743648
22.0	129.50499978719154	pulse	2.0	t		54.0	female	white	2.286908077994429	smiling	136	sub-15	1.0	1.0	136_smiling	1.0	attractiveness	257.48239894398785	
22.0	130.20498629424105	pulse	2.0	t		54.0	female	white	2.286908077994429	smiling	136	sub-15	1.0	1.0	136_smiling	1.0	attractiveness	258.18238545103736	
22.0	130.90499604418073	pulse	2.0	t		54.0	female	white	2.286908077994429	smiling	136	sub-15	1.0	1.0	136_smiling	1.0	attractiveness	258.88239520097704	
22.0	131.50485459459105	fix	3.0		443	54.0	female	white	2.286908077994429	smiling	136	sub-15	1.0	1.0	136_smiling	1.0	attractiveness	259.48225375138736	3.7665942917271877
22.0	131.6049922106131	pulse	3.0	t		54.0	female	white	2.286908077994429	smiling	136	sub-15	1.0	1.0	136_smiling	1.0	attractiveness	259.5823913674094	
22.0	132.3049714731253	pulse	3.0	t		54.0	female	white	2.286908077994429	smiling	136	sub-15	1.0	1.0	136_smiling	1.0	attractiveness	260.2823706299216	
22.0	133.0049329261501	pulse	3.0	t		54.0	female	white	2.286908077994429	smiling	136	sub-15	1.0	1.0	136_smiling	1.0	attractiveness	260.9823320829464	
22.0	133.7049136979408	pulse	3.0	t		54.0	female	white	2.286908077994429	smiling	136	sub-15	1.0	1.0	136_smiling	1.0	attractiveness	261.6823128547371	
22.0	134.40491227921893	pulse	3.0	t		54.0	female	white	2.286908077994429	smiling	136	sub-15	1.0	1.0	136_smiling	1.0	attractiveness	262.38231143601524	
22.0	135.10490240853687	pulse	3.0	t		54.0	female	white	2.286908077994429	smiling	136	sub-15	1.0	1.0	136_smiling	1.0	attractiveness	263.0823015653332	
23.0	135.27144888631824	face	0.0		145	27.0	female	white	3.504576203740549	smiling	144	sub-15	1.0	1.0	144_smiling	0.0		263.24884804311455	1.2333057940300023
23.0	135.8048816710491	pulse	0.0	t		27.0	female	white	3.504576203740549	smiling	144	sub-15	1.0	1.0	144_smiling	0.0		263.7822808278454	
23.0	136.47987029863475	response	0.0	w		27.0	female	white	3.504576203740549	smiling	144	sub-15	1.0	1.0	144_smiling	0.0		264.45726945543106	
23.0	136.50475468034824	fix	1.0		444	27.0	female	white	3.504576203740549	smiling	144	sub-15	1.0	1.0	144_smiling	0.0		264.48215383714455	3.7582772611183373
23.0	136.51199167119694	pulse	1.0	t		27.0	female	white	3.504576203740549	smiling	144	sub-15	1.0	1.0	144_smiling	0.0		264.48939082799325	
23.0	137.20485408143645	pulse	1.0	t		27.0	female	white	3.504576203740549	smiling	144	sub-15	1.0	1.0	144_smiling	0.0		265.18225323823276	
23.0	137.904832740237	pulse	1.0	t		27.0	female	white	3.504576203740549	smiling	144	sub-15	1.0	1.0	144_smiling	0.0		265.8822318970333	
23.0	138.6048394716197	pulse	1.0	t		27.0	female	white	3.504576203740549	smiling	144	sub-15	1.0	1.0	144_smiling	0.0		266.582238628416	
23.0	139.30482356382322	pulse	1.0	t		27.0	female	white	3.504576203740549	smiling	144	sub-15	1.0	1.0	144_smiling	0.0		267.28222272061953	
23.0	140.00480916530546	pulse	1.0	t		27.0	female	white	3.504576203740549	smiling	144	sub-15	1.0	1.0	144_smiling	0.0		267.98220832210177	
24.0	140.26303194146658	face	0.0		146	27.0	female	white	4.181058495821727	neutral	039	sub-15	1.0	1.0	039_neutral	1.0	dominance	268.2404310982629	1.2416376155690614
24.0	140.7048092558623	pulse	0.0	t		27.0	female	white	4.181058495821727	neutral	039	sub-15	1.0	1.0	039_neutral	1.0	dominance	268.6822084126586	
24.0	141.4047957629116	pulse	0.0	t		27.0	female	white	4.181058495821727	neutral	039	sub-15	1.0	1.0	039_neutral	1.0	dominance	269.3821949197079	
24.0	141.50466955703564	fix	1.0		177	27.0	female	white	4.181058495821727	neutral	039	sub-15	1.0	1.0	039_neutral	1.0	dominance	269.48206871383195	1.499977209893359
24.0	142.10477834583662	pulse	1.0	t		27.0	female	white	4.181058495821727	neutral	039	sub-15	1.0	1.0	039_neutral	1.0	dominance	270.08217750263293	
24.0	142.80475458979163	pulse	1.0	t		27.0	female	white	4.181058495821727	neutral	039	sub-15	1.0	1.0	039_neutral	1.0	dominance	270.78215374658794	
24.0	143.004646766929	rating	2.0		294	27.0	female	white	4.181058495821727	neutral	039	sub-15	1.0	1.0	039_neutral	1.0	dominance	270.9820459237253	2.4999584948386655
24.0	143.4996143793196	pulse	2.0	t		27.0	female	white	4.181058495821727	neutral	039	sub-15	1.0	1.0	039_neutral	1.0	dominance	271.4770135361159	
24.0	144.19946625871876	pulse	2.0	t		27.0	female	white	4.181058495821727	neutral	039	sub-15	1.0	1.0	039_neutral	1.0	dominance	272.17686541551507	
24.0	144.90009602030386	pulse	2.0	t		27.0	female	white	4.181058495821727	neutral	039	sub-15	1.0	1.0	039_neutral	1.0	dominance	272.8774951771002	
24.0	145.2463990876713	response	2.0	w		27.0	female	white	4.181058495821727	neutral	039	sub-15	1.0	1.0	039_neutral	1.0	dominance	273.2237982444676	
24.0	145.35473510500492	response	2.0	e		27.0	female	white	4.181058495821727	neutral	039	sub-15	1.0	1.0	039_neutral	1.0	dominance	273.33213426180123	
24.0	145.50460526176767	fix	3.0		443	27.0	female	white	4.181058495821727	neutral	039	sub-15	1.0	1.0	039_neutral	1.0	dominance	273.482004418564	3.7665737655383964
24.0	145.60470635324782	pulse	3.0	t		27.0	female	white	4.181058495821727	neutral	039	sub-15	1.0	1.0	039_neutral	1.0	dominance	273.58210551004413	
24.0	146.3047046326701	pulse	3.0	t		27.0	female	white	4.181058495821727	neutral	039	sub-15	1.0	1.0	039_neutral	1.0	dominance	274.2821037894664	
24.0	147.00468902672947	pulse	3.0	t		27.0	female	white	4.181058495821727	neutral	039	sub-15	1.0	1.0	039_neutral	1.0	dominance	274.9820881835258	
24.0	147.70469123027624	pulse	3.0	t		27.0	female	white	4.181058495821727	neutral	039	sub-15	1.0	1.0	039_neutral	1.0	dominance	275.68209038707255	
24.0	148.40467079464406	pulse	3.0	t		27.0	female	white	4.181058495821727	neutral	039	sub-15	1.0	1.0	039_neutral	1.0	dominance	276.38206995144037	
24.0	149.104651566435	pulse	3.0	t		27.0	female	white	4.181058495821727	neutral	039	sub-15	1.0	1.0	039_neutral	1.0	dominance	277.0820507232313	
25.0	149.27117902730606	face	0.0		146	40.0	female	west_asian	1.5777954635893354	smiling	038	sub-15	1.0	1.0	038_smiling	0.0		277.24857818410237	1.233348355686303
25.0	149.804674899882	pulse	0.0	t		40.0	female	west_asian	1.5777954635893354	smiling	038	sub-15	1.0	1.0	038_smiling	0.0		277.7820740566783	
25.0	150.50452738299236	fix	1.0		444	40.0	female	west_asian	1.5777954635893354	smiling	038	sub-15	1.0	1.0	038_smiling	0.0		278.4819265397887	3.7665520319267216
25.0	150.51209913183266	pulse	1.0	t		40.0	female	west_asian	1.5777954635893354	smiling	038	sub-15	1.0	1.0	038_smiling	0.0		278.48949828862897	
25.0	151.20460957830437	pulse	1.0	t		40.0	female	west_asian	1.5777954635893354	smiling	038	sub-15	1.0	1.0	038_smiling	0.0		279.1820087351007	
25.0	151.90460997071682	pulse	1.0	t		40.0	female	west_asian	1.5777954635893354	smiling	038	sub-15	1.0	1.0	038_smiling	0.0		279.88200912751313	
25.0	152.60460523158213	pulse	1.0	t		40.0	female	west_asian	1.5777954635893354	smiling	038	sub-15	1.0	1.0	038_smiling	0.0		280.58200438837844	
25.0	153.304599888736	pulse	1.0	t		40.0	female	west_asian	1.5777954635893354	smiling	038	sub-15	1.0	1.0	038_smiling	0.0		281.2819990455323	
25.0	154.00458035867086	pulse	1.0	t		40.0	female	west_asian	1.5777954635893354	smiling	038	sub-15	1.0	1.0	038_smiling	0.0		281.9819795154672	
26.0	154.2710794149191	face	0.0		145	31.0	female	east_asian	3.395941106247513	neutral	087	sub-15	1.0	1.0	087_neutral	0.0		282.2484785717154	1.233340205581726
26.0	154.70455207479017	pulse	0.0	t		31.0	female	east_asian	3.395941106247513	neutral	087	sub-15	1.0	1.0	087_neutral	0.0		282.6819512315865	
26.0	155.40453254472504	pulse	0.0	t		31.0	female	east_asian	3.395941106247513	neutral	087	sub-15	1.0	1.0	087_neutral	0.0		283.38193170152135	
26.0	155.5044196205008	fix	1.0		444	31.0	female	east_asian	3.395941106247513	neutral	087	sub-15	1.0	1.0	087_neutral	0.0		283.4818187772971	3.766600026985998
26.0	156.10454229466495	pulse	1.0	t		31.0	female	east_asian	3.395941106247513	neutral	087	sub-15	1.0	1.0	087_neutral	0.0		284.08194145146126	
26.0	156.80452608501287	pulse	1.0	t		31.0	female	east_asian	3.395941106247513	neutral	087	sub-15	1.0	1.0	087_neutral	0.0		284.7819252418092	
26.0	157.50451983659946	pulse	1.0	t		31.0	female	east_asian	3.395941106247513	neutral	087	sub-15	1.0	1.0	087_neutral	0.0		285.48191899339577	
26.0	158.20451177705172	pulse	1.0	t		31.0	female	east_asian	3.395941106247513	neutral	087	sub-15	1.0	1.0	087_neutral	0.0		286.18191093384803	
26.0	158.90450915090696	pulse	1.0	t		31.0	female	east_asian	3.395941106247513	neutral	087	sub-15	1.0	1.0	087_neutral	0.0		286.88190830770327	
27.0	159.2710196474868	face	0.0		145	28.0	male	east_asian	1.5563072025467568	neutral	005	sub-15	1.0	1.0	005_neutral	0.0		287.2484188042831	1.2333269239302354
27.0	159.60445551114572	pulse	0.0	t		28.0	male	east_asian	1.5563072025467568	neutral	005	sub-15	1.0	1.0	005_neutral	0.0		287.581854667942	
27.0	160.30446556294123	pulse	0.0	t		28.0	male	east_asian	1.5563072025467568	neutral	005	sub-15	1.0	1.0	005_neutral	0.0		288.28186471973754	
27.0	160.50434657141705	fix	1.0		444	28.0	male	east_asian	1.5563072025467568	neutral	005	sub-15	1.0	1.0	005_neutral	0.0		288.48174572821335	3.758247075546251
27.0	161.00445478669212	pulse	1.0	t		28.0	male	east_asian	1.5563072025467568	neutral	005	sub-15	1.0	1.0	005_neutral	0.0		288.98185394348843	
27.0	161.70443103064713	pulse	1.0	t		28.0	male	east_asian	1.5563072025467568	neutral	005	sub-15	1.0	1.0	005_neutral	0.0		289.68183018744344	
27.0	162.40443413976095	pulse	1.0	t		28.0	male	east_asian	1.5563072025467568	neutral	005	sub-15	1.0	1.0	005_neutral	0.0		290.38183329655726	
27.0	163.10440887443724	pulse	1.0	t		28.0	male	east_asian	1.5563072025467568	neutral	005	sub-15	1.0	1.0	005_neutral	0.0		291.08180803123355	
27.0	163.8044168132426	pulse	1.0	t		28.0	male	east_asian	1.5563072025467568	neutral	005	sub-15	1.0	1.0	005_neutral	0.0		291.7818159700389	
28.0	164.2625936469633	face	0.0		146	47.0	male	east_asian	2.171110226820533	smiling	024	sub-15	1.0	1.0	024_smiling	0.0		292.2399928037596	1.241678969802706
28.0	164.50440301843628	pulse	0.0	t		47.0	male	east_asian	2.171110226820533	smiling	024	sub-15	1.0	1.0	024_smiling	0.0		292.4818021752326	
28.0	165.20437865867984	pulse	0.0	t		47.0	male	east_asian	2.171110226820533	smiling	024	sub-15	1.0	1.0	024_smiling	0.0		293.18177781547615	
28.0	165.504272616766	fix	1.0		444	47.0	male	east_asian	2.171110226820533	smiling	024	sub-15	1.0	1.0	024_smiling	0.0		293.4816717735623	3.766588556468605
28.0	165.9043817677939	pulse	1.0	t		47.0	male	east_asian	2.171110226820533	smiling	024	sub-15	1.0	1.0	024_smiling	0.0		293.8817809245902	
28.0	166.60435197463448	pulse	1.0	t		47.0	male	east_asian	2.171110226820533	smiling	024	sub-15	1.0	1.0	024_smiling	0.0		294.5817511314308	
28.0	167.3043345575595	pulse	1.0	t		47.0	male	east_asian	2.171110226820533	smiling	024	sub-15	1.0	1.0	024_smiling	0.0		295.2817337143558	
28.0	168.0043313277033	pulse	1.0	t		47.0	male	east_asian	2.171110226820533	smiling	024	sub-15	1.0	1.0	024_smiling	0.0		295.9817304844996	
28.0	168.70431119392674	pulse	1.0	t		47.0	male	east_asian	2.171110226820533	smiling	024	sub-15	1.0	1.0	024_smiling	0.0		296.68171035072305	
29.0	169.2708611732346	face	0.0		145	31.0	male	west_asian	1.9538400318344609	smiling	070	sub-15	1.0	1.0	070_smiling	0.0		297.2482603300309	1.233313944134352
29.0	169.40430645479205	pulse	0.0	t		31.0	male	west_asian	1.9538400318344609	smiling	070	sub-15	1.0	1.0	070_smiling	0.0		297.38170561158836	
29.0	170.10430896019443	pulse	0.0	t		31.0	male	west_asian	1.9538400318344609	smiling	070	sub-15	1.0	1.0	070_smiling	0.0		298.08170811699074	
29.0	170.50417511736896	fix	1.0		444	31.0	male	west_asian	1.9538400318344609	smiling	070	sub-15	1.0	1.0	070_smiling	0.0		298.48157427416527	3.7582651868895027
29.0	170.80428097816934	pulse	1.0	t		31.0	male	west_asian	1.9538400318344609	smiling	070	sub-15	1.0	1.0	070_smiling	0.0		298.78168013496565	
29.0	171.50429374666624	pulse	1.0	t		31.0	male	west_asian	1.9538400318344609	smiling	070	sub-15	1.0	1.0	070_smiling	0.0		299.48169290346254	
29.0	172.2042382957709	pulse	1.0	t		31.0	male	west_asian	1.9538400318344609	smiling	070	sub-15	1.0	1.0	070_smiling	0.0		300.1816374525672	
29.0	172.9042703830337	pulse	1.0	t		31.0	male	west_asian	1.9538400318344609	smiling	070	sub-15	1.0	1.0	070_smiling	0.0		300.88166953983	
29.0	173.6042309304912	pulse	1.0	t		31.0	male	west_asian	1.9538400318344609	smiling	070	sub-15	1.0	1.0	070_smiling	0.0		301.5816300872875	
30.0	174.26244030425846	face	0.0		146	40.0	male	white	1.868682849184242	neutral	172	sub-15	1.0	1.0	172_neutral	1.0	attractiveness	302.23983946105477	1.2416493879422887
30.0	174.30426181033135	pulse	0.0	t		40.0	male	white	1.868682849184242	neutral	172	sub-15	1.0	1.0	172_neutral	1.0	attractiveness	302.28166096712766	
30.0	175.00422899861474	pulse	0.0	t		40.0	male	white	1.868682849184242	neutral	172	sub-15	1.0	1.0	172_neutral	1.0	attractiveness	302.98162815541104	
30.0	175.50408969220075	fix	1.0		177	40.0	male	white	1.868682849184242	neutral	172	sub-15	1.0	1.0	172_neutral	1.0	attractiveness	303.48148884899706	1.4999744931917576
30.0	175.7041970924654	pulse	1.0	t		40.0	male	white	1.868682849184242	neutral	172	sub-15	1.0	1.0	172_neutral	1.0	attractiveness	303.6815962492617	
30.0	176.40420835168356	pulse	1.0	t		40.0	male	white	1.868682849184242	neutral	172	sub-15	1.0	1.0	172_neutral	1.0	attractiveness	304.3816075084799	
30.0	177.0040641853925	rating	2.0		294	40.0	male	white	1.868682849184242	neutral	172	sub-15	1.0	1.0	172_neutral	1.0	attractiveness	304.9814633421888	2.4999551744258497
30.0	177.0988954797408	pulse	2.0	t		40.0	male	white	1.868682849184242	neutral	172	sub-15	1.0	1.0	172_neutral	1.0	attractiveness	305.0762946365371	
30.0	177.79889134431733	pulse	2.0	t		40.0	male	white	1.868682849184242	neutral	172	sub-15	1.0	1.0	172_neutral	1.0	attractiveness	305.77629050111364	
30.0	178.498938826222	pulse	2.0	t		40.0	male	white	1.868682849184242	neutral	172	sub-15	1.0	1.0	172_neutral	1.0	attractiveness	306.4763379830183	
30.0	178.84885903066265	response	2.0	n		40.0	male	white	1.868682849184242	neutral	172	sub-15	1.0	1.0	172_neutral	1.0	attractiveness	306.82625818745896	
30.0	179.2041269110107	pulse	2.0	t		40.0	male	white	1.868682849184242	neutral	172	sub-15	1.0	1.0	172_neutral	1.0	attractiveness	307.181526067807	
30.0	179.50401935981836	fix	3.0		444	40.0	male	white	1.868682849184242	neutral	172	sub-15	1.0	1.0	172_neutral	1.0	attractiveness	307.48141851661467	3.766565011722605
30.0	179.9041251904332	pulse	3.0	t		40.0	male	white	1.868682849184242	neutral	172	sub-15	1.0	1.0	172_neutral	1.0	attractiveness	307.8815243472295	
30.0	180.6041104900596	pulse	3.0	t		40.0	male	white	1.868682849184242	neutral	172	sub-15	1.0	1.0	172_neutral	1.0	attractiveness	308.5815096468559	
30.0	181.30410061937778	pulse	3.0	t		40.0	male	white	1.868682849184242	neutral	172	sub-15	1.0	1.0	172_neutral	1.0	attractiveness	309.2814997761741	
30.0	182.0040847115813	pulse	3.0	t		40.0	male	white	1.868682849184242	neutral	172	sub-15	1.0	1.0	172_neutral	1.0	attractiveness	309.9814838683776	
30.0	182.70406910564066	pulse	3.0	t		40.0	male	white	1.868682849184242	neutral	172	sub-15	1.0	1.0	172_neutral	1.0	attractiveness	310.68146826243697	
31.0	183.27058437154096	face	0.0		145	19.0	female	white	4.298846000795861	smiling	100	sub-15	1.0	1.0	100_smiling	0.0		311.2479835283373	1.233349563108959
31.0	183.40406466836157	pulse	0.0	t		19.0	female	white	4.298846000795861	smiling	100	sub-15	1.0	1.0	100_smiling	0.0		311.3814638251579	
31.0	184.10405238283397	pulse	0.0	t		19.0	female	white	4.298846000795861	smiling	100	sub-15	1.0	1.0	100_smiling	0.0		312.0814515396303	
31.0	184.50393393464992	fix	1.0		444	19.0	female	white	4.298846000795861	smiling	100	sub-15	1.0	1.0	100_smiling	0.0		312.48133309144623	3.7666015362644885
31.0	184.80404160658463	pulse	1.0	t		19.0	female	white	4.298846000795861	smiling	100	sub-15	1.0	1.0	100_smiling	0.0		312.78144076338094	
31.0	185.50402992476847	pulse	1.0	t		19.0	female	white	4.298846000795861	smiling	100	sub-15	1.0	1.0	100_smiling	0.0		313.4814290815648	
31.0	186.2040318264594	pulse	1.0	t		19.0	female	white	4.298846000795861	smiling	100	sub-15	1.0	1.0	100_smiling	0.0		314.1814309832557	
31.0	186.90400535371305	pulse	1.0	t		19.0	female	white	4.298846000795861	smiling	100	sub-15	1.0	1.0	100_smiling	0.0		314.88140451050936	
31.0	187.60402114076692	pulse	1.0	t		19.0	female	white	4.298846000795861	smiling	100	sub-15	1.0	1.0	100_smiling	0.0		315.5814202975632	
32.0	188.2705354709144	face	0.0		145	24.0	male	white	3.1153999204138483	smiling	012	sub-15	1.0	1.0	012_smiling	0.0		316.2479346277107	1.2333003606270267
32.0	188.30399466802055	pulse	0.0	t		24.0	male	white	3.1153999204138483	smiling	012	sub-15	1.0	1.0	012_smiling	0.0		316.28139382481686	
32.0	189.00397543981126	pulse	0.0	t		24.0	male	white	3.1153999204138483	smiling	012	sub-15	1.0	1.0	012_smiling	0.0		316.98137459660757	
32.0	189.50383583154144	fix	1.0		443	24.0	male	white	3.1153999204138483	smiling	012	sub-15	1.0	1.0	012_smiling	0.0		317.48123498833775	3.7582440569892697
32.0	189.70396919139785	pulse	1.0	t		24.0	male	white	3.1153999204138483	smiling	012	sub-15	1.0	1.0	012_smiling	0.0		317.68136834819416	
32.0	190.4039445297858	pulse	1.0	t		24.0	male	white	3.1153999204138483	smiling	012	sub-15	1.0	1.0	012_smiling	0.0		318.3813436865821	
32.0	191.10393314982502	pulse	1.0	t		24.0	male	white	3.1153999204138483	smiling	012	sub-15	1.0	1.0	012_smiling	0.0		319.08133230662133	
32.0	191.80393293852603	pulse	1.0	t		24.0	male	white	3.1153999204138483	smiling	012	sub-15	1.0	1.0	012_smiling	0.0		319.78133209532234	
32.0	192.50392669011285	pulse	1.0	t		24.0	male	white	3.1153999204138483	smiling	012	sub-15	1.0	1.0	012_smiling	0.0		320.48132584690916	
32.0	193.20389689695344	pulse	1.0	t		24.0	male	white	3.1153999204138483	smiling	012	sub-15	1.0	1.0	012_smiling	0.0		321.18129605374975	
33.0	193.2620798885307	face	0.0		147	20.0	female	white	3.9502586549940313	smiling	091	sub-15	1.0	1.0	091_smiling	0.0		321.239479045327	1.2416949681555707
33.0	193.90388944111714	pulse	0.0	t		20.0	female	white	3.9502586549940313	smiling	091	sub-15	1.0	1.0	091_smiling	0.0		321.88128859791345	
33.0	194.50377485668628	fix	1.0		443	20.0	female	white	3.9502586549940313	smiling	091	sub-15	1.0	1.0	091_smiling	0.0		322.4811740134826	3.7582464718350366
33.0	194.6039061337383	pulse	1.0	t		20.0	female	white	3.9502586549940313	smiling	091	sub-15	1.0	1.0	091_smiling	0.0		322.5813052905346	
33.0	195.30385521067865	pulse	1.0	t		20.0	female	white	3.9502586549940313	smiling	091	sub-15	1.0	1.0	091_smiling	0.0		323.28125436747496	
33.0	196.00384473628515	pulse	1.0	t		20.0	female	white	3.9502586549940313	smiling	091	sub-15	1.0	1.0	091_smiling	0.0		323.98124389308146	
33.0	196.70383154519027	pulse	1.0	t		20.0	female	white	3.9502586549940313	smiling	091	sub-15	1.0	1.0	091_smiling	0.0		324.6812307019866	
33.0	197.40384582296588	pulse	1.0	t		20.0	female	white	3.9502586549940313	smiling	091	sub-15	1.0	1.0	091_smiling	0.0		325.3812449797622	
33.0	198.10384259310968	pulse	1.0	t		20.0	female	white	3.9502586549940313	smiling	091	sub-15	1.0	1.0	091_smiling	0.0		326.081241749906	
34.0	198.2620213285213	face	0.0		147	21.0	male	east_asian/white	3.501790688420215	smiling	036	sub-15	1.0	1.0	036_smiling	1.0	dominance	326.2394204853176	1.2416599528924053
34.0	198.80380978139306	pulse	0.0	t		21.0	male	east_asian/white	3.501790688420215	smiling	036	sub-15	1.0	1.0	036_smiling	1.0	dominance	326.78120893818937	
34.0	199.50368128141372	fix	1.0		176	21.0	male	east_asian/white	3.501790688420215	smiling	036	sub-15	1.0	1.0	036_smiling	1.0	dominance	327.48108043821003	1.4999853599977087
34.0	199.51177010909964	pulse	1.0	t		21.0	male	east_asian/white	3.501790688420215	smiling	036	sub-15	1.0	1.0	036_smiling	1.0	dominance	327.48916926589595	
34.0	200.20377675837744	pulse	1.0	t		21.0	male	east_asian/white	3.501790688420215	smiling	036	sub-15	1.0	1.0	036_smiling	1.0	dominance	328.18117591517375	
34.0	200.90379284728715	pulse	1.0	t		21.0	male	east_asian/white	3.501790688420215	smiling	036	sub-15	1.0	1.0	036_smiling	1.0	dominance	328.88119200408346	
34.0	201.00366664141143	rating	2.0		295	21.0	male	east_asian/white	3.501790688420215	smiling	036	sub-15	1.0	1.0	036_smiling	1.0	dominance	328.98106579820774	2.499938874216923
34.0	201.5984992941103	pulse	2.0	t		21.0	male	east_asian/white	3.501790688420215	smiling	036	sub-15	1.0	1.0	036_smiling	1.0	dominance	329.5758984509066	
34.0	202.29848912157263	pulse	2.0	t		21.0	male	east_asian/white	3.501790688420215	smiling	036	sub-15	1.0	1.0	036_smiling	1.0	dominance	330.27588827836894	
34.0	202.9984825713036	pulse	2.0	t		21.0	male	east_asian/white	3.501790688420215	smiling	036	sub-15	1.0	1.0	036_smiling	1.0	dominance	330.9758817280999	
34.0	203.26204547697876	response	2.0	e		21.0	male	east_asian/white	3.501790688420215	smiling	036	sub-15	1.0	1.0	036_smiling	1.0	dominance	331.23944463377507	
34.0	203.50360551562835	fix	3.0		443	21.0	male	east_asian/white	3.501790688420215	smiling	036	sub-15	1.0	1.0	036_smiling	1.0	dominance	331.48100467242466	3.7582706202924783
34.0	203.70373796991748	pulse	3.0	t		21.0	male	east_asian/white	3.501790688420215	smiling	036	sub-15	1.0	1.0	036_smiling	1.0	dominance	331.6811371267138	
34.0	204.40369549881802	pulse	3.0	t		21.0	male	east_asian/white	3.501790688420215	smiling	036	sub-15	1.0	1.0	036_smiling	1.0	dominance	332.38109465561433	
34.0	205.10368683555885	pulse	3.0	t		21.0	male	east_asian/white	3.501790688420215	smiling	036	sub-15	1.0	1.0	036_smiling	1.0	dominance	333.08108599235516	
34.0	205.80370383003583	pulse	3.0	t		21.0	male	east_asian/white	3.501790688420215	smiling	036	sub-15	1.0	1.0	036_smiling	1.0	dominance	333.78110298683214	
34.0	206.50363902161303	pulse	3.0	t		21.0	male	east_asian/white	3.501790688420215	smiling	036	sub-15	1.0	1.0	036_smiling	1.0	dominance	334.48103817840934	
34.0	207.20365631794584	pulse	3.0	t		21.0	male	east_asian/white	3.501790688420215	smiling	036	sub-15	1.0	1.0	036_smiling	1.0	dominance	335.18105547474215	
35.0	207.26187613592083	face	0.0		147	31.0	female	east_asian	3.395941106247513	smiling	087	sub-15	1.0	1.0	087_smiling	0.0		335.23927529271714	1.2416373137134542
35.0	207.9036524843782	pulse	0.0	t		31.0	female	east_asian	3.395941106247513	smiling	087	sub-15	1.0	1.0	087_smiling	0.0		335.8810516411745	
35.0	208.50351344963428	fix	1.0		443	31.0	female	east_asian	3.395941106247513	smiling	087	sub-15	1.0	1.0	087_smiling	0.0		336.4809126064306	3.758254621939159
35.0	208.60362963390025	pulse	1.0	t		31.0	female	east_asian	3.395941106247513	smiling	087	sub-15	1.0	1.0	087_smiling	0.0		336.58102879069656	
35.0	209.30362640404405	pulse	1.0	t		31.0	female	east_asian	3.395941106247513	smiling	087	sub-15	1.0	1.0	087_smiling	0.0		337.28102556084036	
35.0	210.00363464470524	pulse	1.0	t		31.0	female	east_asian	3.395941106247513	smiling	087	sub-15	1.0	1.0	087_smiling	0.0		337.98103380150155	
35.0	210.70359307917283	pulse	1.0	t		31.0	female	east_asian	3.395941106247513	smiling	087	sub-15	1.0	1.0	087_smiling	0.0		338.68099223596914	
35.0	211.4035820010679	pulse	1.0	t		31.0	female	east_asian	3.395941106247513	smiling	087	sub-15	1.0	1.0	087_smiling	0.0		339.3809811578642	
35.0	212.1035851101817	pulse	1.0	t		31.0	female	east_asian	3.395941106247513	smiling	087	sub-15	1.0	1.0	087_smiling	0.0		340.080984266978	
36.0	212.26176807157344	face	0.0		147	26.0	female	white	4.854755272582572	neutral	027	sub-15	1.0	1.0	027_neutral	0.0		340.23916722836975	1.2416702159869146
36.0	212.8035553170223	pulse	0.0	t		26.0	female	white	4.854755272582572	neutral	027	sub-15	1.0	1.0	027_neutral	0.0		340.7809544738186	
36.0	213.50343828756036	fix	1.0		444	26.0	female	white	4.854755272582572	neutral	027	sub-15	1.0	1.0	027_neutral	0.0		341.48083744435667	3.7582525089492265
36.0	213.5112690286071	pulse	1.0	t		26.0	female	white	4.854755272582572	neutral	027	sub-15	1.0	1.0	027_neutral	0.0		341.4886681854034	
36.0	214.20356153525017	pulse	1.0	t		26.0	female	white	4.854755272582572	neutral	027	sub-15	1.0	1.0	027_neutral	0.0		342.1809606920465	
36.0	214.90351785672783	pulse	1.0	t		26.0	female	white	4.854755272582572	neutral	027	sub-15	1.0	1.0	027_neutral	0.0		342.88091701352414	
36.0	215.60350345821007	pulse	1.0	t		26.0	female	white	4.854755272582572	neutral	027	sub-15	1.0	1.0	027_neutral	0.0		343.5809026150064	
36.0	216.30350566175662	pulse	1.0	t		26.0	female	white	4.854755272582572	neutral	027	sub-15	1.0	1.0	027_neutral	0.0		344.2809048185529	
36.0	217.00348522612467	pulse	1.0	t		26.0	female	white	4.854755272582572	neutral	027	sub-15	1.0	1.0	027_neutral	0.0		344.980884382921	
37.0	217.26169079650958	face	0.0		146	19.0	male	white	2.243931555909272	neutral	130	sub-15	1.0	1.0	130_neutral	0.0		345.2390899533059	1.241660556603847
37.0	217.70347294059684	pulse	0.0	t		19.0	male	white	2.243931555909272	neutral	130	sub-15	1.0	1.0	130_neutral	0.0		345.68087209739315	
37.0	218.40345642908915	pulse	0.0	t		19.0	male	white	2.243931555909272	neutral	130	sub-15	1.0	1.0	130_neutral	0.0		346.38085558588546	
37.0	218.50335135311343	fix	1.0		444	19.0	male	white	2.243931555909272	neutral	130	sub-15	1.0	1.0	130_neutral	0.0		346.48075050990974	3.766576784095605
37.0	219.10344927510846	pulse	1.0	t		19.0	male	white	2.243931555909272	neutral	130	sub-15	1.0	1.0	130_neutral	0.0		347.08084843190477	
37.0	219.80345510092388	pulse	1.0	t		19.0	male	white	2.243931555909272	neutral	130	sub-15	1.0	1.0	130_neutral	0.0		347.7808542577202	
37.0	220.5034241003416	pulse	1.0	t		19.0	male	white	2.243931555909272	neutral	130	sub-15	1.0	1.0	130_neutral	0.0		348.4808232571379	
37.0	221.20340004244076	pulse	1.0	t		19.0	male	white	2.243931555909272	neutral	130	sub-15	1.0	1.0	130_neutral	0.0		349.1807991992371	
37.0	221.90339198289325	pulse	1.0	t		19.0	male	white	2.243931555909272	neutral	130	sub-15	1.0	1.0	130_neutral	0.0		349.88079113968956	
38.0	222.26992813720904	face	0.0		145	31.0	female	white	2.1822522881018704	smiling	102	sub-15	1.0	1.0	102_smiling	0.0		350.24732729400534	1.2333317536217692
38.0	222.60341109036017	pulse	0.0	t		31.0	female	white	2.1822522881018704	smiling	102	sub-15	1.0	1.0	102_smiling	0.0		350.5808102471565	
38.0	223.30337254338497	pulse	0.0	t		31.0	female	white	2.1822522881018704	smiling	102	sub-15	1.0	1.0	102_smiling	0.0		351.2807717001813	
38.0	223.5032598908308	fix	1.0		444	31.0	female	white	2.1822522881018704	smiling	102	sub-15	1.0	1.0	102_smiling	0.0		351.4806590476271	3.7583388396847113
38.0	224.00335603187705	pulse	1.0	t		31.0	female	white	2.1822522881018704	smiling	102	sub-15	1.0	1.0	102_smiling	0.0		351.98075518867336	
38.0	224.70333921851352	pulse	1.0	t		31.0	female	white	2.1822522881018704	smiling	102	sub-15	1.0	1.0	102_smiling	0.0		352.68073837530983	
38.0	225.40333810164748	pulse	1.0	t		31.0	female	white	2.1822522881018704	smiling	102	sub-15	1.0	1.0	102_smiling	0.0		353.3807372584438	
38.0	226.1033291365327	pulse	1.0	t		31.0	female	white	2.1822522881018704	smiling	102	sub-15	1.0	1.0	102_smiling	0.0		354.080728293329	
38.0	226.80333858461654	pulse	1.0	t		31.0	female	white	2.1822522881018704	smiling	102	sub-15	1.0	1.0	102_smiling	0.0		354.78073774141285	
39.0	227.26159873051552	face	0.0		146	27.0	female	white	3.504576203740549	neutral	144	sub-15	1.0	1.0	144_neutral	0.0		355.2389978873118	1.2415718110225953
39.0	227.50330365991	pulse	0.0	t		27.0	female	white	3.504576203740549	neutral	144	sub-15	1.0	1.0	144_neutral	0.0		355.4807028167063	
39.0	228.2033227673769	pulse	0.0	t		27.0	female	white	3.504576203740549	neutral	144	sub-15	1.0	1.0	144_neutral	0.0		356.1807219241732	
39.0	228.5031705415381	fix	1.0		444	27.0	female	white	3.504576203740549	neutral	144	sub-15	1.0	1.0	144_neutral	0.0		356.4805696983344	3.7499378931859155
39.0	228.90330595401338	pulse	1.0	t		27.0	female	white	3.504576203740549	neutral	144	sub-15	1.0	1.0	144_neutral	0.0		356.8807051108097	
39.0	229.6032619736352	pulse	1.0	t		27.0	female	white	3.504576203740549	neutral	144	sub-15	1.0	1.0	144_neutral	0.0		357.5806611304315	
39.0	230.3032810811021	pulse	1.0	t		27.0	female	white	3.504576203740549	neutral	144	sub-15	1.0	1.0	144_neutral	0.0		358.2806802378984	
39.0	231.00326668258435	pulse	1.0	t		27.0	female	white	3.504576203740549	neutral	144	sub-15	1.0	1.0	144_neutral	0.0		358.98066583938066	
39.0	231.70322330591762	pulse	1.0	t		27.0	female	white	3.504576203740549	neutral	144	sub-15	1.0	1.0	144_neutral	0.0		359.6806224627139	
40.0	232.25310843472403	fix	0.0		720													360.23050759152034	5.999897067199981
40.0	232.40323215029025	pulse	0.0	t														360.38063130708656	
40.0	233.10320507383244	pulse	0.0	t														361.08060423062875	
40.0	233.8031927883046	pulse	0.0	t														361.7805919451009	
40.0	234.50319770855276	pulse	0.0	t														362.48059686534907	
40.0	235.20316972652768	pulse	0.0	t														363.180568883324	
40.0	235.90315895027857	pulse	0.0	t														363.8805581070749	
40.0	236.60314183505943	pulse	0.0	t														364.58054099185574	
40.0	237.30313196437737	pulse	0.0	t														365.2805311211737	
40.0	238.0031453365857	pulse	0.0	t														365.980544493382	
