trial_nr	onset	event_type	phase	response	nr_frames	rating_type	face_id	repetition	session	rating	onset_abs	duration
0.0	0.009328247266239487	cue	0.0		479						307.0842440068818	3.992125489873615
0.0	1.5596136367548752	response	0.0	return							308.63452939637045	
0.0	4.001453737139855	fix	1.0		120						311.07636949675543	1.0251457887661672
0.0	5.026599525906022	face	0.0		146	trustworthiness	101	1.0	2		312.1015152855216	1.2753606345731896
0.0	6.3019601604792115	rating	1.0		444	trustworthiness	101	1.0	2		313.3768759200948	3.7085335517158455
0.0	10.010493712195057	fix	2.0		60	trustworthiness	101	1.0	2	1.0899999999999999	317.08540947181064	0.5167606896920915
1.0	10.527254401887149	face	0.0		147	trustworthiness	027	1.0	2		317.6021701615027	1.233456721888615
1.0	11.760711123775764	rating	1.0		128	trustworthiness	027	1.0	2		318.83562688339134	1.07512192707145
1.0	12.835833050847214	fix	2.0		60	trustworthiness	027	1.0	2	1.96	319.9107488104628	0.5167480117515879
2.0	13.352581062598802	face	0.0		147	trustworthiness	144	1.0	2		320.4274968222144	1.233465777560923
2.0	14.586046840159725	rating	1.0		96	trustworthiness	144	1.0	2		321.6609625997753	0.8084293813071781
2.0	15.394476221466903	fix	2.0		60	trustworthiness	144	1.0	2	1.8600000000000003	322.4693919810825	0.5167374468019261
3.0	15.911213668268829	face	0.0		147	trustworthiness	038	1.0	2		322.9861294278844	1.233459136734382
3.0	17.14467280500321	rating	1.0		86	trustworthiness	038	1.0	2		324.2195885646188	0.725090941581584
3.0	17.869763746584795	fix	2.0		60	trustworthiness	038	1.0	2	0.7300000000000004	324.9446795062004	0.5167534451547908
4.0	18.386517191739586	face	0.0		147	trustworthiness	005	1.0	2		325.46143295135516	1.233447666218126
4.0	19.61996485795771	rating	1.0		109	trustworthiness	005	1.0	2		326.6948806175733	0.9167717376112705
4.0	20.536736595568982	fix	2.0		61	trustworthiness	005	1.0	2	0.7400000000000002	327.61165235518456	0.5250849648382427
5.0	21.061821560407225	face	0.0		146	trustworthiness	066	1.0	2		328.1367373200228	1.2251285226184336
5.0	22.28695008302566	rating	1.0		164	trustworthiness	066	1.0	2		329.36186584264124	1.37516017219059
5.0	23.66211025521625	fix	2.0		60	trustworthiness	066	1.0	2	0.3600000000000003	330.7370260148318	0.5167519358765276
6.0	24.178862191092776	face	0.0		147	trustworthiness	126	1.0	2		331.25377795070835	1.233456721888615
6.0	25.41231891298139	rating	1.0		117	trustworthiness	126	1.0	2		332.48723467259697	0.98343989343266
6.0	26.39575880641405	fix	2.0		60	trustworthiness	126	1.0	2	0.79	333.47067456602963	0.516751634020693
7.0	26.912510440434744	face	0.0		147	trustworthiness	062	1.0	2		333.9874262000503	1.2334573256011936
7.0	28.145967766035938	rating	1.0		76	trustworthiness	062	1.0	2		335.2208835256515	0.6417488795868849
7.0	28.787716645622822	fix	2.0		60	trustworthiness	062	1.0	2	-0.5800000000000001	335.8626324052384	0.5167480117515879
8.0	29.30446465737441	face	0.0		147	trustworthiness	082	1.0	2		336.37938041699	1.2334733239540583
8.0	30.53793798132847	rating	1.0		77	trustworthiness	082	1.0	2		337.61285374094405	0.6500541378227354
8.0	31.187992119151204	fix	2.0		60	trustworthiness	082	1.0	2	0.6699999999999999	338.2629078787668	0.5167483136074225
9.0	31.704740432758626	face	0.0		147	trustworthiness	043	1.0	2		338.7796561923742	1.2334582311677877
9.0	32.938198663926414	rating	1.0		171	trustworthiness	043	1.0	2		340.013114423542	1.4335079769898584
9.0	34.37170664091627	fix	2.0		60	trustworthiness	043	1.0	2	0.9400000000000004	341.44662240053185	0.5167504265982643
10.0	34.88845706751454	face	0.0		147	trustworthiness	099	1.0	2		341.9633728271301	1.233459136734382
10.0	36.12191620424892	rating	1.0		110	trustworthiness	099	1.0	2		343.1968319638645	0.9251020498722937
10.0	37.04701825412121	fix	2.0		60	trustworthiness	099	1.0	2	1.0300000000000002	344.1219340137368	0.516751634020693
11.0	37.563769888141906	face	0.0		147	trustworthiness	042	1.0	2		344.6386856477575	1.2334630608593216
11.0	38.79723294900123	rating	1.0		79	trustworthiness	042	1.0	2		345.8721487086168	0.6667370996674435
11.0	39.46397004866867	fix	2.0		60	trustworthiness	042	1.0	2	-0.9900000000000002	346.53888580828425	0.5167582748463246
12.0	39.980728323514995	face	0.0		147	trustworthiness	100	1.0	2		347.0556440831306	1.2334464587947878
12.0	41.21417478230978	rating	1.0		131	trustworthiness	100	1.0	2		348.28909054192536	1.100129767773069
12.0	42.31430455008285	fix	2.0		60	trustworthiness	100	1.0	2	1.2300000000000004	349.38922030969843	0.5167646138161217
13.0	42.831069163898974	face	0.0		147	trustworthiness	102	1.0	2		349.90598492351455	1.2334428365265921
13.0	44.064512000425566	rating	1.0		97	trustworthiness	102	1.0	2		351.13942776004114	0.8167621084139682
13.0	44.881274108839534	fix	2.0		60	trustworthiness	102	1.0	2	1.5999999999999996	351.9561898684551	0.516751332163949
14.0	45.39802544100348	face	0.0		147	trustworthiness	011	1.0	2		352.47294120061906	1.2334549107554267
14.0	46.63148035175891	rating	1.0		100	trustworthiness	011	1.0	2		353.7063961113745	0.8417666287032262
14.0	47.473246980462136	fix	2.0		60	trustworthiness	011	1.0	2	1.5099999999999998	354.5481627400777	0.5167480117515879
15.0	47.989994992213724	face	0.0		147	trustworthiness	061	1.0	2		355.0649107518293	1.2334672868391863
15.0	49.22346227905291	rating	1.0		187	trustworthiness	061	1.0	2		356.2983780386685	1.5668482127575771
15.0	50.79031049181049	fix	2.0		60	trustworthiness	061	1.0	2	0.8399999999999999	357.86522625142607	0.5167455969067305
16.0	51.30705608871722	face	0.0		147	trustworthiness	130	1.0	2		358.3819718483328	1.2334576274561186
16.0	52.540513716173336	rating	1.0		76	trustworthiness	130	1.0	2		359.6154294757889	0.6417452573186893
16.0	53.182258973492026	fix	2.0		60	trustworthiness	130	1.0	2	-1.31	360.2571747331076	0.5167404653584526
17.0	53.69899943885048	face	0.0		147	trustworthiness	137	1.0	2		360.77391519846606	1.2334609478693892
17.0	54.93246038671987	rating	1.0		95	trustworthiness	137	1.0	2		362.00737614633545	0.8000927300763578
17.0	55.732553116796225	fix	2.0		60	trustworthiness	137	1.0	2	-1.31	362.8074688764118	0.5167519358765276
18.0	56.24930505267275	face	0.0		147	trustworthiness	136	1.0	2		363.32422081228833	1.2334537033320885
18.0	57.48275875600484	rating	1.0		78	trustworthiness	136	1.0	2		364.5576745156204	0.6584173523569916
18.0	58.14117610836183	fix	2.0		60	trustworthiness	136	1.0	2	-1.5699999999999998	365.2160918679774	0.5167513321648585
19.0	58.65792744052669	face	0.0		147	trustworthiness	034	1.0	2		365.73284320014227	1.2334494773513143
19.0	59.891376917878006	rating	1.0		182	trustworthiness	034	1.0	2		366.9662926774936	1.5251782382556485
19.0	61.416555156133654	fix	2.0		60	trustworthiness	034	1.0	2	1.0499999999999998	368.49147091574923	0.5167525395872872
20.0	61.93330769572094	face	0.0		147	trustworthiness	030	1.0	2		369.0082234553365	1.233465777560923
20.0	63.166773473281864	rating	1.0		100	trustworthiness	030	1.0	2		370.24168923289744	0.8417916827283989
20.0	64.00856515601026	fix	2.0		60	trustworthiness	030	1.0	2	2.24	371.08348091562584	0.5167235614380843
21.0	64.52528871744835	face	0.0		147	trustworthiness	141	1.0	2		371.6002044770639	1.233453401476254
21.0	65.7587421189246	rating	1.0		198	trustworthiness	141	1.0	2		372.8336578785402	1.6585217944357282
21.0	67.41726391336033	fix	2.0		60	trustworthiness	141	1.0	2	0.7000000000000002	374.4921796729759	0.5167504265973548
22.0	67.93401433995768	face	0.0		147	trustworthiness	070	1.0	2		375.00893009957326	1.2334585330236223
22.0	69.1674728729813	rating	1.0		84	trustworthiness	070	1.0	2		376.2423886325969	0.7084218651007177
22.0	69.87589473808202	fix	2.0		60	trustworthiness	070	1.0	2	-1.02	376.9508104976976	0.5167519358756181
23.0	70.39264667395764	face	0.0		147	trustworthiness	012	1.0	2		377.4675624335732	1.2334588348794568
23.0	71.6261055088371	rating	1.0		112	trustworthiness	012	1.0	2		378.7010212684527	0.9417638818158593
23.0	72.56786939065296	fix	2.0		60	trustworthiness	012	1.0	2	-2.1799999999999997	379.64278515026854	0.5167522377323621
24.0	73.08462162838532	face	0.0		147	trustworthiness	039	1.0	2		380.1595373880009	1.2334570237444495
24.0	74.31807865212977	rating	1.0		160	trustworthiness	039	1.0	2		381.39299441174535	1.3418220192279477
24.0	75.65990067135772	fix	2.0		60	trustworthiness	039	1.0	2	1.9299999999999997	382.7348164309733	0.5167600859804224
25.0	76.17666075733814	face	0.0		147	trustworthiness	092	1.0	2		383.2515765169537	1.2334494773522238
25.0	77.41011023469036	rating	1.0		78	trustworthiness	092	1.0	2		384.48502599430594	0.6584092022521872
25.0	78.06851943694255	fix	2.0		60	trustworthiness	092	1.0	2	-0.69	385.14343519655813	0.5168035532042268
26.0	78.58532299014678	face	0.0		147	trustworthiness	091	1.0	2		385.66023874976236	1.2334078212625172
26.0	79.8187308114093	rating	1.0		98	trustworthiness	091	1.0	2		386.8936465710249	0.8250975522223598
26.0	80.64382836363166	fix	2.0		60	trustworthiness	091	1.0	2	1.4900000000000002	387.71874412324723	0.5167549544330541
27.0	81.16058331806471	face	0.0		147	trustworthiness	064	1.0	2		388.2354990776803	1.2334552126103517
27.0	82.39403853067506	rating	1.0		69	trustworthiness	064	1.0	2		389.46895429029064	0.5834010747876164
27.0	82.97743960546268	fix	2.0		60	trustworthiness	064	1.0	2	-1.5099999999999998	390.05235536507826	0.5167510303090239
28.0	83.4941906357717	face	0.0		147	trustworthiness	006	1.0	2		390.5691063953873	1.2334579293119532
28.0	84.72764856508365	rating	1.0		146	trustworthiness	006	1.0	2		391.80256432469923	1.225165650872441
28.0	85.9528142159561	fix	2.0		60	trustworthiness	006	1.0	2	-1.88	393.0277299755717	0.5167241651497534
29.0	86.46953838110585	face	0.0		147	trustworthiness	044	1.0	2		393.5444541407214	1.2334512884863216
29.0	87.70298966959217	rating	1.0		94	trustworthiness	044	1.0	2		394.77790542920775	0.7917657382286052
29.0	88.49475540782078	fix	2.0		60	trustworthiness	044	1.0	2	1.3499999999999996	395.56967116743635	0.5167513321648585
30.0	89.01150673998563	face	0.0		147	trustworthiness	024	1.0	2		396.0864224996012	1.2334579293119532
30.0	90.24496466929759	rating	1.0		61	trustworthiness	024	1.0	2		397.31988042891317	0.5167253725730916
30.0	90.76169004187068	fix	2.0		60	trustworthiness	024	1.0	2	1.17	397.83660580148626	0.5167501247415203
31.0	91.2784401666122	face	0.0		147	trustworthiness	018	1.0	2		398.3533559262278	1.2334518921979907
31.0	92.51189205881019	rating	1.0		96	trustworthiness	018	1.0	2		399.58680781842577	0.8084311924421854
31.0	93.32032325125238	fix	2.0		60	trustworthiness	018	1.0	2	1.12	400.39523901086795	0.5167449931941519
32.0	93.83706824444653	face	0.0		147	trustworthiness	172	1.0	2		400.9119840040621	1.2334636645709907
32.0	95.07053190901752	rating	1.0		338	trustworthiness	172	1.0	2		402.1454476686331	2.8253239440100515
32.0	97.89585585302757	fix	2.0		60	trustworthiness	172	1.0	2	-2.1	404.97077161264315	0.5167531432998658
33.0	98.41260899632744	face	0.0		147	trustworthiness	033	1.0	2		405.487524755943	1.2334633627142466
33.0	99.64607235904168	rating	1.0		324	trustworthiness	033	1.0	2		406.72098811865726	2.70865157730168
33.0	102.35472393634336	fix	2.0		60	trustworthiness	033	1.0	2	-1.15	409.42963969595894	0.5167437857717232
34.0	102.87146772211509	face	0.0		147	trustworthiness	121	1.0	2		409.94638348173066	1.2334561181778554
34.0	104.10492384029294	rating	1.0		160	trustworthiness	121	1.0	2		411.1798395999085	1.3418325841776095
34.0	105.44675642447055	fix	2.0		60	trustworthiness	121	1.0	2	-1.33	412.5216721840861	0.5167383523694298
35.0	105.96349477683998	face	0.0		147	trustworthiness	124	1.0	2		413.03841053645556	1.23346034415772
35.0	107.1969551209977	rating	1.0		84	trustworthiness	124	1.0	2		414.2718708806133	0.7084155261300111
35.0	107.90537064712771	fix	2.0		60	trustworthiness	124	1.0	2	1.8499999999999996	414.9802864067433	0.5167561618563923
36.0	108.4221268089841	face	0.0		147	trustworthiness	036	1.0	2		415.4970425685997	1.2334524959087503
36.0	109.65557930489285	rating	1.0		63	trustworthiness	036	1.0	2		416.73049506450843	0.53340048616883
36.0	110.18897979106168	fix	2.0		60	trustworthiness	036	1.0	2	1.6500000000000004	417.26389555067726	0.5167416727817908
37.0	110.70572146384347	face	0.0		147	trustworthiness	117	1.0	2		417.78063722345905	1.2334675886950208
37.0	111.9391890525385	rating	1.0		47	trustworthiness	117	1.0	2		419.0141048121541	0.4000451576157502
37.0	112.33923421015425	fix	2.0		60	trustworthiness	117	1.0	2	-0.69	419.4141499697698	0.5167471061840843
38.0	112.85598131633833	face	0.0		147	trustworthiness	087	1.0	2		419.9308970759539	1.233460042302795
38.0	114.08944135864112	rating	1.0		105	trustworthiness	087	1.0	2		421.1643571182567	0.883476448159854
38.0	114.97291780680098	fix	2.0		60	trustworthiness	087	1.0	2	2.04	422.04783356641656	0.5167090723643923
39.0	115.48962687916537	face	0.0		147	trustworthiness	009	1.0	2		422.56454263878095	1.2334585330236223
39.0	116.723085412189	rating	1.0		251	trustworthiness	009	1.0	2		423.7980011718046	2.100238737687505
39.0	118.8233241498765	fix	2.0		60	trustworthiness	009	1.0	2	0.9699999999999998	425.8982399094921	0.5000596165045863
40.0	119.32338376638108	cue	0.0		480						426.39829952599666	4.000476932034871
40.0	123.32386069841596	fix	1.0		120						430.39877645803153	1.0168100431019411
40.0	124.3406707415179	face	0.0		147	dominance	172	1.0	2		431.4155865011335	1.233450986630487
40.0	125.57412172814838	rating	1.0		526	dominance	172	1.0	2		432.64903748776396	4.3921827217182
40.0	129.96630444986658	fix	2.0		60	dominance	172	1.0	2	2.0599999999999996	437.04122020948216	0.5167555581447232
41.0	130.4830600080113	face	0.0		147	dominance	124	1.0	2		437.5579757676269	1.2334591367352914
41.0	131.7165191447466	rating	1.0		62	dominance	124	1.0	2		438.7914349043622	0.5250602126689046
41.0	132.2415793574155	fix	2.0		61	dominance	124	1.0	2	0.9199999999999999	439.3164951170311	0.5250804370025435
42.0	132.76665979441805	face	0.0		146	dominance	038	1.0	2		439.8415755540336	1.2251276170518395
42.0	133.9917874114699	rating	1.0		74	dominance	038	1.0	2		441.06670317108546	0.625074067846981
42.0	134.61686147931687	fix	2.0		60	dominance	038	1.0	2	-1.5	441.69177723893245	0.5167401635026181
43.0	135.13360164281949	face	0.0		147	dominance	066	1.0	2		442.20851740243506	1.233459438591126
43.0	136.3670610814106	rating	1.0		171	dominance	066	1.0	2		443.4419768410262	1.4335001287408886
43.0	137.8005612101515	fix	2.0		60	dominance	066	1.0	2	1.37	444.8754769697671	0.5167498228865952
44.0	138.3173110330381	face	0.0		147	dominance	099	1.0	2		445.3922267926537	1.2334606460135547
44.0	139.55077167905165	rating	1.0		561	dominance	099	1.0	2		446.6256874386672	4.683888843443128
44.0	144.23466052249478	fix	2.0		60	dominance	099	1.0	2	1.1799999999999997	451.30957628211036	0.5167507284531894
45.0	144.75141125094797	face	0.0		147	dominance	011	1.0	2		451.82632701056355	1.2334561181778554
45.0	145.98486736912582	rating	1.0		256	dominance	011	1.0	2		453.0597831287414	2.1419189752841703
45.0	148.12678634441	fix	2.0		60	dominance	011	1.0	2	-1.38	455.20170210402557	0.5167649156719563
46.0	148.64355126008195	face	0.0		147	dominance	012	1.0	2		455.7184670196975	1.2334431383815172
46.0	149.87699439846347	rating	1.0		184	dominance	012	1.0	2		456.95191015807904	1.541839768344289
46.0	151.41883416680776	fix	2.0		60	dominance	012	1.0	2	1.5599999999999996	458.49374992642333	0.5167492191749261
47.0	151.93558338598268	face	0.0		147	dominance	141	1.0	2		459.01049914559826	1.2334564200327804
47.0	153.16903980601546	rating	1.0		189	dominance	141	1.0	2		460.24395556563104	1.5835191003734508
47.0	154.7525589063889	fix	2.0		60	dominance	141	1.0	2	-1.5899999999999999	461.8274746660045	0.5167576711346555
48.0	155.26931657752357	face	0.0		147	dominance	100	1.0	2		462.34423233713915	1.2334573256011936
48.0	156.50277390312476	rating	1.0		111	dominance	100	1.0	2		463.57768966274034	0.9334362862564376
48.0	157.4362101893812	fix	2.0		60	dominance	100	1.0	2	-0.8599999999999999	464.5111259489968	0.5167522377323621
49.0	157.95296242711356	face	0.0		147	dominance	137	1.0	2		465.02787818672914	1.233456721888615
49.0	159.18641914900218	rating	1.0		181	dominance	137	1.0	2		466.26133490861775	1.5168418888806627
49.0	160.70326103788284	fix	2.0		60	dominance	137	1.0	2	-1.4	467.7781767974984	0.5167495210307607
50.0	161.2200105589136	face	0.0		147	dominance	034	1.0	2		468.2949263185292	1.233466079415848
50.0	162.45347663832945	rating	1.0		171	dominance	034	1.0	2		469.528392397945	1.4334922804928283
50.0	163.88696891882228	fix	2.0		60	dominance	034	1.0	2	0.9100000000000001	470.96188467843785	0.516751634020693
51.0	164.40372055284297	face	0.0		147	dominance	064	1.0	2		471.47863631245855	1.2334636645709907
51.0	165.63718421741396	rating	1.0		85	dominance	064	1.0	2		472.71209997702954	0.7167482532358918
51.0	166.35393247064985	fix	2.0		60	dominance	064	1.0	2	1.71	473.42884823026543	0.5167495210307607
52.0	166.8706819916806	face	0.0		147	dominance	027	1.0	2		473.9455977512962	1.23346034415772
52.0	168.10414233583833	rating	1.0		220	dominance	027	1.0	2		475.1790580954539	1.8418762023293311
52.0	169.94601853816766	fix	2.0		60	dominance	027	1.0	2	1.0700000000000003	477.02093429778324	0.516757369278821
53.0	170.46277590744648	face	0.0		147	dominance	136	1.0	2		477.53769166706206	1.2334500810629834
53.0	171.69622598850947	rating	1.0		84	dominance	136	1.0	2		478.77114174812505	0.7084128094293192
53.0	172.4046387979388	fix	2.0		60	dominance	136	1.0	2	1.1600000000000001	479.47955455755437	0.5167519358756181
54.0	172.9213907338144	face	0.0		147	dominance	092	1.0	2		479.99630649343	1.233457023745359
54.0	174.15484775755976	rating	1.0		168	dominance	092	1.0	2		481.22976351717534	1.4084983251532321
54.0	175.563346082713	fix	2.0		60	dominance	092	1.0	2	-1.52	482.6382618423286	0.5167649156719563
55.0	176.08011099838495	face	0.0		147	dominance	144	1.0	2		483.15502675800053	1.2334437420931863
55.0	177.31355474047814	rating	1.0		212	dominance	144	1.0	2		484.3884705000937	1.7752053298063402
55.0	179.08876007028448	fix	2.0		60	dominance	144	1.0	2	-1.25	486.16367582990006	0.5167730657767606
56.0	179.60553313606124	face	0.0		147	dominance	117	1.0	2		486.6804488956768	1.2334434402373518
56.0	180.8389765762986	rating	1.0		691	dominance	117	1.0	2		487.91389233591417	5.767337158650662
56.0	186.60631373494925	fix	2.0		60	dominance	117	1.0	2	1.33	493.68122949456483	0.5167567655662424
57.0	187.1230705005155	face	0.0		147	dominance	036	1.0	2		494.1979862601311	1.233450986630487
57.0	188.35652148714598	rating	1.0		136	dominance	036	1.0	2		495.43143724676156	1.1418003459875763
57.0	189.49832183313356	fix	2.0		60	dominance	036	1.0	2	-2.34	496.57323759274914	0.5167486154641665
58.0	190.01507044859773	face	0.0		147	dominance	033	1.0	2		497.0899862082133	1.2334666831266077
58.0	191.24853713172433	rating	1.0		125	dominance	033	1.0	2		498.3234528913399	1.050122538328651
58.0	192.29865967005298	fix	2.0		60	dominance	033	1.0	2	2.49	499.37357542966856	0.5167407672161062
59.0	192.8154004372691	face	0.0		147	dominance	070	1.0	2		499.89031619688467	1.233459136734382
59.0	194.04885957400347	rating	1.0		112	dominance	070	1.0	2		501.12377533361905	0.9417832005819946
59.0	194.99064277458547	fix	2.0		60	dominance	070	1.0	2	2.6900000000000004	502.06555853420105	0.5167468043291592
60.0	195.50738957891463	face	0.0		147	dominance	101	1.0	2		502.5823053385302	1.2334549107545172
60.0	196.74084448966914	rating	1.0		78	dominance	101	1.0	2		503.8157602492847	0.6584158430796379
60.0	197.39926033274878	fix	2.0		60	dominance	101	1.0	2	1.0700000000000003	504.47417609236436	0.5167431820591446
61.0	197.91600351480793	face	0.0		147	dominance	005	1.0	2		504.9909192744235	1.2334654757050885
61.0	199.14946899051301	rating	1.0		86	dominance	005	1.0	2		506.2243847501286	0.7250836970451928
61.0	199.8745526875582	fix	2.0		60	dominance	005	1.0	2	-2.65	506.9494684471738	0.5167437857708137
62.0	200.39129647332902	face	0.0		147	dominance	042	1.0	2		507.4662122329446	1.2334627590043965
62.0	201.62475923233342	rating	1.0		97	dominance	042	1.0	2		508.699674991949	0.8167563731549308
62.0	202.44151560548835	fix	2.0		60	dominance	042	1.0	2	2.62	509.5164313651039	0.516748313606513
63.0	202.95826391909486	face	0.0		147	dominance	061	1.0	2		510.03317967871044	1.2334660794167576
63.0	204.19172999851162	rating	1.0		108	dominance	061	1.0	2		511.2666457581272	0.9084619515397208
63.0	205.10019195005134	fix	2.0		60	dominance	061	1.0	2	-1.17	512.1751077096669	0.5167184298916254
64.0	205.61691037994296	face	0.0		147	dominance	044	1.0	2		512.6918261395585	1.2334582311686972
64.0	206.85036861111166	rating	1.0		76	dominance	044	1.0	2		513.9252843707272	0.6417449554610357
64.0	207.4921135665727	fix	2.0		60	dominance	044	1.0	2	1.1500000000000004	514.5670293261883	0.5167465024733247
65.0	208.00886006904602	face	0.0		147	dominance	087	1.0	2		515.0837758286616	1.2334642682835693
65.0	209.2423243373296	rating	1.0		141	dominance	087	1.0	2		516.3172400969452	1.1834645852304675
65.0	210.42578892256006	fix	2.0		60	dominance	087	1.0	2	-2.06	517.5007046821756	0.5167498228856857
66.0	210.94253874544575	face	0.0		147	dominance	062	1.0	2		518.0174545050613	1.2335089429288928
66.0	212.17604768837464	rating	1.0		69	dominance	062	1.0	2		519.2509634479902	0.5833509667372709
66.0	212.7593986551119	fix	2.0		60	dominance	062	1.0	2	1.46	519.8343144147275	0.5167555581447232
67.0	213.27615421325663	face	0.0		147	dominance	039	1.0	2		520.3510699728722	1.2334606460135547
67.0	214.5096148592702	rating	1.0		254	dominance	039	1.0	2		521.5845306188858	2.125237824575379
67.0	216.63485268384557	fix	2.0		60	dominance	039	1.0	2	-2.15	523.7097684434611	0.5167552562888886
68.0	217.15160794013445	face	0.0		147	dominance	018	1.0	2		524.22652369975	1.23345702374354
68.0	218.385064963878	rating	1.0		90	dominance	018	1.0	2		525.4599807234936	0.758416114749707
68.0	219.1434810786277	fix	2.0		60	dominance	018	1.0	2	-0.77	526.2183968382433	0.5167570674238959
69.0	219.6602381460516	face	0.0		147	dominance	009	1.0	2		526.7351539056672	1.233453703331179
69.0	220.89369184938278	rating	1.0		48	dominance	009	1.0	2		527.9686076089984	0.40838512925984105
69.0	221.30207697864262	fix	2.0		60	dominance	009	1.0	2	1.25	528.3769927382582	0.5167510303090239
70.0	221.81882800895164	face	0.0		147	dominance	006	1.0	2		528.8937437685672	1.2334485717838106
70.0	223.05227658073545	rating	1.0		66	dominance	006	1.0	2		530.127192340351	0.5584044027473283
70.0	223.61068098348278	fix	2.0		60	dominance	006	1.0	2	-1.65	530.6855967430984	0.5167458987616556
71.0	224.12742688224444	face	0.0		147	dominance	130	1.0	2		531.20234264186	1.2334621552927274
71.0	225.36088903753716	rating	1.0		126	dominance	130	1.0	2		532.4358047971527	1.0584579821352236
71.0	226.4193470196724	fix	2.0		60	dominance	130	1.0	2	0.8499999999999996	533.494262779288	0.516751634020693
72.0	226.93609865369308	face	0.0		147	dominance	102	1.0	2		534.0110144133087	1.2334561181778554
72.0	228.16955477187093	rating	1.0		274	dominance	102	1.0	2		535.2444705314865	2.2919352302160405
72.0	230.46149000208698	fix	2.0		60	dominance	102	1.0	2	-1.79	537.5364057617026	0.5168008365017158
73.0	230.9782908385887	face	0.0		147	dominance	082	1.0	2		538.0532065982043	1.2334051045618253
73.0	232.21169594315052	rating	1.0		72	dominance	082	1.0	2		539.2866117027661	0.6084010672402655
73.0	232.82009701039078	fix	2.0		60	dominance	082	1.0	2	1.7400000000000002	539.8950127700064	0.5167528414440312
74.0	233.3368498518348	face	0.0		147	dominance	126	1.0	2		540.4117656114504	1.2334518921979907
74.0	234.5703017440328	rating	1.0		100	dominance	126	1.0	2		541.6452175036484	0.8417708546821814
74.0	235.41207259871499	fix	2.0		60	dominance	126	1.0	2	1.79	542.4869883583306	0.5167443894843018
75.0	235.9288169881993	face	0.0		147	dominance	043	1.0	2		543.0037327478149	1.233465173849254
75.0	237.16228216204854	rating	1.0		73	dominance	043	1.0	2		544.2371979216641	0.6167380203260109
75.0	237.77902018237455	fix	2.0		60	dominance	043	1.0	2	0.7000000000000002	544.8539359419901	0.5167504265991738
76.0	238.29577060897373	face	0.0		147	dominance	024	1.0	2		545.3706863685893	1.2334585330227128
76.0	239.52922914199644	rating	1.0		157	dominance	024	1.0	2		546.604144901612	1.3168168952270207
76.0	240.84604603722346	fix	2.0		60	dominance	024	1.0	2	-1.54	547.920961796839	0.5167531432980468
77.0	241.3627991805215	face	0.0		147	dominance	121	1.0	2		548.4377149401371	1.233450986630487
77.0	242.596250167152	rating	1.0		263	dominance	121	1.0	2		549.6711659267676	2.20026164853698
77.0	244.79651181568897	fix	2.0		60	dominance	121	1.0	2	1.9000000000000004	551.8714275753046	0.5167504265973548
78.0	245.31326224228633	face	0.0		147	dominance	091	1.0	2		552.3881780019019	1.2334497792089678
78.0	246.5467120214953	rating	1.0		163	dominance	091	1.0	2		553.6216277811109	1.366837104465958
78.0	247.91354912596125	fix	2.0		60	dominance	091	1.0	2	1.88	554.9884648855768	0.5167579729913996
79.0	248.43030709895265	face	0.0		147	dominance	030	1.0	2		555.5052228585682	1.2334464587947878
79.0	249.66375355774744	rating	1.0		69	dominance	030	1.0	2		556.738669317363	0.5833944339610753
79.0	250.24714799170852	fix	2.0		60	dominance	030	1.0	2	-1.9	557.3220637513241	0.5000587109370827
80.0	250.7472067026456	cue	0.0		480						557.8221224622612	4.0004775357465405
80.0	254.74768423839214	fix	1.0		120						561.8225999980077	1.0168124579486175
80.0	255.76449669634076	face	0.0		147	attractiveness	136	1.0	2		562.8394124559563	1.2334500810629834
80.0	256.99794677740374	rating	1.0		137	attractiveness	136	1.0	2		564.0728625370193	1.1501400157758326
80.0	258.1480867931796	fix	2.0		60	attractiveness	136	1.0	2	-2.8600000000000003	565.2230025527952	0.5167489173181821
81.0	258.66483571049775	face	0.0		147	attractiveness	082	1.0	2		565.7397514701133	1.2334530996213289
81.0	259.8982888101191	rating	1.0		101	attractiveness	082	1.0	2		566.9732045697347	0.8500981483866781
81.0	260.74838695850576	fix	2.0		60	attractiveness	082	1.0	2	-2.7199999999999998	567.8233027181213	0.5167495210298512
82.0	261.2651364795356	face	0.0		147	attractiveness	042	1.0	2		568.3400522391512	1.2334567218895245
82.0	262.49859320142514	rating	1.0		102	attractiveness	042	1.0	2		569.5735089610407	0.8584369126074307
82.0	263.35703011403257	fix	2.0		60	attractiveness	042	1.0	2	1.0599999999999996	570.4319458736481	0.5167468043291592
83.0	263.8737769183617	face	0.0		147	attractiveness	034	1.0	2		570.9486926779773	1.2334576274552091
83.0	265.10723454581694	rating	1.0		176	attractiveness	034	1.0	2		572.1821503054325	1.4751722162345686
83.0	266.5824067620515	fix	2.0		60	attractiveness	034	1.0	2	-3.2199999999999998	573.6573225216671	0.5167570674238959
84.0	267.0991638294754	face	0.0		147	attractiveness	033	1.0	2		574.174079589091	1.2334518921961717
84.0	268.3326157216716	rating	1.0		102	attractiveness	033	1.0	2		575.4075314812872	0.8584308754943777
84.0	269.19104659716595	fix	2.0		60	attractiveness	033	1.0	2	-0.8500000000000001	576.2659623567815	0.5167525395881967
85.0	269.70779913675415	face	0.0		147	attractiveness	117	1.0	2		576.7827148963697	1.2334573255993746
85.0	270.9412564623535	rating	1.0		98	attractiveness	117	1.0	2		578.0161722219691	0.8250948355198489
85.0	271.76635129787337	fix	2.0		60	attractiveness	117	1.0	2	-1.5299999999999998	578.841267057489	0.5167582748472341
86.0	272.2831095727206	face	0.0		147	attractiveness	024	1.0	2		579.3580253323362	1.233450382918818
86.0	273.5165599556394	rating	1.0		73	attractiveness	024	1.0	2		580.591475715255	0.6167356054811535
86.0	274.1332955611206	fix	2.0		60	attractiveness	024	1.0	2	-2.25	581.2082113207362	0.516760387836257
87.0	274.65005594895683	face	0.0		147	attractiveness	092	1.0	2		581.7249717085724	1.2334506847764715
87.0	275.8835066337333	rating	1.0		114	attractiveness	092	1.0	2		582.9584223933489	0.9584423158248683
87.0	276.8419489495582	fix	2.0		61	attractiveness	092	1.0	2	-3.4	583.9168647091738	0.525086172259762
88.0	277.36703512181793	face	0.0		146	attractiveness	018	1.0	2		584.4419508814335	1.2251239947836439
88.0	278.5921591166016	rating	1.0		139	attractiveness	018	1.0	2		585.6670748762172	1.1667997347285564
88.0	279.75895885133014	fix	2.0		60	attractiveness	018	1.0	2	0.6399999999999997	586.8338746109457	0.516751634020693
89.0	280.2757104853508	face	0.0		147	attractiveness	039	1.0	2		587.3506262449664	1.233486001894562
89.0	281.5091964872454	rating	1.0		73	attractiveness	039	1.0	2		588.584112246861	0.616709042178627
89.0	282.125905529424	fix	2.0		60	attractiveness	039	1.0	2	1.5300000000000002	589.2008212890396	0.5167600859804224
90.0	282.64266561540444	face	0.0		147	attractiveness	091	1.0	2		589.71758137502	1.233457023745359
90.0	283.8761226391498	rating	1.0		200	attractiveness	091	1.0	2		590.9510383987654	1.675184833802632
90.0	285.55130747295243	fix	2.0		60	attractiveness	091	1.0	2	0.3899999999999997	592.626223232568	0.516760387836257
91.0	286.0680678607887	face	0.0		147	attractiveness	062	1.0	2		593.1429836204043	1.2334582311668782
91.0	287.30152609195557	rating	1.0		88	attractiveness	062	1.0	2		594.3764418515711	0.7417503586802923
91.0	288.04327645063586	fix	2.0		60	attractiveness	062	1.0	2	-1.98	595.1181922102514	0.5167670286627981
92.0	288.56004347929866	face	0.0		147	attractiveness	036	1.0	2		595.6349592389142	1.2334404216799157
92.0	289.7934839009786	rating	1.0		71	attractiveness	036	1.0	2		596.8683996605942	0.6000616993078438
92.0	290.3935456002864	fix	2.0		60	attractiveness	036	1.0	2	-1.12	597.468461359902	0.5167748769108584
93.0	290.9103204771973	face	0.0		147	attractiveness	044	1.0	2		597.9852362368129	1.2334349882785318
93.0	292.1437554654758	rating	1.0		78	attractiveness	044	1.0	2		599.2186712250914	0.6584149375103152
93.0	292.8021704029861	fix	2.0		60	attractiveness	044	1.0	2	1.37	599.8770861626017	0.5167510303090239
94.0	293.31892143329515	face	0.0		147	attractiveness	100	1.0	2		600.3938371929107	1.2334479680739605
94.0	294.5523694013691	rating	1.0		129	attractiveness	100	1.0	2		601.6272851609847	1.083504158516007
94.0	295.6358735598851	fix	2.0		60	attractiveness	100	1.0	2	0.3899999999999997	602.7107893195007	0.5167093742184079
95.0	296.1525829341035	face	0.0		147	attractiveness	126	1.0	2		603.2274986937191	1.2334588348803663
95.0	297.3860417689839	rating	1.0		105	attractiveness	126	1.0	2		604.4609575285995	0.8834390180509217
95.0	298.2694807870348	fix	2.0		60	attractiveness	126	1.0	2	0.7599999999999998	605.3443965466504	0.5167504265973548
96.0	298.78623121363216	face	0.0		147	attractiveness	070	1.0	2		605.8611469732477	1.2334582311686972
96.0	300.01968944480086	rating	1.0		103	attractiveness	070	1.0	2		607.0946052044164	0.8667681304341386
96.0	300.886457575235	fix	2.0		60	attractiveness	070	1.0	2	-1.9900000000000002	607.9613733348506	0.5167507284531894
97.0	301.4032083036882	face	0.0		147	attractiveness	141	1.0	2		608.4781240633038	1.2334561181778554
97.0	302.63666442186604	rating	1.0		166	attractiveness	141	1.0	2		609.7115801814816	1.3918286449606967
97.0	304.02849306682674	fix	2.0		60	attractiveness	141	1.0	2	-2.83	611.1034088264423	0.5167437857726327
98.0	304.5452368525994	face	0.0		147	attractiveness	009	1.0	2		611.620152612215	1.2334636645700812
98.0	305.77870051716945	rating	1.0		104	attractiveness	009	1.0	2		612.853616276785	0.8751017631093418
98.0	306.6538022802788	fix	2.0		60	attractiveness	009	1.0	2	-0.7200000000000002	613.7287180398944	0.5167468043291592
99.0	307.17054908460796	face	0.0		147	attractiveness	061	1.0	2		614.2454648442235	1.2334546088986826
99.0	308.40400369350664	rating	1.0		56	attractiveness	061	1.0	2		615.4789194531222	0.47506173704096
99.0	308.8790654305476	fix	2.0		60	attractiveness	061	1.0	2	-1.2000000000000002	615.9539811901632	0.5167458987616556
100.0	309.39581132930925	face	0.0		147	attractiveness	011	1.0	2		616.4707270889248	1.2334549107545172
100.0	310.62926624006377	rating	1.0		102	attractiveness	011	1.0	2		617.7041819996793	0.8584381200307689
100.0	311.48770436009454	fix	2.0		60	attractiveness	011	1.0	2	-1.4300000000000002	618.5626201197101	0.5167528414440312
101.0	312.00445720153857	face	0.0		147	attractiveness	102	1.0	2		619.0793729611541	1.2334642682817503
101.0	313.2379214698203	rating	1.0		370	attractiveness	102	1.0	2		620.3128372294359	3.0920137730718125
101.0	316.32993524289213	fix	2.0		60	attractiveness	102	1.0	2	-3.54	623.4048510025077	0.516751634020693
102.0	316.8466868769128	face	0.0		147	attractiveness	005	1.0	2		623.9216026365284	1.2334579293128627
102.0	318.0801448062257	rating	1.0		159	attractiveness	005	1.0	2		625.1550605658413	1.3334953292360296
102.0	319.4136401354617	fix	2.0		60	attractiveness	005	1.0	2	-3.61	626.4885558950773	0.5167772917557159
103.0	319.93041742721744	face	0.0		147	attractiveness	121	1.0	2		627.005333186833	1.2334316678643518
103.0	321.1638490950818	rating	1.0		42	attractiveness	121	1.0	2		628.2387648546974	0.3583643163074157
103.0	321.5222134113892	fix	2.0		60	attractiveness	121	1.0	2	-1.04	628.5971291710048	0.5167519358765276
104.0	322.03896534726573	face	0.0		147	attractiveness	027	1.0	2		629.1138811068813	1.2334648719934194
104.0	323.27243021925915	rating	1.0		70	attractiveness	027	1.0	2		630.3473459788747	0.591775457982294
104.0	323.86420567724144	fix	2.0		60	attractiveness	027	1.0	2	-1.35	630.939121436857	0.5167090723643923
105.0	324.38091474960584	face	0.0		147	attractiveness	144	1.0	2		631.4558305092214	1.2334497792089678
105.0	325.6143645288148	rating	1.0		773	attractiveness	144	1.0	2		632.6892802884304	6.492431118787863
105.0	332.10679564760267	fix	2.0		60	attractiveness	144	1.0	2	1.0599999999999996	639.1817114072182	0.5167564637122268
106.0	332.6235521113149	face	0.0		147	attractiveness	064	1.0	2		639.6984678709305	1.233450986630487
106.0	333.8570030979454	rating	1.0		103	attractiveness	064	1.0	2		640.931918857561	0.866773865694995
106.0	334.7237769636404	fix	2.0		60	attractiveness	064	1.0	2	-1.31	641.798692723256	0.5167504265973548
107.0	335.24052739023773	face	0.0		147	attractiveness	066	1.0	2		642.3154431498533	1.2334579293110437
107.0	336.4739853195488	rating	1.0		642	attractiveness	066	1.0	2		643.5489010791644	5.358962292486467
107.0	341.83294761203524	fix	2.0		60	attractiveness	066	1.0	2	0.8700000000000001	648.9078633716508	0.5167486154623475
108.0	342.3496962274976	face	0.0		147	attractiveness	130	1.0	2		649.4246119871132	1.2334521940538252
108.0	343.5831484215514	rating	1.0		87	attractiveness	130	1.0	2		650.658064181167	0.7334197445634345
108.0	344.31656816611485	fix	2.0		60	attractiveness	130	1.0	2	-2.5300000000000002	651.3914839257304	0.5167501247415203
109.0	344.83331829085637	face	0.0		147	attractiveness	006	1.0	2		651.908234050472	1.2334633627160656
109.0	346.06678165357243	rating	1.0		543	attractiveness	006	1.0	2		653.141697413188	4.533864438408273
109.0	350.6006460919807	fix	2.0		60	attractiveness	006	1.0	2	-2.19	657.6755618515963	0.516751634018874
110.0	351.1173977259996	face	0.0		147	attractiveness	012	1.0	2		658.1923134856152	1.2334594385920354
110.0	352.3508571645916	rating	1.0		174	attractiveness	012	1.0	2		659.4257729242072	1.4584952915029135
110.0	353.80935245609453	fix	2.0		60	attractiveness	012	1.0	2	-2.4699999999999998	660.8842682157101	0.5167579729913996
111.0	354.32611042908593	face	0.0		147	attractiveness	101	1.0	2		661.4010261887015	1.233450382918818
111.0	355.55956081200475	rating	1.0		180	attractiveness	101	1.0	2		662.6344765716203	1.5085148970320006
111.0	357.06807570903675	fix	2.0		60	attractiveness	101	1.0	2	0.7999999999999998	664.1429914686523	0.516745596905821
112.0	357.58482130594257	face	0.0		147	attractiveness	087	1.0	2		664.6597370655581	1.2334660794167576
112.0	358.8182873853593	rating	1.0		104	attractiveness	087	1.0	2		665.8932031449749	0.8750915000146051
112.0	359.69337888537393	fix	2.0		60	attractiveness	087	1.0	2	2.4000000000000004	666.7682946449895	0.5167579729913996
113.0	360.21013685836533	face	0.0		147	attractiveness	137	1.0	2		667.2850526179809	1.2334612497234048
113.0	361.44359810808874	rating	1.0		63	attractiveness	137	1.0	2		668.5185138677043	0.5333899212200777
113.0	361.9769880293088	fix	2.0		60	attractiveness	137	1.0	2	-1.17	669.0519037889244	0.5167474080390093
114.0	362.4937354373478	face	0.0		147	attractiveness	038	1.0	2		669.5686511969634	1.23346034415772
114.0	363.72719578150554	rating	1.0		110	attractiveness	038	1.0	2		670.8021115411211	0.9250984276040981
114.0	364.65229420910964	fix	2.0		60	attractiveness	038	1.0	2	-3.3	671.7272099687252	0.516754350721385
115.0	365.169048559831	face	0.0		147	attractiveness	124	1.0	2		672.2439643194466	1.2334552126103517
115.0	366.4025037724414	rating	1.0		278	attractiveness	124	1.0	2		673.477419532057	2.3252791184368107
115.0	368.7277828908782	fix	2.0		60	attractiveness	124	1.0	2	4.0	675.8026986504938	0.5167507284531894
116.0	369.2445336193314	face	0.0		147	attractiveness	099	1.0	2		676.319449378947	1.2334582311686972
116.0	370.4779918505001	rating	1.0		217	attractiveness	099	1.0	2		677.5529076101157	1.8168786247206299
116.0	372.2948704752207	fix	2.0		60	attractiveness	099	1.0	2	-1.83	679.3697862348363	0.5167754806225275
117.0	372.81164595584323	face	0.0		147	attractiveness	172	1.0	2		679.8865617154588	1.2334316678643518
117.0	374.0450776237076	rating	1.0		59	attractiveness	172	1.0	2		681.1199933833232	0.5000572016579099
117.0	374.5451348253655	fix	2.0		60	attractiveness	172	1.0	2	-1.08	681.6200505849811	0.5167452950518054
118.0	375.0618801204173	face	0.0		147	attractiveness	030	1.0	2		682.1367958800329	1.2334633627142466
118.0	376.29534348313155	rating	1.0		104	attractiveness	030	1.0	2		683.3702592427471	0.8751017631093418
118.0	377.1704452462409	fix	2.0		60	attractiveness	030	1.0	2	3.6900000000000004	684.2453610058565	0.5167486154623475
119.0	377.68719386170324	face	0.0		147	attractiveness	043	1.0	2		684.7621096213188	1.233457023745359
119.0	378.9206508854486	rating	1.0		191	attractiveness	043	1.0	2		685.9955666450642	1.6001788193279936
119.0	380.5208297047766	fix	2.0		60	attractiveness	043	1.0	2	-1.6099999999999999	687.5957454643922	0.5000701814551576
120.0	381.02089988623175	cue	0.0		3600						688.0958156458473	30.00353352303864
120.0	411.0244334092704	fix	1.0		120						718.099349168886	1.0001427777551726
120.0	412.02457618702556	cue	0.0		480						719.0994919466411	4.000440709349277
120.0	416.02501689637484	fix	1.0		120						723.0999326559904	1.016817589494167
120.0	417.041834485869	face	0.0		147	attractiveness	009	2.0	2		724.1167502454846	1.2334488736396452
120.0	418.27528335950865	rating	1.0		120	attractiveness	009	2.0	2		725.3501991191242	1.0084477341351885
120.0	419.28373109364384	fix	2.0		60	attractiveness	009	2.0	2	0.75	726.3586468532594	0.5167597841264069
121.0	419.80049087777024	face	0.0		147	attractiveness	172	2.0	2		726.8754066373858	1.2334573255993746
121.0	421.0339482033696	rating	1.0		68	attractiveness	172	2.0	2		728.1088639629852	0.575058084586999
121.0	421.6090062879566	fix	2.0		60	attractiveness	172	2.0	2	-1.25	728.6839220475722	0.5167579729913996
122.0	422.125764260948	face	0.0		147	attractiveness	117	2.0	2		729.2006800205636	1.23345702374354
122.0	423.35922128469156	rating	1.0		74	attractiveness	117	2.0	2		730.4341370443071	0.6250635028973193
122.0	423.9842847875889	fix	2.0		60	attractiveness	117	2.0	2	-1.6099999999999999	731.0592005472045	0.5167513321648585
123.0	424.50103611975373	face	0.0		147	attractiveness	064	2.0	2		731.5759518793693	1.233465777560923
123.0	425.73450189731466	rating	1.0		77	attractiveness	064	2.0	2		732.8094176569302	0.6500737584447052
123.0	426.38457565575936	fix	2.0		60	attractiveness	064	2.0	2	-1.6	733.4594914153749	0.5167513321648585
124.0	426.9013269879242	face	0.0		147	attractiveness	099	2.0	2		733.9762427475398	1.233450986630487
124.0	428.1347779745547	rating	1.0		202	attractiveness	099	2.0	2		735.2096937341703	1.6918702104921977
124.0	429.8266481850469	fix	2.0		60	attractiveness	099	2.0	2	0.6500000000000004	736.9015639446625	0.516751634020693
125.0	430.3433998190676	face	0.0		147	attractiveness	100	2.0	2		737.4183155786832	1.233450986630487
125.0	431.5768508056981	rating	1.0		58	attractiveness	100	2.0	2		738.6517665653137	0.49172145599550277
125.0	432.0685722616936	fix	2.0		60	attractiveness	100	2.0	2	0.5	739.1434880213092	0.5167498228856857
126.0	432.5853220845793	face	0.0		147	attractiveness	042	2.0	2		739.6602378441949	1.2334639664259157
126.0	433.8187860510052	rating	1.0		53	attractiveness	042	2.0	2		740.8937018106208	0.45005117963773955
126.0	434.26883723064293	fix	2.0		60	attractiveness	042	2.0	2	0.5599999999999996	741.3437529902585	0.516804760627565
127.0	434.7856419912705	face	0.0		147	attractiveness	070	2.0	2		741.8605577508861	1.233403293426818
127.0	436.0190452846973	rating	1.0		62	attractiveness	070	2.0	2		743.0939610443129	0.5250593071014009
127.0	436.5441045917987	fix	2.0		60	attractiveness	070	2.0	2	-1.2799999999999998	743.6190203514143	0.5167549544330541
128.0	437.06085954623177	face	0.0		147	attractiveness	038	2.0	2		744.1357753058473	1.2334479680739605
128.0	438.29430751430573	rating	1.0		83	attractiveness	038	2.0	2		745.3692232739213	0.7000809878900327
128.0	438.99438850219576	fix	2.0		60	attractiveness	038	2.0	2	-2.79	746.0693042618113	0.5167579729895806
129.0	439.51114647518534	face	0.0		147	attractiveness	144	2.0	2		746.5860622348009	1.2334485717856296
129.0	440.74459504697097	rating	1.0		89	attractiveness	144	2.0	2		747.8195108065865	0.7500966692932707
129.0	441.49469171626424	fix	2.0		60	attractiveness	144	2.0	2	0.6699999999999999	748.5696074758798	0.5167407672142872
130.0	442.01143248347853	face	0.0		147	attractiveness	011	2.0	2		749.0863482430941	1.233465173849254
130.0	443.2448976573278	rating	1.0		66	attractiveness	011	2.0	2		750.3198134169434	0.5583956489317643
130.0	443.80329330625955	fix	2.0		60	attractiveness	011	2.0	2	-1.7599999999999998	750.8782090658751	0.5167531432980468
131.0	444.3200464495576	face	0.0		147	attractiveness	082	2.0	2		751.3949622091732	1.23345642003369
131.0	445.5535028695913	rating	1.0		133	attractiveness	082	2.0	2		752.6284186292069	1.1167900904401904
131.0	446.6702929600315	fix	2.0		60	attractiveness	082	2.0	2	-2.23	753.745208719647	0.516751634018874
132.0	447.18704459405035	face	0.0		147	attractiveness	066	2.0	2		754.2619603536659	1.233457023745359
132.0	448.4205016177957	rating	1.0		65	attractiveness	066	2.0	2		755.4954173774113	0.5500668459499138
132.0	448.9705684637456	fix	2.0		60	attractiveness	066	2.0	2	0.8700000000000001	756.0454842233612	0.5167462006174901
133.0	449.4873146643631	face	0.0		147	attractiveness	137	2.0	2		756.5622304239787	1.2334636645700812
133.0	450.7207783289332	rating	1.0		67	attractiveness	137	2.0	2		757.7956940885488	0.5667329038733442
133.0	451.28751123280654	fix	2.0		60	attractiveness	137	2.0	2	-1.4500000000000002	758.3624269924221	0.5167416727817908
134.0	451.8042529055883	face	0.0		147	attractiveness	039	2.0	2		758.8791686652039	1.2334573255993746
134.0	453.0377102311877	rating	1.0		104	attractiveness	039	2.0	2		760.1126259908033	0.87510297053268
134.0	453.9128132017204	fix	2.0		60	attractiveness	039	2.0	2	1.7599999999999998	760.987728961336	0.5167564637122268
135.0	454.4295696654326	face	0.0		147	attractiveness	033	2.0	2		761.5044854250482	1.2334494773513143
135.0	455.6630191427839	rating	1.0		73	attractiveness	033	2.0	2		762.7379349023995	0.6167407370303408
135.0	456.27975987981426	fix	2.0		60	attractiveness	033	2.0	2	-1.25	763.3546756394298	0.5167462006174901
136.0	456.79650608043175	face	0.0		147	attractiveness	141	2.0	2		763.8714218400473	1.2334600423018856
136.0	458.02996612273364	rating	1.0		114	attractiveness	141	2.0	2		765.1048818823492	0.9584486547937558
136.0	458.9884147775274	fix	2.0		60	attractiveness	141	2.0	2	-1.65	766.063330537143	0.5167474080408283
137.0	459.5051621855682	face	0.0		147	attractiveness	030	2.0	2		766.5800779451838	1.2334636645700812
137.0	460.7386258501383	rating	1.0		298	attractiveness	030	2.0	2		767.8135416097539	2.4919502626307803
137.0	463.2305761127691	fix	2.0		60	attractiveness	030	2.0	2	3.6799999999999997	770.3054918723847	0.5167561618563923
138.0	463.7473322746255	face	0.0		147	attractiveness	102	2.0	2		770.822248034241	1.2334530996195099
138.0	464.980785374245	rating	1.0		165	attractiveness	102	2.0	2		772.0557011338606	1.3834928992982896
138.0	466.3642782735433	fix	2.0		60	attractiveness	102	2.0	2	-3.48	773.4391940331589	0.5167507284531894
139.0	466.88102900199647	face	0.0		147	attractiveness	062	2.0	2		773.955944761612	1.2334594385902165
139.0	468.1144884405867	rating	1.0		74	attractiveness	062	2.0	2		775.1894042002023	0.6250707474337105
139.0	468.7395591880204	fix	2.0		60	attractiveness	062	2.0	2	-1.98	775.814474947636	0.5167510303090239
140.0	469.2563102183294	face	0.0		147	attractiveness	101	2.0	2		776.331225977945	1.2334573256011936
140.0	470.4897675439306	rating	1.0		47	attractiveness	101	2.0	2		777.5646833035462	0.4000421390574047
140.0	470.889809682988	fix	2.0		60	attractiveness	101	2.0	2	0.6900000000000004	777.9647254426036	0.5167546525772195
141.0	471.40656433556524	face	0.0		147	attractiveness	126	2.0	2		778.4814800951808	1.2334639664277347
141.0	472.64002830199297	rating	1.0		100	attractiveness	126	2.0	2		779.7149440616085	0.8417617990107829
141.0	473.48179010100375	fix	2.0		60	attractiveness	126	2.0	2	0.8099999999999996	780.5567058606193	0.516742880205129
142.0	473.9985329812089	face	0.0		147	attractiveness	027	2.0	2		781.0734487408245	1.2334642682817503
142.0	475.23199724949063	rating	1.0		120	attractiveness	027	2.0	2		782.3069130091062	1.0084438100111583
142.0	476.2404410595018	fix	2.0		60	attractiveness	027	2.0	2	-0.7799999999999998	783.3153568191174	0.5167522377323621
143.0	476.75719329723415	face	0.0		147	attractiveness	136	2.0	2		783.8321090568497	1.2334567218895245
143.0	477.9906500191237	rating	1.0		102	attractiveness	136	2.0	2		785.0655657787393	0.8584335921932507
143.0	478.8490836113169	fix	2.0		60	attractiveness	136	2.0	2	-3.29	785.9239993709325	0.5167480117524974
144.0	479.3658316230694	face	0.0		147	attractiveness	034	2.0	2		786.440747382685	1.2334579293128627
144.0	480.5992895523823	rating	1.0		65	attractiveness	034	2.0	2		787.6742053119979	0.5500629218240647
144.0	481.14935247420635	fix	2.0		60	attractiveness	034	2.0	2	-1.77	788.2242682338219	0.516751634020693
145.0	481.66610410822705	face	0.0		147	attractiveness	005	2.0	2		788.7410198678426	1.23345642003369
145.0	482.89956052826074	rating	1.0		172	attractiveness	005	2.0	2		789.9744762878763	1.441834666980867
145.0	484.3413951952416	fix	2.0		60	attractiveness	005	2.0	2	-3.7199999999999998	791.4163109548572	0.516751634020693
146.0	484.8581468292623	face	0.0		147	attractiveness	012	2.0	2		791.9330625888779	1.2334633627160656
146.0	486.09161019197836	rating	1.0		80	attractiveness	012	2.0	2		793.1665259515939	0.6750713360524969
146.0	486.76668152803086	fix	2.0		60	attractiveness	012	2.0	2	-1.69	793.8415972876464	0.516810797740618
147.0	487.2834923257715	face	0.0		147	attractiveness	130	2.0	2		794.358408085387	1.2333969544561114
147.0	488.5168892802276	rating	1.0		1050	attractiveness	130	2.0	2		795.5918050398432	8.759361225003886
147.0	497.2762505052315	fix	2.0		60	attractiveness	130	2.0	2	-2.63	804.351166264847	0.516754350721385
148.0	497.79300485595286	face	0.0		147	attractiveness	092	2.0	2		804.8679206155684	1.2334558163220208
148.0	499.0264606722749	rating	1.0		59	attractiveness	092	2.0	2		806.1013764318905	0.5000662573311274
148.0	499.526526929606	fix	2.0		60	attractiveness	092	2.0	2	-2.1	806.6014426892216	0.5167422764934599
149.0	500.04326920609947	face	0.0		147	attractiveness	087	2.0	2		807.118184965715	1.2334573255993746
149.0	501.27672653169884	rating	1.0		249	attractiveness	087	2.0	2		808.3516422913144	2.0835811317247135
149.0	503.36030766342355	fix	2.0		60	attractiveness	087	2.0	2	1.7800000000000002	810.4352234230391	0.516745596905821
150.0	503.8770532603294	face	0.0		147	attractiveness	043	2.0	2		810.951969019945	1.2334666831266077
150.0	505.110519943456	rating	1.0		79	attractiveness	043	2.0	2		812.1854357030716	0.6667413256491272
150.0	505.7772612691051	fix	2.0		60	attractiveness	043	2.0	2	-1.4900000000000002	812.8521770287207	0.5167498228856857
151.0	506.2940110919908	face	0.0		147	attractiveness	121	2.0	2		813.3689268516064	1.233457023745359
151.0	507.52746811573616	rating	1.0		112	attractiveness	121	2.0	2		814.6023838753517	0.941770824496416
151.0	508.4692389402326	fix	2.0		61	attractiveness	121	2.0	2	-1.77	815.5441546998481	0.525083455560889
152.0	508.99432239579346	face	0.0		146	attractiveness	124	2.0	2		816.069238155409	1.225130635608366
152.0	510.2194530314018	rating	1.0		105	attractiveness	124	2.0	2		817.2943687910174	0.8834338865035534
152.0	511.1028869179054	fix	2.0		60	attractiveness	124	2.0	2	4.0	818.177802677521	0.5167519358765276
153.0	511.6196388537819	face	0.0		147	attractiveness	061	2.0	2		818.6945546133975	1.2334521940538252
153.0	512.8530910478357	rating	1.0		103	attractiveness	061	2.0	2		819.9280068074513	0.8667684322899731
153.0	513.7198594801257	fix	2.0		60	attractiveness	061	2.0	2	-1.17	820.7947752397413	0.5167477098966629
154.0	514.2366071900224	face	0.0		147	attractiveness	044	2.0	2		821.311522949638	1.2334639664259157
154.0	515.4700711564483	rating	1.0		79	attractiveness	044	2.0	2		822.5449869160639	0.6667370996674435
154.0	516.1368082561157	fix	2.0		60	attractiveness	044	2.0	2	0.9000000000000004	823.2117240157313	0.5167462006174901
155.0	516.6535544567332	face	0.0		147	attractiveness	006	2.0	2		823.7284702163488	1.2334612497252238
155.0	517.8870157064584	rating	1.0		62	attractiveness	006	2.0	2		824.961931466074	0.5250584015357163
155.0	518.4120741079942	fix	2.0		60	attractiveness	006	2.0	2	-1.2200000000000002	825.4869898676097	0.5167573692797305
156.0	518.9288314772739	face	0.0		147	attractiveness	036	2.0	2		826.0037472368895	1.233465777559104
156.0	520.162297254833	rating	1.0		58	attractiveness	036	2.0	2		827.2372130144486	0.4917163244481344
156.0	520.6540135792811	fix	2.0		60	attractiveness	036	2.0	2	-0.8199999999999998	827.7289293388967	0.5167440876284672
157.0	521.1707576669096	face	0.0		147	attractiveness	091	2.0	2		828.2456734265252	1.2334645701375848
157.0	522.4042222370472	rating	1.0		108	attractiveness	091	2.0	2		829.4791379966628	0.9084347845237062
157.0	523.3126570215709	fix	2.0		60	attractiveness	091	2.0	2	0.4400000000000004	830.3875727811865	0.5167534451557003
158.0	523.8294104667266	face	0.0		147	attractiveness	018	2.0	2		830.9043262263422	1.2334491754954797
158.0	525.0628596422221	rating	1.0		125	attractiveness	018	2.0	2		832.1377754018376	1.0501216327629663
158.0	526.112981274985	fix	2.0		60	attractiveness	018	2.0	2	0.4800000000000004	833.1878970346006	0.5167612934037606
159.0	526.6297425683888	face	0.0		147	attractiveness	024	2.0	2		833.7046583280044	1.233450382918818
159.0	527.8631929513076	rating	1.0		45	attractiveness	024	2.0	2		834.9381087109232	0.38337879783466633
159.0	528.2465717491423	fix	2.0		60	attractiveness	024	2.0	2	-1.2999999999999998	835.3214875087579	0.5000562960922252
160.0	528.7466280452345	cue	0.0		480						835.8215438048501	4.000467574507638
160.0	532.7470956197421	fix	1.0		120						839.8220113793577	1.0168151746493095
160.0	533.7639107943914	face	0.0		147	dominance	018	2.0	2		840.838826554007	1.233459136734382
160.0	534.9973699311258	rating	1.0		163	dominance	018	2.0	2		842.0722856907414	1.3668192949789955
160.0	536.3641892261048	fix	2.0		60	dominance	018	2.0	2	0.7199999999999998	843.4391049857204	0.516748313608332
161.0	536.8809375397132	face	0.0		147	dominance	030	2.0	2		843.9558532993287	1.2334678905499459
161.0	538.1144054302631	rating	1.0		64	dominance	030	2.0	2		845.1893211898787	0.5417202334792819
161.0	538.6561256637424	fix	2.0		60	dominance	030	2.0	2	-1.2799999999999998	845.731041423358	0.5167513321648585
162.0	539.1728769959072	face	0.0		147	dominance	005	2.0	2		846.2477927555228	1.2334579293128627
162.0	540.4063349252201	rating	1.0		78	dominance	005	2.0	2		847.4812506848357	0.6584085985414276
162.0	541.0647435237615	fix	2.0		60	dominance	005	2.0	2	-2.01	848.1396592833771	0.5167498228856857
163.0	541.5814933466472	face	0.0		147	dominance	130	2.0	2		848.6564091062628	1.233462457148562
163.0	542.8149558037958	rating	1.0		113	dominance	130	2.0	2		849.8898715634114	0.9501120035638451
163.0	543.7650678073596	fix	2.0		60	dominance	130	2.0	2	-1.65	850.8399835669752	0.5167519358765276
164.0	544.2818197432362	face	0.0		147	dominance	172	2.0	2		851.3567355028517	1.2334561181778554
164.0	545.515275861414	rating	1.0		97	dominance	172	2.0	2		852.5901916210296	0.8167584861439536
164.0	546.332034347558	fix	2.0		60	dominance	172	2.0	2	2.8200000000000003	853.4069501071735	0.5167534451557003
165.0	546.8487877927137	face	0.0		147	dominance	121	2.0	2		853.9237035523292	1.2334546088986826
165.0	548.0822424016123	rating	1.0		158	dominance	121	2.0	2		855.1571581612279	1.3251550557361043
165.0	549.4073974573485	fix	2.0		60	dominance	121	2.0	2	0.5599999999999996	856.482313216964	0.5167522377323621
166.0	549.9241496950808	face	0.0		147	dominance	141	2.0	2		856.9990654546964	1.2334488736396452
166.0	551.1575985687205	rating	1.0		71	dominance	141	2.0	2		858.232514328336	0.6000779995192715
166.0	551.7576765682397	fix	2.0		60	dominance	141	2.0	2	-1.85	858.8325923278553	0.5167413709259563
167.0	552.2744179391657	face	0.0		147	dominance	117	2.0	2		859.3493336987813	1.23345702374354
167.0	553.5078749629092	rating	1.0		60	dominance	117	2.0	2		860.5827907225248	0.5083932491779706
167.0	554.0162682120872	fix	2.0		60	dominance	117	2.0	2	1.1399999999999997	861.0911839717028	0.5167504265973548
168.0	554.5330186386846	face	0.0		147	dominance	124	2.0	2		861.6079343983001	1.2334576274570281
168.0	555.7664762661416	rating	1.0		61	dominance	124	2.0	2		862.8413920257572	0.5167323152545578
168.0	556.2832085813961	fix	2.0		60	dominance	124	2.0	2	0.9199999999999999	863.3581243410117	0.5167498228856857
169.0	556.7999584042818	face	0.0		147	dominance	009	2.0	2		863.8748741638974	1.2334518921979907
169.0	558.0334102964798	rating	1.0		161	dominance	009	2.0	2		865.1083260560954	1.3501544444789033
169.0	559.3835647409587	fix	2.0		61	dominance	009	2.0	2	1.1100000000000003	866.4584805005743	0.5250934167979722
170.0	559.9086581577567	face	0.0		146	dominance	038	2.0	2		866.9835739173723	1.2251167502454336
170.0	561.1337749080021	rating	1.0		87	dominance	038	2.0	2		868.2086906676177	0.7334170278627425
170.0	561.8671919358649	fix	2.0		60	dominance	038	2.0	2	-1.56	868.9421076954804	0.5167519358765276
171.0	562.3839438717414	face	0.0		147	dominance	092	2.0	2		869.458859631357	1.2334600423018856
171.0	563.6174039140433	rating	1.0		70	dominance	092	2.0	2		870.6923196736589	0.5917374241616926
171.0	564.209141338205	fix	2.0		60	dominance	092	2.0	2	1.5999999999999996	871.2840570978206	0.5167474080408283
172.0	564.7258887462458	face	0.0		147	dominance	101	2.0	2		871.8008045058614	1.233459740446051
172.0	565.9593484866919	rating	1.0		75	dominance	101	2.0	2		873.0342642463074	0.6334004559830646
172.0	566.5927489426749	fix	2.0		60	dominance	101	2.0	2	1.2300000000000004	873.6676647022905	0.516757671135565
173.0	567.1095066138105	face	0.0		147	dominance	062	2.0	2		874.1844223734261	1.2334494773513143
173.0	568.3429560911618	rating	1.0		59	dominance	062	2.0	2		875.4178718507774	0.5000641443402856
173.0	568.8430202355021	fix	2.0		60	dominance	062	2.0	2	0.9199999999999999	875.9179359951177	0.516751634020693
174.0	569.3597718695228	face	0.0		147	dominance	100	2.0	2		876.4346876291384	1.233457023745359
174.0	570.5932288932681	rating	1.0		100	dominance	100	2.0	2		877.6681446528837	0.841763006434121
174.0	571.4349918997023	fix	2.0		60	dominance	100	2.0	2	-1.6400000000000001	878.5099076593178	0.5167468043291592
175.0	571.9517387040314	face	0.0		147	dominance	012	2.0	2		879.026654463647	1.2334546088986826
175.0	573.1851933129301	rating	1.0		103	dominance	012	2.0	2		880.2601090725457	0.8667672248684539
175.0	574.0519605377985	fix	2.0		60	dominance	012	2.0	2	2.87	881.1268762974141	0.516757671135565
176.0	574.5687182089341	face	0.0		147	dominance	102	2.0	2		881.6436339685497	1.2334567218877055
176.0	575.8021749308218	rating	1.0		294	dominance	102	2.0	2		882.8770906904374	2.4586136189464014
176.0	578.2607885497682	fix	2.0		60	dominance	102	2.0	2	0.96	885.3357043093838	0.5167519358765276
177.0	578.7775404856447	face	0.0		147	dominance	091	2.0	2		885.8524562452603	1.2334618534350739
177.0	580.0110023390798	rating	1.0		220	dominance	091	2.0	2		887.0859180986954	1.8418828431549628
177.0	581.8528851822348	fix	2.0		60	dominance	091	2.0	2	-1.5299999999999998	888.9278009418504	0.5167501247415203
178.0	582.3696353069763	face	0.0		147	dominance	137	2.0	2		889.4445510665919	1.2334497792089678
178.0	583.6030850861853	rating	1.0		126	dominance	137	2.0	2		890.6780008458009	1.0584561710020353
178.0	584.6615412571873	fix	2.0		60	dominance	137	2.0	2	1.2300000000000004	891.7364570168029	0.5167588785570842
179.0	585.1783001357444	face	0.0		147	dominance	043	2.0	2		892.25321589536	1.2334576274570281
179.0	586.4117577632014	rating	1.0		43	dominance	043	2.0	2		893.486673522817	0.36670670279636397
179.0	586.7784644659978	fix	2.0		60	dominance	043	2.0	2	1.12	893.8533802256134	0.5167437857726327
180.0	587.2952082517704	face	0.0		147	dominance	082	2.0	2		894.370124011386	1.233465173849254
180.0	588.5286734256197	rating	1.0		165	dominance	082	2.0	2		895.6035891852353	1.3834907863056287
180.0	589.9121642119253	fix	2.0		60	dominance	082	2.0	2	1.2599999999999998	896.9870799715409	0.5167465024733247
181.0	590.4289107143986	face	0.0		147	dominance	034	2.0	2		897.5038264740142	1.2334648719934194
181.0	591.662375586392	rating	1.0		175	dominance	034	2.0	2		898.7372913460076	1.4668379798495152
181.0	593.1292135662416	fix	2.0		60	dominance	034	2.0	2	1.6500000000000004	900.2041293258571	0.5167510303090239
182.0	593.6459645965506	face	0.0		147	dominance	144	2.0	2		900.7208803561662	1.233450986630487
182.0	594.8794155831811	rating	1.0		40	dominance	144	2.0	2		901.9543313427966	0.3417085214769031
182.0	595.221124104658	fix	2.0		60	dominance	144	2.0	2	-1.1400000000000001	902.2960398642736	0.5167474080408283
183.0	595.7378715126988	face	0.0		147	dominance	066	2.0	2		902.8127872723144	1.233465173849254
183.0	596.971336686548	rating	1.0		65	dominance	066	2.0	2		904.0462524461636	0.5500614125467109
183.0	597.5213980990948	fix	2.0		60	dominance	066	2.0	2	1.1600000000000001	904.5963138587103	0.5167495210298512
184.0	598.0381476201246	face	0.0		147	dominance	064	2.0	2		905.1130633797402	1.2334506847746525
184.0	599.2715983048993	rating	1.0		80	dominance	064	2.0	2		906.3465140645148	0.6750770713115344
184.0	599.9466753762108	fix	2.0		60	dominance	064	2.0	2	-1.7400000000000002	907.0215911358264	0.5167531432980468
185.0	600.4634285195089	face	0.0		147	dominance	061	2.0	2		907.5383442791244	1.233454307044667
185.0	601.6968828265535	rating	1.0		298	dominance	061	2.0	2		908.7717985861691	2.491965355415232
185.0	604.1888481819688	fix	2.0		60	dominance	061	2.0	2	1.3600000000000003	911.2637639415843	0.5167513321648585
186.0	604.7055995141336	face	0.0		147	dominance	039	2.0	2		911.7805152737492	1.2334558163220208
186.0	605.9390553304556	rating	1.0		59	dominance	039	2.0	2		913.0139710900712	0.5000572016579099
186.0	606.4391125321135	fix	2.0		60	dominance	039	2.0	2	1.0599999999999996	913.5140282917291	0.5167513321648585
187.0	606.9558638642784	face	0.0		147	dominance	033	2.0	2		914.030779623894	1.2334576274570281
187.0	608.1893214917354	rating	1.0		465	dominance	033	2.0	2		915.264237251351	3.8837810205805
187.0	612.0731025123159	fix	2.0		60	dominance	033	2.0	2	1.7000000000000002	919.1480182719315	0.5167621989694453
188.0	612.5898647112854	face	0.0		147	dominance	136	2.0	2		919.664780470901	1.2334552126103517
188.0	613.8233199238957	rating	1.0		42	dominance	136	2.0	2		920.8982356835113	0.3583625051742274
188.0	614.18168242907	fix	2.0		60	dominance	136	2.0	2	1.4900000000000002	921.2565981886855	0.5167549544330541
189.0	614.698437383503	face	0.0		147	dominance	070	2.0	2		921.7733531431186	1.2334549107545172
189.0	615.9318922942575	rating	1.0		83	dominance	070	2.0	2		923.0068080538731	0.7000818934557174
189.0	616.6319741877132	fix	2.0		61	dominance	070	2.0	2	3.0300000000000002	923.7068899473288	0.5250858704057464
190.0	617.157060058119	face	0.0		146	dominance	099	2.0	2		924.2319758177346	1.2251285226193431
190.0	618.3821885807383	rating	1.0		56	dominance	099	2.0	2		925.4571043403539	0.47504905909954687
190.0	618.8572376398379	fix	2.0		60	dominance	099	2.0	2	0.8899999999999997	925.9321533994535	0.5167510303090239
191.0	619.3739886701469	face	0.0		147	dominance	036	2.0	2		926.4489044297625	1.2334615515810583
191.0	620.607450221728	rating	1.0		50	dominance	036	2.0	2		927.6823659813435	0.42503971666701545
191.0	621.032489938395	fix	2.0		60	dominance	036	2.0	2	-1.2200000000000002	928.1074056980106	0.5167528414422122
192.0	621.5492427798372	face	0.0		147	dominance	042	2.0	2		928.6241585394528	1.2334576274570281
192.0	622.7827004072942	rating	1.0		58	dominance	042	2.0	2		929.8576161669098	0.4917305116669013
192.0	623.2744309189611	fix	2.0		61	dominance	042	2.0	2	2.42	930.3493466785767	0.5250765128785133
193.0	623.7995074318396	face	0.0		146	dominance	024	2.0	2		930.8744231914552	1.2251224855026521
193.0	625.0246299173423	rating	1.0		53	dominance	024	2.0	2		932.0995456769579	0.45005782046428067
193.0	625.4746877378066	fix	2.0		60	dominance	024	2.0	2	-1.5899999999999999	932.5496034974221	0.5167492191740166
194.0	625.9914369569806	face	0.0		147	dominance	011	2.0	2		933.0663527165962	1.233459136734382
194.0	627.224896093715	rating	1.0		102	dominance	011	2.0	2		934.2998118533305	0.8584233291003329
194.0	628.0833194228153	fix	2.0		60	dominance	011	2.0	2	-0.7000000000000002	935.1582351824309	0.516760387836257
195.0	628.6000798106516	face	0.0		147	dominance	006	2.0	2		935.6749955702671	1.233459136736201
195.0	629.8335389473878	rating	1.0		232	dominance	006	2.0	2		936.9084547070033	1.941889755649754
195.0	631.7754287030375	fix	2.0		60	dominance	006	2.0	2	-2.19	938.8503444626531	0.516745596905821
196.0	632.2921742999433	face	0.0		147	dominance	126	2.0	2		939.3670900595589	1.233457023745359
196.0	633.5256313236887	rating	1.0		46	dominance	126	2.0	2		940.6005470833043	0.39170971380735864
196.0	633.917341037496	fix	2.0		60	dominance	126	2.0	2	1.2000000000000002	940.9922567971116	0.5167498228875047
197.0	634.4340908603835	face	0.0		147	dominance	087	2.0	2		941.5090066199991	1.2334666831266077
197.0	635.6675575435102	rating	1.0		75	dominance	087	2.0	2		942.7424733031257	0.6334037763972447
197.0	636.3009613199074	fix	2.0		59	dominance	087	2.0	2	-0.98	943.375877079523	0.5167513321648585
198.0	636.8177126520723	face	0.0		147	dominance	044	2.0	2		943.8926284116878	1.2334512884845026
198.0	638.0511639405568	rating	1.0		65	dominance	044	2.0	2		945.1260797001723	0.5500716756414477
198.0	638.6012356161982	fix	2.0		60	dominance	044	2.0	2	1.4100000000000001	945.6761513758138	0.5167425783492945
199.0	639.1179781945475	face	0.0		147	dominance	027	2.0	2		946.1928939541631	1.233465777560923
199.0	640.3514439721084	rating	1.0		42	dominance	027	2.0	2		947.426359731724	0.35836914599713054
199.0	640.7098131181056	fix	2.0		60	dominance	027	2.0	2	1.4900000000000002	947.7847288777211	0.5000629369187664
200.0	641.2098760550243	cue	0.0		480						948.2847918146399	4.000503193481563
200.0	645.2103792485059	fix	1.0		120						952.2852950081215	1.0167741222721816
200.0	646.2271533707781	face	0.0		147	trustworthiness	141	2.0	2		953.3020691303936	1.2334582311668782
200.0	647.460611601945	rating	1.0		123	trustworthiness	141	2.0	2		954.5355273615605	1.0334450098871457
200.0	648.4940566118321	fix	2.0		60	trustworthiness	141	2.0	2	-1.83	955.5689723714477	0.5167546525790385
201.0	649.0108112644111	face	0.0		147	trustworthiness	172	2.0	2		956.0857270240267	1.23346034415772
201.0	650.2442716085689	rating	1.0		71	trustworthiness	172	2.0	2		957.3191873681844	0.6000692457018886
201.0	650.8443408542707	fix	2.0		60	trustworthiness	172	2.0	2	-2.99	957.9192566138863	0.5167513321648585
202.0	651.3610921864356	face	0.0		147	trustworthiness	064	2.0	2		958.4360079460512	1.2334600423018856
202.0	652.5945522287375	rating	1.0		65	trustworthiness	064	2.0	2		959.6694679883531	0.5500611106890574
202.0	653.1446133394265	fix	2.0		60	trustworthiness	064	2.0	2	1.12	960.2195290990421	0.5167431820609636
203.0	653.6613565214875	face	0.0		147	trustworthiness	030	2.0	2		960.7362722811031	1.2334642682817503
203.0	654.8948207897693	rating	1.0		59	trustworthiness	030	2.0	2		961.9697365493848	0.5000602202162554
203.0	655.3948810099855	fix	2.0		60	trustworthiness	030	2.0	2	2.17	962.4697967696011	0.5167407672142872
204.0	655.9116217771998	face	0.0		147	trustworthiness	042	2.0	2		962.9865375368154	1.233463060860231
204.0	657.14508483806	rating	1.0		47	trustworthiness	042	2.0	2		964.2200005976756	0.40003761122170545
204.0	657.5451224492817	fix	2.0		60	trustworthiness	042	2.0	2	-2.25	964.6200382088973	0.5167606896920915
205.0	658.0618831389738	face	0.0		147	trustworthiness	044	2.0	2		965.1367988985894	1.2334573256011936
205.0	659.295340464575	rating	1.0		46	trustworthiness	044	2.0	2		966.3702562241906	0.391708808239855
205.0	659.6870492728149	fix	2.0		60	trustworthiness	044	2.0	2	1.33	966.7619650324305	0.5167519358765276
206.0	660.2038012086914	face	0.0		147	trustworthiness	012	2.0	2		967.278716968307	1.2334549107545172
206.0	661.4372561194459	rating	1.0		62	trustworthiness	012	2.0	2		968.5121718790615	0.5250629293714155
206.0	661.9623190488173	fix	2.0		60	trustworthiness	012	2.0	2	-1.77	969.0372348084329	0.5168056661932496
207.0	662.4791247150106	face	0.0		147	trustworthiness	061	2.0	2		969.5540404746262	1.2334026897151489
207.0	663.7125274047257	rating	1.0		47	trustworthiness	061	2.0	2		970.7874431643413	0.40004183720338915
207.0	664.1125692419291	fix	2.0		60	trustworthiness	061	2.0	2	1.0999999999999996	971.1874850015447	0.516742880205129
208.0	664.6293121221343	face	0.0		147	trustworthiness	130	2.0	2		971.7042278817498	1.2334663812707731
208.0	665.862778503405	rating	1.0		54	trustworthiness	130	2.0	2		972.9376942630206	0.4583863215902966
208.0	666.3211648249953	fix	2.0		60	trustworthiness	130	2.0	2	-2.1	973.3960805846109	0.5167510303090239
209.0	666.8379158553043	face	0.0		147	trustworthiness	034	2.0	2		973.9128316149199	1.2334506847746525
209.0	668.071366540079	rating	1.0		161	trustworthiness	034	2.0	2		975.1462822996946	1.3501571611795953
209.0	669.4215237012586	fix	2.0		60	trustworthiness	034	2.0	2	0.71	976.4964394608742	0.5167564637122268
210.0	669.9382801649708	face	0.0		147	trustworthiness	043	2.0	2		977.0131959245864	1.233459740446051
210.0	671.1717399054169	rating	1.0		43	trustworthiness	043	2.0	2		978.2466556650324	0.36670428795150656
210.0	671.5384441933684	fix	2.0		60	trustworthiness	043	2.0	2	-1.8900000000000001	978.613359952984	0.5167492191740166
211.0	672.0551934125424	face	0.0		147	trustworthiness	009	2.0	2		979.130109172158	1.2334627590043965
211.0	673.2886561715468	rating	1.0		37	trustworthiness	009	2.0	2		980.3635719311624	0.3166976622178481
211.0	673.6053538337646	fix	2.0		60	trustworthiness	009	2.0	2	-1.02	980.6802695933802	0.5167449931941519
212.0	674.1220988269588	face	0.0		147	trustworthiness	121	2.0	2		981.1970145865744	1.2334600423018856
212.0	675.3555588692607	rating	1.0		53	trustworthiness	121	2.0	2		982.4304746288763	0.45004755736772495
212.0	675.8056064266284	fix	2.0		60	trustworthiness	121	2.0	2	-1.2200000000000002	982.880522186244	0.5167600859822414
213.0	676.3223665126106	face	0.0		147	trustworthiness	099	2.0	2		983.3972822722262	1.2334555144661863
213.0	677.5558220270768	rating	1.0		52	trustworthiness	099	2.0	2		984.6307377866924	0.4417118117034988
213.0	677.9975338387803	fix	2.0		60	trustworthiness	099	2.0	2	1.2400000000000002	985.0724495983959	0.516745596905821
214.0	678.5142794356861	face	0.0		147	trustworthiness	070	2.0	2		985.5891951953017	1.2334600423037045
214.0	679.7477394779899	rating	1.0		155	trustworthiness	070	2.0	2		986.8226552376054	1.300151139157606
214.0	681.0478906171475	fix	2.0		60	trustworthiness	070	2.0	2	-1.27	988.122806376763	0.516751634020693
215.0	681.5646422511682	face	0.0		147	trustworthiness	101	2.0	2		988.6395580107837	1.2334576274552091
215.0	682.7980998786234	rating	1.0		37	trustworthiness	101	2.0	2		989.8730156382389	0.3167000770645245
215.0	683.1147999556879	fix	2.0		60	trustworthiness	101	2.0	2	0.9100000000000001	990.1897157153035	0.5167975160893548
216.0	683.6315974717772	face	0.0		147	trustworthiness	100	2.0	2		990.7065132313928	1.2334183862130885
216.0	684.8650158579903	rating	1.0		47	trustworthiness	100	2.0	2		991.9399316176059	0.40004364833657746
216.0	685.2650595063269	fix	2.0		60	trustworthiness	100	2.0	2	1.5499999999999998	992.3399752659425	0.5167513321648585
217.0	685.7818108384918	face	0.0		147	trustworthiness	137	2.0	2		992.8567265981073	1.2334530996213289
217.0	687.0152639381131	rating	1.0		88	trustworthiness	137	2.0	2		994.0901796977287	0.7417500568244577
217.0	687.7570139949376	fix	2.0		60	trustworthiness	137	2.0	2	-1.13	994.8319297545531	0.5167498228856857
218.0	688.2737638178232	face	0.0		147	trustworthiness	102	2.0	2		995.3486795774388	1.2335023021023517
218.0	689.5072661199256	rating	1.0		96	trustworthiness	102	2.0	2		996.5821818795412	0.8083822918160877
218.0	690.3156484117417	fix	2.0		60	trustworthiness	102	2.0	2	0.7800000000000002	997.3905641713573	0.5167504265973548
219.0	690.832398838339	face	0.0		147	trustworthiness	024	2.0	2		997.9073145979546	1.2334579293110437
219.0	692.0658567676501	rating	1.0		95	trustworthiness	024	2.0	2		999.1407725272657	0.8000990690470644
219.0	692.8659558366971	fix	2.0		60	trustworthiness	024	2.0	2	-2.23	999.9408715963127	0.5167440876284672
220.0	693.3826999243256	face	0.0		147	trustworthiness	117	2.0	2		1000.4576156839412	1.2335089429270738
220.0	694.6162088672527	rating	1.0		110	trustworthiness	117	2.0	2		1001.6911246268683	0.9250555640919629
220.0	695.5412644313446	fix	2.0		60	trustworthiness	117	2.0	2	-1.9500000000000002	1002.6161801909602	0.5167492191740166
221.0	696.0580136505187	face	0.0		147	trustworthiness	136	2.0	2		1003.1329294101342	1.2334663812725921
221.0	697.2914800317913	rating	1.0		206	trustworthiness	136	2.0	2		1004.3663957914068	1.7251993077843508
221.0	699.0166793395756	fix	2.0		60	trustworthiness	136	2.0	2	-2.1	1006.0915950991912	0.5167477098966629
222.0	699.5334270494723	face	0.0		147	trustworthiness	038	2.0	2		1006.6083428090878	1.2334558163220208
222.0	700.7668828657943	rating	1.0		104	trustworthiness	038	2.0	2		1007.8417986254099	0.8751337598150712
222.0	701.6420166256094	fix	2.0		60	trustworthiness	038	2.0	2	1.4000000000000004	1008.7169323852249	0.5167169206124527
223.0	702.1587335462218	face	0.0		147	trustworthiness	126	2.0	2		1009.2336493058374	1.2334666831284267
223.0	703.3922002293502	rating	1.0		62	trustworthiness	126	2.0	2		1010.4671159889658	0.5250490440084832
223.0	703.9172492733587	fix	2.0		60	trustworthiness	126	2.0	2	1.2999999999999998	1010.9921650329743	0.5167570674220769
224.0	704.4340063407808	face	0.0		147	trustworthiness	062	2.0	2		1011.5089221003964	1.233459136736201
224.0	705.667465477517	rating	1.0		65	trustworthiness	062	2.0	2		1012.7423812371326	0.5500538661526662
224.0	706.2175193436697	fix	2.0		60	trustworthiness	062	2.0	2	-1.73	1013.2924351032852	0.516757671133746
225.0	706.7342770148034	face	0.0		147	trustworthiness	091	2.0	2		1013.809192774419	1.2334518921979907
225.0	707.9677289070014	rating	1.0		173	trustworthiness	091	2.0	2		1015.042644666617	1.450169205223574
225.0	709.417898112225	fix	2.0		60	trustworthiness	091	2.0	2	-1.48	1016.4928138718406	0.5167507284531894
226.0	709.9346488406782	face	0.0		147	trustworthiness	011	2.0	2		1017.0095646002937	1.233457023745359
226.0	711.1681058644235	rating	1.0		107	trustworthiness	011	2.0	2		1018.2430216240391	0.9001014537061565
226.0	712.0682073181297	fix	2.0		60	trustworthiness	011	2.0	2	-1.75	1019.1431230777453	0.5167585767030687
227.0	712.5849658948327	face	0.0		147	trustworthiness	082	2.0	2		1019.6598816544483	1.2334497792071488
227.0	713.8184156740399	rating	1.0		44	trustworthiness	082	2.0	2		1020.8933314336555	0.37505059856448497
227.0	714.1934662726044	fix	2.0		61	trustworthiness	082	2.0	2	0.7800000000000002	1021.26838203222	0.5250903982414457
228.0	714.7185566708458	face	0.0		146	trustworthiness	033	2.0	2		1021.7934724304614	1.225118561380441
228.0	715.9436752322263	rating	1.0		81	trustworthiness	033	2.0	2		1023.0185909918418	0.6834088928499114
228.0	716.6270841250762	fix	2.0		60	trustworthiness	033	2.0	2	-2.24	1023.7019998846918	0.5167462006174901
229.0	717.1438303256937	face	0.0		147	trustworthiness	005	2.0	2		1024.2187460853092	1.2334576274570281
229.0	718.3772879531507	rating	1.0		154	trustworthiness	005	2.0	2		1025.4522037127663	1.2918153934933798
229.0	719.6691033466441	fix	2.0		60	trustworthiness	005	2.0	2	-3.17	1026.7440191062597	0.5167609915479261
230.0	720.185864338192	face	0.0		147	trustworthiness	027	2.0	2		1027.2607800978076	1.2334494773513143
230.0	721.4193138155433	rating	1.0		78	trustworthiness	027	2.0	2		1028.494229575159	0.6584143338004651
230.0	722.0777281493438	fix	2.0		60	trustworthiness	027	2.0	2	1.4500000000000002	1029.1526439089594	0.5167549544330541
231.0	722.5944831037768	face	0.0		147	trustworthiness	144	2.0	2		1029.6693988633924	1.233453703332998
231.0	723.8279368071098	rating	1.0		125	trustworthiness	144	2.0	2		1030.9028525667254	1.0501216327611473
231.0	724.878058439871	fix	2.0		60	trustworthiness	144	2.0	2	1.2599999999999998	1031.9529741994866	0.5167534451557003
232.0	725.3948118850267	face	0.0		147	trustworthiness	018	2.0	2		1032.4697276446423	1.2334546088986826
232.0	726.6282664939254	rating	1.0		81	trustworthiness	018	2.0	2		1033.703182253541	0.6834052705817157
232.0	727.3116717645071	fix	2.0		60	trustworthiness	018	2.0	2	-1.4	1034.3865875241227	0.5167498228856857
233.0	727.8284215873928	face	0.0		147	trustworthiness	066	2.0	2		1034.9033373470083	1.2334561181778554
233.0	729.0618777055706	rating	1.0		91	trustworthiness	066	2.0	2		1036.1367934651862	0.7667554826803098
233.0	729.8286331882509	fix	2.0		60	trustworthiness	066	2.0	2	1.5599999999999996	1036.9035489478665	0.5167495210316702
234.0	730.3453827092826	face	0.0		147	trustworthiness	087	2.0	2		1037.4202984688982	1.2334585330227128
234.0	731.5788412423053	rating	1.0		90	trustworthiness	087	2.0	2		1038.653757001921	0.7584306038224895
234.0	732.3372718461278	fix	2.0		60	trustworthiness	087	2.0	2	1.25	1039.4121876057434	0.5167425783492945
235.0	732.8540144244771	face	0.0		147	trustworthiness	092	2.0	2		1039.9289301840927	1.233463060860231
235.0	734.0874774853373	rating	1.0		220	trustworthiness	092	2.0	2		1041.162393244953	1.8418795227407827
235.0	735.9293570080781	fix	2.0		60	trustworthiness	092	2.0	2	-1.19	1043.0042727676937	0.5167510303090239
236.0	736.4461080383871	face	0.0		147	trustworthiness	039	2.0	2		1043.5210237980027	1.233453703332998
236.0	737.6795617417201	rating	1.0		345	trustworthiness	039	2.0	2		1044.7544775013357	2.883674163655087
236.0	740.5632359053752	fix	2.0		60	trustworthiness	039	2.0	2	1.5999999999999996	1047.6381516649908	0.5167443894843018
237.0	741.0799802948595	face	0.0		147	trustworthiness	124	2.0	2		1048.154896054475	1.2334600423018856
237.0	742.3134403371614	rating	1.0		86	trustworthiness	124	2.0	2		1049.388356096777	0.7250833951875393
237.0	743.038523732349	fix	2.0		60	trustworthiness	124	2.0	2	2.24	1050.1134394919645	0.5167504265991738
238.0	743.5552741589481	face	0.0		147	trustworthiness	036	2.0	2		1050.6301899185637	1.2334639664259157
238.0	744.788738125374	rating	1.0		410	trustworthiness	036	2.0	2		1051.8636538849896	3.4254001323934062
238.0	748.2141382577674	fix	2.0		60	trustworthiness	036	2.0	2	0.6200000000000001	1055.289054017383	0.5167437857726327
239.0	748.7308820435401	face	0.0		147	trustworthiness	006	2.0	2		1055.8057978031557	1.2334573255993746
239.0	749.9643393691395	rating	1.0		62	trustworthiness	006	2.0	2		1057.039255128755	0.5250647405064228
239.0	750.4894041096459	fix	2.0		60	trustworthiness	006	2.0	2	1.0099999999999998	1057.5643198692615	0.5000587109370827
