trial_nr	onset	event_type	phase	response	nr_frames	face_age	face_sex	face_eth	attractiveness	expression	face_id	sub_id	ses	run	trial_type	catch	rating_type	onset_abs	duration
-1.0	0.059468717427080264	fix	0.0		713													22.444744421041833	5.957950719788641
-1.0	0.7009747797274031	pulse	0.0	t														23.086250483342155	
-1.0	1.400989963025495	pulse	0.0	t														23.786265666640247	
-1.0	2.1009408512472874	pulse	0.0	t														24.48621655486204	
-1.0	2.8009463751914154	pulse	0.0	t														25.186222078806168	
-1.0	3.500914770993404	pulse	0.0	t														25.886190474608156	
-1.0	4.200906409616437	pulse	0.0	t														26.58618211323119	
-1.0	4.9011229300667765	pulse	0.0	t														27.28639863368153	
-1.0	5.600882140486647	pulse	0.0	t														27.9861578441014	
0.0	6.017419437215722	face	0.0		144	25.0	female	west_asian	2.6756864305610826	smiling	064	sub-06	1.0	6.0	064_smiling	0.0		28.402695140830474	1.2333026749474811
0.0	6.300863516047684	pulse	0.0	t		25.0	female	west_asian	2.6756864305610826	smiling	064	sub-06	1.0	6.0	064_smiling	0.0		28.686139219662437	
0.0	7.000843986039399	pulse	0.0	t		25.0	female	west_asian	2.6756864305610826	smiling	064	sub-06	1.0	6.0	064_smiling	0.0		29.38611968965415	
0.0	7.250722112163203	fix	1.0		445	25.0	female	west_asian	2.6756864305610826	smiling	064	sub-06	1.0	6.0	064_smiling	0.0		29.635997815777955	3.7582532386732055
0.0	7.700831096841284	pulse	1.0	t		25.0	female	west_asian	2.6756864305610826	smiling	064	sub-06	1.0	6.0	064_smiling	0.0		30.086106800456037	
0.0	8.400820320624916	pulse	1.0	t		25.0	female	west_asian	2.6756864305610826	smiling	064	sub-06	1.0	6.0	064_smiling	0.0		30.78609602423967	
0.0	9.100794451667753	pulse	1.0	t		25.0	female	west_asian	2.6756864305610826	smiling	064	sub-06	1.0	6.0	064_smiling	0.0		31.486070155282505	
0.0	9.800779449484253	pulse	1.0	t		25.0	female	west_asian	2.6756864305610826	smiling	064	sub-06	1.0	6.0	064_smiling	0.0		32.186055153099005	
0.0	10.500774106651079	pulse	1.0	t		25.0	female	west_asian	2.6756864305610826	smiling	064	sub-06	1.0	6.0	064_smiling	0.0		32.88604981026583	
1.0	11.008975350836408	face	0.0		146	40.0	male	black	2.408674890569041	neutral	061	sub-06	1.0	6.0	061_neutral	0.0		33.39425105445116	1.2416429232725932
1.0	11.200770574952912	pulse	0.0	t		40.0	male	black	2.408674890569041	neutral	061	sub-06	1.0	6.0	061_neutral	0.0		33.586046278567665	
1.0	11.90074289486438	pulse	0.0	t		40.0	male	black	2.408674890569041	neutral	061	sub-06	1.0	6.0	061_neutral	0.0		34.28601859847913	
1.0	12.250618274109002	fix	1.0		445	40.0	male	black	2.408674890569041	neutral	061	sub-06	1.0	6.0	061_neutral	0.0		34.635893977723754	3.7582538423848746
1.0	12.60072910010058	pulse	1.0	t		40.0	male	black	2.408674890569041	neutral	061	sub-06	1.0	6.0	061_neutral	0.0		34.98600480371533	
1.0	13.300711984931695	pulse	1.0	t		40.0	male	black	2.408674890569041	neutral	061	sub-06	1.0	6.0	061_neutral	0.0		35.68598768854645	
1.0	14.000695775328495	pulse	1.0	t		40.0	male	black	2.408674890569041	neutral	061	sub-06	1.0	6.0	061_neutral	0.0		36.38597147894325	
1.0	14.700675943469832	pulse	1.0	t		40.0	male	black	2.408674890569041	neutral	061	sub-06	1.0	6.0	061_neutral	0.0		37.085951647084585	
1.0	15.400674524753413	pulse	1.0	t		40.0	male	black	2.408674890569041	neutral	061	sub-06	1.0	6.0	061_neutral	0.0		37.785950228368165	
2.0	16.008872116493876	face	0.0		146	36.0	female	white	2.7548746518105847	smiling	011	sub-06	1.0	6.0	011_smiling	0.0		38.39414782010863	1.2416432251266087
2.0	16.100656504018843	pulse	0.0	t		36.0	female	white	2.7548746518105847	smiling	011	sub-06	1.0	6.0	011_smiling	0.0		38.485932207633596	
2.0	16.800633955466765	pulse	0.0	t		36.0	female	white	2.7548746518105847	smiling	011	sub-06	1.0	6.0	011_smiling	0.0		39.18590965908152	
2.0	17.250515341620485	fix	1.0		445	36.0	female	white	2.7548746518105847	smiling	011	sub-06	1.0	6.0	011_smiling	0.0		39.63579104523524	3.758252333111159
2.0	17.50062861263723	pulse	1.0	t		36.0	female	white	2.7548746518105847	smiling	011	sub-06	1.0	6.0	011_smiling	0.0		39.88590431625198	
2.0	18.20059640472755	pulse	1.0	t		36.0	female	white	2.7548746518105847	smiling	011	sub-06	1.0	6.0	011_smiling	0.0		40.5858721083423	
2.0	18.900616115846788	pulse	1.0	t		36.0	female	white	2.7548746518105847	smiling	011	sub-06	1.0	6.0	011_smiling	0.0		41.28589181946154	
2.0	19.60057183374738	pulse	1.0	t		36.0	female	white	2.7548746518105847	smiling	011	sub-06	1.0	6.0	011_smiling	0.0		41.98584753736213	
2.0	20.300547474063933	pulse	1.0	t		36.0	female	white	2.7548746518105847	smiling	011	sub-06	1.0	6.0	011_smiling	0.0		42.685823177678685	
3.0	21.008767674731644	face	0.0		147	24.0	female	east_asian	4.409868682849185	smiling	030	sub-06	1.0	6.0	030_smiling	0.0		43.394043378346396	1.241642319560924
3.0	21.016091577919724	pulse	0.0	t		24.0	female	east_asian	4.409868682849185	smiling	030	sub-06	1.0	6.0	030_smiling	0.0		43.401367281534476	
3.0	21.70054312735374	pulse	0.0	t		24.0	female	east_asian	4.409868682849185	smiling	030	sub-06	1.0	6.0	030_smiling	0.0		44.08581883096849	
3.0	22.250409994292568	fix	1.0		444	24.0	female	east_asian	4.409868682849185	smiling	030	sub-06	1.0	6.0	030_smiling	0.0		44.63568569790732	3.75825293681919
3.0	22.40053567153882	pulse	1.0	t		24.0	female	east_asian	4.409868682849185	smiling	030	sub-06	1.0	6.0	030_smiling	0.0		44.78581137515357	
3.0	23.10051131185901	pulse	1.0	t		24.0	female	east_asian	4.409868682849185	smiling	030	sub-06	1.0	6.0	030_smiling	0.0		45.48578701547376	
3.0	23.800477896529628	pulse	1.0	t		24.0	female	east_asian	4.409868682849185	smiling	030	sub-06	1.0	6.0	030_smiling	0.0		46.18575360014438	
3.0	24.500483722327772	pulse	1.0	t		24.0	female	east_asian	4.409868682849185	smiling	030	sub-06	1.0	6.0	030_smiling	0.0		46.885759425942524	
3.0	25.20046509788517	pulse	1.0	t		24.0	female	east_asian	4.409868682849185	smiling	030	sub-06	1.0	6.0	030_smiling	0.0		47.585740801499924	
3.0	25.900446171588555	pulse	1.0	t		24.0	female	east_asian	4.409868682849185	smiling	030	sub-06	1.0	6.0	030_smiling	0.0		48.28572187520331	
4.0	26.008662931111758	face	0.0		147	54.0	female	white	2.286908077994429	neutral	136	sub-06	1.0	6.0	136_neutral	0.0		48.39393863472651	1.2416405084331927
4.0	26.600440526905004	pulse	0.0	t		54.0	female	white	2.286908077994429	neutral	136	sub-06	1.0	6.0	136_neutral	0.0		48.985716230519756	
4.0	27.25030343954495	fix	1.0		444	54.0	female	white	2.286908077994429	neutral	136	sub-06	1.0	6.0	136_neutral	0.0		49.6355791431597	3.758255049804575
4.0	27.300522118261142	pulse	1.0	t		54.0	female	white	2.286908077994429	neutral	136	sub-06	1.0	6.0	136_neutral	0.0		49.685797821875894	
4.0	28.000402976165788	pulse	1.0	t		54.0	female	white	2.286908077994429	neutral	136	sub-06	1.0	6.0	136_neutral	0.0		50.38567867978054	
4.0	28.700384351726825	pulse	1.0	t		54.0	female	white	2.286908077994429	neutral	136	sub-06	1.0	6.0	136_neutral	0.0		51.08566005534158	
4.0	29.400385045992152	pulse	1.0	t		54.0	female	white	2.286908077994429	neutral	136	sub-06	1.0	6.0	136_neutral	0.0		51.785660749606905	
4.0	30.100358271469304	pulse	1.0	t		54.0	female	white	2.286908077994429	neutral	136	sub-06	1.0	6.0	136_neutral	0.0		52.485633975084056	
4.0	30.800342665577773	pulse	1.0	t		54.0	female	white	2.286908077994429	neutral	136	sub-06	1.0	6.0	136_neutral	0.0		53.185618369192525	
5.0	31.008558489349525	face	0.0		146	19.0	male	white	3.2522881018702745	neutral	018	sub-06	1.0	6.0	018_neutral	0.0		53.39383419296428	1.2416420177069085
5.0	31.50033219121542	pulse	0.0	t		19.0	male	white	3.2522881018702745	neutral	018	sub-06	1.0	6.0	018_neutral	0.0		53.88560789483017	
5.0	32.20031296306479	pulse	0.0	t		19.0	male	white	3.2522881018702745	neutral	018	sub-06	1.0	6.0	018_neutral	0.0		54.58558866667954	
5.0	32.250200507056434	fix	1.0		445	19.0	male	white	3.2522881018702745	neutral	018	sub-06	1.0	6.0	018_neutral	0.0		54.635476210671186	3.7582520312535053
5.0	32.90030369612214	pulse	1.0	t		19.0	male	white	3.2522881018702745	neutral	018	sub-06	1.0	6.0	018_neutral	0.0		55.28557939973689	
5.0	33.60028809022697	pulse	1.0	t		19.0	male	white	3.2522881018702745	neutral	018	sub-06	1.0	6.0	018_neutral	0.0		55.98556379384172	
5.0	34.300261013850104	pulse	1.0	t		19.0	male	white	3.2522881018702745	neutral	018	sub-06	1.0	6.0	018_neutral	0.0		56.685536717464856	
5.0	35.00025567102057	pulse	1.0	t		19.0	male	white	3.2522881018702745	neutral	018	sub-06	1.0	6.0	018_neutral	0.0		57.38553137463532	
5.0	35.7007731407175	pulse	1.0	t		19.0	male	white	3.2522881018702745	neutral	018	sub-06	1.0	6.0	018_neutral	0.0		58.086048844332254	
6.0	36.00845253830994	face	0.0		146	40.0	male	white	1.868682849184242	neutral	172	sub-06	1.0	6.0	172_neutral	0.0		58.39372824192469	1.2416447344003245
6.0	36.40024981503666	pulse	0.0	t		40.0	male	white	1.868682849184242	neutral	172	sub-06	1.0	6.0	172_neutral	0.0		58.78552551865141	
6.0	37.100215796002885	pulse	0.0	t		40.0	male	white	1.868682849184242	neutral	172	sub-06	1.0	6.0	172_neutral	0.0		59.48549149961764	
6.0	37.25009727271026	fix	1.0		445	40.0	male	white	1.868682849184242	neutral	172	sub-06	1.0	6.0	172_neutral	0.0		59.635372976325016	3.758247503435996
6.0	37.80020200123545	pulse	1.0	t		40.0	male	white	1.868682849184242	neutral	172	sub-06	1.0	6.0	172_neutral	0.0		60.1854777048502	
6.0	38.5001836786505	pulse	1.0	t		40.0	male	white	1.868682849184242	neutral	172	sub-06	1.0	6.0	172_neutral	0.0		60.88545938226525	
6.0	39.200162337514485	pulse	1.0	t		40.0	male	white	1.868682849184242	neutral	172	sub-06	1.0	6.0	172_neutral	0.0		61.58543804112924	
6.0	39.90015397613752	pulse	1.0	t		40.0	male	white	1.868682849184242	neutral	172	sub-06	1.0	6.0	172_neutral	0.0		62.28542967975227	
6.0	40.600142294355464	pulse	1.0	t		40.0	male	white	1.868682849184242	neutral	172	sub-06	1.0	6.0	172_neutral	0.0		62.98541799797022	
7.0	41.00834477614626	face	0.0		146	28.0	male	white	3.9076800636689217	neutral	033	sub-06	1.0	6.0	033_neutral	0.0		63.39362047976101	1.241630849079229
7.0	41.300131518139096	pulse	0.0	t		28.0	male	white	3.9076800636689217	neutral	033	sub-06	1.0	6.0	033_neutral	0.0		63.68540722175385	
7.0	42.000114704827865	pulse	0.0	t		28.0	male	white	3.9076800636689217	neutral	033	sub-06	1.0	6.0	033_neutral	0.0		64.38539040844262	
7.0	42.24997562522549	fix	1.0		445	28.0	male	white	3.9076800636689217	neutral	033	sub-06	1.0	6.0	033_neutral	0.0		64.63525132884024	3.766603448206297
7.0	42.70010000449838	pulse	1.0	t		28.0	male	white	3.9076800636689217	neutral	033	sub-06	1.0	6.0	033_neutral	0.0		65.08537570811313	
7.0	43.40009315239149	pulse	1.0	t		28.0	male	white	3.9076800636689217	neutral	033	sub-06	1.0	6.0	033_neutral	0.0		65.78536885600624	
7.0	44.100063661178865	pulse	1.0	t		28.0	male	white	3.9076800636689217	neutral	033	sub-06	1.0	6.0	033_neutral	0.0		66.48533936479362	
7.0	44.80004956455741	pulse	1.0	t		28.0	male	white	3.9076800636689217	neutral	033	sub-06	1.0	6.0	033_neutral	0.0		67.18532526817216	
7.0	45.500033656811866	pulse	1.0	t		28.0	male	white	3.9076800636689217	neutral	033	sub-06	1.0	6.0	033_neutral	0.0		67.88530936042662	
8.0	46.016579073431785	face	0.0		145	21.0	male	black	2.969757262236371	smiling	137	sub-06	1.0	6.0	137_smiling	0.0		68.40185477704654	1.2333093157540134
8.0	46.20002650285096	pulse	0.0	t		21.0	male	black	2.969757262236371	smiling	137	sub-06	1.0	6.0	137_smiling	0.0		68.58530220646571	
8.0	46.90000455800691	pulse	0.0	t		21.0	male	black	2.969757262236371	smiling	137	sub-06	1.0	6.0	137_smiling	0.0		69.28528026162166	
8.0	47.2498883891858	fix	1.0		445	21.0	male	black	2.969757262236371	smiling	137	sub-06	1.0	6.0	137_smiling	0.0		69.63516409280055	3.7665880536114855
8.0	47.5999856317103	pulse	1.0	t		21.0	male	black	2.969757262236371	smiling	137	sub-06	1.0	6.0	137_smiling	0.0		69.98526133532505	
8.0	48.299978779607045	pulse	1.0	t		21.0	male	black	2.969757262236371	smiling	137	sub-06	1.0	6.0	137_smiling	0.0		70.6852544832218	
8.0	48.99996649411696	pulse	1.0	t		21.0	male	black	2.969757262236371	smiling	137	sub-06	1.0	6.0	137_smiling	0.0		71.38524219773171	
8.0	49.69995662346264	pulse	1.0	t		21.0	male	black	2.969757262236371	smiling	137	sub-06	1.0	6.0	137_smiling	0.0		72.08523232707739	
8.0	50.39994282869884	pulse	1.0	t		21.0	male	black	2.969757262236371	smiling	137	sub-06	1.0	6.0	137_smiling	0.0		72.78521853231359	
9.0	51.016476442797284	face	0.0		145	26.0	male	white	2.7966573816155993	smiling	117	sub-06	1.0	6.0	117_smiling	0.0		73.40175214641204	1.2332957322869333
9.0	51.10007935762769	pulse	0.0	t		26.0	male	white	2.7966573816155993	smiling	117	sub-06	1.0	6.0	117_smiling	0.0		73.48535506124244	
9.0	51.79989984457279	pulse	0.0	t		26.0	male	white	2.7966573816155993	smiling	117	sub-06	1.0	6.0	117_smiling	0.0		74.18517554818754	
9.0	52.24977217508422	fix	1.0		445	26.0	male	white	2.7966573816155993	smiling	117	sub-06	1.0	6.0	117_smiling	0.0		74.63504787869897	3.7665922795786173
9.0	52.49989419988924	pulse	1.0	t		26.0	male	white	2.7966573816155993	smiling	117	sub-06	1.0	6.0	117_smiling	0.0		74.88516990350399	
9.0	53.199887649640004	pulse	1.0	t		26.0	male	white	2.7966573816155993	smiling	117	sub-06	1.0	6.0	117_smiling	0.0		75.58516335325476	
9.0	53.899859667701094	pulse	1.0	t		26.0	male	white	2.7966573816155993	smiling	117	sub-06	1.0	6.0	117_smiling	0.0		76.28513537131585	
9.0	54.59985191003216	pulse	1.0	t		26.0	male	white	2.7966573816155993	smiling	117	sub-06	1.0	6.0	117_smiling	0.0		76.98512761364691	
9.0	55.29982453180128	pulse	1.0	t		26.0	male	white	2.7966573816155993	smiling	117	sub-06	1.0	6.0	117_smiling	0.0		77.68510023541603	
10.0	56.016364454662835	face	0.0		146	25.0	female	black	3.858336649423	neutral	126	sub-06	1.0	6.0	126_neutral	0.0		78.40164015827759	1.2333120324474294
10.0	56.002704015361815	pulse	0.0	t		25.0	female	black	3.858336649423	neutral	126	sub-06	1.0	6.0	126_neutral	0.0		78.38797971897657	
10.0	56.69980599791597	pulse	0.0	t		25.0	female	black	3.858336649423	neutral	126	sub-06	1.0	6.0	126_neutral	0.0		79.08508170153073	
10.0	57.249676487110264	fix	1.0		444	25.0	female	black	3.858336649423	neutral	126	sub-06	1.0	6.0	126_neutral	0.0		79.63495219072502	3.766589864742855
10.0	57.39981303113018	pulse	1.0	t		25.0	female	black	3.858336649423	neutral	126	sub-06	1.0	6.0	126_neutral	0.0		79.78508873474493	
10.0	58.09978353991755	pulse	1.0	t		25.0	female	black	3.858336649423	neutral	126	sub-06	1.0	6.0	126_neutral	0.0		80.4850592435323	
10.0	58.79975706725236	pulse	1.0	t		25.0	female	black	3.858336649423	neutral	126	sub-06	1.0	6.0	126_neutral	0.0		81.18503277086711	
10.0	59.49973632982437	pulse	1.0	t		25.0	female	black	3.858336649423	neutral	126	sub-06	1.0	6.0	126_neutral	0.0		81.88501203343912	
10.0	60.19972193135254	pulse	1.0	t		25.0	female	black	3.858336649423	neutral	126	sub-06	1.0	6.0	126_neutral	0.0		82.5849976349673	
10.0	60.899712362552236	pulse	1.0	t		25.0	female	black	3.858336649423	neutral	126	sub-06	1.0	6.0	126_neutral	0.0		83.28498806616699	
11.0	61.01626635185312	face	0.0		146	30.0	female	black	2.7345801830481498	neutral	062	sub-06	1.0	6.0	062_neutral	1.0	dominance	83.40154205546787	1.2333111268781067
11.0	61.5997118494015	pulse	0.0	t		30.0	female	black	2.7345801830481498	neutral	062	sub-06	1.0	6.0	062_neutral	1.0	dominance	83.98498755301625	
11.0	62.249577478731226	fix	1.0		176	30.0	female	black	2.7345801830481498	neutral	062	sub-06	1.0	6.0	062_neutral	1.0	dominance	84.63485318234598	1.508330136188306
11.0	62.29968447117062	pulse	1.0	t		30.0	female	black	2.7345801830481498	neutral	062	sub-06	1.0	6.0	062_neutral	1.0	dominance	84.68496017478537	
11.0	62.99967158196887	pulse	1.0	t		30.0	female	black	2.7345801830481498	neutral	062	sub-06	1.0	6.0	062_neutral	1.0	dominance	85.38494728558362	
11.0	63.699657485351054	pulse	1.0	t		30.0	female	black	2.7345801830481498	neutral	062	sub-06	1.0	6.0	062_neutral	1.0	dominance	86.0849331889658	
11.0	63.75790761491953	rating	2.0		294	30.0	female	black	2.7345801830481498	neutral	062	sub-06	1.0	6.0	062_neutral	1.0	dominance	86.14318331853428	2.4915817222099577
11.0	64.39966059445578	pulse	2.0	t		30.0	female	black	2.7345801830481498	neutral	062	sub-06	1.0	6.0	062_neutral	1.0	dominance	86.78493629807053	
11.0	65.09962687727239	pulse	2.0	t		30.0	female	black	2.7345801830481498	neutral	062	sub-06	1.0	6.0	062_neutral	1.0	dominance	87.48490258088714	
11.0	65.35794576936678	response	2.0	g		30.0	female	black	2.7345801830481498	neutral	062	sub-06	1.0	6.0	062_neutral	1.0	dominance	87.74322147298153	
11.0	65.7996109695232	pulse	2.0	t		30.0	female	black	2.7345801830481498	neutral	062	sub-06	1.0	6.0	062_neutral	1.0	dominance	88.18488667313795	
11.0	66.24948933712949	fix	3.0		444	30.0	female	black	2.7345801830481498	neutral	062	sub-06	1.0	6.0	062_neutral	1.0	dominance	88.63476504074424	3.7665814128085913
11.0	66.49961649346733	pulse	3.0	t		30.0	female	black	2.7345801830481498	neutral	062	sub-06	1.0	6.0	062_neutral	1.0	dominance	88.88489219708208	
11.0	67.19957190951027	pulse	3.0	t		30.0	female	black	2.7345801830481498	neutral	062	sub-06	1.0	6.0	062_neutral	1.0	dominance	89.58484761312502	
11.0	67.89957109450552	pulse	3.0	t		30.0	female	black	2.7345801830481498	neutral	062	sub-06	1.0	6.0	062_neutral	1.0	dominance	90.28484679812027	
11.0	68.59954764038412	pulse	3.0	t		30.0	female	black	2.7345801830481498	neutral	062	sub-06	1.0	6.0	062_neutral	1.0	dominance	90.98482334399887	
11.0	69.29953203449259	pulse	3.0	t		30.0	female	black	2.7345801830481498	neutral	062	sub-06	1.0	6.0	062_neutral	1.0	dominance	91.68480773810734	
12.0	70.01607074993808	face	0.0		146	19.0	female	white	4.298846000795861	smiling	100	sub-06	1.0	6.0	100_smiling	0.0		92.40134645355283	1.2333135417175072
12.0	70.00246977603092	pulse	0.0	t		19.0	female	white	4.298846000795861	smiling	100	sub-06	1.0	6.0	100_smiling	0.0		92.38774547964567	
12.0	70.69951289689561	pulse	0.0	t		19.0	female	white	4.298846000795861	smiling	100	sub-06	1.0	6.0	100_smiling	0.0		93.08478860051036	
12.0	71.24938429165559	fix	1.0		442	19.0	female	white	4.298846000795861	smiling	100	sub-06	1.0	6.0	100_smiling	0.0		93.63465999527034	3.76658895917717
12.0	71.39950362995296	pulse	1.0	t		19.0	female	white	4.298846000795861	smiling	100	sub-06	1.0	6.0	100_smiling	0.0		93.78477933356771	
12.0	72.09949828712342	pulse	1.0	t		19.0	female	white	4.298846000795861	smiling	100	sub-06	1.0	6.0	100_smiling	0.0		94.48477399073818	
12.0	72.79947513485968	pulse	1.0	t		19.0	female	white	4.298846000795861	smiling	100	sub-06	1.0	6.0	100_smiling	0.0		95.18475083847443	
12.0	73.49945198259593	pulse	1.0	t		19.0	female	white	4.298846000795861	smiling	100	sub-06	1.0	6.0	100_smiling	0.0		95.88472768621068	
12.0	74.19943305629931	pulse	1.0	t		19.0	female	white	4.298846000795861	smiling	100	sub-06	1.0	6.0	100_smiling	0.0		96.58470875991407	
12.0	74.4160968905635	response	1.0	n		19.0	female	white	4.298846000795861	smiling	100	sub-06	1.0	6.0	100_smiling	0.0		96.80137259417825	
12.0	74.8994165448421	pulse	1.0	t		19.0	female	white	4.298846000795861	smiling	100	sub-06	1.0	6.0	100_smiling	0.0		97.28469224845685	
13.0	75.01597325083276	face	0.0		146	24.0	male	white	3.1153999204138483	neutral	012	sub-06	1.0	6.0	012_neutral	0.0		97.40124895444751	1.2333087120423443
13.0	75.59941844652712	pulse	0.0	t		24.0	male	white	3.1153999204138483	neutral	012	sub-06	1.0	6.0	012_neutral	0.0		97.98469415014188	
13.0	76.2492819628751	fix	1.0		444	24.0	male	white	3.1153999204138483	neutral	012	sub-06	1.0	6.0	012_neutral	0.0		98.63455766648985	3.758253540530859
13.0	76.29939499240936	pulse	1.0	t		24.0	male	white	3.1153999204138483	neutral	012	sub-06	1.0	6.0	012_neutral	0.0		98.68467069602411	
13.0	76.99938029207988	pulse	1.0	t		24.0	male	white	3.1153999204138483	neutral	012	sub-06	1.0	6.0	012_neutral	0.0		99.38465599569463	
13.0	77.69937434554231	pulse	1.0	t		24.0	male	white	3.1153999204138483	neutral	012	sub-06	1.0	6.0	012_neutral	0.0		100.08465004915706	
13.0	78.3993554192457	pulse	1.0	t		24.0	male	white	3.1153999204138483	neutral	012	sub-06	1.0	6.0	012_neutral	0.0		100.78463112286045	
13.0	79.09932683359511	pulse	1.0	t		24.0	male	white	3.1153999204138483	neutral	012	sub-06	1.0	6.0	012_neutral	0.0		101.48460253720987	
13.0	79.79931786850648	pulse	1.0	t		24.0	male	white	3.1153999204138483	neutral	012	sub-06	1.0	6.0	012_neutral	0.0		102.18459357212123	
14.0	80.00753550340596	face	0.0		146	40.0	female	west_asian	1.5777954635893354	smiling	038	sub-06	1.0	6.0	038_smiling	0.0		102.39281120702071	1.241652582626557
14.0	80.49931222382293	pulse	0.0	t		40.0	female	west_asian	1.5777954635893354	smiling	038	sub-06	1.0	6.0	038_smiling	0.0		102.88458792743768	
14.0	81.1992857511541	pulse	0.0	t		40.0	female	west_asian	1.5777954635893354	smiling	038	sub-06	1.0	6.0	038_smiling	0.0		103.58456145476885	
14.0	81.24918808603252	fix	1.0		446	40.0	female	west_asian	1.5777954635893354	smiling	038	sub-06	1.0	6.0	038_smiling	0.0		103.63446378964727	3.7749113980680704
14.0	81.89927889905084	pulse	1.0	t		40.0	female	west_asian	1.5777954635893354	smiling	038	sub-06	1.0	6.0	038_smiling	0.0		104.2845546026656	
14.0	82.59925997275423	pulse	1.0	t		40.0	female	west_asian	1.5777954635893354	smiling	038	sub-06	1.0	6.0	038_smiling	0.0		104.98453567636898	
14.0	83.29925885589182	pulse	1.0	t		40.0	female	west_asian	1.5777954635893354	smiling	038	sub-06	1.0	6.0	038_smiling	0.0		105.68453455950657	
14.0	83.99923389250034	pulse	1.0	t		40.0	female	west_asian	1.5777954635893354	smiling	038	sub-06	1.0	6.0	038_smiling	0.0		106.3845095961151	
14.0	84.69921345693001	pulse	1.0	t		40.0	female	west_asian	1.5777954635893354	smiling	038	sub-06	1.0	6.0	038_smiling	0.0		107.08448916054476	
15.0	85.02409948410059	face	0.0		145	31.0	female	east_asian	3.395941106247513	neutral	087	sub-06	1.0	6.0	087_neutral	0.0		107.40937518771534	1.233306900914613
15.0	85.39922049014422	pulse	0.0	t		31.0	female	east_asian	3.395941106247513	neutral	087	sub-06	1.0	6.0	087_neutral	0.0		107.78449619375897	
15.0	86.09919099893159	pulse	0.0	t		31.0	female	east_asian	3.395941106247513	neutral	087	sub-06	1.0	6.0	087_neutral	0.0		108.48446670254634	
15.0	86.2574063850152	fix	1.0		445	31.0	female	east_asian	3.395941106247513	neutral	087	sub-06	1.0	6.0	087_neutral	0.0		108.64268208862995	3.7583628119682544
15.0	86.79918927835752	pulse	1.0	t		31.0	female	east_asian	3.395941106247513	neutral	087	sub-06	1.0	6.0	087_neutral	0.0		109.18446498197227	
15.0	87.49915163706464	pulse	1.0	t		31.0	female	east_asian	3.395941106247513	neutral	087	sub-06	1.0	6.0	087_neutral	0.0		109.8844273406794	
15.0	88.19914810536284	pulse	1.0	t		31.0	female	east_asian	3.395941106247513	neutral	087	sub-06	1.0	6.0	087_neutral	0.0		110.58442380897759	
15.0	88.89912706608084	pulse	1.0	t		31.0	female	east_asian	3.395941106247513	neutral	087	sub-06	1.0	6.0	087_neutral	0.0		111.28440276969559	
15.0	89.599112667609	pulse	1.0	t		31.0	female	east_asian	3.395941106247513	neutral	087	sub-06	1.0	6.0	087_neutral	0.0		111.98438837122376	
16.0	90.01576919698346	face	0.0		146	47.0	male	east_asian	2.171110226820533	smiling	024	sub-06	1.0	6.0	024_smiling	0.0		112.40104490059821	1.2415306332841283
16.0	90.2991181915495	pulse	0.0	t		47.0	male	east_asian	2.171110226820533	smiling	024	sub-06	1.0	6.0	024_smiling	0.0		112.68439389516425	
16.0	90.99908839848285	pulse	0.0	t		47.0	male	east_asian	2.171110226820533	smiling	024	sub-06	1.0	6.0	024_smiling	0.0		113.3843641020976	
16.0	91.25729983026758	fix	1.0		445	47.0	male	east_asian	2.171110226820533	smiling	024	sub-06	1.0	6.0	024_smiling	0.0		113.64257553388234	3.7665892610311857
16.0	91.6990755092811	pulse	1.0	t		47.0	male	east_asian	2.171110226820533	smiling	024	sub-06	1.0	6.0	024_smiling	0.0		114.08435121289585	
16.0	92.39906654419246	pulse	1.0	t		47.0	male	east_asian	2.171110226820533	smiling	024	sub-06	1.0	6.0	024_smiling	0.0		114.78434224780722	
16.0	93.09904399564039	pulse	1.0	t		47.0	male	east_asian	2.171110226820533	smiling	024	sub-06	1.0	6.0	024_smiling	0.0		115.48431969925514	
16.0	93.7990317101503	pulse	1.0	t		47.0	male	east_asian	2.171110226820533	smiling	024	sub-06	1.0	6.0	024_smiling	0.0		116.18430741376505	
16.0	94.49900433191942	pulse	1.0	t		47.0	male	east_asian	2.171110226820533	smiling	024	sub-06	1.0	6.0	024_smiling	0.0		116.88428003553418	
17.0	95.02388909129877	face	0.0		145	19.0	male	white	3.2522881018702745	smiling	018	sub-06	1.0	6.0	018_smiling	1.0	trustworthiness	117.40916479491352	1.2333072027686285
17.0	95.19900321505338	pulse	0.0	t		19.0	male	white	3.2522881018702745	smiling	018	sub-06	1.0	6.0	018_smiling	1.0	trustworthiness	117.58427891866813	
17.0	95.89897794980789	pulse	0.0	t		19.0	male	white	3.2522881018702745	smiling	018	sub-06	1.0	6.0	018_smiling	1.0	trustworthiness	118.28425365342264	
17.0	96.2571962940674	fix	1.0		177	19.0	male	white	3.2522881018702745	smiling	018	sub-06	1.0	6.0	018_smiling	1.0	trustworthiness	118.64247199768215	1.4999717765749665
17.0	96.59897864407321	pulse	1.0	t		19.0	male	white	3.2522881018702745	smiling	018	sub-06	1.0	6.0	018_smiling	1.0	trustworthiness	118.98425434768797	
17.0	97.2989434176161	pulse	1.0	t		19.0	male	white	3.2522881018702745	smiling	018	sub-06	1.0	6.0	018_smiling	1.0	trustworthiness	119.68421912123085	
17.0	97.75716807064236	rating	2.0		294	19.0	male	white	3.2522881018702745	smiling	018	sub-06	1.0	6.0	018_smiling	1.0	trustworthiness	120.14244377425712	2.4999464207721758
17.0	97.99894863970621	pulse	2.0	t		19.0	male	white	3.2522881018702745	smiling	018	sub-06	1.0	6.0	018_smiling	1.0	trustworthiness	120.38422434332097	
17.0	98.69892941155558	pulse	2.0	t		19.0	male	white	3.2522881018702745	smiling	018	sub-06	1.0	6.0	018_smiling	1.0	trustworthiness	121.08420511517033	
17.0	99.39892255945233	pulse	2.0	t		19.0	male	white	3.2522881018702745	smiling	018	sub-06	1.0	6.0	018_smiling	1.0	trustworthiness	121.78419826306708	
17.0	99.41562448778859	response	2.0	y		19.0	male	white	3.2522881018702745	smiling	018	sub-06	1.0	6.0	018_smiling	1.0	trustworthiness	121.80090019140334	
17.0	100.09889186081637	pulse	2.0	t		19.0	male	white	3.2522881018702745	smiling	018	sub-06	1.0	6.0	018_smiling	1.0	trustworthiness	122.48416756443112	
17.0	100.25711449141454	fix	3.0		444	19.0	male	white	3.2522881018702745	smiling	018	sub-06	1.0	6.0	018_smiling	1.0	trustworthiness	122.6423901950293	3.766587148049439
17.0	100.79888591427516	pulse	3.0	t		19.0	male	white	3.2522881018702745	smiling	018	sub-06	1.0	6.0	018_smiling	1.0	trustworthiness	123.18416161788991	
17.0	101.49886879910991	pulse	3.0	t		19.0	male	white	3.2522881018702745	smiling	018	sub-06	1.0	6.0	018_smiling	1.0	trustworthiness	123.88414450272467	
17.0	102.19883085595939	pulse	3.0	t		19.0	male	white	3.2522881018702745	smiling	018	sub-06	1.0	6.0	018_smiling	1.0	trustworthiness	124.58410655957414	
17.0	102.89883275764441	pulse	3.0	t		19.0	male	white	3.2522881018702745	smiling	018	sub-06	1.0	6.0	018_smiling	1.0	trustworthiness	125.28410846125917	
17.0	103.59884130013597	pulse	3.0	t		19.0	male	white	3.2522881018702745	smiling	018	sub-06	1.0	6.0	018_smiling	1.0	trustworthiness	125.98411700375073	
18.0	104.02370163946398	face	0.0		145	22.0	male	black	2.767608436132113	neutral	044	sub-06	1.0	6.0	044_neutral	0.0		126.40897734307873	1.2333464438925148
18.0	104.29881724230654	pulse	0.0	t		22.0	male	black	2.767608436132113	neutral	044	sub-06	1.0	6.0	044_neutral	0.0		126.6840929459213	
18.0	104.99879167520703	pulse	0.0	t		22.0	male	black	2.767608436132113	neutral	044	sub-06	1.0	6.0	044_neutral	0.0		127.38406737882178	
18.0	105.2570480833565	fix	1.0		444	22.0	male	black	2.767608436132113	neutral	044	sub-06	1.0	6.0	044_neutral	0.0		127.64232378697125	3.7583030447203782
18.0	105.69880323624602	pulse	1.0	t		22.0	male	black	2.767608436132113	neutral	044	sub-06	1.0	6.0	044_neutral	0.0		128.08407893986077	
18.0	106.39877676357719	pulse	1.0	t		22.0	male	black	2.767608436132113	neutral	044	sub-06	1.0	6.0	044_neutral	0.0		128.78405246719194	
18.0	107.09874334825145	pulse	1.0	t		22.0	male	black	2.767608436132113	neutral	044	sub-06	1.0	6.0	044_neutral	0.0		129.4840190518662	
18.0	107.79873830727593	pulse	1.0	t		22.0	male	black	2.767608436132113	neutral	044	sub-06	1.0	6.0	044_neutral	0.0		130.18401401089068	
18.0	108.49871726799756	pulse	1.0	t		22.0	male	black	2.767608436132113	neutral	044	sub-06	1.0	6.0	044_neutral	0.0		130.88399297161232	
19.0	109.01535112807687	face	0.0		146	47.0	male	east_asian	2.171110226820533	neutral	024	sub-06	1.0	6.0	024_neutral	0.0		131.40062683169162	1.2415520649738028
19.0	109.19871101960234	pulse	0.0	t		47.0	male	east_asian	2.171110226820533	neutral	024	sub-06	1.0	6.0	024_neutral	0.0		131.5839867232171	
19.0	109.89869662112687	pulse	0.0	t		47.0	male	east_asian	2.171110226820533	neutral	024	sub-06	1.0	6.0	024_neutral	0.0		132.28397232474163	
19.0	110.25690319305068	fix	1.0		444	47.0	male	east_asian	2.171110226820533	neutral	024	sub-06	1.0	6.0	024_neutral	0.0		132.64217889666543	3.7665886573231546
19.0	110.5986870523302	pulse	1.0	t		47.0	male	east_asian	2.171110226820533	neutral	024	sub-06	1.0	6.0	024_neutral	0.0		132.98396275594496	
19.0	111.298670842727	pulse	1.0	t		47.0	male	east_asian	2.171110226820533	neutral	024	sub-06	1.0	6.0	024_neutral	0.0		133.68394654634176	
19.0	111.99864708675523	pulse	1.0	t		47.0	male	east_asian	2.171110226820533	neutral	024	sub-06	1.0	6.0	024_neutral	0.0		134.38392279036998	
19.0	112.6986523088417	pulse	1.0	t		47.0	male	east_asian	2.171110226820533	neutral	024	sub-06	1.0	6.0	024_neutral	0.0		135.08392801245645	
19.0	113.39863126956334	pulse	1.0	t		47.0	male	east_asian	2.171110226820533	neutral	024	sub-06	1.0	6.0	024_neutral	0.0		135.7839069731781	
20.0	114.02349185037383	face	0.0		145	27.0	male	black	3.5523278949462798	neutral	042	sub-06	1.0	6.0	042_neutral	0.0		136.40876755398858	1.233306900910975
20.0	114.09860902286164	pulse	0.0	t		27.0	male	black	3.5523278949462798	neutral	042	sub-06	1.0	6.0	042_neutral	0.0		136.4838847264764	
20.0	114.79859915221095	pulse	0.0	t		27.0	male	black	3.5523278949462798	neutral	042	sub-06	1.0	6.0	042_neutral	0.0		137.1838748558257	
20.0	115.2567987512848	fix	1.0		1185	27.0	male	black	3.5523278949462798	neutral	042	sub-06	1.0	6.0	042_neutral	0.0		137.64207445489956	10.016457124092994
20.0	115.49857750922092	pulse	1.0	t		27.0	male	black	3.5523278949462798	neutral	042	sub-06	1.0	6.0	042_neutral	0.0		137.88385321283567	
20.0	116.19855828107029	pulse	1.0	t		27.0	male	black	3.5523278949462798	neutral	042	sub-06	1.0	6.0	042_neutral	0.0		138.58383398468504	
20.0	116.8985399584817	pulse	1.0	t		27.0	male	black	3.5523278949462798	neutral	042	sub-06	1.0	6.0	042_neutral	0.0		139.28381566209646	
20.0	117.5985119765428	pulse	1.0	t		27.0	male	black	3.5523278949462798	neutral	042	sub-06	1.0	6.0	042_neutral	0.0		139.98378768015755	
20.0	118.29851146338842	pulse	1.0	t		27.0	male	black	3.5523278949462798	neutral	042	sub-06	1.0	6.0	042_neutral	0.0		140.68378716700317	
20.0	118.99850370571949	pulse	1.0	t		27.0	male	black	3.5523278949462798	neutral	042	sub-06	1.0	6.0	042_neutral	0.0		141.38377940933424	
20.0	119.69850047587533	pulse	1.0	t		27.0	male	black	3.5523278949462798	neutral	042	sub-06	1.0	6.0	042_neutral	0.0		142.0837761794901	
20.0	120.3984764180459	pulse	1.0	t		27.0	male	black	3.5523278949462798	neutral	042	sub-06	1.0	6.0	042_neutral	0.0		142.78375212166065	
20.0	121.09845447320185	pulse	1.0	t		27.0	male	black	3.5523278949462798	neutral	042	sub-06	1.0	6.0	042_neutral	0.0		143.4837301768166	
20.0	121.79844309327382	pulse	1.0	t		27.0	male	black	3.5523278949462798	neutral	042	sub-06	1.0	6.0	042_neutral	0.0		144.18371879688857	
20.0	122.4984241669772	pulse	1.0	t		27.0	male	black	3.5523278949462798	neutral	042	sub-06	1.0	6.0	042_neutral	0.0		144.88369987059195	
20.0	123.19842365382647	pulse	1.0	t		27.0	male	black	3.5523278949462798	neutral	042	sub-06	1.0	6.0	042_neutral	0.0		145.58369935744122	
20.0	123.89839869043135	pulse	1.0	t		27.0	male	black	3.5523278949462798	neutral	042	sub-06	1.0	6.0	042_neutral	0.0		146.2836743940461	
20.0	124.59839214018211	pulse	1.0	t		27.0	male	black	3.5523278949462798	neutral	042	sub-06	1.0	6.0	042_neutral	0.0		146.98366784379687	
21.0	125.2732558753778	face	0.0		145	24.0	male	white	3.1153999204138483	smiling	012	sub-06	1.0	6.0	012_smiling	0.0		147.65853157899255	1.2333084101883287
21.0	125.29839675856056	pulse	0.0	t		24.0	male	white	3.1153999204138483	smiling	012	sub-06	1.0	6.0	012_smiling	0.0		147.6836724621753	
21.0	125.99835790984798	pulse	0.0	t		24.0	male	white	3.1153999204138483	smiling	012	sub-06	1.0	6.0	012_smiling	0.0		148.38363361346273	
21.0	126.50656428556613	fix	1.0		443	24.0	male	white	3.1153999204138483	smiling	012	sub-06	1.0	6.0	012_smiling	0.0		148.89183998918088	3.766570847888943
21.0	126.69834351137251	pulse	1.0	t		24.0	male	white	3.1153999204138483	smiling	012	sub-06	1.0	6.0	012_smiling	0.0		149.08361921498727	
21.0	127.39832518878757	pulse	1.0	t		24.0	male	white	3.1153999204138483	smiling	012	sub-06	1.0	6.0	012_smiling	0.0		149.78360089240232	
21.0	128.09832044966606	pulse	1.0	t		24.0	male	white	3.1153999204138483	smiling	012	sub-06	1.0	6.0	012_smiling	0.0		150.4835961532808	
21.0	128.7982957881286	pulse	1.0	t		24.0	male	white	3.1153999204138483	smiling	012	sub-06	1.0	6.0	012_smiling	0.0		151.18357149174335	
21.0	129.49827535255827	pulse	1.0	t		24.0	male	white	3.1153999204138483	smiling	012	sub-06	1.0	6.0	012_smiling	0.0		151.88355105617302	
21.0	130.19826065222878	pulse	1.0	t		24.0	male	white	3.1153999204138483	smiling	012	sub-06	1.0	6.0	012_smiling	0.0		152.58353635584353	
22.0	130.27313513345507	face	0.0		146	22.0	male	black	2.767608436132113	smiling	044	sub-06	1.0	6.0	044_smiling	1.0	dominance	152.65841083706982	1.2333241066371556
22.0	130.89825591310728	pulse	0.0	t		22.0	male	black	2.767608436132113	smiling	044	sub-06	1.0	6.0	044_smiling	1.0	dominance	153.28353161672203	
22.0	131.50645924009223	fix	1.0		177	22.0	male	black	2.767608436132113	smiling	044	sub-06	1.0	6.0	044_smiling	1.0	dominance	153.89173494370698	1.508304176673846
22.0	131.59826837971195	pulse	1.0	t		22.0	male	black	2.767608436132113	smiling	044	sub-06	1.0	6.0	044_smiling	1.0	dominance	153.9835440833267	
22.0	132.29821624938631	pulse	1.0	t		22.0	male	black	2.767608436132113	smiling	044	sub-06	1.0	6.0	044_smiling	1.0	dominance	154.68349195300107	
22.0	132.9982112084108	pulse	1.0	t		22.0	male	black	2.767608436132113	smiling	044	sub-06	1.0	6.0	044_smiling	1.0	dominance	155.38348691202555	
22.0	133.01476341676607	rating	2.0		294	22.0	male	black	2.767608436132113	smiling	044	sub-06	1.0	6.0	044_smiling	1.0	dominance	155.40003912038082	2.49161130397988
22.0	133.69819680993896	pulse	2.0	t		22.0	male	black	2.767608436132113	smiling	044	sub-06	1.0	6.0	044_smiling	1.0	dominance	156.08347251355372	
22.0	134.3981827133175	pulse	2.0	t		22.0	male	black	2.767608436132113	smiling	044	sub-06	1.0	6.0	044_smiling	1.0	dominance	156.78345841693226	
22.0	134.91483317541133	response	2.0	g		22.0	male	black	2.767608436132113	smiling	044	sub-06	1.0	6.0	044_smiling	1.0	dominance	157.30010887902608	
22.0	135.09814265718524	pulse	2.0	t		22.0	male	black	2.767608436132113	smiling	044	sub-06	1.0	6.0	044_smiling	1.0	dominance	157.4834183608	
22.0	135.50637472074595	fix	3.0		444	22.0	male	black	2.767608436132113	smiling	044	sub-06	1.0	6.0	044_smiling	1.0	dominance	157.8916504243607	3.75836975463244
22.0	135.79815602935196	pulse	3.0	t		22.0	male	black	2.767608436132113	smiling	044	sub-06	1.0	6.0	044_smiling	1.0	dominance	158.1834317329667	
22.0	136.4981440457159	pulse	3.0	t		22.0	male	black	2.767608436132113	smiling	044	sub-06	1.0	6.0	044_smiling	1.0	dominance	158.88341974933064	
22.0	137.19811727119668	pulse	3.0	t		22.0	male	black	2.767608436132113	smiling	044	sub-06	1.0	6.0	044_smiling	1.0	dominance	159.58339297481143	
22.0	137.8981064949803	pulse	3.0	t		22.0	male	black	2.767608436132113	smiling	044	sub-06	1.0	6.0	044_smiling	1.0	dominance	160.28338219859506	
22.0	138.5980878705377	pulse	3.0	t		22.0	male	black	2.767608436132113	smiling	044	sub-06	1.0	6.0	044_smiling	1.0	dominance	160.98336357415246	
23.0	139.2647444753784	face	0.0		146	23.0	male	white	2.6275368085953046	neutral	141	sub-06	1.0	6.0	141_neutral	0.0		161.65002017899315	1.2415264073133585
23.0	139.2980804147228	pulse	0.0	t		23.0	male	white	2.6275368085953046	neutral	141	sub-06	1.0	6.0	141_neutral	0.0		161.68335611833754	
23.0	139.99806722366702	pulse	0.0	t		23.0	male	white	2.6275368085953046	neutral	141	sub-06	1.0	6.0	141_neutral	0.0		162.38334292728177	
23.0	140.50627088269175	fix	1.0		443	23.0	male	white	2.6275368085953046	neutral	141	sub-06	1.0	6.0	141_neutral	0.0		162.8915465863065	3.7665901665968704
23.0	140.69805252334118	pulse	1.0	t		23.0	male	white	2.6275368085953046	neutral	141	sub-06	1.0	6.0	141_neutral	0.0		163.08332822695593	
23.0	141.39804657679997	pulse	1.0	t		23.0	male	white	2.6275368085953046	neutral	141	sub-06	1.0	6.0	141_neutral	0.0		163.78332228041472	
23.0	142.09801557631	pulse	1.0	t		23.0	male	white	2.6275368085953046	neutral	141	sub-06	1.0	6.0	141_neutral	0.0		164.48329127992474	
23.0	142.7980029889659	pulse	1.0	t		23.0	male	white	2.6275368085953046	neutral	141	sub-06	1.0	6.0	141_neutral	0.0		165.18327869258064	
23.0	143.49799643871665	pulse	1.0	t		23.0	male	white	2.6275368085953046	neutral	141	sub-06	1.0	6.0	141_neutral	0.0		165.8832721423314	
23.0	144.19797600314632	pulse	1.0	t		23.0	male	white	2.6275368085953046	neutral	141	sub-06	1.0	6.0	141_neutral	0.0		166.58325170676108	
24.0	144.27286104928862	face	0.0		146	23.0	male	white	2.6275368085953046	smiling	141	sub-06	1.0	6.0	141_smiling	0.0		166.65813675290337	1.2333053916408971
24.0	144.89796884918542	pulse	0.0	t		23.0	male	white	2.6275368085953046	smiling	141	sub-06	1.0	6.0	141_smiling	0.0		167.28324455280017	
24.0	145.50616644092952	fix	1.0		443	23.0	male	white	2.6275368085953046	smiling	141	sub-06	1.0	6.0	141_smiling	0.0		167.89144214454427	3.7665892610311857
24.0	145.5979544507136	pulse	1.0	t		23.0	male	white	2.6275368085953046	smiling	141	sub-06	1.0	6.0	141_smiling	0.0		167.98323015432834	
24.0	146.29792797804475	pulse	1.0	t		23.0	male	white	2.6275368085953046	smiling	141	sub-06	1.0	6.0	141_smiling	0.0		168.6832036816595	
24.0	146.9979172018284	pulse	1.0	t		23.0	male	white	2.6275368085953046	smiling	141	sub-06	1.0	6.0	141_smiling	0.0		169.38319290544314	
24.0	147.69789857738942	pulse	1.0	t		23.0	male	white	2.6275368085953046	smiling	141	sub-06	1.0	6.0	141_smiling	0.0		170.08317428100418	
24.0	148.3978920271402	pulse	1.0	t		23.0	male	white	2.6275368085953046	smiling	141	sub-06	1.0	6.0	141_smiling	0.0		170.78316773075494	
24.0	149.0978598192305	pulse	1.0	t		23.0	male	white	2.6275368085953046	smiling	141	sub-06	1.0	6.0	141_smiling	0.0		171.48313552284526	
25.0	149.2727557019607	face	0.0		146	22.0	female	white	4.614007162753682	smiling	009	sub-06	1.0	6.0	009_smiling	0.0		171.65803140557546	1.2416474510937405
25.0	149.79786292833523	pulse	0.0	t		22.0	female	white	4.614007162753682	smiling	009	sub-06	1.0	6.0	009_smiling	0.0		172.18313863195	
25.0	150.4978388705058	pulse	0.0	t		22.0	female	white	4.614007162753682	smiling	009	sub-06	1.0	6.0	009_smiling	0.0		172.88311457412055	
25.0	150.51440315305445	fix	1.0		443	22.0	female	white	4.614007162753682	smiling	009	sub-06	1.0	6.0	009_smiling	0.0		172.8996788566692	3.7582408626294637
25.0	151.19783020727482	pulse	1.0	t		22.0	female	white	4.614007162753682	smiling	009	sub-06	1.0	6.0	009_smiling	0.0		173.58310591088957	
25.0	151.8978121865439	pulse	1.0	t		22.0	female	white	4.614007162753682	smiling	009	sub-06	1.0	6.0	009_smiling	0.0		174.28308789015864	
25.0	152.59780171218154	pulse	1.0	t		22.0	female	white	4.614007162753682	smiling	009	sub-06	1.0	6.0	009_smiling	0.0		174.9830774157963	
25.0	153.29778308773894	pulse	1.0	t		22.0	female	white	4.614007162753682	smiling	009	sub-06	1.0	6.0	009_smiling	0.0		175.6830587913537	
25.0	153.99777714119773	pulse	1.0	t		22.0	female	white	4.614007162753682	smiling	009	sub-06	1.0	6.0	009_smiling	0.0		176.38305284481248	
26.0	154.2726440156839	face	0.0		145	31.0	male	west_asian	1.9538400318344609	smiling	070	sub-06	1.0	6.0	070_smiling	0.0		176.65791971929866	1.2333138435715227
26.0	154.69777602433533	pulse	0.0	t		31.0	male	west_asian	1.9538400318344609	smiling	070	sub-06	1.0	6.0	070_smiling	0.0		177.08305172795008	
26.0	155.39774442013731	pulse	0.0	t		31.0	male	west_asian	1.9538400318344609	smiling	070	sub-06	1.0	6.0	070_smiling	0.0		177.78302012375207	
26.0	155.50595785925543	fix	1.0		444	31.0	male	west_asian	1.9538400318344609	smiling	070	sub-06	1.0	6.0	070_smiling	0.0		177.89123356287018	3.7665895628888393
26.0	156.09772971980783	pulse	1.0	t		31.0	male	west_asian	1.9538400318344609	smiling	070	sub-06	1.0	6.0	070_smiling	0.0		178.48300542342258	
26.0	156.7977104916572	pulse	1.0	t		31.0	male	west_asian	1.9538400318344609	smiling	070	sub-06	1.0	6.0	070_smiling	0.0		179.18298619527195	
26.0	157.49769639503938	pulse	1.0	t		31.0	male	west_asian	1.9538400318344609	smiling	070	sub-06	1.0	6.0	070_smiling	0.0		179.88297209865414	
26.0	158.19768380769165	pulse	1.0	t		31.0	male	west_asian	1.9538400318344609	smiling	070	sub-06	1.0	6.0	070_smiling	0.0		180.5829595113064	
26.0	158.89766276841328	pulse	1.0	t		31.0	male	west_asian	1.9538400318344609	smiling	070	sub-06	1.0	6.0	070_smiling	0.0		181.28293847202804	
27.0	159.27254742214427	face	0.0		145	27.0	female	white	3.504576203740549	neutral	144	sub-06	1.0	6.0	144_neutral	0.0		181.65782312575902	1.2333078064802976
27.0	159.59765531259836	pulse	0.0	t		27.0	female	white	3.504576203740549	neutral	144	sub-06	1.0	6.0	144_neutral	0.0		181.98293101621312	
27.0	160.29761706759382	pulse	0.0	t		27.0	female	white	3.504576203740549	neutral	144	sub-06	1.0	6.0	144_neutral	0.0		182.68289277120857	
27.0	160.50585522862457	fix	1.0		444	27.0	female	white	3.504576203740549	neutral	144	sub-06	1.0	6.0	144_neutral	0.0		182.89113093223932	3.7665880536114855
27.0	160.99763376016563	pulse	1.0	t		27.0	female	white	3.504576203740549	neutral	144	sub-06	1.0	6.0	144_neutral	0.0		183.38290946378038	
27.0	161.69760577822672	pulse	1.0	t		27.0	female	white	3.504576203740549	neutral	144	sub-06	1.0	6.0	144_neutral	0.0		184.08288148184147	
27.0	162.39760315208696	pulse	1.0	t		27.0	female	white	3.504576203740549	neutral	144	sub-06	1.0	6.0	144_neutral	0.0		184.7828788557017	
27.0	163.0975772831298	pulse	1.0	t		27.0	female	white	3.504576203740549	neutral	144	sub-06	1.0	6.0	144_neutral	0.0		185.48285298674455	
27.0	163.7975797885265	pulse	1.0	t		27.0	female	white	3.504576203740549	neutral	144	sub-06	1.0	6.0	144_neutral	0.0		186.18285549214124	
28.0	164.27244328223605	face	0.0		145	40.0	male	white	1.868682849184242	smiling	172	sub-06	1.0	6.0	172_smiling	1.0	attractiveness	186.6577189858508	1.2333059953489283
28.0	164.49755542884304	pulse	0.0	t		40.0	male	white	1.868682849184242	smiling	172	sub-06	1.0	6.0	172_smiling	1.0	attractiveness	186.8828311324578	
28.0	165.19752533391875	pulse	0.0	t		40.0	male	white	1.868682849184242	smiling	172	sub-06	1.0	6.0	172_smiling	1.0	attractiveness	187.5828010375335	
28.0	165.50574927758498	fix	1.0		177	40.0	male	white	1.868682849184242	smiling	172	sub-06	1.0	6.0	172_smiling	1.0	attractiveness	187.89102498119973	1.4999708710129198
28.0	165.89752451891036	pulse	1.0	t		40.0	male	white	1.868682849184242	smiling	172	sub-06	1.0	6.0	172_smiling	1.0	attractiveness	188.2828002225251	
28.0	166.59750921487284	pulse	1.0	t		40.0	male	white	1.868682849184242	smiling	172	sub-06	1.0	6.0	172_smiling	1.0	attractiveness	188.9827849184876	
28.0	167.0057201485979	rating	2.0		294	40.0	male	white	1.868682849184242	smiling	172	sub-06	1.0	6.0	172_smiling	1.0	attractiveness	189.39099585221265	2.4999464207721758
28.0	167.29749934421852	pulse	2.0	t		40.0	male	white	1.868682849184242	smiling	172	sub-06	1.0	6.0	172_smiling	1.0	attractiveness	189.68277504783327	
28.0	167.99748343647298	pulse	2.0	t		40.0	male	white	1.868682849184242	smiling	172	sub-06	1.0	6.0	172_smiling	1.0	attractiveness	190.38275914008773	
28.0	168.23913179312876	response	2.0	d		40.0	male	white	1.868682849184242	smiling	172	sub-06	1.0	6.0	172_smiling	1.0	attractiveness	190.62440749674352	
28.0	168.6974515304173	pulse	2.0	t		40.0	male	white	1.868682849184242	smiling	172	sub-06	1.0	6.0	172_smiling	1.0	attractiveness	191.08272723403206	
28.0	169.39745313024832	pulse	2.0	t		40.0	male	white	1.868682849184242	smiling	172	sub-06	1.0	6.0	172_smiling	1.0	attractiveness	191.78272883386308	
28.0	169.50566656937008	fix	3.0		444	40.0	male	white	1.868682849184242	smiling	172	sub-06	1.0	6.0	172_smiling	1.0	attractiveness	191.89094227298483	3.758273161092802
28.0	170.0974363169371	pulse	3.0	t		40.0	male	white	1.868682849184242	smiling	172	sub-06	1.0	6.0	172_smiling	1.0	attractiveness	192.48271202055184	
28.0	170.79742372958935	pulse	3.0	t		40.0	male	white	1.868682849184242	smiling	172	sub-06	1.0	6.0	172_smiling	1.0	attractiveness	193.1826994332041	
28.0	171.49740238845698	pulse	3.0	t		40.0	male	white	1.868682849184242	smiling	172	sub-06	1.0	6.0	172_smiling	1.0	attractiveness	193.88267809207173	
28.0	172.1973728972407	pulse	3.0	t		40.0	male	white	1.868682849184242	smiling	172	sub-06	1.0	6.0	172_smiling	1.0	attractiveness	194.58264860085546	
28.0	172.89737661005347	pulse	3.0	t		40.0	male	white	1.868682849184242	smiling	172	sub-06	1.0	6.0	172_smiling	1.0	attractiveness	195.28265231366822	
29.0	173.26393973046288	face	0.0		146	27.0	female	white	3.504576203740549	smiling	144	sub-06	1.0	6.0	144_smiling	0.0		195.64921543407763	1.2416211897216272
29.0	173.59736613569476	pulse	0.0	t		27.0	female	white	3.504576203740549	smiling	144	sub-06	1.0	6.0	144_smiling	0.0		195.9826418393095	
29.0	174.29733604077046	pulse	0.0	t		27.0	female	white	3.504576203740549	smiling	144	sub-06	1.0	6.0	144_smiling	0.0		196.6826117443852	
29.0	174.5055609201845	fix	1.0		444	27.0	female	white	3.504576203740549	smiling	144	sub-06	1.0	6.0	144_smiling	0.0		196.89083662379926	3.76658895917717
29.0	174.99734096100292	pulse	1.0	t		27.0	female	white	3.504576203740549	smiling	144	sub-06	1.0	6.0	144_smiling	0.0		197.38261666461767	
29.0	175.69731750688516	pulse	1.0	t		27.0	female	white	3.504576203740549	smiling	144	sub-06	1.0	6.0	144_smiling	0.0		198.0825932104999	
29.0	176.39731216405562	pulse	1.0	t		27.0	female	white	3.504576203740549	smiling	144	sub-06	1.0	6.0	144_smiling	0.0		198.78258786767037	
29.0	177.09728237098534	pulse	1.0	t		27.0	female	white	3.504576203740549	smiling	144	sub-06	1.0	6.0	144_smiling	0.0		199.4825580746001	
29.0	177.79727612259012	pulse	1.0	t		27.0	female	white	3.504576203740549	smiling	144	sub-06	1.0	6.0	144_smiling	0.0		200.18255182620487	
30.0	178.27214987936168	face	0.0		145	24.0	female	east_asian	2.9076800636689217	smiling	034	sub-06	1.0	6.0	034_smiling	0.0		200.65742558297643	1.233307504626282
30.0	178.49726021484094	pulse	0.0	t		24.0	female	east_asian	2.9076800636689217	smiling	034	sub-06	1.0	6.0	034_smiling	0.0		200.8825359184557	
30.0	179.19723223290202	pulse	0.0	t		24.0	female	east_asian	2.9076800636689217	smiling	034	sub-06	1.0	6.0	034_smiling	0.0		201.58250793651678	
30.0	179.50545738398796	fix	1.0		444	24.0	female	east_asian	2.9076800636689217	smiling	034	sub-06	1.0	6.0	034_smiling	0.0		201.8907330876027	3.7665859406297386
30.0	179.89723383273304	pulse	1.0	t		24.0	female	east_asian	2.9076800636689217	smiling	034	sub-06	1.0	6.0	034_smiling	0.0		202.2825095363478	
30.0	180.59721249159702	pulse	1.0	t		24.0	female	east_asian	2.9076800636689217	smiling	034	sub-06	1.0	6.0	034_smiling	0.0		202.98248819521177	
30.0	181.2971935653004	pulse	1.0	t		24.0	female	east_asian	2.9076800636689217	smiling	034	sub-06	1.0	6.0	034_smiling	0.0		203.68246926891516	
30.0	181.9971749408578	pulse	1.0	t		24.0	female	east_asian	2.9076800636689217	smiling	034	sub-06	1.0	6.0	034_smiling	0.0		204.38245064447256	
30.0	182.69716778690054	pulse	1.0	t		24.0	female	east_asian	2.9076800636689217	smiling	034	sub-06	1.0	6.0	034_smiling	0.0		205.0824434905153	
31.0	183.2720433246177	face	0.0		145	24.0	female	east_asian	4.409868682849185	neutral	030	sub-06	1.0	6.0	030_neutral	0.0		205.65731902823245	1.2333065990569594
31.0	183.3971714997133	pulse	0.0	t		24.0	female	east_asian	4.409868682849185	neutral	030	sub-06	1.0	6.0	030_neutral	0.0		205.78244720332805	
31.0	184.09713536769414	pulse	0.0	t		24.0	female	east_asian	4.409868682849185	neutral	030	sub-06	1.0	6.0	030_neutral	0.0		206.4824110713089	
31.0	184.50534992367466	fix	1.0		444	24.0	female	east_asian	4.409868682849185	neutral	030	sub-06	1.0	6.0	030_neutral	0.0		206.8906256272894	3.766586242483754
31.0	184.79712972300695	pulse	1.0	t		24.0	female	east_asian	4.409868682849185	neutral	030	sub-06	1.0	6.0	030_neutral	0.0		207.1824054266217	
31.0	185.49711804122853	pulse	1.0	t		24.0	female	east_asian	4.409868682849185	neutral	030	sub-06	1.0	6.0	030_neutral	0.0		207.88239374484328	
31.0	186.19710032235162	pulse	1.0	t		24.0	female	east_asian	4.409868682849185	neutral	030	sub-06	1.0	6.0	030_neutral	0.0		208.58237602596637	
31.0	186.89708833871555	pulse	1.0	t		24.0	female	east_asian	4.409868682849185	neutral	030	sub-06	1.0	6.0	030_neutral	0.0		209.2823640423303	
31.0	187.5970718272547	pulse	1.0	t		24.0	female	east_asian	4.409868682849185	neutral	030	sub-06	1.0	6.0	030_neutral	0.0		209.98234753086945	
32.0	188.2719361661584	face	0.0		145	28.0	female	white	5.676880222841227	neutral	124	sub-06	1.0	6.0	124_neutral	0.0		210.65721186977316	1.233309617608029
32.0	188.29706738999084	pulse	0.0	t		28.0	female	white	5.676880222841227	neutral	124	sub-06	1.0	6.0	124_neutral	0.0		210.6823430936056	
32.0	188.9970421247417	pulse	0.0	t		28.0	female	white	5.676880222841227	neutral	124	sub-06	1.0	6.0	124_neutral	0.0		211.38231782835646	
32.0	189.50524578376644	fix	1.0		443	28.0	female	white	5.676880222841227	neutral	124	sub-06	1.0	6.0	124_neutral	0.0		211.8905214873812	3.766586242483754
32.0	189.69702742441586	pulse	1.0	t		28.0	female	white	5.676880222841227	neutral	124	sub-06	1.0	6.0	124_neutral	0.0		212.08230312803062	
32.0	190.39701906303526	pulse	1.0	t		28.0	female	white	5.676880222841227	neutral	124	sub-06	1.0	6.0	124_neutral	0.0		212.78229476665	
32.0	191.09700768311086	pulse	1.0	t		28.0	female	white	5.676880222841227	neutral	124	sub-06	1.0	6.0	124_neutral	0.0		213.4822833867256	
32.0	191.79698634197484	pulse	1.0	t		28.0	female	white	5.676880222841227	neutral	124	sub-06	1.0	6.0	124_neutral	0.0		214.1822620455896	
32.0	192.4969668119702	pulse	1.0	t		28.0	female	white	5.676880222841227	neutral	124	sub-06	1.0	6.0	124_neutral	0.0		214.88224251558495	
32.0	193.19695030050934	pulse	1.0	t		28.0	female	white	5.676880222841227	neutral	124	sub-06	1.0	6.0	124_neutral	0.0		215.5822260041241	
33.0	193.2718320262502	face	0.0		146	37.0	male	white	3.898925586947871	neutral	101	sub-06	1.0	6.0	101_neutral	0.0		215.65710772986495	1.2333361808305199
33.0	193.89694042985866	pulse	0.0	t		37.0	male	white	3.898925586947871	neutral	101	sub-06	1.0	6.0	101_neutral	0.0		216.2822161334734	
33.0	194.50516820708071	fix	1.0		443	37.0	male	white	3.898925586947871	neutral	101	sub-06	1.0	6.0	101_neutral	0.0		216.89044391069547	3.758263803596492
33.0	194.59693720001087	pulse	1.0	t		37.0	male	white	3.898925586947871	neutral	101	sub-06	1.0	6.0	101_neutral	0.0		216.98221290362562	
33.0	195.29689895500996	pulse	1.0	t		37.0	male	white	3.898925586947871	neutral	101	sub-06	1.0	6.0	101_neutral	0.0		217.68217465862472	
33.0	195.99689572516218	pulse	1.0	t		37.0	male	white	3.898925586947871	neutral	101	sub-06	1.0	6.0	101_neutral	0.0		218.38217142877693	
33.0	196.69687438402616	pulse	1.0	t		37.0	male	white	3.898925586947871	neutral	101	sub-06	1.0	6.0	101_neutral	0.0		219.0821500876409	
33.0	197.39686783377692	pulse	1.0	t		37.0	male	white	3.898925586947871	neutral	101	sub-06	1.0	6.0	101_neutral	0.0		219.78214353739168	
33.0	198.0968473982066	pulse	1.0	t		37.0	male	white	3.898925586947871	neutral	101	sub-06	1.0	6.0	101_neutral	0.0		220.48212310182134	
34.0	198.2634320106772	face	0.0		147	24.0	female	black	3.0955033824114606	neutral	099	sub-06	1.0	6.0	099_neutral	0.0		220.64870771429196	1.2499433267585118
34.0	198.7968372257019	pulse	0.0	t		24.0	female	black	3.0955033824114606	neutral	099	sub-06	1.0	6.0	099_neutral	0.0		221.18211292931665	
34.0	199.49681075303306	pulse	0.0	t		24.0	female	black	3.0955033824114606	neutral	099	sub-06	1.0	6.0	099_neutral	0.0		221.8820864566478	
34.0	199.51337533743572	fix	1.0		443	24.0	female	black	3.0955033824114606	neutral	099	sub-06	1.0	6.0	099_neutral	0.0		221.89865104105047	3.7582517294031277
34.0	200.19681838995893	pulse	1.0	t		24.0	female	black	3.0955033824114606	neutral	099	sub-06	1.0	6.0	099_neutral	0.0		222.5820940935737	
34.0	200.8967888987463	pulse	1.0	t		24.0	female	black	3.0955033824114606	neutral	099	sub-06	1.0	6.0	099_neutral	0.0		223.28206460236106	
34.0	201.596779028092	pulse	1.0	t		24.0	female	black	3.0955033824114606	neutral	099	sub-06	1.0	6.0	099_neutral	0.0		223.98205473170674	
34.0	202.29676251663477	pulse	1.0	t		24.0	female	black	3.0955033824114606	neutral	099	sub-06	1.0	6.0	099_neutral	0.0		224.68203822024952	
34.0	202.996749023725	pulse	1.0	t		24.0	female	black	3.0955033824114606	neutral	099	sub-06	1.0	6.0	099_neutral	0.0		225.38202472733974	
35.0	203.27162706683885	face	0.0		145	54.0	female	white	2.286908077994429	smiling	136	sub-06	1.0	6.0	136_smiling	1.0	attractiveness	225.6569027704536	1.2333087120423443
35.0	203.69673613452687	pulse	0.0	t		54.0	female	white	2.286908077994429	smiling	136	sub-06	1.0	6.0	136_smiling	1.0	attractiveness	226.08201183814163	
35.0	204.3967217360514	pulse	0.0	t		54.0	female	white	2.286908077994429	smiling	136	sub-06	1.0	6.0	136_smiling	1.0	attractiveness	226.78199743966616	
35.0	204.5049357788812	fix	1.0		177	54.0	female	white	2.286908077994429	smiling	136	sub-06	1.0	6.0	136_smiling	1.0	attractiveness	226.89021148249594	1.4999832470566616
35.0	205.09670824314162	pulse	1.0	t		54.0	female	white	2.286908077994429	smiling	136	sub-06	1.0	6.0	136_smiling	1.0	attractiveness	227.48198394675637	
35.0	205.79669233539244	pulse	1.0	t		54.0	female	white	2.286908077994429	smiling	136	sub-06	1.0	6.0	136_smiling	1.0	attractiveness	228.1819680390072	
35.0	206.00491902593785	rating	2.0		295	54.0	female	white	2.286908077994429	smiling	136	sub-06	1.0	6.0	136_smiling	1.0	attractiveness	228.3901947295526	2.49993132803138
35.0	206.49668095546804	pulse	2.0	t		54.0	female	white	2.286908077994429	smiling	136	sub-06	1.0	6.0	136_smiling	1.0	attractiveness	228.8819566590828	
35.0	207.19665599207292	pulse	2.0	t		54.0	female	white	2.286908077994429	smiling	136	sub-06	1.0	6.0	136_smiling	1.0	attractiveness	229.58193169568767	
35.0	207.77998406810366	response	2.0	n		54.0	female	white	2.286908077994429	smiling	136	sub-06	1.0	6.0	136_smiling	1.0	attractiveness	230.1652597717184	
35.0	207.89663495279456	pulse	2.0	t		54.0	female	white	2.286908077994429	smiling	136	sub-06	1.0	6.0	136_smiling	1.0	attractiveness	230.2819106564093	
35.0	208.50485035396923	fix	3.0		443	54.0	female	white	2.286908077994429	smiling	136	sub-06	1.0	6.0	136_smiling	1.0	attractiveness	230.89012605758398	3.766587148049439
35.0	208.5966407785927	pulse	3.0	t		54.0	female	white	2.286908077994429	smiling	136	sub-06	1.0	6.0	136_smiling	1.0	attractiveness	230.98191648220745	
35.0	209.2966046465699	pulse	3.0	t		54.0	female	white	2.286908077994429	smiling	136	sub-06	1.0	6.0	136_smiling	1.0	attractiveness	231.68188035018466	
35.0	209.99659537962725	pulse	3.0	t		54.0	female	white	2.286908077994429	smiling	136	sub-06	1.0	6.0	136_smiling	1.0	attractiveness	232.381871083242	
35.0	210.69658309413717	pulse	3.0	t		54.0	female	white	2.286908077994429	smiling	136	sub-06	1.0	6.0	136_smiling	1.0	attractiveness	233.08185879775192	
35.0	211.3965910329207	pulse	3.0	t		54.0	female	white	2.286908077994429	smiling	136	sub-06	1.0	6.0	136_smiling	1.0	attractiveness	233.78186673653545	
35.0	212.09655218420448	pulse	3.0	t		54.0	female	white	2.286908077994429	smiling	136	sub-06	1.0	6.0	136_smiling	1.0	attractiveness	234.48182788781924	
36.0	212.27143750201867	face	0.0		146	31.0	female	west_asian	2.364902506963788	neutral	006	sub-06	1.0	6.0	006_neutral	0.0		234.65671320563342	1.2416568085900508
36.0	212.79654442653555	pulse	0.0	t		31.0	female	west_asian	2.364902506963788	neutral	006	sub-06	1.0	6.0	006_neutral	0.0		235.1818201301503	
36.0	213.49653183919145	pulse	0.0	t		31.0	female	west_asian	2.364902506963788	neutral	006	sub-06	1.0	6.0	006_neutral	0.0		235.8818075428062	
36.0	213.51309431060872	fix	1.0		443	31.0	female	west_asian	2.364902506963788	neutral	006	sub-06	1.0	6.0	006_neutral	0.0		235.89837001422347	3.750035845259845
36.0	214.19651321474885	pulse	1.0	t		31.0	female	west_asian	2.364902506963788	neutral	006	sub-06	1.0	6.0	006_neutral	0.0		236.5817889183636	
36.0	214.89649096805078	pulse	1.0	t		31.0	female	west_asian	2.364902506963788	neutral	006	sub-06	1.0	6.0	006_neutral	0.0		237.28176667166554	
36.0	215.5964786825607	pulse	1.0	t		31.0	female	west_asian	2.364902506963788	neutral	006	sub-06	1.0	6.0	006_neutral	0.0		237.98175438617545	
36.0	216.29646669892463	pulse	1.0	t		31.0	female	west_asian	2.364902506963788	neutral	006	sub-06	1.0	6.0	006_neutral	0.0		238.68174240253938	
36.0	216.99645501714258	pulse	1.0	t		31.0	female	west_asian	2.364902506963788	neutral	006	sub-06	1.0	6.0	006_neutral	0.0		239.38173072075733	
37.0	217.26313015586857	face	0.0		146	37.0	male	white	3.898925586947871	smiling	101	sub-06	1.0	6.0	101_smiling	0.0		239.64840585948332	1.2415197665104643
37.0	217.69644484463788	pulse	0.0	t		37.0	male	white	3.898925586947871	smiling	101	sub-06	1.0	6.0	101_smiling	0.0		240.08172054825263	
37.0	218.39643376656386	pulse	0.0	t		37.0	male	white	3.898925586947871	smiling	101	sub-06	1.0	6.0	101_smiling	0.0		240.7817094701786	
37.0	218.50464992237903	fix	1.0		444	37.0	male	white	3.898925586947871	smiling	101	sub-06	1.0	6.0	101_smiling	0.0		240.88992562599378	3.7583769991433655
37.0	219.09641242543148	pulse	1.0	t		37.0	male	white	3.898925586947871	smiling	101	sub-06	1.0	6.0	101_smiling	0.0		241.48168812904623	
37.0	219.79639229171516	pulse	1.0	t		37.0	male	white	3.898925586947871	smiling	101	sub-06	1.0	6.0	101_smiling	0.0		242.18166799532992	
37.0	220.49637728953167	pulse	1.0	t		37.0	male	white	3.898925586947871	smiling	101	sub-06	1.0	6.0	101_smiling	0.0		242.88165299314642	
37.0	221.1963640984759	pulse	1.0	t		37.0	male	white	3.898925586947871	smiling	101	sub-06	1.0	6.0	101_smiling	0.0		243.58163980209065	
37.0	221.8963490962924	pulse	1.0	t		37.0	male	white	3.898925586947871	smiling	101	sub-06	1.0	6.0	101_smiling	0.0		244.28162479990715	
38.0	222.2630269215224	face	0.0		146	31.0	female	west_asian	2.364902506963788	smiling	006	sub-06	1.0	6.0	006_smiling	0.0		244.64830262513715	1.2415110127221851
38.0	222.59635763878396	pulse	0.0	t		31.0	female	west_asian	2.364902506963788	smiling	006	sub-06	1.0	6.0	006_smiling	0.0		244.9816333423987	
38.0	223.2963181863597	pulse	0.0	t		31.0	female	west_asian	2.364902506963788	smiling	006	sub-06	1.0	6.0	006_smiling	0.0		245.68159388997447	
38.0	223.50453793424458	fix	1.0		444	31.0	female	west_asian	2.364902506963788	smiling	006	sub-06	1.0	6.0	006_smiling	0.0		245.88981363785933	3.75825414423889
38.0	223.9963321622381	pulse	1.0	t		31.0	female	west_asian	2.364902506963788	smiling	006	sub-06	1.0	6.0	006_smiling	0.0		246.38160786585286	
38.0	224.69629089868613	pulse	1.0	t		31.0	female	west_asian	2.364902506963788	smiling	006	sub-06	1.0	6.0	006_smiling	0.0		247.08156660230088	
38.0	225.3962897818201	pulse	1.0	t		31.0	female	west_asian	2.364902506963788	smiling	006	sub-06	1.0	6.0	006_smiling	0.0		247.78156548543484	
38.0	226.0962633091549	pulse	1.0	t		31.0	female	west_asian	2.364902506963788	smiling	006	sub-06	1.0	6.0	006_smiling	0.0		248.48153901276964	
38.0	226.7962519292305	pulse	1.0	t		31.0	female	west_asian	2.364902506963788	smiling	006	sub-06	1.0	6.0	006_smiling	0.0		249.18152763284525	
39.0	227.26279207848347	face	0.0		146	24.0	female	east_asian	2.9076800636689217	neutral	034	sub-06	1.0	6.0	034_neutral	0.0		249.64806778209822	1.2416782402833633
39.0	227.4962384363207	pulse	0.0	t		24.0	female	east_asian	2.9076800636689217	neutral	034	sub-06	1.0	6.0	034_neutral	0.0		249.88151413993546	
39.0	228.1962183026044	pulse	0.0	t		24.0	female	east_asian	2.9076800636689217	neutral	034	sub-06	1.0	6.0	034_neutral	0.0		250.58149400621915	
39.0	228.50447031876683	fix	1.0		444	24.0	female	east_asian	2.9076800636689217	neutral	034	sub-06	1.0	6.0	034_neutral	0.0		250.8897460223816	3.7498891438226565
39.0	228.89621145050114	pulse	1.0	t		24.0	female	east_asian	2.9076800636689217	neutral	034	sub-06	1.0	6.0	034_neutral	0.0		251.2814871541159	
39.0	229.596186185252	pulse	1.0	t		24.0	female	east_asian	2.9076800636689217	neutral	034	sub-06	1.0	6.0	034_neutral	0.0		251.98146188886676	
39.0	230.2961708812145	pulse	1.0	t		24.0	female	east_asian	2.9076800636689217	neutral	034	sub-06	1.0	6.0	034_neutral	0.0		252.68144658482925	
39.0	230.99616795322072	pulse	1.0	t		24.0	female	east_asian	2.9076800636689217	neutral	034	sub-06	1.0	6.0	034_neutral	0.0		253.38144365683547	
39.0	231.69614449910296	pulse	1.0	t		24.0	female	east_asian	2.9076800636689217	neutral	034	sub-06	1.0	6.0	034_neutral	0.0		254.0814202027177	
40.0	232.2543594625895	fix	0.0		720													254.63963516620424	5.999869900577323
40.0	232.39615092860913	pulse	0.0	t														254.78142663222388	
40.0	233.096115098444	pulse	0.0	t														255.48139080205874	
40.0	233.7961179056947	pulse	0.0	t														256.18139360930945	
40.0	234.49607996254417	pulse	0.0	t														256.8813556661589	
40.0	235.1960752234263	pulse	0.0	t														257.58135092704106	
40.0	235.89606052309682	pulse	0.0	t														258.2813362267116	
40.0	236.59604582276734	pulse	0.0	t														258.9813215263821	
40.0	237.2960190482445	pulse	0.0	t														259.68129475185924	
40.0	237.99601883694777	pulse	0.0	t														260.3812945405625	
