trial_nr	onset	event_type	phase	response	nr_frames	face_age	face_sex	face_eth	attractiveness	expression	face_id	sub_id	ses	run	trial_type	catch	rating_type	onset_abs	duration
-1.0	0.05960579950988176	fix	0.0		713													23.8171036140684	5.957926330100236
-1.0	0.701079921951532	pulse	0.0	t														24.45857773651005	
-1.0	1.4010692362298869	pulse	0.0	t														25.158567050788406	
-1.0	2.101044966964764	pulse	0.0	t														25.858542781523283	
-1.0	2.801046959217274	pulse	0.0	t														26.558544773775793	
-1.0	3.5010266140870954	pulse	0.0	t														27.258524428645615	
-1.0	4.2010210599273705	pulse	0.0	t														27.95851887448589	
-1.0	4.9010109779173945	pulse	0.0	t														28.658508792475914	
-1.0	5.600996971774293	pulse	0.0	t														29.358494786332813	
0.0	6.017532129610117	face	0.0		144	25.0	female	west_asian	2.6756864305610826	smiling	064	sub-09	1.0	2.0	064_smiling	0.0		29.775029944168637	1.2333287652363651
0.0	6.3010013788807555	pulse	0.0	t		25.0	female	west_asian	2.6756864305610826	smiling	064	sub-09	1.0	2.0	064_smiling	0.0		30.058499193439275	
0.0	7.000982543031569	pulse	0.0	t		25.0	female	west_asian	2.6756864305610826	smiling	064	sub-09	1.0	2.0	064_smiling	0.0		30.758480357590088	
0.0	7.2508608948464826	fix	1.0		445	25.0	female	west_asian	2.6756864305610826	smiling	064	sub-09	1.0	2.0	064_smiling	0.0		31.008358709405	3.75827811371164
0.0	7.7009730647369	pulse	1.0	t		25.0	female	west_asian	2.6756864305610826	smiling	064	sub-09	1.0	2.0	064_smiling	0.0		31.45847087929542	
0.0	8.400950908466257	pulse	1.0	t		25.0	female	west_asian	2.6756864305610826	smiling	064	sub-09	1.0	2.0	064_smiling	0.0		32.158448723024776	
0.0	9.100943845023721	pulse	1.0	t		25.0	female	west_asian	2.6756864305610826	smiling	064	sub-09	1.0	2.0	064_smiling	0.0		32.85844165958224	
0.0	9.800934064871399	pulse	1.0	t		25.0	female	west_asian	2.6756864305610826	smiling	064	sub-09	1.0	2.0	064_smiling	0.0		33.55843187942992	
0.0	10.500925190290218	pulse	1.0	t		25.0	female	west_asian	2.6756864305610826	smiling	064	sub-09	1.0	2.0	064_smiling	0.0		34.25842300484874	
1.0	11.009139008558122	face	0.0		146	24.0	female	east_asian	4.409868682849185	neutral	030	sub-09	1.0	2.0	030_neutral	0.0		34.76663682311664	1.2416533648556651
1.0	11.200921145413304	pulse	0.0	t		24.0	female	east_asian	4.409868682849185	neutral	030	sub-09	1.0	2.0	030_neutral	0.0		34.95841895997182	
1.0	11.900909252264682	pulse	0.0	t		24.0	female	east_asian	4.409868682849185	neutral	030	sub-09	1.0	2.0	030_neutral	0.0		35.6584070668232	
1.0	12.250792373413788	fix	1.0		445	24.0	female	east_asian	4.409868682849185	neutral	030	sub-09	1.0	2.0	030_neutral	0.0		36.00829018797231	3.758255474469479
1.0	12.600899170256525	pulse	1.0	t		24.0	female	east_asian	4.409868682849185	neutral	030	sub-09	1.0	2.0	030_neutral	0.0		36.358396984815045	
1.0	13.300873995420261	pulse	1.0	t		24.0	female	east_asian	4.409868682849185	neutral	030	sub-09	1.0	2.0	030_neutral	0.0		37.05837180997878	
1.0	14.000877195099747	pulse	1.0	t		24.0	female	east_asian	4.409868682849185	neutral	030	sub-09	1.0	2.0	030_neutral	0.0		37.758375009658266	
1.0	14.700857151825403	pulse	1.0	t		24.0	female	east_asian	4.409868682849185	neutral	030	sub-09	1.0	2.0	030_neutral	0.0		38.45835496638392	
1.0	15.400840428974334	pulse	1.0	t		24.0	female	east_asian	4.409868682849185	neutral	030	sub-09	1.0	2.0	030_neutral	0.0		39.15833824353285	
2.0	16.009047847883267	face	0.0		146	22.0	male	black	2.767608436132113	neutral	044	sub-09	1.0	2.0	044_neutral	0.0		39.766545662441786	1.2416669483991427
2.0	16.100849062071575	pulse	0.0	t		22.0	male	black	2.767608436132113	neutral	044	sub-09	1.0	2.0	044_neutral	0.0		39.858346876630094	
2.0	16.800839583775087	pulse	0.0	t		22.0	male	black	2.767608436132113	neutral	044	sub-09	1.0	2.0	044_neutral	0.0		40.558337398333606	
2.0	17.25071479628241	fix	1.0		444	22.0	male	black	2.767608436132113	neutral	044	sub-09	1.0	2.0	044_neutral	0.0		41.00821261084093	3.7582669450184767
2.0	17.500824973918498	pulse	1.0	t		22.0	male	black	2.767608436132113	neutral	044	sub-09	1.0	2.0	044_neutral	0.0		41.25832278847702	
2.0	18.20080100651103	pulse	1.0	t		22.0	male	black	2.767608436132113	neutral	044	sub-09	1.0	2.0	044_neutral	0.0		41.95829882106955	
2.0	18.900805715471506	pulse	1.0	t		22.0	male	black	2.767608436132113	neutral	044	sub-09	1.0	2.0	044_neutral	0.0		42.658303530030025	
2.0	19.600779635067738	pulse	1.0	t		22.0	male	black	2.767608436132113	neutral	044	sub-09	1.0	2.0	044_neutral	0.0		43.35827744962626	
2.0	20.30076713820563	pulse	1.0	t		22.0	male	black	2.767608436132113	neutral	044	sub-09	1.0	2.0	044_neutral	0.0		44.05826495276415	
3.0	21.008981741300886	face	0.0		147	28.0	male	east_asian	1.5563072025467568	smiling	005	sub-09	1.0	2.0	005_smiling	0.0		44.766479555859405	1.2416575908464438
3.0	21.002048398469924	pulse	0.0	t		28.0	male	east_asian	1.5563072025467568	smiling	005	sub-09	1.0	2.0	005_smiling	0.0		44.75954621302844	
3.0	21.700760255876958	pulse	0.0	t		28.0	male	east_asian	1.5563072025467568	smiling	005	sub-09	1.0	2.0	005_smiling	0.0		45.45825807043548	
3.0	22.25063933214733	fix	1.0		444	28.0	male	east_asian	1.5563072025467568	smiling	005	sub-09	1.0	2.0	005_smiling	0.0		46.00813714670585	3.766608750460364
3.0	22.400749268299478	pulse	1.0	t		28.0	male	east_asian	1.5563072025467568	smiling	005	sub-09	1.0	2.0	005_smiling	0.0		46.158247082858	
3.0	23.100729225025134	pulse	1.0	t		28.0	male	east_asian	1.5563072025467568	smiling	005	sub-09	1.0	2.0	005_smiling	0.0		46.85822703958365	
3.0	23.800736348839564	pulse	1.0	t		28.0	male	east_asian	1.5563072025467568	smiling	005	sub-09	1.0	2.0	005_smiling	0.0		47.55823416339808	
3.0	24.50070906100882	pulse	1.0	t		28.0	male	east_asian	1.5563072025467568	smiling	005	sub-09	1.0	2.0	005_smiling	0.0		48.25820687556734	
3.0	25.20070169570863	pulse	1.0	t		28.0	male	east_asian	1.5563072025467568	smiling	005	sub-09	1.0	2.0	005_smiling	0.0		48.95819951026715	
3.0	25.90068919884834	pulse	1.0	t		28.0	male	east_asian	1.5563072025467568	smiling	005	sub-09	1.0	2.0	005_smiling	0.0		49.65818701340686	
4.0	26.017248082607694	face	0.0		146	20.0	female	white	3.9502586549940313	neutral	091	sub-09	1.0	2.0	091_neutral	0.0		49.77474589716621	1.233312163127266
4.0	26.600687870679394	pulse	0.0	t		20.0	female	white	3.9502586549940313	neutral	091	sub-09	1.0	2.0	091_neutral	0.0		50.35818568523791	
4.0	27.25056024573496	fix	1.0		443	20.0	female	white	3.9502586549940313	neutral	091	sub-09	1.0	2.0	091_neutral	0.0		51.00805806029348	3.766612674593489
4.0	27.300700729767414	pulse	1.0	t		20.0	female	white	3.9502586549940313	neutral	091	sub-09	1.0	2.0	091_neutral	0.0		51.05819854432593	
4.0	28.00065683982757	pulse	1.0	t		20.0	female	white	3.9502586549940313	neutral	091	sub-09	1.0	2.0	091_neutral	0.0		51.75815465438609	
4.0	28.700651889379515	pulse	1.0	t		20.0	female	white	3.9502586549940313	neutral	091	sub-09	1.0	2.0	091_neutral	0.0		52.458149703938034	
4.0	29.400639996232712	pulse	1.0	t		20.0	female	white	3.9502586549940313	neutral	091	sub-09	1.0	2.0	091_neutral	0.0		53.15813781079123	
4.0	30.1006317253632	pulse	1.0	t		20.0	female	white	3.9502586549940313	neutral	091	sub-09	1.0	2.0	091_neutral	0.0		53.85812953992172	
4.0	30.800614700656297	pulse	1.0	t		20.0	female	white	3.9502586549940313	neutral	091	sub-09	1.0	2.0	091_neutral	0.0		54.558112515214816	
5.0	31.01717292032845	face	0.0		145	27.0	male	black	3.5523278949462798	smiling	042	sub-09	1.0	2.0	042_smiling	0.0		54.77467073488697	1.2333139742695494
5.0	31.500615183624177	pulse	0.0	t		27.0	male	black	3.5523278949462798	smiling	042	sub-09	1.0	2.0	042_smiling	0.0		55.258112998182696	
5.0	32.20058849950874	pulse	0.0	t		27.0	male	black	3.5523278949462798	smiling	042	sub-09	1.0	2.0	042_smiling	0.0		55.95808631406726	
5.0	32.250486894598	fix	1.0		445	27.0	male	black	3.5523278949462798	smiling	042	sub-09	1.0	2.0	042_smiling	0.0		56.00798470915652	3.7665930539187684
5.0	32.90059381218089	pulse	1.0	t		27.0	male	black	3.5523278949462798	smiling	042	sub-09	1.0	2.0	042_smiling	0.0		56.658091626739406	
5.0	33.60058463574387	pulse	1.0	t		27.0	male	black	3.5523278949462798	smiling	042	sub-09	1.0	2.0	042_smiling	0.0		57.35808245030239	
5.0	34.300568818460306	pulse	1.0	t		27.0	male	black	3.5523278949462798	smiling	042	sub-09	1.0	2.0	042_smiling	0.0		58.058066633018825	
5.0	35.00054998261112	pulse	1.0	t		27.0	male	black	3.5523278949462798	smiling	042	sub-09	1.0	2.0	042_smiling	0.0		58.75804779716964	
5.0	35.700547447017016	pulse	1.0	t		27.0	male	black	3.5523278949462798	smiling	042	sub-09	1.0	2.0	042_smiling	0.0		59.458045261575535	
6.0	36.017079948516766	face	0.0		145	24.0	female	black	3.0955033824114606	smiling	099	sub-09	1.0	2.0	099_smiling	0.0		59.774577763075285	1.2333302745173569
6.0	36.400553061550454	pulse	0.0	t		24.0	female	black	3.0955033824114606	smiling	099	sub-09	1.0	2.0	099_smiling	0.0		60.15805087610897	
6.0	37.100525471862056	pulse	0.0	t		24.0	female	black	3.0955033824114606	smiling	099	sub-09	1.0	2.0	099_smiling	0.0		60.858023286420575	
6.0	37.25041022303412	fix	1.0		445	24.0	female	black	3.0955033824114606	smiling	099	sub-09	1.0	2.0	099_smiling	0.0		61.00790803759264	3.7666135801664495
6.0	37.8005184084177	pulse	1.0	t		24.0	female	black	3.0955033824114606	smiling	099	sub-09	1.0	2.0	099_smiling	0.0		61.55801622297622	
6.0	38.50050319484944	pulse	1.0	t		24.0	female	black	3.0955033824114606	smiling	099	sub-09	1.0	2.0	099_smiling	0.0		62.25800100940796	
6.0	39.20049190541613	pulse	1.0	t		24.0	female	black	3.0955033824114606	smiling	099	sub-09	1.0	2.0	099_smiling	0.0		62.95798971997465	
6.0	39.90048755867974	pulse	1.0	t		24.0	female	black	3.0955033824114606	smiling	099	sub-09	1.0	2.0	099_smiling	0.0		63.65798537323826	
6.0	40.600473854392476	pulse	1.0	t		24.0	female	black	3.0955033824114606	smiling	099	sub-09	1.0	2.0	099_smiling	0.0		64.357971668951	
7.0	41.01702380320057	face	0.0		145	28.0	male	white	3.9076800636689217	smiling	033	sub-09	1.0	2.0	033_smiling	0.0		64.77452161775909	1.2333233318167913
7.0	41.30046558352478	pulse	0.0	t		28.0	male	white	3.9076800636689217	smiling	033	sub-09	1.0	2.0	033_smiling	0.0		65.0579633980833	
7.0	42.00045670894178	pulse	0.0	t		28.0	male	white	3.9076800636689217	smiling	033	sub-09	1.0	2.0	033_smiling	0.0		65.7579545235003	
7.0	42.250347135017364	fix	1.0		445	28.0	male	white	3.9076800636689217	smiling	033	sub-09	1.0	2.0	033_smiling	0.0		66.00784494957588	3.7666018077616172
7.0	42.70044572136612	pulse	1.0	t		28.0	male	white	3.9076800636689217	smiling	033	sub-09	1.0	2.0	033_smiling	0.0		66.45794353592464	
7.0	43.40042416880897	pulse	1.0	t		28.0	male	white	3.9076800636689217	smiling	033	sub-09	1.0	2.0	033_smiling	0.0		67.15792198336749	
7.0	44.10042102949956	pulse	1.0	t		28.0	male	white	3.9076800636689217	smiling	033	sub-09	1.0	2.0	033_smiling	0.0		67.85791884405808	
7.0	44.80041547533983	pulse	1.0	t		28.0	male	white	3.9076800636689217	smiling	033	sub-09	1.0	2.0	033_smiling	0.0		68.55791328989835	
7.0	45.50039845062929	pulse	1.0	t		28.0	male	white	3.9076800636689217	smiling	033	sub-09	1.0	2.0	033_smiling	0.0		69.25789626518781	
8.0	46.01694894277898	face	0.0		145	19.0	male	white	3.2522881018702745	neutral	018	sub-09	1.0	2.0	018_neutral	0.0		69.7744467573375	1.233314276123565
8.0	46.20039470760821	pulse	0.0	t		19.0	male	white	3.2522881018702745	neutral	018	sub-09	1.0	2.0	018_neutral	0.0		69.95789252216673	
8.0	46.90039881285702	pulse	0.0	t		19.0	male	white	3.2522881018702745	neutral	018	sub-09	1.0	2.0	018_neutral	0.0		70.65789662741554	
8.0	47.250263218902546	fix	1.0		445	19.0	male	white	3.2522881018702745	neutral	018	sub-09	1.0	2.0	018_neutral	0.0		71.00776103346107	3.766586111218203
8.0	47.60037695844585	pulse	1.0	t		19.0	male	white	3.2522881018702745	neutral	018	sub-09	1.0	2.0	018_neutral	0.0		71.35787477300437	
8.0	48.300357518884994	pulse	1.0	t		19.0	male	white	3.2522881018702745	neutral	018	sub-09	1.0	2.0	018_neutral	0.0		72.05785533344351	
8.0	49.00034894615965	pulse	1.0	t		19.0	male	white	3.2522881018702745	neutral	018	sub-09	1.0	2.0	018_neutral	0.0		72.75784676071817	
8.0	49.70033644929572	pulse	1.0	t		19.0	male	white	3.2522881018702745	neutral	018	sub-09	1.0	2.0	018_neutral	0.0		73.45783426385424	
8.0	50.400329687712656	pulse	1.0	t		19.0	male	white	3.2522881018702745	neutral	018	sub-09	1.0	2.0	018_neutral	0.0		74.15782750227118	
9.0	51.01684933012075	face	0.0		145	27.0	female	white	3.504576203740549	neutral	144	sub-09	1.0	2.0	144_neutral	0.0		74.77434714467927	1.2333390283602057
9.0	51.10033198181918	pulse	0.0	t		27.0	female	white	3.504576203740549	neutral	144	sub-09	1.0	2.0	144_neutral	0.0		74.8578297963777	
9.0	51.800311938546656	pulse	0.0	t		27.0	female	white	3.504576203740549	neutral	144	sub-09	1.0	2.0	144_neutral	0.0		75.55780975310518	
9.0	52.250188358480955	fix	1.0		444	27.0	female	white	3.504576203740549	neutral	144	sub-09	1.0	2.0	144_neutral	0.0		76.00768617303947	3.766582790794928
9.0	52.50030095096736	pulse	1.0	t		27.0	female	white	3.504576203740549	neutral	144	sub-09	1.0	2.0	144_neutral	0.0		76.25779876552588	
9.0	53.20027487056359	pulse	1.0	t		27.0	female	white	3.504576203740549	neutral	144	sub-09	1.0	2.0	144_neutral	0.0		76.95777268512211	
9.0	53.90027354239646	pulse	1.0	t		27.0	female	white	3.504576203740549	neutral	144	sub-09	1.0	2.0	144_neutral	0.0		77.65777135695498	
9.0	54.60025953625154	pulse	1.0	t		27.0	female	white	3.504576203740549	neutral	144	sub-09	1.0	2.0	144_neutral	0.0		78.35775735081006	
9.0	55.300257302511454	pulse	1.0	t		27.0	female	white	3.504576203740549	neutral	144	sub-09	1.0	2.0	144_neutral	0.0		79.05775511706997	
10.0	56.01677114927588	face	0.0		146	27.0	female	white	3.504576203740549	smiling	144	sub-09	1.0	2.0	144_smiling	0.0		79.7742689638344	1.2333399339295283
10.0	56.00303788420206	pulse	0.0	t		27.0	female	white	3.504576203740549	smiling	144	sub-09	1.0	2.0	144_smiling	0.0		79.76053569876058	
10.0	56.7002311013639	pulse	0.0	t		27.0	female	white	3.504576203740549	smiling	144	sub-09	1.0	2.0	144_smiling	0.0		80.45772891592242	
10.0	57.25011108320541	fix	1.0		444	27.0	female	white	3.504576203740549	smiling	144	sub-09	1.0	2.0	144_smiling	0.0		81.00760889776393	3.7582790192791435
10.0	57.400223434207874	pulse	1.0	t		27.0	female	white	3.504576203740549	smiling	144	sub-09	1.0	2.0	144_smiling	0.0		81.15772124876639	
10.0	58.10020037236973	pulse	1.0	t		27.0	female	white	3.504576203740549	smiling	144	sub-09	1.0	2.0	144_smiling	0.0		81.85769818692825	
10.0	58.80020206276822	pulse	1.0	t		27.0	female	white	3.504576203740549	smiling	144	sub-09	1.0	2.0	144_smiling	0.0		82.55769987732674	
10.0	59.50017718978779	pulse	1.0	t		27.0	female	white	3.504576203740549	smiling	144	sub-09	1.0	2.0	144_smiling	0.0		83.25767500434631	
10.0	60.20016590035448	pulse	1.0	t		27.0	female	white	3.504576203740549	smiling	144	sub-09	1.0	2.0	144_smiling	0.0		83.957663714913	
10.0	60.9001621573334	pulse	1.0	t		27.0	female	white	3.504576203740549	smiling	144	sub-09	1.0	2.0	144_smiling	0.0		84.65765997189192	
11.0	61.008390102484555	face	0.0		147	22.0	male	black	2.767608436132113	smiling	044	sub-09	1.0	2.0	044_smiling	1.0	trustworthiness	84.76588791704307	1.2416391775986995
11.0	61.60018105355266	pulse	0.0	t		22.0	male	black	2.767608436132113	smiling	044	sub-09	1.0	2.0	044_smiling	1.0	trustworthiness	85.35767886811118	
11.0	62.250029280083254	fix	1.0		176	22.0	male	black	2.767608436132113	smiling	044	sub-09	1.0	2.0	044_smiling	1.0	trustworthiness	86.00752709464177	1.5083481444271456
11.0	62.30013052276627	pulse	1.0	t		22.0	male	black	2.767608436132113	smiling	044	sub-09	1.0	2.0	044_smiling	1.0	trustworthiness	86.05762833732479	
11.0	63.00013734472304	pulse	1.0	t		22.0	male	black	2.767608436132113	smiling	044	sub-09	1.0	2.0	044_smiling	1.0	trustworthiness	86.75763515928156	
11.0	63.70012333858176	pulse	1.0	t		22.0	male	black	2.767608436132113	smiling	044	sub-09	1.0	2.0	044_smiling	1.0	trustworthiness	87.45762115314028	
11.0	63.7583774245104	rating	2.0		294	22.0	male	black	2.767608436132113	smiling	044	sub-09	1.0	2.0	044_smiling	1.0	trustworthiness	87.51587523906892	2.4915954084026453
11.0	64.40012140669933	pulse	2.0	t		22.0	male	black	2.767608436132113	smiling	044	sub-09	1.0	2.0	044_smiling	1.0	trustworthiness	88.15761922125785	
11.0	65.10010226899612	pulse	2.0	t		22.0	male	black	2.767608436132113	smiling	044	sub-09	1.0	2.0	044_smiling	1.0	trustworthiness	88.85760008355464	
11.0	65.48343139646022	response	2.0	b		22.0	male	black	2.767608436132113	smiling	044	sub-09	1.0	2.0	044_smiling	1.0	trustworthiness	89.24092921101874	
11.0	65.8000752830194	pulse	2.0	t		22.0	male	black	2.767608436132113	smiling	044	sub-09	1.0	2.0	044_smiling	1.0	trustworthiness	89.55757309757792	
11.0	66.24997283291304	fix	3.0		444	22.0	male	black	2.767608436132113	smiling	044	sub-09	1.0	2.0	044_smiling	1.0	trustworthiness	90.00747064747156	3.7582729821479006
11.0	66.50008542539945	pulse	3.0	t		22.0	male	black	2.767608436132113	smiling	044	sub-09	1.0	2.0	044_smiling	1.0	trustworthiness	90.25758323995797	
11.0	67.20006538212692	pulse	3.0	t		22.0	male	black	2.767608436132113	smiling	044	sub-09	1.0	2.0	044_smiling	1.0	trustworthiness	90.95756319668544	
11.0	67.90006345024449	pulse	3.0	t		22.0	male	black	2.767608436132113	smiling	044	sub-09	1.0	2.0	044_smiling	1.0	trustworthiness	91.65756126480301	
11.0	68.60005216081117	pulse	3.0	t		22.0	male	black	2.767608436132113	smiling	044	sub-09	1.0	2.0	044_smiling	1.0	trustworthiness	92.3575499753697	
11.0	69.30004268251287	pulse	3.0	t		22.0	male	black	2.767608436132113	smiling	044	sub-09	1.0	2.0	044_smiling	1.0	trustworthiness	93.05754049707139	
12.0	70.00824581506095	face	0.0		146	20.0	male	black	3.1070433744528456	smiling	082	sub-09	1.0	2.0	082_smiling	1.0	dominance	93.76574362961946	1.241655477850145
12.0	70.00169492446366	pulse	0.0	t		20.0	male	black	3.1070433744528456	smiling	082	sub-09	1.0	2.0	082_smiling	1.0	dominance	93.75919273902218	
12.0	70.70001949993093	pulse	0.0	t		20.0	male	black	3.1070433744528456	smiling	082	sub-09	1.0	2.0	082_smiling	1.0	dominance	94.45751731448945	
12.0	71.24990129291109	fix	1.0		177	20.0	male	black	3.1070433744528456	smiling	082	sub-09	1.0	2.0	082_smiling	1.0	dominance	95.00739910746961	1.4999761533326819
12.0	71.40002149218344	pulse	1.0	t		20.0	male	black	3.1070433744528456	smiling	082	sub-09	1.0	2.0	082_smiling	1.0	dominance	95.15751930674196	
12.0	72.09998907279441	pulse	1.0	t		20.0	male	black	3.1070433744528456	smiling	082	sub-09	1.0	2.0	082_smiling	1.0	dominance	95.85748688735293	
12.0	72.74987744624377	rating	2.0		294	20.0	male	black	3.1070433744528456	smiling	082	sub-09	1.0	2.0	082_smiling	1.0	dominance	96.50737526080229	2.499962871646858
12.0	72.79998865019297	pulse	2.0	t		20.0	male	black	3.1070433744528456	smiling	082	sub-09	1.0	2.0	082_smiling	1.0	dominance	96.55748646475149	
12.0	73.49998641645652	pulse	2.0	t		20.0	male	black	3.1070433744528456	smiling	082	sub-09	1.0	2.0	082_smiling	1.0	dominance	97.25748423101504	
12.0	74.199968184319	pulse	2.0	t		20.0	male	black	3.1070433744528456	smiling	082	sub-09	1.0	2.0	082_smiling	1.0	dominance	97.95746599887752	
12.0	74.46971654463414	response	2.0	e		20.0	male	black	3.1070433744528456	smiling	082	sub-09	1.0	2.0	082_smiling	1.0	dominance	98.22721435919266	
12.0	74.89994210391524	pulse	2.0	t		20.0	male	black	3.1070433744528456	smiling	082	sub-09	1.0	2.0	082_smiling	1.0	dominance	98.65743991847376	
12.0	75.24984031789063	fix	3.0		444	20.0	male	black	3.1070433744528456	smiling	082	sub-09	1.0	2.0	082_smiling	1.0	dominance	99.00733813244915	3.7583354664529907
12.0	75.59994319059842	pulse	3.0	t		20.0	male	black	3.1070433744528456	smiling	082	sub-09	1.0	2.0	082_smiling	1.0	dominance	99.35744100515694	
12.0	76.29992797703017	pulse	3.0	t		20.0	male	black	3.1070433744528456	smiling	082	sub-09	1.0	2.0	082_smiling	1.0	dominance	100.05742579158868	
12.0	76.99992212101279	pulse	3.0	t		20.0	male	black	3.1070433744528456	smiling	082	sub-09	1.0	2.0	082_smiling	1.0	dominance	100.7574199355713	
12.0	77.69991264271812	pulse	3.0	t		20.0	male	black	3.1070433744528456	smiling	082	sub-09	1.0	2.0	082_smiling	1.0	dominance	101.45741045727664	
12.0	78.39989229758794	pulse	3.0	t		20.0	male	black	3.1070433744528456	smiling	082	sub-09	1.0	2.0	082_smiling	1.0	dominance	102.15739011214646	
13.0	79.00817578434362	face	0.0		146	40.0	male	white	1.868682849184242	smiling	172	sub-09	1.0	2.0	172_smiling	0.0		102.76567359890214	1.241590880552394
13.0	79.09988191372031	pulse	0.0	t		40.0	male	white	1.868682849184242	smiling	172	sub-09	1.0	2.0	172_smiling	0.0		102.85737972827883	
13.0	79.7998878301114	pulse	0.0	t		40.0	male	white	1.868682849184242	smiling	172	sub-09	1.0	2.0	172_smiling	0.0		103.55738564466992	
13.0	80.24976666489601	fix	1.0		444	40.0	male	white	1.868682849184242	smiling	172	sub-09	1.0	2.0	172_smiling	0.0		104.00726447945453	3.76658520564888
13.0	80.49987382396648	pulse	1.0	t		40.0	male	white	1.868682849184242	smiling	172	sub-09	1.0	2.0	172_smiling	0.0		104.257371638525	
13.0	81.19985287512463	pulse	1.0	t		40.0	male	white	1.868682849184242	smiling	172	sub-09	1.0	2.0	172_smiling	0.0		104.95735068968315	
13.0	81.89985547108881	pulse	1.0	t		40.0	male	white	1.868682849184242	smiling	172	sub-09	1.0	2.0	172_smiling	0.0		105.65735328564733	
13.0	82.59984237051685	pulse	1.0	t		40.0	male	white	1.868682849184242	smiling	172	sub-09	1.0	2.0	172_smiling	0.0		106.35734018507537	
13.0	83.29981810124809	pulse	1.0	t		40.0	male	white	1.868682849184242	smiling	172	sub-09	1.0	2.0	172_smiling	0.0		107.05731591580661	
14.0	84.0163518705449	face	0.0		146	40.0	male	black	2.408674890569041	neutral	061	sub-09	1.0	2.0	061_neutral	0.0		107.77384968510341	1.2333420469258272
14.0	84.00264939483895	pulse	0.0	t		40.0	male	black	2.408674890569041	neutral	061	sub-09	1.0	2.0	061_neutral	0.0		107.76014720939747	
14.0	84.69980276693605	pulse	0.0	t		40.0	male	black	2.408674890569041	neutral	061	sub-09	1.0	2.0	061_neutral	0.0		108.45730058149456	
14.0	85.24969391747072	fix	1.0		443	40.0	male	black	2.408674890569041	neutral	061	sub-09	1.0	2.0	061_neutral	0.0		109.00719173202924	3.7665903372071625
14.0	85.39980234433824	pulse	1.0	t		40.0	male	black	2.408674890569041	neutral	061	sub-09	1.0	2.0	061_neutral	0.0		109.15730015889676	
14.0	86.09978984747795	pulse	1.0	t		40.0	male	black	2.408674890569041	neutral	061	sub-09	1.0	2.0	061_neutral	0.0		109.85728766203647	
14.0	86.79977463390969	pulse	1.0	t		40.0	male	black	2.408674890569041	neutral	061	sub-09	1.0	2.0	061_neutral	0.0		110.55727244846821	
14.0	87.49976394818805	pulse	1.0	t		40.0	male	black	2.408674890569041	neutral	061	sub-09	1.0	2.0	061_neutral	0.0		111.25726176274657	
14.0	88.19975567731672	pulse	1.0	t		40.0	male	black	2.408674890569041	neutral	061	sub-09	1.0	2.0	061_neutral	0.0		111.95725349187524	
14.0	88.89974770830668	pulse	1.0	t		40.0	male	black	2.408674890569041	neutral	061	sub-09	1.0	2.0	061_neutral	0.0		112.6572455228652	
15.0	89.01628425467788	face	0.0		146	20.0	male	black	2.609629924393156	neutral	043	sub-09	1.0	2.0	043_neutral	0.0		112.7737820692364	1.2333305763786484
15.0	89.59973581515806	pulse	0.0	t		20.0	male	black	2.609629924393156	neutral	043	sub-09	1.0	2.0	043_neutral	0.0		113.35723362971657	
15.0	90.24961483105653	fix	1.0		443	20.0	male	black	2.609629924393156	neutral	043	sub-09	1.0	2.0	043_neutral	0.0		114.00711264561505	3.7582578893234313
15.0	90.29973116656765	pulse	1.0	t		20.0	male	black	2.609629924393156	neutral	043	sub-09	1.0	2.0	043_neutral	0.0		114.05722898112617	
15.0	90.99970599172957	pulse	1.0	t		20.0	male	black	2.609629924393156	neutral	043	sub-09	1.0	2.0	043_neutral	0.0		114.75720380628809	
15.0	91.69970013571583	pulse	1.0	t		20.0	male	black	2.609629924393156	neutral	043	sub-09	1.0	2.0	043_neutral	0.0		115.45719795027435	
15.0	92.39968371471696	pulse	1.0	t		20.0	male	black	2.609629924393156	neutral	043	sub-09	1.0	2.0	043_neutral	0.0		116.15718152927548	
15.0	93.09967514199161	pulse	1.0	t		20.0	male	black	2.609629924393156	neutral	043	sub-09	1.0	2.0	043_neutral	0.0		116.85717295655013	
15.0	93.79967079525886	pulse	1.0	t		20.0	male	black	2.609629924393156	neutral	043	sub-09	1.0	2.0	043_neutral	0.0		117.55716860981738	
16.0	94.00787272037996	face	0.0		146	23.0	male	white	2.6275368085953046	neutral	141	sub-09	1.0	2.0	141_neutral	0.0		117.76537053493848	1.241669363251276
16.0	94.49966675038013	pulse	0.0	t		23.0	male	white	2.6275368085953046	neutral	141	sub-09	1.0	2.0	141_neutral	0.0		118.25716456493865	
16.0	95.19965515908916	pulse	0.0	t		23.0	male	white	2.6275368085953046	neutral	141	sub-09	1.0	2.0	141_neutral	0.0		118.95715297364768	
16.0	95.24954208363124	fix	1.0		445	23.0	male	white	2.6275368085953046	neutral	141	sub-09	1.0	2.0	141_neutral	0.0		119.00703989818976	3.7666162968707795
16.0	95.89962877682774	pulse	1.0	t		23.0	male	white	2.6275368085953046	neutral	141	sub-09	1.0	2.0	141_neutral	0.0		119.65712659138626	
16.0	96.59963771178082	pulse	1.0	t		23.0	male	white	2.6275368085953046	neutral	141	sub-09	1.0	2.0	141_neutral	0.0		120.35713552633933	
16.0	97.29960891466908	pulse	1.0	t		23.0	male	white	2.6275368085953046	neutral	141	sub-09	1.0	2.0	141_neutral	0.0		121.0571067292276	
16.0	97.99960637907498	pulse	1.0	t		23.0	male	white	2.6275368085953046	neutral	141	sub-09	1.0	2.0	141_neutral	0.0		121.7571041936335	
16.0	98.69959237293006	pulse	1.0	t		23.0	male	white	2.6275368085953046	neutral	141	sub-09	1.0	2.0	141_neutral	0.0		122.45709018748857	
17.0	99.01615838050202	face	0.0		145	19.0	male	white	3.2522881018702745	smiling	018	sub-09	1.0	2.0	018_smiling	0.0		122.77365619506054	1.2333073334229994
17.0	99.39962183412717	pulse	0.0	t		19.0	male	white	3.2522881018702745	smiling	018	sub-09	1.0	2.0	018_smiling	0.0		123.1571196486857	
17.0	100.0995703977751	pulse	0.0	t		19.0	male	white	3.2522881018702745	smiling	018	sub-09	1.0	2.0	018_smiling	0.0		123.85706821233362	
17.0	100.24946571392502	fix	1.0		444	19.0	male	white	3.2522881018702745	smiling	018	sub-09	1.0	2.0	018_smiling	0.0		124.00696352848354	3.7666015059039637
17.0	100.79956605103871	pulse	1.0	t		19.0	male	white	3.2522881018702745	smiling	018	sub-09	1.0	2.0	018_smiling	0.0		124.55706386559723	
17.0	101.4995511393281	pulse	1.0	t		19.0	male	white	3.2522881018702745	smiling	018	sub-09	1.0	2.0	018_smiling	0.0		125.25704895388662	
17.0	102.19953230347892	pulse	1.0	t		19.0	male	white	3.2522881018702745	smiling	018	sub-09	1.0	2.0	018_smiling	0.0		125.95703011803744	
17.0	102.89953671058538	pulse	1.0	t		19.0	male	white	3.2522881018702745	smiling	018	sub-09	1.0	2.0	018_smiling	0.0		126.6570345251439	
17.0	103.59952119515947	pulse	1.0	t		19.0	male	white	3.2522881018702745	smiling	018	sub-09	1.0	2.0	018_smiling	0.0		127.35701900971799	
18.0	104.01606721982898	face	0.0		145	21.0	male	black	2.969757262236371	smiling	137	sub-09	1.0	2.0	137_smiling	0.0		127.7735650343875	1.2333185021161626
18.0	104.29951533914209	pulse	0.0	t		21.0	male	black	2.969757262236371	smiling	137	sub-09	1.0	2.0	137_smiling	0.0		128.0570131537006	
18.0	104.99949620143525	pulse	0.0	t		21.0	male	black	2.969757262236371	smiling	137	sub-09	1.0	2.0	137_smiling	0.0		128.75699401599377	
18.0	105.24938572194515	fix	1.0		444	21.0	male	black	2.969757262236371	smiling	137	sub-09	1.0	2.0	137_smiling	0.0		129.00688353650366	3.7666141838744807
18.0	105.69949638255275	pulse	1.0	t		21.0	male	black	2.969757262236371	smiling	137	sub-09	1.0	2.0	137_smiling	0.0		129.45699419711127	
18.0	106.39949052653537	pulse	1.0	t		21.0	male	black	2.969757262236371	smiling	137	sub-09	1.0	2.0	137_smiling	0.0		130.1569883410939	
18.0	107.09946535169729	pulse	1.0	t		21.0	male	black	2.969757262236371	smiling	137	sub-09	1.0	2.0	137_smiling	0.0		130.8569631662558	
18.0	107.79945828825657	pulse	1.0	t		21.0	male	black	2.969757262236371	smiling	137	sub-09	1.0	2.0	137_smiling	0.0		131.5569561028151	
18.0	108.49944850810425	pulse	1.0	t		21.0	male	black	2.969757262236371	smiling	137	sub-09	1.0	2.0	137_smiling	0.0		132.25694632266277	
19.0	109.01599990581963	face	0.0		145	22.0	female	white	4.614007162753682	smiling	009	sub-09	1.0	2.0	009_smiling	0.0		132.77349772037815	1.2333166909775173
19.0	109.19944748179114	pulse	0.0	t		22.0	female	white	4.614007162753682	smiling	009	sub-09	1.0	2.0	009_smiling	0.0		132.95694529634966	
19.0	109.89942562737997	pulse	0.0	t		22.0	female	white	4.614007162753682	smiling	009	sub-09	1.0	2.0	009_smiling	0.0		133.6569234419385	
19.0	110.24931659679714	fix	1.0		444	22.0	female	white	4.614007162753682	smiling	009	sub-09	1.0	2.0	009_smiling	0.0		134.00681441135566	3.7666075430315686
19.0	110.5994306381981	pulse	1.0	t		22.0	female	white	4.614007162753682	smiling	009	sub-09	1.0	2.0	009_smiling	0.0		134.35692845275662	
19.0	111.29941180234891	pulse	1.0	t		22.0	female	white	4.614007162753682	smiling	009	sub-09	1.0	2.0	009_smiling	0.0		135.05690961690743	
19.0	111.99939357021503	pulse	1.0	t		22.0	female	white	4.614007162753682	smiling	009	sub-09	1.0	2.0	009_smiling	0.0		135.75689138477355	
19.0	112.69938197892407	pulse	1.0	t		22.0	female	white	4.614007162753682	smiling	009	sub-09	1.0	2.0	009_smiling	0.0		136.45687979348259	
19.0	113.39936163379389	pulse	1.0	t		22.0	female	white	4.614007162753682	smiling	009	sub-09	1.0	2.0	009_smiling	0.0		137.1568594483524	
20.0	114.01592413982871	face	0.0		145	21.0	male	east_asian/white	3.501790688420215	neutral	036	sub-09	1.0	2.0	036_neutral	0.0		137.77342195438723	1.2333157854081946
20.0	114.09936966317764	pulse	0.0	t		21.0	male	east_asian/white	3.501790688420215	neutral	036	sub-09	1.0	2.0	036_neutral	0.0		137.85686747773616	
20.0	114.79935354403642	pulse	0.0	t		21.0	male	east_asian/white	3.501790688420215	neutral	036	sub-09	1.0	2.0	036_neutral	0.0		138.55685135859494	
20.0	115.2492399252369	fix	1.0		1186	21.0	male	east_asian/white	3.501790688420215	neutral	036	sub-09	1.0	2.0	036_neutral	0.0		139.00673773979543	10.024847320961271
20.0	115.49934738616503	pulse	1.0	t		21.0	male	east_asian/white	3.501790688420215	neutral	036	sub-09	1.0	2.0	036_neutral	0.0		139.25684520072355	
20.0	116.19932764474652	pulse	1.0	t		21.0	male	east_asian/white	3.501790688420215	neutral	036	sub-09	1.0	2.0	036_neutral	0.0		139.95682545930504	
20.0	116.89932993885668	pulse	1.0	t		21.0	male	east_asian/white	3.501790688420215	neutral	036	sub-09	1.0	2.0	036_neutral	0.0		140.6568277534152	
20.0	117.59930929186885	pulse	1.0	t		21.0	male	east_asian/white	3.501790688420215	neutral	036	sub-09	1.0	2.0	036_neutral	0.0		141.35680710642737	
20.0	118.2992943801546	pulse	1.0	t		21.0	male	east_asian/white	3.501790688420215	neutral	036	sub-09	1.0	2.0	036_neutral	0.0		142.05679219471313	
20.0	118.99930150396904	pulse	1.0	t		21.0	male	east_asian/white	3.501790688420215	neutral	036	sub-09	1.0	2.0	036_neutral	0.0		142.75679931852756	
20.0	119.69927542356527	pulse	1.0	t		21.0	male	east_asian/white	3.501790688420215	neutral	036	sub-09	1.0	2.0	036_neutral	0.0		143.4567732381238	
20.0	120.39925990813936	pulse	1.0	t		21.0	male	east_asian/white	3.501790688420215	neutral	036	sub-09	1.0	2.0	036_neutral	0.0		144.15675772269788	
20.0	121.09925314655266	pulse	1.0	t		21.0	male	east_asian/white	3.501790688420215	neutral	036	sub-09	1.0	2.0	036_neutral	0.0		144.85675096111117	
20.0	121.79924789424695	pulse	1.0	t		21.0	male	east_asian/white	3.501790688420215	neutral	036	sub-09	1.0	2.0	036_neutral	0.0		145.55674570880547	
20.0	122.49923298253634	pulse	1.0	t		21.0	male	east_asian/white	3.501790688420215	neutral	036	sub-09	1.0	2.0	036_neutral	0.0		146.25673079709486	
20.0	123.19921837267975	pulse	1.0	t		21.0	male	east_asian/white	3.501790688420215	neutral	036	sub-09	1.0	2.0	036_neutral	0.0		146.95671618723827	
20.0	123.89921795007831	pulse	1.0	t		21.0	male	east_asian/white	3.501790688420215	neutral	036	sub-09	1.0	2.0	036_neutral	0.0		147.65671576463683	
20.0	124.59920364207937	pulse	1.0	t		21.0	male	east_asian/white	3.501790688420215	neutral	036	sub-09	1.0	2.0	036_neutral	0.0		148.3567014566379	
21.0	125.27408724619818	face	0.0		145	31.0	female	east_asian	3.395941106247513	neutral	087	sub-09	1.0	2.0	087_neutral	0.0		149.0315850607567	1.233315483550541
21.0	125.29921469002875	pulse	0.0	t		31.0	female	east_asian	3.395941106247513	neutral	087	sub-09	1.0	2.0	087_neutral	0.0		149.05671250458727	
21.0	125.99919253375992	pulse	0.0	t		31.0	female	east_asian	3.395941106247513	neutral	087	sub-09	1.0	2.0	087_neutral	0.0		149.75669034831844	
21.0	126.50740272974872	fix	1.0		443	31.0	female	east_asian	3.395941106247513	neutral	087	sub-09	1.0	2.0	087_neutral	0.0		150.26490054430724	3.7666108634548436
21.0	126.69918003689963	pulse	1.0	t		31.0	female	east_asian	3.395941106247513	neutral	087	sub-09	1.0	2.0	087_neutral	0.0		150.45667785145815	
21.0	127.39915274906889	pulse	1.0	t		31.0	female	east_asian	3.395941106247513	neutral	087	sub-09	1.0	2.0	087_neutral	0.0		151.1566505636274	
21.0	128.09916802300722	pulse	1.0	t		31.0	female	east_asian	3.395941106247513	neutral	087	sub-09	1.0	2.0	087_neutral	0.0		151.85666583756574	
21.0	128.7991479797347	pulse	1.0	t		31.0	female	east_asian	3.395941106247513	neutral	087	sub-09	1.0	2.0	087_neutral	0.0		152.55664579429322	
21.0	129.4991348791591	pulse	1.0	t		31.0	female	east_asian	3.395941106247513	neutral	087	sub-09	1.0	2.0	087_neutral	0.0		153.25663269371762	
21.0	130.1991244952951	pulse	1.0	t		31.0	female	east_asian	3.395941106247513	neutral	087	sub-09	1.0	2.0	087_neutral	0.0		153.95662230985363	
22.0	130.27401359320356	face	0.0		146	25.0	female	west_asian	2.6756864305610826	neutral	064	sub-09	1.0	2.0	064_neutral	0.0		154.03151140776208	1.233312163127266
22.0	130.89911652628143	pulse	0.0	t		25.0	female	west_asian	2.6756864305610826	neutral	064	sub-09	1.0	2.0	064_neutral	0.0		154.65661434083995	
22.0	131.50732575633083	fix	1.0		443	25.0	female	west_asian	2.6756864305610826	neutral	064	sub-09	1.0	2.0	064_neutral	0.0		155.26482357088935	3.758359916831978
22.0	131.5991677211532	pulse	1.0	t		25.0	female	west_asian	2.6756864305610826	neutral	064	sub-09	1.0	2.0	064_neutral	0.0		155.35666553571173	
22.0	132.2991084365276	pulse	1.0	t		25.0	female	west_asian	2.6756864305610826	neutral	064	sub-09	1.0	2.0	064_neutral	0.0		156.05660625108612	
22.0	132.99907813013124	pulse	1.0	t		25.0	female	west_asian	2.6756864305610826	neutral	064	sub-09	1.0	2.0	064_neutral	0.0		156.75657594468976	
22.0	133.69906653884027	pulse	1.0	t		25.0	female	west_asian	2.6756864305610826	neutral	064	sub-09	1.0	2.0	064_neutral	0.0		157.4565643533988	
22.0	134.39906400324617	pulse	1.0	t		25.0	female	west_asian	2.6756864305610826	neutral	064	sub-09	1.0	2.0	064_neutral	0.0		158.1565618178047	
22.0	135.09904426182766	pulse	1.0	t		25.0	female	west_asian	2.6756864305610826	neutral	064	sub-09	1.0	2.0	064_neutral	0.0		158.85654207638618	
23.0	135.2656856731628	face	0.0		147	30.0	female	black	2.7345801830481498	neutral	062	sub-09	1.0	2.0	062_neutral	0.0		159.02318348772133	1.2499006891994213
23.0	135.79904112251825	pulse	0.0	t		30.0	female	black	2.7345801830481498	neutral	062	sub-09	1.0	2.0	062_neutral	0.0		159.55653893707677	
23.0	136.4990280219463	pulse	0.0	t		30.0	female	black	2.7345801830481498	neutral	062	sub-09	1.0	2.0	062_neutral	0.0		160.2565258365048	
23.0	136.51558636236223	fix	1.0		444	30.0	female	black	2.7345801830481498	neutral	062	sub-09	1.0	2.0	062_neutral	0.0		160.27308417692075	3.758274793290184
23.0	137.1990179399363	pulse	1.0	t		30.0	female	black	2.7345801830481498	neutral	062	sub-09	1.0	2.0	062_neutral	0.0		160.95651575449483	
23.0	137.8990108764956	pulse	1.0	t		30.0	female	black	2.7345801830481498	neutral	062	sub-09	1.0	2.0	062_neutral	0.0		161.6565086910541	
23.0	138.59899083321943	pulse	1.0	t		30.0	female	black	2.7345801830481498	neutral	062	sub-09	1.0	2.0	062_neutral	0.0		162.35648864777795	
23.0	139.29898709019835	pulse	1.0	t		30.0	female	black	2.7345801830481498	neutral	062	sub-09	1.0	2.0	062_neutral	0.0		163.05648490475687	
23.0	139.99896855620682	pulse	1.0	t		30.0	female	black	2.7345801830481498	neutral	062	sub-09	1.0	2.0	062_neutral	0.0		163.75646637076534	
24.0	140.2738611556524	face	0.0		145	22.0	female	white	4.614007162753682	neutral	009	sub-09	1.0	2.0	009_neutral	0.0		164.03135897021093	1.2333160872622102
24.0	140.69897296331328	pulse	0.0	t		22.0	female	white	4.614007162753682	neutral	009	sub-09	1.0	2.0	009_neutral	0.0		164.4564707778718	
24.0	141.39894084577827	pulse	0.0	t		22.0	female	white	4.614007162753682	neutral	009	sub-09	1.0	2.0	009_neutral	0.0		165.1564386603368	
24.0	141.50717724291462	fix	1.0		444	22.0	female	white	4.614007162753682	neutral	009	sub-09	1.0	2.0	009_neutral	0.0		165.26467505747314	3.7666102597431745
24.0	142.0989458565964	pulse	1.0	t		22.0	female	white	4.614007162753682	neutral	009	sub-09	1.0	2.0	009_neutral	0.0		165.85644367115492	
24.0	142.79893366159376	pulse	1.0	t		22.0	female	white	4.614007162753682	neutral	009	sub-09	1.0	2.0	009_neutral	0.0		166.55643147615228	
24.0	143.49891754245255	pulse	1.0	t		22.0	female	white	4.614007162753682	neutral	009	sub-09	1.0	2.0	009_neutral	0.0		167.25641535701106	
24.0	144.19891229015047	pulse	1.0	t		22.0	female	white	4.614007162753682	neutral	009	sub-09	1.0	2.0	009_neutral	0.0		167.956410104709	
24.0	144.89889526543993	pulse	1.0	t		22.0	female	white	4.614007162753682	neutral	009	sub-09	1.0	2.0	009_neutral	0.0		168.65639307999845	
25.0	145.2737875026578	face	0.0		145	25.0	female	black	3.858336649423	smiling	126	sub-09	1.0	2.0	126_smiling	0.0		169.03128531721632	1.2333139742659114
25.0	145.5988954465538	pulse	0.0	t		25.0	female	black	3.858336649423	smiling	126	sub-09	1.0	2.0	126_smiling	0.0		169.35639326111232	
25.0	146.29887087543102	pulse	0.0	t		25.0	female	black	3.858336649423	smiling	126	sub-09	1.0	2.0	126_smiling	0.0		170.05636868998954	
25.0	146.5071014769237	fix	1.0		444	25.0	female	black	3.858336649423	smiling	126	sub-09	1.0	2.0	126_smiling	0.0		170.26459929148223	3.7665930539187684
25.0	146.99885988785536	pulse	1.0	t		25.0	female	black	3.858336649423	smiling	126	sub-09	1.0	2.0	126_smiling	0.0		170.75635770241388	
25.0	147.6988652005275	pulse	1.0	t		25.0	female	black	3.858336649423	smiling	126	sub-09	1.0	2.0	126_smiling	0.0		171.45636301508603	
25.0	148.39884636468196	pulse	1.0	t		25.0	female	black	3.858336649423	smiling	126	sub-09	1.0	2.0	126_smiling	0.0		172.15634417924048	
25.0	149.09884231980323	pulse	1.0	t		25.0	female	black	3.858336649423	smiling	126	sub-09	1.0	2.0	126_smiling	0.0		172.85634013436174	
25.0	149.798825898808	pulse	1.0	t		25.0	female	black	3.858336649423	smiling	126	sub-09	1.0	2.0	126_smiling	0.0		173.5563237133665	
26.0	150.27369453084248	face	0.0		145	19.0	female	white	4.298846000795861	neutral	100	sub-09	1.0	2.0	100_neutral	1.0	trustworthiness	174.031192345401	1.2333320856596401
26.0	150.49882064650228	pulse	0.0	t		19.0	female	white	4.298846000795861	neutral	100	sub-09	1.0	2.0	100_neutral	1.0	trustworthiness	174.2563184610608	
26.0	151.19880150879908	pulse	0.0	t		19.0	female	white	4.298846000795861	neutral	100	sub-09	1.0	2.0	100_neutral	1.0	trustworthiness	174.9562993233576	
26.0	151.50702661650212	fix	1.0		177	19.0	female	white	4.298846000795861	neutral	100	sub-09	1.0	2.0	100_neutral	1.0	trustworthiness	175.26452443106064	1.4999852090295462
26.0	151.89880380290924	pulse	1.0	t		19.0	female	white	4.298846000795861	neutral	100	sub-09	1.0	2.0	100_neutral	1.0	trustworthiness	175.65630161746776	
26.0	152.598788891195	pulse	1.0	t		19.0	female	white	4.298846000795861	neutral	100	sub-09	1.0	2.0	100_neutral	1.0	trustworthiness	176.35628670575352	
26.0	153.00701182553166	rating	2.0		295	19.0	female	white	4.298846000795861	neutral	100	sub-09	1.0	2.0	100_neutral	1.0	trustworthiness	176.76450964009018	2.4999550233769696
26.0	153.29878122403898	pulse	2.0	t		19.0	female	white	4.298846000795861	neutral	100	sub-09	1.0	2.0	100_neutral	1.0	trustworthiness	177.0562790385975	
26.0	153.99877023646332	pulse	2.0	t		19.0	female	white	4.298846000795861	neutral	100	sub-09	1.0	2.0	100_neutral	1.0	trustworthiness	177.75626805102183	
26.0	154.69875321175277	pulse	2.0	t		19.0	female	white	4.298846000795861	neutral	100	sub-09	1.0	2.0	100_neutral	1.0	trustworthiness	178.4562510263113	
26.0	155.39875067615867	pulse	2.0	t		19.0	female	white	4.298846000795861	neutral	100	sub-09	1.0	2.0	100_neutral	1.0	trustworthiness	179.1562484907172	
26.0	155.50696684890863	fix	3.0		443	19.0	female	white	4.298846000795861	neutral	100	sub-09	1.0	2.0	100_neutral	1.0	trustworthiness	179.26446466346715	3.766611165308859
26.0	155.73207213646674	response	3.0	d		19.0	female	white	4.298846000795861	neutral	100	sub-09	1.0	2.0	100_neutral	1.0	trustworthiness	179.48956995102526	
26.0	156.09871071035377	pulse	3.0	t		19.0	female	white	4.298846000795861	neutral	100	sub-09	1.0	2.0	100_neutral	1.0	trustworthiness	179.8562085249123	
26.0	156.79872175830315	pulse	3.0	t		19.0	female	white	4.298846000795861	neutral	100	sub-09	1.0	2.0	100_neutral	1.0	trustworthiness	180.55621957286166	
26.0	157.49871137443552	pulse	3.0	t		19.0	female	white	4.298846000795861	neutral	100	sub-09	1.0	2.0	100_neutral	1.0	trustworthiness	181.25620918899403	
26.0	158.19869495344028	pulse	3.0	t		19.0	female	white	4.298846000795861	neutral	100	sub-09	1.0	2.0	100_neutral	1.0	trustworthiness	181.9561927679988	
26.0	158.8986918141345	pulse	3.0	t		19.0	female	white	4.298846000795861	neutral	100	sub-09	1.0	2.0	100_neutral	1.0	trustworthiness	182.65618962869303	
27.0	159.2735780142175	face	0.0		145	20.0	female	white	3.9502586549940313	smiling	091	sub-09	1.0	2.0	091_smiling	0.0		183.031075828776	1.233312163127266
27.0	159.5986829395515	pulse	0.0	t		20.0	female	white	3.9502586549940313	smiling	091	sub-09	1.0	2.0	091_smiling	0.0		183.35618075411003	
27.0	160.29865504800546	pulse	0.0	t		20.0	female	white	3.9502586549940313	smiling	091	sub-09	1.0	2.0	091_smiling	0.0		184.05615286256398	
27.0	160.50689017734476	fix	1.0		444	20.0	female	white	3.9502586549940313	smiling	091	sub-09	1.0	2.0	091_smiling	0.0		184.26438799190328	3.758276604428829
27.0	160.99865915325427	pulse	1.0	t		20.0	female	white	3.9502586549940313	smiling	091	sub-09	1.0	2.0	091_smiling	0.0		184.75615696781279	
27.0	161.69864665639398	pulse	1.0	t		20.0	female	white	3.9502586549940313	smiling	091	sub-09	1.0	2.0	091_smiling	0.0		185.4561444709525	
27.0	162.3986263112638	pulse	1.0	t		20.0	female	white	3.9502586549940313	smiling	091	sub-09	1.0	2.0	091_smiling	0.0		186.15612412582232	
27.0	163.09862287010037	pulse	1.0	t		20.0	female	white	3.9502586549940313	smiling	091	sub-09	1.0	2.0	091_smiling	0.0		186.8561206846589	
27.0	163.7986200326486	pulse	1.0	t		20.0	female	white	3.9502586549940313	smiling	091	sub-09	1.0	2.0	091_smiling	0.0		187.55611784720713	
28.0	164.2651667817736	face	0.0		146	28.0	male	east_asian	1.5563072025467568	neutral	005	sub-09	1.0	2.0	005_neutral	0.0		188.0226645963321	1.2416506481458782
28.0	164.49861176178092	pulse	0.0	t		28.0	male	east_asian	1.5563072025467568	neutral	005	sub-09	1.0	2.0	005_neutral	0.0		188.25610957633944	
28.0	165.19858628508882	pulse	0.0	t		28.0	male	east_asian	1.5563072025467568	neutral	005	sub-09	1.0	2.0	005_neutral	0.0		188.95608409964734	
28.0	165.50681742991947	fix	1.0		444	28.0	male	east_asian	1.5563072025467568	neutral	005	sub-09	1.0	2.0	005_neutral	0.0		189.26431524447798	3.7666075430352066
28.0	165.89858918291065	pulse	1.0	t		28.0	male	east_asian	1.5563072025467568	neutral	005	sub-09	1.0	2.0	005_neutral	0.0		189.65608699746917	
28.0	166.5985742711964	pulse	1.0	t		28.0	male	east_asian	1.5563072025467568	neutral	005	sub-09	1.0	2.0	005_neutral	0.0		190.35607208575493	
28.0	167.29855603906253	pulse	1.0	t		28.0	male	east_asian	1.5563072025467568	neutral	005	sub-09	1.0	2.0	005_neutral	0.0		191.05605385362105	
28.0	167.99855289975312	pulse	1.0	t		28.0	male	east_asian	1.5563072025467568	neutral	005	sub-09	1.0	2.0	005_neutral	0.0		191.75605071431164	
28.0	168.6985416103198	pulse	1.0	t		28.0	male	east_asian	1.5563072025467568	neutral	005	sub-09	1.0	2.0	005_neutral	0.0		192.45603942487833	
29.0	169.27342497295467	face	0.0		145	27.0	male	black	3.5523278949462798	neutral	042	sub-09	1.0	2.0	042_neutral	1.0	attractiveness	193.0309227875132	1.2333163891198637
29.0	169.3985405840067	pulse	0.0	t		27.0	male	black	3.5523278949462798	neutral	042	sub-09	1.0	2.0	042_neutral	1.0	attractiveness	193.15603839856522	
29.0	170.09852325744214	pulse	0.0	t		27.0	male	black	3.5523278949462798	neutral	042	sub-09	1.0	2.0	042_neutral	1.0	attractiveness	193.85602107200066	
29.0	170.50674136207454	fix	1.0		177	27.0	male	black	3.5523278949462798	neutral	042	sub-09	1.0	2.0	042_neutral	1.0	attractiveness	194.26423917663305	1.499977360759658
29.0	170.79851287357815	pulse	1.0	t		27.0	male	black	3.5523278949462798	neutral	042	sub-09	1.0	2.0	042_neutral	1.0	attractiveness	194.55601068813667	
29.0	171.4984964525829	pulse	1.0	t		27.0	male	black	3.5523278949462798	neutral	042	sub-09	1.0	2.0	042_neutral	1.0	attractiveness	195.25599426714143	
29.0	172.0067187228342	rating	2.0		294	27.0	male	black	3.5523278949462798	neutral	042	sub-09	1.0	2.0	042_neutral	1.0	attractiveness	195.7642165373927	2.499961966073897
29.0	172.19849784112012	pulse	2.0	t		27.0	male	black	3.5523278949462798	neutral	042	sub-09	1.0	2.0	042_neutral	1.0	attractiveness	195.95599565567863	
29.0	172.8984886646831	pulse	2.0	t		27.0	male	black	3.5523278949462798	neutral	042	sub-09	1.0	2.0	042_neutral	1.0	attractiveness	196.65598647924162	
29.0	173.29322857301668	response	2.0	w		27.0	male	black	3.5523278949462798	neutral	042	sub-09	1.0	2.0	042_neutral	1.0	attractiveness	197.0507263875752	
29.0	173.59845141558617	pulse	2.0	t		27.0	male	black	3.5523278949462798	neutral	042	sub-09	1.0	2.0	042_neutral	1.0	attractiveness	197.3559492301447	
29.0	174.29845340783868	pulse	2.0	t		27.0	male	black	3.5523278949462798	neutral	042	sub-09	1.0	2.0	042_neutral	1.0	attractiveness	198.0559512223972	
29.0	174.5066806889081	fix	3.0		444	27.0	male	black	3.5523278949462798	neutral	042	sub-09	1.0	2.0	042_neutral	1.0	attractiveness	198.2641785034666	3.7665897334991314
29.0	174.99844785367895	pulse	3.0	t		27.0	male	black	3.5523278949462798	neutral	042	sub-09	1.0	2.0	042_neutral	1.0	attractiveness	198.75594566823747	
29.0	175.698436262388	pulse	3.0	t		27.0	male	black	3.5523278949462798	neutral	042	sub-09	1.0	2.0	042_neutral	1.0	attractiveness	199.4559340769465	
29.0	176.3984201432504	pulse	3.0	t		27.0	male	black	3.5523278949462798	neutral	042	sub-09	1.0	2.0	042_neutral	1.0	attractiveness	200.15591795780892	
29.0	177.0984148909447	pulse	3.0	t		27.0	male	black	3.5523278949462798	neutral	042	sub-09	1.0	2.0	042_neutral	1.0	attractiveness	200.85591270550321	
29.0	177.7984039033654	pulse	3.0	t		27.0	male	black	3.5523278949462798	neutral	042	sub-09	1.0	2.0	042_neutral	1.0	attractiveness	201.55590171792392	
30.0	178.27327042240722	face	0.0		145	19.0	male	white	2.243931555909272	smiling	130	sub-09	1.0	2.0	130_smiling	0.0		202.03076823696574	1.233334198652301
30.0	178.49839834920567	pulse	0.0	t		19.0	male	white	2.243931555909272	smiling	130	sub-09	1.0	2.0	130_smiling	0.0		202.2558961637642	
30.0	179.1983924931883	pulse	0.0	t		19.0	male	white	2.243931555909272	smiling	130	sub-09	1.0	2.0	130_smiling	0.0		202.9558903077468	
30.0	179.50660462105952	fix	1.0		444	19.0	male	white	2.243931555909272	smiling	130	sub-09	1.0	2.0	130_smiling	0.0		203.26410243561804	3.766591242780123
30.0	179.89836218679193	pulse	1.0	t		19.0	male	white	2.243931555909272	smiling	130	sub-09	1.0	2.0	130_smiling	0.0		203.65586000135045	
30.0	180.59835693448986	pulse	1.0	t		19.0	male	white	2.243931555909272	smiling	130	sub-09	1.0	2.0	130_smiling	0.0		204.35585474904838	
30.0	181.29834262649092	pulse	1.0	t		19.0	male	white	2.243931555909272	smiling	130	sub-09	1.0	2.0	130_smiling	0.0		205.05584044104944	
30.0	181.99834703359375	pulse	1.0	t		19.0	male	white	2.243931555909272	smiling	130	sub-09	1.0	2.0	130_smiling	0.0		205.75584484815226	
30.0	182.69833121631382	pulse	1.0	t		19.0	male	white	2.243931555909272	smiling	130	sub-09	1.0	2.0	130_smiling	0.0		206.45582903087234	
31.0	183.27319586383965	face	0.0		145	54.0	female	white	2.286908077994429	smiling	136	sub-09	1.0	2.0	136_smiling	0.0		207.03069367839817	1.2333332930866163
31.0	183.39833049185836	pulse	0.0	t		54.0	female	white	2.286908077994429	smiling	136	sub-09	1.0	2.0	136_smiling	0.0		207.15582830641688	
31.0	184.09831346714782	pulse	0.0	t		54.0	female	white	2.286908077994429	smiling	136	sub-09	1.0	2.0	136_smiling	0.0		207.85581128170634	
31.0	184.50652915692626	fix	1.0		444	54.0	female	white	2.286908077994429	smiling	136	sub-09	1.0	2.0	136_smiling	0.0		208.26402697148478	3.76661056159719
31.0	184.79830640370346	pulse	1.0	t		54.0	female	white	2.286908077994429	smiling	136	sub-09	1.0	2.0	136_smiling	0.0		208.55580421826198	
31.0	185.49828424743464	pulse	1.0	t		54.0	female	white	2.286908077994429	smiling	136	sub-09	1.0	2.0	136_smiling	0.0		209.25578206199316	
31.0	186.19827899513257	pulse	1.0	t		54.0	female	white	2.286908077994429	smiling	136	sub-09	1.0	2.0	136_smiling	0.0		209.9557768096911	
31.0	186.89826921498025	pulse	1.0	t		54.0	female	white	2.286908077994429	smiling	136	sub-09	1.0	2.0	136_smiling	0.0		210.65576702953877	
31.0	187.598252793985	pulse	1.0	t		54.0	female	white	2.286908077994429	smiling	136	sub-09	1.0	2.0	136_smiling	0.0		211.35575060854353	
32.0	188.27313971852345	face	0.0		145	26.0	male	white	2.7966573816155993	neutral	117	sub-09	1.0	2.0	117_neutral	1.0	dominance	212.03063753308197	1.2333124649849196
32.0	188.2982641437884	pulse	0.0	t		26.0	male	white	2.7966573816155993	neutral	117	sub-09	1.0	2.0	117_neutral	1.0	dominance	212.05576195834692	
32.0	188.99823806338463	pulse	0.0	t		26.0	male	white	2.7966573816155993	neutral	117	sub-09	1.0	2.0	117_neutral	1.0	dominance	212.75573587794315	
32.0	189.50645218350837	fix	1.0		177	26.0	male	white	2.7966573816155993	neutral	117	sub-09	1.0	2.0	117_neutral	1.0	dominance	213.2639499980669	1.499980077467626
32.0	189.69823281108256	pulse	1.0	t		26.0	male	white	2.7966573816155993	neutral	117	sub-09	1.0	2.0	117_neutral	1.0	dominance	213.45573062564108	
32.0	190.3982025046862	pulse	1.0	t		26.0	male	white	2.7966573816155993	neutral	117	sub-09	1.0	2.0	117_neutral	1.0	dominance	214.15570031924472	
32.0	191.006432260976	rating	2.0		294	26.0	male	white	2.7966573816155993	neutral	117	sub-09	1.0	2.0	117_neutral	1.0	dominance	214.76393007553452	2.4999571363732684
32.0	191.09824373828815	pulse	2.0	t		26.0	male	white	2.7966573816155993	neutral	117	sub-09	1.0	2.0	117_neutral	1.0	dominance	214.85574155284667	
32.0	191.79819864092133	pulse	2.0	t		26.0	male	white	2.7966573816155993	neutral	117	sub-09	1.0	2.0	117_neutral	1.0	dominance	215.55569645547985	
32.0	192.498187351488	pulse	2.0	t		26.0	male	white	2.7966573816155993	neutral	117	sub-09	1.0	2.0	117_neutral	1.0	dominance	216.25568516604653	
32.0	192.52632822914165	response	2.0	d		26.0	male	white	2.7966573816155993	neutral	117	sub-09	1.0	2.0	117_neutral	1.0	dominance	216.28382604370017	
32.0	193.19815764880332	pulse	2.0	t		26.0	male	white	2.7966573816155993	neutral	117	sub-09	1.0	2.0	117_neutral	1.0	dominance	216.95565546336184	
32.0	193.50638939734927	fix	3.0		444	26.0	male	white	2.7966573816155993	neutral	117	sub-09	1.0	2.0	117_neutral	1.0	dominance	217.2638872119078	3.7582784155674744
32.0	193.89816537632942	pulse	3.0	t		26.0	male	white	2.7966573816155993	neutral	117	sub-09	1.0	2.0	117_neutral	1.0	dominance	217.65566319088794	
32.0	194.59814925719184	pulse	3.0	t		26.0	male	white	2.7966573816155993	neutral	117	sub-09	1.0	2.0	117_neutral	1.0	dominance	218.35564707175035	
32.0	195.29813162876962	pulse	3.0	t		26.0	male	white	2.7966573816155993	neutral	117	sub-09	1.0	2.0	117_neutral	1.0	dominance	219.05562944332814	
32.0	195.99813090431417	pulse	3.0	t		26.0	male	white	2.7966573816155993	neutral	117	sub-09	1.0	2.0	117_neutral	1.0	dominance	219.75562871887269	
32.0	196.6981214260195	pulse	3.0	t		26.0	male	white	2.7966573816155993	neutral	117	sub-09	1.0	2.0	117_neutral	1.0	dominance	220.45561924057802	
33.0	197.26466781291674	face	0.0		146	25.0	female	black	3.858336649423	neutral	126	sub-09	1.0	2.0	126_neutral	0.0		221.02216562747526	1.2416497425765556
33.0	197.39811375886347	pulse	0.0	t		25.0	female	black	3.858336649423	neutral	126	sub-09	1.0	2.0	126_neutral	0.0		221.155611573422	
33.0	198.09807681162056	pulse	0.0	t		25.0	female	black	3.858336649423	neutral	126	sub-09	1.0	2.0	126_neutral	0.0		221.85557462617908	
33.0	198.5063175554933	fix	1.0		444	25.0	female	black	3.858336649423	neutral	126	sub-09	1.0	2.0	126_neutral	0.0		222.26381537005182	3.766593355776422
33.0	198.7980926892742	pulse	1.0	t		25.0	female	black	3.858336649423	neutral	126	sub-09	1.0	2.0	126_neutral	0.0		222.55559050383272	
33.0	199.49807445714032	pulse	1.0	t		25.0	female	black	3.858336649423	neutral	126	sub-09	1.0	2.0	126_neutral	0.0		223.25557227169884	
33.0	200.19806135656836	pulse	1.0	t		25.0	female	black	3.858336649423	neutral	126	sub-09	1.0	2.0	126_neutral	0.0		223.95555917112688	
33.0	200.89805308569703	pulse	1.0	t		25.0	female	black	3.858336649423	neutral	126	sub-09	1.0	2.0	126_neutral	0.0		224.65555090025555	
33.0	201.598045418541	pulse	1.0	t		25.0	female	black	3.858336649423	neutral	126	sub-09	1.0	2.0	126_neutral	0.0		225.35554323309952	
34.0	202.27291091126972	face	0.0		145	36.0	female	white	2.7548746518105847	smiling	011	sub-09	1.0	2.0	011_smiling	0.0		226.03040872582824	1.2333405376411974
34.0	202.2980413736659	pulse	0.0	t		36.0	female	white	2.7548746518105847	smiling	011	sub-09	1.0	2.0	011_smiling	0.0		226.05553918822443	
34.0	202.9980303860866	pulse	0.0	t		36.0	female	white	2.7548746518105847	smiling	011	sub-09	1.0	2.0	011_smiling	0.0		226.75552820064513	
34.0	203.50625144891092	fix	1.0		443	36.0	female	white	2.7548746518105847	smiling	011	sub-09	1.0	2.0	011_smiling	0.0		227.26374926346944	3.76660120404631
34.0	203.6980206059343	pulse	1.0	t		36.0	female	white	2.7548746518105847	smiling	011	sub-09	1.0	2.0	011_smiling	0.0		227.4555184204928	
34.0	204.39800086451578	pulse	1.0	t		36.0	female	white	2.7548746518105847	smiling	011	sub-09	1.0	2.0	011_smiling	0.0		228.1554986790743	
34.0	205.09799410292908	pulse	1.0	t		36.0	female	white	2.7548746518105847	smiling	011	sub-09	1.0	2.0	011_smiling	0.0		228.8554919174876	
34.0	205.7979837190651	pulse	1.0	t		36.0	female	white	2.7548746518105847	smiling	011	sub-09	1.0	2.0	011_smiling	0.0		229.5554815336236	
34.0	206.49797303334344	pulse	1.0	t		36.0	female	white	2.7548746518105847	smiling	011	sub-09	1.0	2.0	011_smiling	0.0		230.25547084790196	
34.0	207.19795510306722	pulse	1.0	t		36.0	female	white	2.7548746518105847	smiling	011	sub-09	1.0	2.0	011_smiling	0.0		230.95545291762573	
35.0	207.27285265295723	face	0.0		146	28.0	female	white	5.676880222841227	neutral	124	sub-09	1.0	2.0	124_neutral	0.0		231.03035046751575	1.2333151816928876
35.0	207.8979540767541	pulse	0.0	t		28.0	female	white	5.676880222841227	neutral	124	sub-09	1.0	2.0	124_neutral	0.0		231.65545189131262	
35.0	208.5061678346501	fix	1.0		443	28.0	female	white	5.676880222841227	neutral	124	sub-09	1.0	2.0	124_neutral	0.0		232.26366564920863	3.758278113709821
35.0	208.59794640959808	pulse	1.0	t		28.0	female	white	5.676880222841227	neutral	124	sub-09	1.0	2.0	124_neutral	0.0		232.3554442241566	
35.0	209.29793240345316	pulse	1.0	t		28.0	female	white	5.676880222841227	neutral	124	sub-09	1.0	2.0	124_neutral	0.0		233.05543021801168	
35.0	209.99791809545422	pulse	1.0	t		28.0	female	white	5.676880222841227	neutral	124	sub-09	1.0	2.0	124_neutral	0.0		233.75541591001274	
35.0	210.69790318373998	pulse	1.0	t		28.0	female	white	5.676880222841227	neutral	124	sub-09	1.0	2.0	124_neutral	0.0		234.4554009982985	
35.0	211.39789008316802	pulse	1.0	t		28.0	female	white	5.676880222841227	neutral	124	sub-09	1.0	2.0	124_neutral	0.0		235.15538789772654	
35.0	212.09788151044268	pulse	1.0	t		28.0	female	white	5.676880222841227	neutral	124	sub-09	1.0	2.0	124_neutral	0.0		235.8553793250012	
36.0	212.26444594835993	face	0.0		147	31.0	male	west_asian	1.9538400318344609	neutral	070	sub-09	1.0	2.0	070_neutral	0.0		236.02194376291845	1.2499794737559569
36.0	212.7978771637063	pulse	0.0	t		31.0	male	west_asian	1.9538400318344609	neutral	070	sub-09	1.0	2.0	070_neutral	0.0		236.5553749782648	
36.0	213.4978589315724	pulse	0.0	t		31.0	male	west_asian	1.9538400318344609	neutral	070	sub-09	1.0	2.0	070_neutral	0.0		237.25535674613093	
36.0	213.5144254221159	fix	1.0		443	31.0	male	west_asian	1.9538400318344609	neutral	070	sub-09	1.0	2.0	070_neutral	0.0		237.2719232366744	3.7582769062828447
36.0	214.1978600182556	pulse	1.0	t		31.0	male	west_asian	1.9538400318344609	neutral	070	sub-09	1.0	2.0	070_neutral	0.0		237.95535783281412	
36.0	214.89784782325296	pulse	1.0	t		31.0	male	west_asian	1.9538400318344609	neutral	070	sub-09	1.0	2.0	070_neutral	0.0		238.65534563781148	
36.0	215.59783713753131	pulse	1.0	t		31.0	male	west_asian	1.9538400318344609	neutral	070	sub-09	1.0	2.0	070_neutral	0.0		239.35533495208983	
36.0	216.29781437754718	pulse	1.0	t		31.0	male	west_asian	1.9538400318344609	neutral	070	sub-09	1.0	2.0	070_neutral	0.0		240.0553121921057	
36.0	216.9978227087886	pulse	1.0	t		31.0	male	west_asian	1.9538400318344609	neutral	070	sub-09	1.0	2.0	070_neutral	0.0		240.7553205233471	
37.0	217.27270232839874	face	0.0		145	28.0	female	white	5.676880222841227	smiling	124	sub-09	1.0	2.0	124_smiling	0.0		241.03020014295726	1.2333133705542423
37.0	217.69780417479706	pulse	0.0	t		28.0	female	white	5.676880222841227	smiling	124	sub-09	1.0	2.0	124_smiling	0.0		241.45530198935558	
37.0	218.39778805565584	pulse	0.0	t		28.0	female	white	5.676880222841227	smiling	124	sub-09	1.0	2.0	124_smiling	0.0		242.15528587021436	
37.0	218.50601569895298	fix	1.0		444	28.0	female	white	5.676880222841227	smiling	124	sub-09	1.0	2.0	124_smiling	0.0		242.2635135135115	3.7666129764511425
37.0	219.09778612377704	pulse	1.0	t		28.0	female	white	5.676880222841227	smiling	124	sub-09	1.0	2.0	124_smiling	0.0		242.85528393833556	
37.0	219.79776819349718	pulse	1.0	t		28.0	female	white	5.676880222841227	smiling	124	sub-09	1.0	2.0	124_smiling	0.0		243.5552660080557	
37.0	220.4977581114872	pulse	1.0	t		28.0	female	white	5.676880222841227	smiling	124	sub-09	1.0	2.0	124_smiling	0.0		244.25525592604572	
37.0	221.19775859445872	pulse	1.0	t		28.0	female	white	5.676880222841227	smiling	124	sub-09	1.0	2.0	124_smiling	0.0		244.95525640901724	
37.0	221.89774639945608	pulse	1.0	t		28.0	female	white	5.676880222841227	smiling	124	sub-09	1.0	2.0	124_smiling	0.0		245.6552442140146	
38.0	222.27262867540412	face	0.0		145	23.0	male	white	2.6275368085953046	smiling	141	sub-09	1.0	2.0	141_smiling	0.0		246.03012648996264	1.233312163127266
38.0	222.59772695989523	pulse	0.0	t		23.0	male	white	2.6275368085953046	smiling	141	sub-09	1.0	2.0	141_smiling	0.0		246.35522477445375	
38.0	223.29771476488895	pulse	0.0	t		23.0	male	white	2.6275368085953046	smiling	141	sub-09	1.0	2.0	141_smiling	0.0		247.05521257944747	
38.0	223.5059408385314	fix	1.0		444	23.0	male	white	2.6275368085953046	smiling	141	sub-09	1.0	2.0	141_smiling	0.0		247.2634386530899	3.758272680293885
38.0	223.9977146441488	pulse	1.0	t		23.0	male	white	2.6275368085953046	smiling	141	sub-09	1.0	2.0	141_smiling	0.0		247.75521245870732	
38.0	224.69769399716097	pulse	1.0	t		23.0	male	white	2.6275368085953046	smiling	141	sub-09	1.0	2.0	141_smiling	0.0		248.4551918117195	
38.0	225.3976845188663	pulse	1.0	t		23.0	male	white	2.6275368085953046	smiling	141	sub-09	1.0	2.0	141_smiling	0.0		249.15518233342482	
38.0	226.09767051272138	pulse	1.0	t		23.0	male	white	2.6275368085953046	smiling	141	sub-09	1.0	2.0	141_smiling	0.0		249.8551683272799	
38.0	226.7976709956929	pulse	1.0	t		23.0	male	white	2.6275368085953046	smiling	141	sub-09	1.0	2.0	141_smiling	0.0		250.55516881025142	
39.0	227.26421351882527	face	0.0		146	31.0	female	east_asian	3.395941106247513	smiling	087	sub-09	1.0	2.0	087_smiling	0.0		251.0217113333838	1.241648837007233
39.0	227.49766332853687	pulse	0.0	t		31.0	female	east_asian	3.395941106247513	smiling	087	sub-09	1.0	2.0	087_smiling	0.0		251.2551611430954	
39.0	228.1976444926877	pulse	0.0	t		31.0	female	east_asian	3.395941106247513	smiling	087	sub-09	1.0	2.0	087_smiling	0.0		251.9551423072462	
39.0	228.5058623558325	fix	1.0		444	31.0	female	east_asian	3.395941106247513	smiling	087	sub-09	1.0	2.0	087_smiling	0.0		252.26336017039102	3.749944760253129
39.0	228.89765161650212	pulse	1.0	t		31.0	female	east_asian	3.395941106247513	smiling	087	sub-09	1.0	2.0	087_smiling	0.0		252.65514943106064	
39.0	229.59762432867137	pulse	1.0	t		31.0	female	east_asian	3.395941106247513	smiling	087	sub-09	1.0	2.0	087_smiling	0.0		253.3551221432299	
39.0	230.29760670024916	pulse	1.0	t		31.0	female	east_asian	3.395941106247513	smiling	087	sub-09	1.0	2.0	087_smiling	0.0		254.05510451480768	
39.0	230.99759601452752	pulse	1.0	t		31.0	female	east_asian	3.395941106247513	smiling	087	sub-09	1.0	2.0	087_smiling	0.0		254.75509382908604	
39.0	231.69759076222545	pulse	1.0	t		31.0	female	east_asian	3.395941106247513	smiling	087	sub-09	1.0	2.0	087_smiling	0.0		255.45508857678396	
40.0	232.25580711608563	fix	0.0		720													256.01330493064415	5.999915782027529
40.0	232.3975773597922	pulse	0.0	t														256.1550751743507	
40.0	233.09756969263617	pulse	0.0	t														256.8550675071947	
40.0	233.7975644403341	pulse	0.0	t														257.5550622548926	
40.0	234.49754590634257	pulse	0.0	t														258.2550437209011	
40.0	235.19752948534733	pulse	0.0	t														258.95502729990585	
40.0	235.89752694975323	pulse	0.0	t														259.65502476431175	
40.0	236.59751777331257	pulse	0.0	t														260.3550155878711	
40.0	237.29750044674802	pulse	0.0	t														261.05499826130654	
40.0	237.99749640186928	pulse	0.0	t														261.7549942164278	
