trial_nr	onset	event_type	phase	response	nr_frames	trial_type	stim_name	task_probe	onset_abs	duration
0.0	0.05490147545333457	baseline	0.0		701		baseline	0.0	70.31323229335248	5.848609367076278
0.0	2.003746287218746	pulse	0.0	t			baseline	0.0	72.2620771051179	
0.0	4.003660561203105	pulse	0.0	t			baseline	0.0	74.26199137910226	
0.0	5.903510842529613	ISI	1.0		7		baseline	0.0	76.16184166042876	0.12498309627881099
1.0	6.028493938808424	corridor	0.0		44	place	corridor-46.jpg	0.0	76.28682475670757	0.3749840018354007
1.0	6.018096640988915	pulse	0.0	t		place	corridor-46.jpg	0.0	76.27642745888807	
1.0	6.403477940643825	ISI	1.0		595	place	corridor-46.jpg	0.0	76.66180875854297	5.016533650479687
1.0	8.00357694815375	pulse	1.0	t		place	corridor-46.jpg	0.0	78.2619077660529	
1.0	10.003524425877004	pulse	1.0	t		place	corridor-46.jpg	0.0	80.26185524377615	
2.0	11.420011591123512	body	0.0		46	body	body-34.jpg	0.0	81.67834240902266	0.38329791601245233
2.0	11.803309507135964	ISI	1.0		235	body	body-34.jpg	0.0	82.06164032503511	2.0166480524494546
2.0	12.0034688850792	pulse	1.0	t		body	body-34.jpg	0.0	82.26179970297835	
3.0	13.819957559585418	instrument	0.0		46	object	instrument-118.jpg	0.0	84.07828837748457	0.3832813141434599
3.0	14.003361727560332	pulse	0.0	t		object	instrument-118.jpg	0.0	84.26169254545948	
3.0	14.203238873728878	ISI	1.0		235	object	instrument-118.jpg	0.0	84.46156969162803	2.0166320542857648
3.0	16.00334874791679	pulse	1.0	t		object	instrument-118.jpg	0.0	86.26167956581594	
4.0	16.219870928014643	word	0.0		46	character	word-34.jpg	0.0	86.4782017459138	0.38329127526503726
4.0	16.60316220327968	ISI	1.0		235	character	word-34.jpg	0.0	86.86149302117883	2.016636883919091
4.0	18.003281736736426	pulse	1.0	t		character	word-34.jpg	0.0	88.26161255463558	
5.0	18.61979908719877	corridor	0.0		46	place	corridor-107.jpg	0.0	88.87812990509792	0.38330304749979405
5.0	19.003102134698565	ISI	1.0		355	place	corridor-107.jpg	0.0	89.26143295259772	3.0165913042428656
5.0	20.003232232981645	pulse	1.0	t		place	corridor-107.jpg	0.0	90.2615630508808	
6.0	22.01969343894143	word	0.0		45	character	word-92.jpg	0.0	92.27802425684058	0.38330516046426055
6.0	22.010017869648436	pulse	0.0	t		character	word-92.jpg	0.0	92.26834868754759	
6.0	22.40299859940569	ISI	1.0		235	character	word-92.jpg	0.0	92.66132941730484	2.016645939484988
6.0	24.003102436550762	pulse	1.0	t		character	word-92.jpg	0.0	94.26143325444991	
7.0	24.41964453889068	corridor	0.0		46	place	corridor-105.jpg	0.0	94.67797535678983	0.3832961048992729
7.0	24.802940643789952	ISI	1.0		235	place	corridor-105.jpg	0.0	95.0612714616891	2.016631148729175
7.0	26.003054442056055	pulse	1.0	t		place	corridor-105.jpg	0.0	96.2613852599552	
8.0	26.819571792519127	word	0.0		46	character	word-87.jpg	0.0	97.07790261041828	0.3832855400733024
8.0	27.20285733259243	ISI	1.0		235	character	word-87.jpg	0.0	97.46118815049158	2.0166272246506196
8.0	28.002982903093653	pulse	1.0	t		character	word-87.jpg	0.0	98.2613137209928	
9.0	29.21948455724305	child	0.0		46	face	child-94.jpg	0.0	99.4778153751422	0.383313310473568
9.0	29.602797867716617	ISI	1.0		235	face	child-94.jpg	0.0	99.86112868561577	2.0166317524326587
9.0	30.002924343772975	pulse	1.0	t		face	child-94.jpg	0.0	100.26125516167212	
10.0	31.619429620149276	child	0.0		46	face	child-94.jpg	1.0	101.87776043804843	0.3832973123080592
10.0	32.002726932457335	ISI	1.0		235	face	child-94.jpg	1.0	102.26105775035649	2.01661213204261
10.0	32.03886376808077	pulse	1.0	t		face	child-94.jpg	1.0	102.29719458597992	
10.0	32.24452138320703	response	1.0	b		face	child-94.jpg	1.0	102.50285220110618	
11.0	34.019339064499945	corridor	0.0		45	place	corridor-70.jpg	0.0	104.2776698823991	0.3833172345512139
11.0	34.009634819251005	pulse	0.0	t		place	corridor-70.jpg	0.0	104.26796563715016	
11.0	34.40265629905116	ISI	1.0		715	place	corridor-70.jpg	0.0	104.66098711695031	6.016512520827746
11.0	36.00275832508305	pulse	1.0	t		place	corridor-70.jpg	0.0	106.2610891429822	
11.0	38.00270429354532	pulse	1.0	t		place	corridor-70.jpg	0.0	108.26103511144447	
11.0	40.0026258119824	pulse	1.0	t		place	corridor-70.jpg	0.0	110.26095662988155	
12.0	40.419168819878905	word	0.0		46	character	word-10.jpg	0.0	110.67749963777806	0.38328071043906675
12.0	40.80244953031797	ISI	1.0		595	character	word-10.jpg	0.0	111.06078034821712	5.016536669000743
12.0	42.00257962860087	pulse	1.0	t		character	word-10.jpg	0.0	112.26091044650002	
12.0	44.00251593779467	pulse	1.0	t		character	word-10.jpg	0.0	114.26084675569382	
13.0	45.818986199318715	instrument	0.0		46	object	instrument-54.jpg	0.0	116.07731701721787	0.38328825674398104
13.0	46.002380104319855	pulse	0.0	t		object	instrument-54.jpg	0.0	116.260710922219	
13.0	46.202274456062696	ISI	1.0		355	object	instrument-54.jpg	0.0	116.46060527396185	3.0165882857209
13.0	48.00232486537425	pulse	1.0	t		object	instrument-54.jpg	0.0	118.2606556832734	
14.0	49.218862741783596	body	0.0		46	body	body-37.jpg	0.0	119.47719355968275	0.38330093453441805
14.0	49.602163676318014	ISI	1.0		355	body	body-37.jpg	0.0	119.86049449421716	3.0166447320762018
14.0	50.00227687087954	pulse	1.0	t		body	body-37.jpg	0.0	120.26060768877869	
14.0	52.0022807949581	pulse	1.0	t		body	body-37.jpg	0.0	122.26061161285725	
15.0	52.618808408394216	word	0.0		46	character	word-5.jpg	0.0	122.87713922629337	0.3832632030134846
15.0	53.0020716114077	ISI	1.0		355	character	word-5.jpg	0.0	123.26040242930685	3.016602774625426
15.0	54.002144659631085	pulse	1.0	t		character	word-5.jpg	0.0	124.26047547753024	
16.0	56.018674386033126	instrument	0.0		45	object	instrument-69.jpg	0.0	126.27700520393228	0.38328493636890926
16.0	56.0088001980148	pulse	0.0	t		object	instrument-69.jpg	0.0	126.26713101591395	
16.0	56.401959322402035	ISI	1.0		355	object	instrument-69.jpg	0.0	126.66029014030119	3.0166450339283983
16.0	58.002036596556536	pulse	1.0	t		object	instrument-69.jpg	0.0	128.2603674144557	
17.0	59.418604356330434	instrument	0.0		46	object	instrument-112.jpg	0.0	129.67693517422958	0.38328191784785304
17.0	59.80188627417829	ISI	1.0		355	object	instrument-112.jpg	0.0	130.06021709207744	3.0166009635122464
17.0	60.002038407669716	pulse	1.0	t		object	instrument-112.jpg	0.0	130.26036922556887	
17.0	62.0019834705754	pulse	1.0	t		object	instrument-112.jpg	0.0	132.26031428847455	
18.0	62.81848723769053	corridor	0.0		46	place	corridor-49.jpg	0.0	133.07681805558968	0.38331481973364134
18.0	63.201802057424175	ISI	1.0		235	place	corridor-49.jpg	0.0	133.46013287532332	2.016633563545838
18.0	64.00192823162888	pulse	1.0	t		place	corridor-49.jpg	0.0	134.26025904952803	
19.0	65.21843562097001	child	0.0		46	face	child-41.jpg	0.0	135.47676643886916	0.38329338823041326
19.0	65.60172900920043	ISI	1.0		595	face	child-41.jpg	0.0	135.86005982709958	5.016543913452551
19.0	66.00186725749154	pulse	1.0	t		face	child-41.jpg	0.0	136.2601980753907	
19.0	68.00180718891079	pulse	1.0	t		face	child-41.jpg	0.0	138.26013800680994	
19.0	70.00173715920846	pulse	1.0	t		face	child-41.jpg	0.0	140.2600679771076	
20.0	70.61827292265298	instrument	0.0		46	object	instrument-135.jpg	0.0	140.87660374055213	0.38328161599656596
20.0	71.00155453864954	ISI	1.0		235	object	instrument-135.jpg	0.0	141.2598853565487	2.016647750597258
20.0	72.00167709062771	pulse	1.0	t		object	instrument-135.jpg	0.0	142.26000790852686	
21.0	73.0182022892468	child	0.0		46	face	child-82.jpg	0.0	143.27653310714595	0.3832834271088359
21.0	73.40148571635564	ISI	1.0		355	face	child-82.jpg	0.0	143.6598165342548	3.0166163579724525
21.0	74.00161943686453	pulse	1.0	t		face	child-82.jpg	0.0	144.25995025476368	
21.0	76.00156057569257	pulse	1.0	t		face	child-82.jpg	0.0	146.25989139359172	
22.0	76.41810207432809	child	0.0		46	face	child-36.jpg	0.0	146.67643289222724	0.3832801067346736
22.0	76.80138218106276	ISI	1.0		355	face	child-36.jpg	0.0	147.0597129989619	3.0166184709378285
22.0	78.00149748858985	pulse	1.0	t		face	child-36.jpg	0.0	148.259828306489	
23.0	79.81800065200059	corridor	0.0		46	place	corridor-58.jpg	0.0	150.07633146989974	0.38328614377860504
23.0	80.00141085701853	pulse	0.0	t		place	corridor-58.jpg	0.0	150.25974167491768	
23.0	80.2012867957792	ISI	1.0		235	place	corridor-58.jpg	0.0	150.45961761367835	2.016645033927489
23.0	82.00138248291478	pulse	1.0	t		place	corridor-58.jpg	0.0	152.25971330081393	
24.0	82.21793182970669	body	0.0		46	body	body-131.jpg	0.0	152.47626264760584	0.3832749752482414
24.0	82.60120680495493	ISI	1.0		235	body	body-131.jpg	0.0	152.85953762285408	2.016652580232403
24.0	84.00132120692524	pulse	1.0	t		body	body-131.jpg	0.0	154.2596520248244	
25.0	84.61785938518733	corridor	0.0		46	place	corridor-101.jpg	0.0	154.87619020308648	0.3832810122912633
25.0	85.0011403974786	ISI	1.0		355	place	corridor-101.jpg	0.0	155.25947121537774	3.016611528338217
25.0	86.00126657168403	pulse	1.0	t		place	corridor-101.jpg	0.0	156.25959738958318	
26.0	88.01775192581681	body	0.0		45	body	body-90.jpg	0.0	158.27608274371596	0.3832918789694304
26.0	88.00775307285494	pulse	0.0	t		body	body-90.jpg	0.0	158.2660838907541	
26.0	88.40104380478624	ISI	1.0		475	body	body-90.jpg	0.0	158.6593746226854	4.0165846634954505
26.0	90.00114341600056	pulse	1.0	t		body	body-90.jpg	0.0	160.2594742338997	
26.0	92.00108576223738	pulse	1.0	t		body	body-90.jpg	0.0	162.25941658013653	
27.0	92.41762846828169	child	0.0		46	face	child-53.jpg	0.0	162.67595928618084	0.3832788993258873
27.0	92.80090736760758	ISI	1.0		235	face	child-53.jpg	0.0	163.05923818550673	2.0166302431725853
27.0	94.00103837144707	pulse	1.0	t		face	child-53.jpg	0.0	164.25936918934622	
28.0	94.81753761078016	body	0.0		46	body	body-135.jpg	0.0	165.0758684286793	0.3832942937860935
28.0	95.20083190456626	ISI	1.0		235	body	body-135.jpg	0.0	165.4591627224654	2.0166507691192237
28.0	96.0009801139795	pulse	1.0	t		body	body-135.jpg	0.0	166.25931093187864	
29.0	97.21748267368548	word	0.0		46	character	word-120.jpg	0.0	167.47581349158463	0.3832864456308016
29.0	97.60076911931628	ISI	1.0		355	character	word-120.jpg	0.0	167.85909993721543	3.0166060949986786
29.0	98.00090948057277	pulse	1.0	t		character	word-120.jpg	0.0	168.25924029847192	
29.0	100.00084488420907	pulse	1.0	t		character	word-120.jpg	0.0	170.25917570210822	
30.0	100.61737521431496	word	0.0		46	character	word-17.jpg	0.0	170.8757060322141	0.38329036970844754
30.0	101.00066558402341	ISI	1.0		235	character	word-17.jpg	0.0	171.25899640192256	2.016630545024782
30.0	102.00078873970688	pulse	1.0	t		character	word-17.jpg	0.0	172.25911955760603	
31.0	103.01729612904819	word	0.0		46	character	word-7.jpg	0.0	173.27562694694734	0.3833154234380345
31.0	103.40061155248623	ISI	1.0		235	character	word-7.jpg	0.0	173.65894237038538	2.0166296394672827
31.0	104.00073440631695	pulse	1.0	t		character	word-7.jpg	0.0	174.2590652242161	
32.0	105.41724119195351	instrument	0.0		46	object	instrument-56.jpg	0.0	175.67557200985266	0.3832810122921728
32.0	105.80052220424568	ISI	1.0		835	object	instrument-56.jpg	0.0	176.05885302214483	7.016499541184203
32.0	106.00066950810196	pulse	1.0	t		object	instrument-56.jpg	0.0	176.25900032600111	
32.0	108.00061306174666	pulse	1.0	t		object	instrument-56.jpg	0.0	178.2589438796458	
32.0	110.00055329501811	pulse	1.0	t		object	instrument-56.jpg	0.0	180.25888411291726	
32.0	112.00049805607159	pulse	1.0	t		object	instrument-56.jpg	0.0	182.25882887397074	
33.0	112.81702174542988	body	0.0		46	body	body-15.jpg	0.0	183.07535256332903	0.3832855400742119
33.0	113.2003072855041	ISI	1.0		235	body	body-15.jpg	0.0	183.45863810340325	2.016642317258629
33.0	114.00042017821306	pulse	1.0	t		body	body-15.jpg	0.0	184.2587509961122	
34.0	115.21694960276272	body	0.0		46	body	body-92.jpg	0.0	185.47528042066187	0.3832964067514695
34.0	115.6002460095142	ISI	1.0		475	body	body-92.jpg	0.0	185.85857682741334	4.016572891260694
34.0	116.00037429668464	pulse	1.0	t		body	body-92.jpg	0.0	186.2587051145838	
34.0	118.00032267996448	pulse	1.0	t		body	body-92.jpg	0.0	188.25865349786363	
35.0	119.61681890077489	child	0.0		46	face	child-86.jpg	0.0	189.87514971867404	0.3832846345176222
35.0	120.00010353529251	ISI	1.0		595	face	child-86.jpg	0.0	190.25843435319166	5.016539083818316
35.0	120.03805269131408	pulse	1.0	t		face	child-86.jpg	0.0	190.29638350921323	
35.0	122.00019892057662	pulse	1.0	t		face	child-86.jpg	0.0	192.25852973847577	
35.0	124.00013522976951	pulse	1.0	t		face	child-86.jpg	0.0	194.25846604766866	
36.0	125.01664261911083	word	0.0		46	character	word-69.jpg	0.0	195.27497343700998	0.38329972712563176
36.0	125.39994234623646	ISI	1.0		955	character	word-69.jpg	0.0	195.6582731641356	8.016464828186145
36.0	126.00009025379768	pulse	1.0	t		character	word-69.jpg	0.0	196.25842107169683	
36.0	128.0000147907558	pulse	1.0	t		character	word-69.jpg	0.0	198.25834560865496	
36.0	129.99995653328824	pulse	1.0	t		character	word-69.jpg	0.0	200.2582873511874	
36.0	131.9998967665597	pulse	1.0	t		character	word-69.jpg	0.0	202.25822758445884	
37.0	133.4164071744226	word	0.0		46	character	word-69.jpg	1.0	203.67473799232175	0.3832792011780839
37.0	133.7996863756007	ISI	1.0		715	character	word-69.jpg	1.0	204.05801719349984	6.016535763444153
37.0	133.99984997947377	pulse	1.0	t		character	word-69.jpg	1.0	204.25818079737292	
37.0	134.791478713385	response	1.0	b		character	word-69.jpg	1.0	205.04980953128415	
37.0	135.99978689237196	pulse	1.0	t		character	word-69.jpg	1.0	206.2581177102711	
37.0	137.9997271256425	pulse	1.0	t		character	word-69.jpg	1.0	208.25805794354164	
38.0	139.81622213904484	corridor	0.0		46	place	corridor-17.jpg	0.0	210.074552956944	0.3832897660049639
38.0	139.99962811813293	pulse	0.0	t		place	corridor-17.jpg	0.0	210.25795893603208	
38.0	140.1995119050498	ISI	1.0		235	place	corridor-17.jpg	0.0	210.45784272294895	2.0166377894756806
38.0	141.9996148366372	pulse	1.0	t		place	corridor-17.jpg	0.0	212.25794565453634	
39.0	142.21614969452548	instrument	0.0		46	object	instrument-100.jpg	0.0	212.47448051242463	0.3833003308300249
39.0	142.5994500253555	ISI	1.0		355	object	instrument-100.jpg	0.0	212.85778084325466	3.016598548694674
39.0	143.99954480693577	pulse	1.0	t		object	instrument-100.jpg	0.0	214.25787562483492	
40.0	145.61604857405018	child	0.0		46	face	child-8.jpg	0.0	215.87437939194933	0.3832565622660695
40.0	145.99930513631625	ISI	1.0		235	face	child-8.jpg	0.0	216.2576359542154	2.0166226968685805
40.0	146.03667292506816	pulse	1.0	t		face	child-8.jpg	0.0	216.2950037429673	
41.0	148.01592783318483	body	0.0		45	body	body-51.jpg	0.0	218.27425865108398	0.383300632681312
41.0	148.00596308951754	pulse	0.0	t		body	body-51.jpg	0.0	218.2642939074167	
41.0	148.39922846586614	ISI	1.0		235	body	body-51.jpg	0.0	218.6575592837653	2.01663778947659
41.0	149.99929668445566	pulse	1.0	t		body	body-51.jpg	0.0	220.2576275023548	
42.0	150.41586625534273	body	0.0		46	body	body-123.jpg	0.0	220.67419707324188	0.3833003308300249
42.0	150.79916658617276	ISI	1.0		235	body	body-123.jpg	0.0	221.0574974040719	2.016667370988216
42.0	151.9995351476664	pulse	1.0	t		body	body-123.jpg	0.0	222.25786596556554	
43.0	152.81583395716098	instrument	0.0		47	object	instrument-114.jpg	0.0	223.07416477506013	0.39160126536444295
43.0	153.20743522252542	ISI	1.0		355	object	instrument-114.jpg	0.0	223.46576604042457	3.0165792301559122
43.0	153.99919194175436	pulse	1.0	t		object	instrument-114.jpg	0.0	224.2575227596535	
43.0	155.9991255342784	pulse	1.0	t		object	instrument-114.jpg	0.0	226.25745635217754	
44.0	156.22401445268133	child	0.0		46	face	child-103.jpg	0.0	226.48234527058048	0.38331874381219677
44.0	156.60733319649353	ISI	1.0		235	face	child-103.jpg	0.0	226.86566401439268	2.0166103209294306
44.0	157.99907180459286	pulse	1.0	t		face	child-103.jpg	0.0	228.257402622492	
45.0	158.62394351742296	body	0.0		46	body	body-142.jpg	0.0	228.8822743353221	0.3833353456811892
45.0	159.00727886310415	ISI	1.0		475	body	body-142.jpg	0.0	229.2656096810033	4.016568665329942
45.0	159.99906969162748	pulse	1.0	t		body	body-142.jpg	0.0	230.25740050952663	
45.0	161.99901867861172	pulse	1.0	t		body	body-142.jpg	0.0	232.25734949651087	
46.0	163.0238475284341	instrument	0.0		46	object	instrument-24.jpg	0.0	233.28217834633324	0.3832641085709838
46.0	163.40711163700507	ISI	1.0		235	object	instrument-24.jpg	0.0	233.66544245490422	2.016648354301651
46.0	163.99889371181598	pulse	1.0	t		object	instrument-24.jpg	0.0	234.25722452971513	
47.0	165.42375999130672	corridor	0.0		46	place	corridor-80.jpg	0.0	235.68209080920587	0.3832994252734352
47.0	165.80705941658016	ISI	1.0		355	place	corridor-80.jpg	0.0	236.0653902344793	3.016598548694674
47.0	165.9988511506608	pulse	1.0	t		place	corridor-80.jpg	0.0	236.25718196855996	
47.0	167.99875878389776	pulse	1.0	t		place	corridor-80.jpg	0.0	238.2570896017969	
48.0	168.82365796527483	child	0.0		46	face	child-7.jpg	0.0	239.08198878317398	0.38331814010780363
48.0	169.20697610538264	ISI	1.0		475	face	child-7.jpg	0.0	239.4653069232818	4.016574400521677
48.0	169.99878263021856	pulse	1.0	t		face	child-7.jpg	0.0	240.2571134481177	
48.0	171.99870928014298	pulse	1.0	t		face	child-7.jpg	0.0	242.25704009804213	
49.0	173.2235505059043	corridor	0.0		46	place	corridor-39.jpg	0.0	243.48188132380346	0.3832610900481086
49.0	173.60681159595242	ISI	1.0		355	place	corridor-39.jpg	0.0	243.86514241385157	3.0166009635122464
49.0	173.99859216150253	pulse	1.0	t		place	corridor-39.jpg	0.0	244.25692297940168	
49.0	175.99858370964193	pulse	1.0	t		place	corridor-39.jpg	0.0	246.25691452754108	
50.0	176.62341255946467	instrument	0.0		46	object	instrument-70.jpg	0.0	246.88174337736382	0.3833154234380345
50.0	177.0067279829027	ISI	1.0		475	object	instrument-70.jpg	0.0	247.26505880080185	4.0165867764608265
50.0	177.9984665910024	pulse	1.0	t		object	instrument-70.jpg	0.0	248.25679740890155	
50.0	179.99848651324555	pulse	1.0	t		object	instrument-70.jpg	0.0	250.2568173311447	
51.0	181.02331475936353	corridor	0.0		46	place	corridor-57.jpg	0.0	251.28164557726268	0.38328584192640847
51.0	181.40660060128994	ISI	1.0		475	place	corridor-57.jpg	0.0	251.6649314191891	4.016554176426325
51.0	181.9983464538409	pulse	1.0	t		place	corridor-57.jpg	0.0	252.25667727174005	
51.0	183.9982972519383	pulse	1.0	t		place	corridor-57.jpg	0.0	254.25662806983746	
52.0	185.42315477771626	word	0.0		46	character	word-128.jpg	0.0	255.6814855956154	0.3832939919338969
52.0	185.80644876965016	ISI	1.0		235	character	word-128.jpg	0.0	256.0647795875493	2.0166646543193565
52.0	185.998240805583	pulse	1.0	t		character	word-128.jpg	0.0	256.25657162348216	
53.0	187.82311342396952	word	0.0		46	character	word-128.jpg	1.0	258.08144424186867	0.3832704474652928
53.0	187.99818707589748	pulse	0.0	t		character	word-128.jpg	1.0	258.2565178937966	
53.0	188.2063838714348	ISI	1.0		355	character	word-128.jpg	1.0	258.46471468933396	3.016601869068836
53.0	188.63148559561432	response	1.0	b		character	word-128.jpg	1.0	258.8898164135135	
53.0	189.99866490787463	pulse	1.0	t		character	word-128.jpg	1.0	260.2569957257738	
54.0	191.22298574050365	corridor	0.0		46	place	corridor-128.jpg	0.0	261.4813165584028	0.3832918789694304
54.0	191.60627761947308	ISI	1.0		236	place	corridor-128.jpg	0.0	261.8646084373722	2.016629035763799
54.0	191.99805214798016	pulse	1.0	t		place	corridor-128.jpg	0.0	262.2563829658793	
55.0	193.62290665523687	child	0.0		46	face	child-135.jpg	0.0	263.881237473136	0.38332961048945435
55.0	193.99802709425057	pulse	0.0	t		face	child-135.jpg	0.0	264.2563579121497	
55.0	194.00623626572633	ISI	1.0		236	face	child-135.jpg	0.0	264.2645670836255	2.024967701818241
55.0	195.99799932385122	pulse	1.0	t		face	child-135.jpg	0.0	266.25633014175037	
56.0	196.03120396754457	instrument	0.0		45	object	instrument-6.jpg	0.0	266.2895347854437	0.3749658907054254
56.0	196.40616985825	ISI	1.0		236	object	instrument-6.jpg	0.0	266.66450067614915	2.016646543189381
56.0	197.99795042380083	pulse	1.0	t		object	instrument-6.jpg	0.0	268.2562812417	
57.0	198.42281640143938	child	0.0		46	face	child-130.jpg	0.0	268.6811472193385	0.3832472048488853
57.0	198.80606360628826	ISI	1.0		236	face	child-130.jpg	0.0	269.0643944241874	2.016630243171676
57.0	199.99781972181336	pulse	1.0	t		face	child-130.jpg	0.0	270.2561505397125	
58.0	200.82269384945994	body	0.0		46	body	body-128.jpg	0.0	271.0810246673591	0.38329851971775497
58.0	201.2059923691777	ISI	1.0		235	body	body-128.jpg	0.0	271.46432318707684	2.016630846876069
58.0	201.99776931250108	pulse	1.0	t		body	body-128.jpg	0.0	272.2561001304002	
59.0	203.22262321605376	corridor	0.0		46	place	corridor-124.jpg	0.0	273.4809540339529	0.38329882156904205
59.0	203.6059220376228	ISI	1.0		475	place	corridor-124.jpg	0.0	273.86425285552195	4.016589794981883
59.0	203.99769324575573	pulse	1.0	t		place	corridor-124.jpg	0.0	274.2560240636549	
59.0	205.9977026031729	pulse	1.0	t		place	corridor-124.jpg	0.0	276.25603342107206	
60.0	207.6225118326047	body	0.0		46	body	body-65.jpg	0.0	277.88084265050384	0.3832867474829982
60.0	207.9975918234286	pulse	0.0	t		body	body-65.jpg	0.0	278.25592264132774	
60.0	208.00579858008768	ISI	1.0		235	body	body-65.jpg	0.0	278.26412939798684	2.0249526092102315
60.0	209.99751726594423	pulse	1.0	t		body	body-65.jpg	0.0	280.2558480838434	
61.0	210.03075118929792	instrument	0.0		45	object	instrument-26.jpg	0.0	280.28908200719707	0.37496860737428506
61.0	210.4057197966722	ISI	1.0		235	object	instrument-26.jpg	0.0	280.66405061457135	2.016644430224005
61.0	211.99746836589293	pulse	1.0	t		object	instrument-26.jpg	0.0	282.2557991837921	
62.0	212.4223642268962	body	0.0		46	body	body-46.jpg	0.0	282.68069504479536	0.38328191784785304
62.0	212.80564614474406	ISI	1.0		235	body	body-46.jpg	0.0	283.0639769626432	2.0166637487627668
62.0	213.9974698751539	pulse	1.0	t		body	body-46.jpg	0.0	284.25580069305306	
63.0	214.82230989350683	word	0.0		46	character	word-38.jpg	0.0	285.080640711406	0.38326591968325374
63.0	215.20557581319008	ISI	1.0		355	character	word-38.jpg	0.0	285.46390663108923	3.016616659824649
63.0	215.99737660283517	pulse	1.0	t		character	word-38.jpg	0.0	286.2557074207343	
63.0	217.99728966941166	pulse	1.0	t		character	word-38.jpg	0.0	288.2556204873108	
64.0	218.22219247301473	instrument	0.0		46	object	instrument-58.jpg	0.0	288.4805232909139	0.3832825215522462
64.0	218.60547499456698	ISI	1.0		475	object	instrument-58.jpg	0.0	288.8638058124661	4.016607000555268
64.0	219.9972214508225	pulse	1.0	t		object	instrument-58.jpg	0.0	290.25555226872166	
64.0	221.99725012677754	pulse	1.0	t		object	instrument-58.jpg	0.0	292.2555809446767	
65.0	222.62208199512224	child	0.0		46	face	child-65.jpg	0.0	292.8804128130214	0.3832577696748558
65.0	223.0053397647971	ISI	1.0		239	face	child-65.jpg	0.0	293.26367058269625	1.9999622684790666
65.0	223.9971100673738	pulse	1.0	t		face	child-65.jpg	0.0	294.25544088527295	
66.0	225.00530203327617	baseline	0.0		708		baseline	0.0	295.2636328511753	5.89989435174266
66.0	225.99705784694925	pulse	0.0	t			baseline	0.0	296.2553886648484	
66.0	227.99699083576797	pulse	0.0	t			baseline	0.0	298.2553216536671	
66.0	230.90519638501883	ISI	1.0		12		baseline	0.0	301.163527202918	0.09999909444286459
