trial_nr	onset	event_type	phase	response	nr_frames	face_age	face_sex	face_eth	attractiveness	expression	face_id	sub_id	ses	run	trial_type	catch	rating_type	onset_abs	duration
-1.0	0.0551271397362143	fix	0.0		714													24.26962667503085	5.966298514481423
-1.0	0.7049843171334942	pulse	0.0	t														24.91948385242813	
-1.0	1.404977465029333	pulse	0.0	t														25.61947700032397	
-1.0	2.104972424054722	pulse	0.0	t														26.319471959349357	
-1.0	2.804956516306447	pulse	0.0	t														27.019456051601082	
-1.0	3.5049484567825857	pulse	0.0	t														27.71944799207722	
-1.0	4.204920172986931	pulse	0.0	t														28.419419708281566	
-1.0	4.904902454110015	pulse	0.0	t														29.11940198940465	
-1.0	5.604891376038722	pulse	0.0	t														29.819390911333358	
0.0	6.021425654217637	face	0.0		144	47.0	male	east_asian	2.171110226820533	neutral	024	sub-09	2.0	6.0	024_neutral	0.0		30.235925189512272	1.2333382938140858
0.0	6.304882410950995	pulse	0.0	t		47.0	male	east_asian	2.171110226820533	neutral	024	sub-09	2.0	6.0	024_neutral	0.0		30.51938194624563	
0.0	7.004870729169852	pulse	0.0	t		47.0	male	east_asian	2.171110226820533	neutral	024	sub-09	2.0	6.0	024_neutral	0.0		31.219370264464487	
0.0	7.254763948031723	fix	1.0		445	47.0	male	east_asian	2.171110226820533	neutral	024	sub-09	2.0	6.0	024_neutral	0.0		31.46926348332636	3.7582333162581563
0.0	7.704863273355841	pulse	1.0	t		47.0	male	east_asian	2.171110226820533	neutral	024	sub-09	2.0	6.0	024_neutral	0.0		31.919362808650476	
0.0	8.404849780446057	pulse	1.0	t		47.0	male	east_asian	2.171110226820533	neutral	024	sub-09	2.0	6.0	024_neutral	0.0		32.61934931574069	
0.0	9.104829344875725	pulse	1.0	t		47.0	male	east_asian	2.171110226820533	neutral	024	sub-09	2.0	6.0	024_neutral	0.0		33.31932888017036	
0.0	9.804805588902127	pulse	1.0	t		47.0	male	east_asian	2.171110226820533	neutral	024	sub-09	2.0	6.0	024_neutral	0.0		34.01930512419676	
0.0	10.504785153331795	pulse	1.0	t		47.0	male	east_asian	2.171110226820533	neutral	024	sub-09	2.0	6.0	024_neutral	0.0		34.71928468862643	
1.0	11.01299726428988	face	0.0		146	24.0	female	black	3.0955033824114606	smiling	099	sub-09	2.0	6.0	099_smiling	0.0		35.227496799584515	1.241662845688552
1.0	11.204792488403655	pulse	0.0	t		24.0	female	black	3.0955033824114606	smiling	099	sub-09	2.0	6.0	099_smiling	0.0		35.41929202369829	
1.0	11.904770241704682	pulse	0.0	t		24.0	female	black	3.0955033824114606	smiling	099	sub-09	2.0	6.0	099_smiling	0.0		36.11926977699932	
1.0	12.254660109978431	fix	1.0		444	24.0	female	black	3.0955033824114606	smiling	099	sub-09	2.0	6.0	099_smiling	0.0		36.469159645273066	3.7582206383558514
1.0	12.604762484035746	pulse	1.0	t		24.0	female	black	3.0955033824114606	smiling	099	sub-09	2.0	6.0	099_smiling	0.0		36.81926201933038	
1.0	13.304755631931585	pulse	1.0	t		24.0	female	black	3.0955033824114606	smiling	099	sub-09	2.0	6.0	099_smiling	0.0		37.51925516722622	
1.0	14.004732177813821	pulse	1.0	t		24.0	female	black	3.0955033824114606	smiling	099	sub-09	2.0	6.0	099_smiling	0.0		38.21923171310846	
1.0	14.704685179020089	pulse	1.0	t		24.0	female	black	3.0955033824114606	smiling	099	sub-09	2.0	6.0	099_smiling	0.0		38.919184714314724	
1.0	15.404688288124817	pulse	1.0	t		24.0	female	black	3.0955033824114606	smiling	099	sub-09	2.0	6.0	099_smiling	0.0		39.61918782341945	
2.0	16.012880748334283	face	0.0		146	28.0	male	east_asian	1.5563072025467568	neutral	005	sub-09	2.0	6.0	005_neutral	1.0	dominance	40.22738028362892	1.241677334718588
2.0	16.104690189809844	pulse	0.0	t		28.0	male	east_asian	1.5563072025467568	neutral	005	sub-09	2.0	6.0	005_neutral	1.0	dominance	40.31918972510448	
2.0	16.80484996155883	pulse	0.0	t		28.0	male	east_asian	1.5563072025467568	neutral	005	sub-09	2.0	6.0	005_neutral	1.0	dominance	41.019349496853465	
2.0	17.25455808305287	fix	1.0		177	28.0	male	east_asian	1.5563072025467568	neutral	005	sub-09	2.0	6.0	005_neutral	1.0	dominance	41.469057618347506	1.508321986108058
2.0	17.504783945913005	pulse	1.0	t		28.0	male	east_asian	1.5563072025467568	neutral	005	sub-09	2.0	6.0	005_neutral	1.0	dominance	41.71928348120764	
2.0	18.204646994387076	pulse	1.0	t		28.0	male	east_asian	1.5563072025467568	neutral	005	sub-09	2.0	6.0	005_neutral	1.0	dominance	42.41914652968171	
2.0	18.76288006916093	rating	2.0		293	28.0	male	east_asian	1.5563072025467568	neutral	005	sub-09	2.0	6.0	005_neutral	1.0	dominance	42.977379604455564	2.4915747795485004
2.0	18.89936613509053	pulse	2.0	t		28.0	male	east_asian	1.5563072025467568	neutral	005	sub-09	2.0	6.0	005_neutral	1.0	dominance	43.11386567038517	
2.0	19.599365621937068	pulse	2.0	t		28.0	male	east_asian	1.5563072025467568	neutral	005	sub-09	2.0	6.0	005_neutral	1.0	dominance	43.8138651572317	
2.0	19.904603014141685	response	2.0	w		28.0	male	east_asian	1.5563072025467568	neutral	005	sub-09	2.0	6.0	005_neutral	1.0	dominance	44.11910254943632	
2.0	20.304577839450758	pulse	2.0	t		28.0	male	east_asian	1.5563072025467568	neutral	005	sub-09	2.0	6.0	005_neutral	1.0	dominance	44.51907737474539	
2.0	21.004567365088405	pulse	2.0	t		28.0	male	east_asian	1.5563072025467568	neutral	005	sub-09	2.0	6.0	005_neutral	1.0	dominance	45.21906690038304	
2.0	21.25445484870943	fix	3.0		444	28.0	male	east_asian	1.5563072025467568	neutral	005	sub-09	2.0	6.0	005_neutral	1.0	dominance	45.468954384004064	3.758240258918704
2.0	21.704557494436813	pulse	3.0	t		28.0	male	east_asian	1.5563072025467568	neutral	005	sub-09	2.0	6.0	005_neutral	1.0	dominance	45.91905702973145	
2.0	22.404540681123763	pulse	3.0	t		28.0	male	east_asian	1.5563072025467568	neutral	005	sub-09	2.0	6.0	005_neutral	1.0	dominance	46.6190402164184	
2.0	23.104520547408356	pulse	3.0	t		28.0	male	east_asian	1.5563072025467568	neutral	005	sub-09	2.0	6.0	005_neutral	1.0	dominance	47.31902008270299	
2.0	23.80451460086806	pulse	3.0	t		28.0	male	east_asian	1.5563072025467568	neutral	005	sub-09	2.0	6.0	005_neutral	1.0	dominance	48.019014136162696	
2.0	24.504498693119785	pulse	3.0	t		28.0	male	east_asian	1.5563072025467568	neutral	005	sub-09	2.0	6.0	005_neutral	1.0	dominance	48.71899822841442	
3.0	25.012695107628133	face	0.0		146	31.0	female	white	2.1822522881018704	smiling	102	sub-09	2.0	6.0	102_smiling	0.0		49.22719464292277	1.2416540918984538
3.0	25.20448972803206	pulse	0.0	t		31.0	female	white	2.1822522881018704	smiling	102	sub-09	2.0	6.0	102_smiling	0.0		49.418989263326694	
3.0	25.90446476463967	pulse	0.0	t		31.0	female	white	2.1822522881018704	smiling	102	sub-09	2.0	6.0	102_smiling	0.0		50.118964299934305	
3.0	26.254349199526587	fix	1.0		444	31.0	female	white	2.1822522881018704	smiling	102	sub-09	2.0	6.0	102_smiling	0.0		50.46884873482122	3.7582571627881407
3.0	26.604457610680583	pulse	1.0	t		31.0	female	white	2.1822522881018704	smiling	102	sub-09	2.0	6.0	102_smiling	0.0		50.81895714597522	
3.0	27.30445589010833	pulse	1.0	t		31.0	female	white	2.1822522881018704	smiling	102	sub-09	2.0	6.0	102_smiling	0.0		51.518955425402964	
3.0	28.004422776635693	pulse	1.0	t		31.0	female	white	2.1822522881018704	smiling	102	sub-09	2.0	6.0	102_smiling	0.0		52.21892231193033	
3.0	28.704428602433836	pulse	1.0	t		31.0	female	white	2.1822522881018704	smiling	102	sub-09	2.0	6.0	102_smiling	0.0		52.91892813772847	
3.0	29.40440846871843	pulse	1.0	t		31.0	female	white	2.1822522881018704	smiling	102	sub-09	2.0	6.0	102_smiling	0.0		53.618908004013065	
4.0	30.012606362314727	face	0.0		146	27.0	female	white	3.504576203740549	smiling	144	sub-09	2.0	6.0	144_smiling	0.0		54.22710589760936	1.2416408102872083
4.0	30.104390146131664	pulse	0.0	t		27.0	female	white	3.504576203740549	smiling	144	sub-09	2.0	6.0	144_smiling	0.0		54.3188896814263	
4.0	30.804363371609725	pulse	0.0	t		27.0	female	white	3.504576203740549	smiling	144	sub-09	2.0	6.0	144_smiling	0.0		55.01886290690436	
4.0	31.254247172601936	fix	1.0		444	27.0	female	white	3.504576203740549	smiling	144	sub-09	2.0	6.0	144_smiling	0.0		55.46874670789657	3.7665705460340178
4.0	31.50438761055102	pulse	1.0	t		27.0	female	white	3.504576203740549	smiling	144	sub-09	2.0	6.0	144_smiling	0.0		55.718887145845656	
4.0	32.20433608393523	pulse	1.0	t		27.0	female	white	3.504576203740549	smiling	144	sub-09	2.0	6.0	144_smiling	0.0		56.41883561922987	
4.0	32.90433164666956	pulse	1.0	t		27.0	female	white	3.504576203740549	smiling	144	sub-09	2.0	6.0	144_smiling	0.0		57.1188311819642	
4.0	33.604325096420325	pulse	1.0	t		27.0	female	white	3.504576203740549	smiling	144	sub-09	2.0	6.0	144_smiling	0.0		57.81882463171496	
4.0	34.30436503181136	pulse	1.0	t		27.0	female	white	3.504576203740549	smiling	144	sub-09	2.0	6.0	144_smiling	0.0		58.51886456710599	
5.0	35.02081771863595	face	0.0		146	26.0	female	white	4.854755272582572	smiling	027	sub-09	2.0	6.0	027_smiling	0.0		59.23531725393059	1.2333247103479152
5.0	35.007349560846706	pulse	0.0	t		26.0	female	white	4.854755272582572	smiling	027	sub-09	2.0	6.0	027_smiling	0.0		59.22184909614134	
5.0	35.70427495833701	pulse	0.0	t		26.0	female	white	4.854755272582572	smiling	027	sub-09	2.0	6.0	027_smiling	0.0		59.918774493631645	
5.0	36.25414242898387	fix	1.0		443	26.0	female	white	4.854755272582572	smiling	027	sub-09	2.0	6.0	027_smiling	0.0		60.468641964278504	3.7582544460947247
5.0	36.404257843169034	pulse	1.0	t		26.0	female	white	4.854755272582572	smiling	027	sub-09	2.0	6.0	027_smiling	0.0		60.61875737846367	
5.0	37.10423891687333	pulse	1.0	t		26.0	female	white	4.854755272582572	smiling	027	sub-09	2.0	6.0	027_smiling	0.0		61.31873845216796	
5.0	37.804226027672485	pulse	1.0	t		26.0	female	white	4.854755272582572	smiling	027	sub-09	2.0	6.0	027_smiling	0.0		62.01872556296712	
5.0	38.50422370339038	pulse	1.0	t		26.0	female	white	4.854755272582572	smiling	027	sub-09	2.0	6.0	027_smiling	0.0		62.718723238685016	
5.0	39.20418787322524	pulse	1.0	t		26.0	female	white	4.854755272582572	smiling	027	sub-09	2.0	6.0	027_smiling	0.0		63.41868740851987	
5.0	39.9041876619267	pulse	1.0	t		26.0	female	white	4.854755272582572	smiling	027	sub-09	2.0	6.0	027_smiling	0.0		64.11868719722133	
6.0	40.01239687507859	face	0.0		147	31.0	female	west_asian	2.364902506963788	neutral	006	sub-09	2.0	6.0	006_neutral	0.0		64.22689641037323	1.2416414139970584
6.0	40.60418141353239	pulse	0.0	t		31.0	female	west_asian	2.364902506963788	neutral	006	sub-09	2.0	6.0	006_neutral	0.0		64.81868094882702	
6.0	41.25403828907565	fix	1.0		444	31.0	female	west_asian	2.364902506963788	neutral	006	sub-09	2.0	6.0	006_neutral	0.0		65.46853782437029	3.766585940628829
6.0	41.30415282788181	pulse	1.0	t		31.0	female	west_asian	2.364902506963788	neutral	006	sub-09	2.0	6.0	006_neutral	0.0		65.51865236317644	
6.0	42.00415201287433	pulse	1.0	t		31.0	female	west_asian	2.364902506963788	neutral	006	sub-09	2.0	6.0	006_neutral	0.0		66.21865154816896	
6.0	42.704125540207315	pulse	1.0	t		31.0	female	west_asian	2.364902506963788	neutral	006	sub-09	2.0	6.0	006_neutral	0.0		66.91862507550195	
6.0	43.40410902874919	pulse	1.0	t		31.0	female	west_asian	2.364902506963788	neutral	006	sub-09	2.0	6.0	006_neutral	0.0		67.61860856404383	
6.0	44.104091913582124	pulse	1.0	t		31.0	female	west_asian	2.364902506963788	neutral	006	sub-09	2.0	6.0	006_neutral	0.0		68.31859144887676	
6.0	44.80409019300896	pulse	1.0	t		31.0	female	west_asian	2.364902506963788	neutral	006	sub-09	2.0	6.0	006_neutral	0.0		69.0185897283036	
7.0	45.02062422970448	face	0.0		145	31.0	female	west_asian	2.364902506963788	smiling	006	sub-09	2.0	6.0	006_smiling	0.0		69.23512376499912	1.2333274270413312
7.0	45.50406613518135	pulse	0.0	t		31.0	female	west_asian	2.364902506963788	smiling	006	sub-09	2.0	6.0	006_smiling	0.0		69.71856567047598	
7.0	46.20406381089924	pulse	0.0	t		31.0	female	west_asian	2.364902506963788	smiling	006	sub-09	2.0	6.0	006_smiling	0.0		70.41856334619388	
7.0	46.25395165674581	fix	1.0		445	31.0	female	west_asian	2.364902506963788	smiling	006	sub-09	2.0	6.0	006_smiling	0.0		70.46845119204045	3.766571149743868
7.0	46.90405001613453	pulse	1.0	t		31.0	female	west_asian	2.364902506963788	smiling	006	sub-09	2.0	6.0	006_smiling	0.0		71.11854955142917	
7.0	47.6040105637112	pulse	1.0	t		31.0	female	west_asian	2.364902506963788	smiling	006	sub-09	2.0	6.0	006_smiling	0.0		71.81851009900583	
7.0	48.304032387814004	pulse	1.0	t		31.0	female	west_asian	2.364902506963788	smiling	006	sub-09	2.0	6.0	006_smiling	0.0		72.51853192310864	
7.0	49.00398870942354	pulse	1.0	t		31.0	female	west_asian	2.364902506963788	smiling	006	sub-09	2.0	6.0	006_smiling	0.0		73.21848824471817	
7.0	49.70398215917339	pulse	1.0	t		31.0	female	west_asian	2.364902506963788	smiling	006	sub-09	2.0	6.0	006_smiling	0.0		73.91848169446803	
8.0	50.02052280648968	face	0.0		145	31.0	female	east_asian	3.395941106247513	neutral	087	sub-09	2.0	6.0	087_neutral	0.0		74.23502234178432	1.233322899218365
8.0	50.40397530707014	pulse	0.0	t		31.0	female	east_asian	3.395941106247513	neutral	087	sub-09	2.0	6.0	087_neutral	0.0		74.61847484236478	
8.0	51.10418367744296	pulse	0.0	t		31.0	female	east_asian	3.395941106247513	neutral	087	sub-09	2.0	6.0	087_neutral	0.0		75.3186832127376	
8.0	51.253845705708045	fix	1.0		445	31.0	female	east_asian	3.395941106247513	neutral	087	sub-09	2.0	6.0	087_neutral	0.0		75.46834524100268	3.7583763954371534
8.0	51.80393473778349	pulse	1.0	t		31.0	female	east_asian	3.395941106247513	neutral	087	sub-09	2.0	6.0	087_neutral	0.0		76.01843427307813	
8.0	52.50393301721124	pulse	1.0	t		31.0	female	east_asian	3.395941106247513	neutral	087	sub-09	2.0	6.0	087_neutral	0.0		76.71843255250587	
8.0	53.20391409091462	pulse	1.0	t		31.0	female	east_asian	3.395941106247513	neutral	087	sub-09	2.0	6.0	087_neutral	0.0		77.41841362620926	
8.0	53.90389848502127	pulse	1.0	t		31.0	female	east_asian	3.395941106247513	neutral	087	sub-09	2.0	6.0	087_neutral	0.0		78.11839802031591	
8.0	54.60388197356315	pulse	1.0	t		31.0	female	east_asian	3.395941106247513	neutral	087	sub-09	2.0	6.0	087_neutral	0.0		78.81838150885778	
9.0	55.0122221011452	face	0.0		146	40.0	female	west_asian	1.5777954635893354	smiling	038	sub-09	2.0	6.0	038_smiling	0.0		79.22672163643983	1.2415040700598183
9.0	55.30387723444255	pulse	0.0	t		40.0	female	west_asian	1.5777954635893354	smiling	038	sub-09	2.0	6.0	038_smiling	0.0		79.51837676973719	
9.0	56.0038438191159	pulse	0.0	t		40.0	female	west_asian	1.5777954635893354	smiling	038	sub-09	2.0	6.0	038_smiling	0.0		80.21834335441054	
9.0	56.25372617120502	fix	1.0		444	40.0	female	west_asian	1.5777954635893354	smiling	038	sub-09	2.0	6.0	038_smiling	0.0		80.46822570649965	3.766566018211961
9.0	56.70383092991506	pulse	1.0	t		40.0	female	west_asian	1.5777954635893354	smiling	038	sub-09	2.0	6.0	038_smiling	0.0		80.91833046520969	
9.0	57.403808683216084	pulse	1.0	t		40.0	female	west_asian	1.5777954635893354	smiling	038	sub-09	2.0	6.0	038_smiling	0.0		81.61830821851072	
9.0	58.10381149046589	pulse	1.0	t		40.0	female	west_asian	1.5777954635893354	smiling	038	sub-09	2.0	6.0	038_smiling	0.0		82.31831102576052	
9.0	58.80378350852516	pulse	1.0	t		40.0	female	west_asian	1.5777954635893354	smiling	038	sub-09	2.0	6.0	038_smiling	0.0		83.01828304381979	
9.0	59.50376760077688	pulse	1.0	t		40.0	female	west_asian	1.5777954635893354	smiling	038	sub-09	2.0	6.0	038_smiling	0.0		83.71826713607152	
10.0	60.02029218941698	face	0.0		145	54.0	female	white	2.286908077994429	neutral	136	sub-09	2.0	6.0	136_neutral	0.0		84.23479172471161	1.2333295400239876
10.0	60.203759843107946	pulse	0.0	t		54.0	female	white	2.286908077994429	neutral	136	sub-09	2.0	6.0	136_neutral	0.0		84.41825937840258	
10.0	60.90373850197375	pulse	0.0	t		54.0	female	white	2.286908077994429	neutral	136	sub-09	2.0	6.0	136_neutral	0.0		85.11823803726838	
10.0	61.253621729440965	fix	1.0		444	54.0	female	white	2.286908077994429	neutral	136	sub-09	2.0	6.0	136_neutral	0.0		85.4681212647356	3.7665874499034544
10.0	61.60374523333576	pulse	1.0	t		54.0	female	white	2.286908077994429	neutral	136	sub-09	2.0	6.0	136_neutral	0.0		85.8182447686304	
10.0	62.303718760668744	pulse	1.0	t		54.0	female	white	2.286908077994429	neutral	136	sub-09	2.0	6.0	136_neutral	0.0		86.51821829596338	
10.0	63.003703758485244	pulse	1.0	t		54.0	female	white	2.286908077994429	neutral	136	sub-09	2.0	6.0	136_neutral	0.0		87.21820329377988	
10.0	63.70369720823601	pulse	1.0	t		54.0	female	white	2.286908077994429	neutral	136	sub-09	2.0	6.0	136_neutral	0.0		87.91819674353064	
10.0	64.40369669508254	pulse	1.0	t		54.0	female	white	2.286908077994429	neutral	136	sub-09	2.0	6.0	136_neutral	0.0		88.61819623037718	
11.0	65.02020917934442	face	0.0		145	21.0	male	east_asian/white	3.501790688420215	neutral	036	sub-09	2.0	6.0	036_neutral	0.0		89.23470871463905	1.2333126361554605
11.0	65.10368471144648	pulse	0.0	t		21.0	male	east_asian/white	3.501790688420215	neutral	036	sub-09	2.0	6.0	036_neutral	0.0		89.31818424674111	
11.0	65.80364646644284	pulse	0.0	t		21.0	male	east_asian/white	3.501790688420215	neutral	036	sub-09	2.0	6.0	036_neutral	0.0		90.01814600173748	
11.0	66.25352181549988	fix	1.0		444	21.0	male	east_asian/white	3.501790688420215	neutral	036	sub-09	2.0	6.0	036_neutral	0.0		90.46802135079452	3.7665835257912477
11.0	66.50365440522455	pulse	1.0	t		21.0	male	east_asian/white	3.501790688420215	neutral	036	sub-09	2.0	6.0	036_neutral	0.0		90.71815394051919	
11.0	67.20361948062327	pulse	1.0	t		21.0	male	east_asian/white	3.501790688420215	neutral	036	sub-09	2.0	6.0	036_neutral	0.0		91.41811901591791	
11.0	67.90374212423103	pulse	1.0	t		21.0	male	east_asian/white	3.501790688420215	neutral	036	sub-09	2.0	6.0	036_neutral	0.0		92.11824165952567	
11.0	68.60359641891591	pulse	1.0	t		21.0	male	east_asian/white	3.501790688420215	neutral	036	sub-09	2.0	6.0	036_neutral	0.0		92.81809595421055	
11.0	69.30357568149066	pulse	1.0	t		21.0	male	east_asian/white	3.501790688420215	neutral	036	sub-09	2.0	6.0	036_neutral	0.0		93.51807521678529	
12.0	70.02010534129113	face	0.0		146	26.0	male	white	2.7966573816155993	smiling	117	sub-09	2.0	6.0	117_smiling	0.0		94.23460487658576	1.2333072027686285
12.0	70.0063700419978	pulse	0.0	t		26.0	male	white	2.7966573816155993	smiling	117	sub-09	2.0	6.0	117_smiling	0.0		94.22086957729243	
12.0	70.70354054559084	pulse	0.0	t		26.0	male	white	2.7966573816155993	smiling	117	sub-09	2.0	6.0	117_smiling	0.0		94.91804008088548	
12.0	71.25341254405976	fix	1.0		443	26.0	male	white	2.7966573816155993	smiling	117	sub-09	2.0	6.0	117_smiling	0.0		95.46791207935439	3.758250220127593
12.0	71.40352282671392	pulse	1.0	t		26.0	male	white	2.7966573816155993	smiling	117	sub-09	2.0	6.0	117_smiling	0.0		95.61802236200856	
12.0	72.10351537089991	pulse	1.0	t		26.0	male	white	2.7966573816155993	smiling	117	sub-09	2.0	6.0	117_smiling	0.0		96.31801490619455	
12.0	72.8035015761352	pulse	1.0	t		26.0	male	white	2.7966573816155993	smiling	117	sub-09	2.0	6.0	117_smiling	0.0		97.01800111142984	
12.0	73.50349321475733	pulse	1.0	t		26.0	male	white	2.7966573816155993	smiling	117	sub-09	2.0	6.0	117_smiling	0.0		97.71799275005196	
12.0	74.20347519402549	pulse	1.0	t		26.0	male	white	2.7966573816155993	smiling	117	sub-09	2.0	6.0	117_smiling	0.0		98.41797472932012	
12.0	74.90344932506832	pulse	1.0	t		26.0	male	white	2.7966573816155993	smiling	117	sub-09	2.0	6.0	117_smiling	0.0		99.11794886036296	
13.0	75.01166276418735	face	0.0		147	26.0	male	white	2.7966573816155993	neutral	117	sub-09	2.0	6.0	117_neutral	0.0		99.22616229948198	1.24164503625434
13.0	75.60343734143225	pulse	0.0	t		26.0	male	white	2.7966573816155993	neutral	117	sub-09	2.0	6.0	117_neutral	0.0		99.81793687672689	
13.0	76.25330780044169	fix	1.0		443	26.0	male	white	2.7966573816155993	neutral	117	sub-09	2.0	6.0	117_neutral	0.0		100.46780733573632	3.7665756775659247
13.0	76.30341932070041	pulse	1.0	t		26.0	male	white	2.7966573816155993	neutral	117	sub-09	2.0	6.0	117_neutral	0.0		100.51791885599505	
13.0	77.00342061867559	pulse	1.0	t		26.0	male	white	2.7966573816155993	neutral	117	sub-09	2.0	6.0	117_neutral	0.0		101.21792015397023	
13.0	77.70338690149401	pulse	1.0	t		26.0	male	white	2.7966573816155993	neutral	117	sub-09	2.0	6.0	117_neutral	0.0		101.91788643678865	
13.0	78.40339061430768	pulse	1.0	t		26.0	male	white	2.7966573816155993	neutral	117	sub-09	2.0	6.0	117_neutral	0.0		102.61789014960232	
13.0	79.10336957502841	pulse	1.0	t		26.0	male	white	2.7966573816155993	neutral	117	sub-09	2.0	6.0	117_neutral	0.0		103.31786911032304	
13.0	79.80334461163511	pulse	1.0	t		26.0	male	white	2.7966573816155993	neutral	117	sub-09	2.0	6.0	117_neutral	0.0		104.01784414692975	
14.0	80.01988347800761	face	0.0		145	27.0	female	white	3.504576203740549	neutral	144	sub-09	2.0	6.0	144_neutral	0.0		104.23438301330225	1.233336482685445
14.0	80.50333806138588	pulse	0.0	t		27.0	female	white	3.504576203740549	neutral	144	sub-09	2.0	6.0	144_neutral	0.0		104.71783759668051	
14.0	81.20333422783006	pulse	0.0	t		27.0	female	white	3.504576203740549	neutral	144	sub-09	2.0	6.0	144_neutral	0.0		105.41783376312469	
14.0	81.25321996069306	fix	1.0		445	27.0	female	white	3.504576203740549	neutral	144	sub-09	2.0	6.0	144_neutral	0.0		105.4677194959877	3.7583727731789622
14.0	81.90329900137385	pulse	1.0	t		27.0	female	white	3.504576203740549	neutral	144	sub-09	2.0	6.0	144_neutral	0.0		106.11779853666849	
14.0	82.60327132128805	pulse	1.0	t		27.0	female	white	3.504576203740549	neutral	144	sub-09	2.0	6.0	144_neutral	0.0		106.81777085658268	
14.0	83.3032937491007	pulse	1.0	t		27.0	female	white	3.504576203740549	neutral	144	sub-09	2.0	6.0	144_neutral	0.0		107.51779328439534	
14.0	84.00326576715997	pulse	1.0	t		27.0	female	white	3.504576203740549	neutral	144	sub-09	2.0	6.0	144_neutral	0.0		108.21776530245461	
14.0	84.70324955755677	pulse	1.0	t		27.0	female	white	3.504576203740549	neutral	144	sub-09	2.0	6.0	144_neutral	0.0		108.91774909285141	
15.0	85.01159273387202	face	0.0		146	22.0	female	west_asian	3.8205332272184642	smiling	066	sub-09	2.0	6.0	066_smiling	0.0		109.22609226916666	1.2415110127203661
15.0	85.4032411961789	pulse	0.0	t		22.0	female	west_asian	3.8205332272184642	smiling	066	sub-09	2.0	6.0	066_smiling	0.0		109.61774073147353	
15.0	86.103223779156	pulse	0.0	t		22.0	female	west_asian	3.8205332272184642	smiling	066	sub-09	2.0	6.0	066_smiling	0.0		110.31772331445063	
15.0	86.25310374659239	fix	1.0		444	22.0	female	west_asian	3.8205332272184642	smiling	066	sub-09	2.0	6.0	066_smiling	0.0		110.46760328188702	3.7665675274856767
15.0	86.80320998439129	pulse	1.0	t		22.0	female	west_asian	3.8205332272184642	smiling	066	sub-09	2.0	6.0	066_smiling	0.0		111.01770951968592	
15.0	87.50318320987026	pulse	1.0	t		22.0	female	west_asian	3.8205332272184642	smiling	066	sub-09	2.0	6.0	066_smiling	0.0		111.7176827451649	
15.0	88.20317333921776	pulse	1.0	t		22.0	female	west_asian	3.8205332272184642	smiling	066	sub-09	2.0	6.0	066_smiling	0.0		112.41767287451239	
15.0	88.9031652796948	pulse	1.0	t		22.0	female	west_asian	3.8205332272184642	smiling	066	sub-09	2.0	6.0	066_smiling	0.0		113.11766481498944	
15.0	89.60315420162351	pulse	1.0	t		22.0	female	west_asian	3.8205332272184642	smiling	066	sub-09	2.0	6.0	066_smiling	0.0		113.81765373691815	
16.0	90.01967127407806	face	0.0		145	34.0	male	white	2.651014723438122	smiling	121	sub-09	2.0	6.0	121_smiling	0.0		114.2341708093727	1.2333241066380651
16.0	90.30313587903584	pulse	0.0	t		34.0	male	white	2.651014723438122	smiling	121	sub-09	2.0	6.0	121_smiling	0.0		114.51763541433047	
16.0	91.00311453790164	pulse	0.0	t		34.0	male	white	2.651014723438122	smiling	121	sub-09	2.0	6.0	121_smiling	0.0		115.21761407319627	
16.0	91.25299538071613	fix	1.0		444	34.0	male	white	2.651014723438122	smiling	121	sub-09	2.0	6.0	121_smiling	0.0		115.46749491601076	3.766573866437284
16.0	91.70311553402189	pulse	1.0	t		34.0	male	white	2.651014723438122	smiling	121	sub-09	2.0	6.0	121_smiling	0.0		115.91761506931653	
16.0	92.40309570216141	pulse	1.0	t		34.0	male	white	2.651014723438122	smiling	121	sub-09	2.0	6.0	121_smiling	0.0		116.61759523745604	
16.0	93.10307888884836	pulse	1.0	t		34.0	male	white	2.651014723438122	smiling	121	sub-09	2.0	6.0	121_smiling	0.0		117.317578424143	
16.0	93.80306841448692	pulse	1.0	t		34.0	male	white	2.651014723438122	smiling	121	sub-09	2.0	6.0	121_smiling	0.0		118.01756794978155	
16.0	94.50305250673864	pulse	1.0	t		34.0	male	white	2.651014723438122	smiling	121	sub-09	2.0	6.0	121_smiling	0.0		118.71755204203328	
17.0	95.01956924715341	face	0.0		145	31.0	female	white	2.1822522881018704	neutral	102	sub-09	2.0	6.0	102_neutral	0.0		119.23406878244805	1.2333225973643493
17.0	95.20303176931338	pulse	0.0	t		31.0	female	white	2.1822522881018704	neutral	102	sub-09	2.0	6.0	102_neutral	0.0		119.41753130460802	
17.0	95.90301012632335	pulse	0.0	t		31.0	female	white	2.1822522881018704	neutral	102	sub-09	2.0	6.0	102_neutral	0.0		120.11750966161799	
17.0	96.25289184451776	fix	1.0		444	31.0	female	white	2.1822522881018704	neutral	102	sub-09	2.0	6.0	102_neutral	0.0		120.4673913798124	3.766590770305811
17.0	96.60301685768536	pulse	1.0	t		31.0	female	white	2.1822522881018704	neutral	102	sub-09	2.0	6.0	102_neutral	0.0		120.81751639298	
17.0	97.30299672396995	pulse	1.0	t		31.0	female	white	2.1822522881018704	neutral	102	sub-09	2.0	6.0	102_neutral	0.0		121.51749625926459	
17.0	98.00297991065781	pulse	1.0	t		31.0	female	white	2.1822522881018704	neutral	102	sub-09	2.0	6.0	102_neutral	0.0		122.21747944595245	
17.0	98.7029470990401	pulse	1.0	t		31.0	female	white	2.1822522881018704	neutral	102	sub-09	2.0	6.0	102_neutral	0.0		122.91744663433474	
17.0	99.40293753024253	pulse	1.0	t		31.0	female	white	2.1822522881018704	neutral	102	sub-09	2.0	6.0	102_neutral	0.0		123.61743706553716	
18.0	100.01948261482357	face	0.0		145	19.0	male	white	2.243931555909272	neutral	130	sub-09	2.0	6.0	130_neutral	0.0		124.23398215011821	1.2333096176071194
18.0	100.1029424504759	pulse	0.0	t		19.0	male	white	2.243931555909272	neutral	130	sub-09	2.0	6.0	130_neutral	0.0		124.31744198577053	
18.0	100.8029669912712	pulse	0.0	t		19.0	male	white	2.243931555909272	neutral	130	sub-09	2.0	6.0	130_neutral	0.0		125.01746652656584	
18.0	101.25279223243069	fix	1.0		444	19.0	male	white	2.243931555909272	neutral	130	sub-09	2.0	6.0	130_neutral	0.0		125.46729176772533	3.7665811109527567
18.0	101.502907616431	pulse	1.0	t		19.0	male	white	2.243931555909272	neutral	130	sub-09	2.0	6.0	130_neutral	0.0		125.71740715172564	
18.0	102.20289351981137	pulse	1.0	t		19.0	male	white	2.243931555909272	neutral	130	sub-09	2.0	6.0	130_neutral	0.0		126.417393055106	
18.0	102.90286221746828	pulse	1.0	t		19.0	male	white	2.243931555909272	neutral	130	sub-09	2.0	6.0	130_neutral	0.0		127.11736175276292	
18.0	103.60287075995893	pulse	1.0	t		19.0	male	white	2.243931555909272	neutral	130	sub-09	2.0	6.0	130_neutral	0.0		127.81737029525357	
18.0	104.30283975947077	pulse	1.0	t		19.0	male	white	2.243931555909272	neutral	130	sub-09	2.0	6.0	130_neutral	0.0		128.5173392947654	
19.0	105.01937334338345	face	0.0		145	20.0	male	black	3.1070433744528456	neutral	082	sub-09	2.0	6.0	082_neutral	1.0	attractiveness	129.23387287867808	1.2333093157521944
19.0	105.00549134265384	pulse	0.0	t		20.0	male	black	3.1070433744528456	neutral	082	sub-09	2.0	6.0	082_neutral	1.0	attractiveness	129.21999087794848	
19.0	105.70282152744039	pulse	0.0	t		20.0	male	black	3.1070433744528456	neutral	082	sub-09	2.0	6.0	082_neutral	1.0	attractiveness	129.91732106273503	
19.0	106.25268265913564	fix	1.0		177	20.0	male	black	3.1070433744528456	neutral	082	sub-09	2.0	6.0	082_neutral	1.0	attractiveness	130.46718219443028	1.499974191414367
19.0	106.40280109186915	pulse	1.0	t		20.0	male	black	3.1070433744528456	neutral	082	sub-09	2.0	6.0	082_neutral	1.0	attractiveness	130.6173006271638	
19.0	107.10279061750771	pulse	1.0	t		20.0	male	black	3.1070433744528456	neutral	082	sub-09	2.0	6.0	082_neutral	1.0	attractiveness	131.31729015280234	
19.0	107.75265685055001	rating	2.0		294	20.0	male	black	3.1070433744528456	neutral	082	sub-09	2.0	6.0	082_neutral	1.0	attractiveness	131.96715638584465	2.4999427985139846
19.0	107.79762808529631	pulse	2.0	t		20.0	male	black	3.1070433744528456	neutral	082	sub-09	2.0	6.0	082_neutral	1.0	attractiveness	132.01212762059095	
19.0	108.49759738666216	pulse	2.0	t		20.0	male	black	3.1070433744528456	neutral	082	sub-09	2.0	6.0	082_neutral	1.0	attractiveness	132.7120969219568	
19.0	109.19758872342936	pulse	2.0	t		20.0	male	black	3.1070433744528456	neutral	082	sub-09	2.0	6.0	082_neutral	1.0	attractiveness	133.412088258724	
19.0	109.30272082867668	response	2.0	b		20.0	male	black	3.1070433744528456	neutral	082	sub-09	2.0	6.0	082_neutral	1.0	attractiveness	133.51722036397132	
19.0	109.90271129006487	pulse	2.0	t		20.0	male	black	3.1070433744528456	neutral	082	sub-09	2.0	6.0	082_neutral	1.0	attractiveness	134.1172108253595	
19.0	110.252599649064	fix	3.0		444	20.0	male	black	3.1070433744528456	neutral	082	sub-09	2.0	6.0	082_neutral	1.0	attractiveness	134.46709918435863	3.7665747720011495
19.0	110.60270836207292	pulse	3.0	t		20.0	male	black	3.1070433744528456	neutral	082	sub-09	2.0	6.0	082_neutral	1.0	attractiveness	134.81720789736755	
19.0	111.30268853021153	pulse	3.0	t		20.0	male	black	3.1070433744528456	neutral	082	sub-09	2.0	6.0	082_neutral	1.0	attractiveness	135.51718806550616	
19.0	112.0026795651238	pulse	3.0	t		20.0	male	black	3.1070433744528456	neutral	082	sub-09	2.0	6.0	082_neutral	1.0	attractiveness	136.21717910041843	
19.0	112.7026684870525	pulse	3.0	t		20.0	male	black	3.1070433744528456	neutral	082	sub-09	2.0	6.0	082_neutral	1.0	attractiveness	136.91716802234714	
19.0	113.40265922010985	pulse	3.0	t		20.0	male	black	3.1070433744528456	neutral	082	sub-09	2.0	6.0	082_neutral	1.0	attractiveness	137.6171587554045	
20.0	114.01917442106514	face	0.0		145	22.0	female	west_asian	3.8205332272184642	neutral	066	sub-09	2.0	6.0	066_neutral	0.0		138.23367395635978	1.2333222955094243
20.0	114.10268889243798	pulse	0.0	t		22.0	female	west_asian	3.8205332272184642	neutral	066	sub-09	2.0	6.0	066_neutral	0.0		138.31718842773262	
20.0	114.80261744340442	pulse	0.0	t		22.0	female	west_asian	3.8205332272184642	neutral	066	sub-09	2.0	6.0	066_neutral	0.0		139.01711697869905	
20.0	115.25249671657457	fix	1.0		1185	22.0	female	west_asian	3.8205332272184642	neutral	066	sub-09	2.0	6.0	066_neutral	0.0		139.4669962518692	10.008190226484658
20.0	115.5026199488002	pulse	1.0	t		22.0	female	west_asian	3.8205332272184642	neutral	066	sub-09	2.0	6.0	066_neutral	0.0		139.71711948409484	
20.0	116.20261158742142	pulse	1.0	t		22.0	female	west_asian	3.8205332272184642	neutral	066	sub-09	2.0	6.0	066_neutral	0.0		140.41711112271605	
20.0	116.90258420919054	pulse	1.0	t		22.0	female	west_asian	3.8205332272184642	neutral	066	sub-09	2.0	6.0	066_neutral	0.0		141.11708374448517	
20.0	117.6025725274094	pulse	1.0	t		22.0	female	west_asian	3.8205332272184642	neutral	066	sub-09	2.0	6.0	066_neutral	0.0		141.81707206270403	
20.0	118.30255118627429	pulse	1.0	t		22.0	female	west_asian	3.8205332272184642	neutral	066	sub-09	2.0	6.0	066_neutral	0.0		142.51705072156892	
20.0	119.00270250608992	pulse	1.0	t		22.0	female	west_asian	3.8205332272184642	neutral	066	sub-09	2.0	6.0	066_neutral	0.0		143.21720204138455	
20.0	119.70252359674487	pulse	1.0	t		22.0	female	west_asian	3.8205332272184642	neutral	066	sub-09	2.0	6.0	066_neutral	0.0		143.9170231320395	
20.0	120.4025001426271	pulse	1.0	t		22.0	female	west_asian	3.8205332272184642	neutral	066	sub-09	2.0	6.0	066_neutral	0.0		144.61699967792174	
20.0	121.102497818345	pulse	1.0	t		22.0	female	west_asian	3.8205332272184642	neutral	066	sub-09	2.0	6.0	066_neutral	0.0		145.31699735363964	
20.0	121.8024804013221	pulse	1.0	t		22.0	female	west_asian	3.8205332272184642	neutral	066	sub-09	2.0	6.0	066_neutral	0.0		146.01697993661674	
20.0	122.50246479542875	pulse	1.0	t		22.0	female	west_asian	3.8205332272184642	neutral	066	sub-09	2.0	6.0	066_neutral	0.0		146.71696433072339	
20.0	123.2024567359058	pulse	1.0	t		22.0	female	west_asian	3.8205332272184642	neutral	066	sub-09	2.0	6.0	066_neutral	0.0		147.41695627120043	
20.0	123.90243660218948	pulse	1.0	t		22.0	female	west_asian	3.8205332272184642	neutral	066	sub-09	2.0	6.0	066_neutral	0.0		148.11693613748412	
20.0	124.60241224250694	pulse	1.0	t		22.0	female	west_asian	3.8205332272184642	neutral	066	sub-09	2.0	6.0	066_neutral	0.0		148.81691177780158	
21.0	125.26068694305923	face	0.0		146	19.0	male	white	3.2522881018702745	neutral	018	sub-09	2.0	6.0	018_neutral	1.0	trustworthiness	149.47518647835386	1.2415756096488622
21.0	125.3024017681455	pulse	0.0	t		19.0	male	white	3.2522881018702745	neutral	018	sub-09	2.0	6.0	018_neutral	1.0	trustworthiness	149.51690130344014	
21.0	126.00239038821928	pulse	0.0	t		19.0	male	white	3.2522881018702745	neutral	018	sub-09	2.0	6.0	018_neutral	1.0	trustworthiness	150.21688992351392	
21.0	126.50226255270809	fix	1.0		177	19.0	male	white	3.2522881018702745	neutral	018	sub-09	2.0	6.0	018_neutral	1.0	trustworthiness	150.71676208800272	1.4999726821397417
21.0	126.70237327305131	pulse	1.0	t		19.0	male	white	3.2522881018702745	neutral	018	sub-09	2.0	6.0	018_neutral	1.0	trustworthiness	150.91687280834594	
21.0	127.4023531393359	pulse	1.0	t		19.0	male	white	3.2522881018702745	neutral	018	sub-09	2.0	6.0	018_neutral	1.0	trustworthiness	151.61685267463054	
21.0	128.00223523484783	rating	2.0		294	19.0	male	white	3.2522881018702745	neutral	018	sub-09	2.0	6.0	018_neutral	1.0	trustworthiness	152.21673477014247	2.4999446096426254
21.0	128.0973022934022	pulse	2.0	t		19.0	male	white	3.2522881018702745	neutral	018	sub-09	2.0	6.0	018_neutral	1.0	trustworthiness	152.31180182869684	
21.0	128.79707327616052	pulse	2.0	t		19.0	male	white	3.2522881018702745	neutral	018	sub-09	2.0	6.0	018_neutral	1.0	trustworthiness	153.01157281145515	
21.0	129.4523264100926	response	2.0	b		19.0	male	white	3.2522881018702745	neutral	018	sub-09	2.0	6.0	018_neutral	1.0	trustworthiness	153.66682594538725	
21.0	129.49704106825266	pulse	2.0	t		19.0	male	white	3.2522881018702745	neutral	018	sub-09	2.0	6.0	018_neutral	1.0	trustworthiness	153.7115406035473	
21.0	130.20230641221133	pulse	2.0	t		19.0	male	white	3.2522881018702745	neutral	018	sub-09	2.0	6.0	018_neutral	1.0	trustworthiness	154.41680594750596	
21.0	130.50217984449046	fix	3.0		444	19.0	male	white	3.2522881018702745	neutral	018	sub-09	2.0	6.0	018_neutral	1.0	trustworthiness	154.7166793797851	3.7665883554682296
21.0	130.9022847692222	pulse	3.0	t		19.0	male	white	3.2522881018702745	neutral	018	sub-09	2.0	6.0	018_neutral	1.0	trustworthiness	155.11678430451684	
21.0	131.60228304864904	pulse	3.0	t		19.0	male	white	3.2522881018702745	neutral	018	sub-09	2.0	6.0	018_neutral	1.0	trustworthiness	155.81678258394368	
21.0	132.30225084074118	pulse	3.0	t		19.0	male	white	3.2522881018702745	neutral	018	sub-09	2.0	6.0	018_neutral	1.0	trustworthiness	156.51675037603582	
21.0	133.00224429049194	pulse	3.0	t		19.0	male	white	3.2522881018702745	neutral	018	sub-09	2.0	6.0	018_neutral	1.0	trustworthiness	157.21674382578658	
21.0	133.7022247604864	pulse	3.0	t		19.0	male	white	3.2522881018702745	neutral	018	sub-09	2.0	6.0	018_neutral	1.0	trustworthiness	157.91672429578102	
22.0	134.26876819995869	face	0.0		145	21.0	male	east_asian/white	3.501790688420215	smiling	036	sub-09	2.0	6.0	036_smiling	0.0		158.48326773525332	1.23333678454037
22.0	134.4022163991076	pulse	0.0	t		21.0	male	east_asian/white	3.501790688420215	smiling	036	sub-09	2.0	6.0	036_smiling	0.0		158.61671593440224	
22.0	135.10225241038643	pulse	0.0	t		21.0	male	east_asian/white	3.501790688420215	smiling	036	sub-09	2.0	6.0	036_smiling	0.0		159.31675194568106	
22.0	135.50210498449906	fix	1.0		444	21.0	male	east_asian/white	3.501790688420215	smiling	036	sub-09	2.0	6.0	036_smiling	0.0		159.7166045197937	3.7582242606140426
22.0	135.80221990062364	pulse	1.0	t		21.0	male	east_asian/white	3.501790688420215	smiling	036	sub-09	2.0	6.0	036_smiling	0.0		160.01671943591828	
22.0	136.5021928242477	pulse	1.0	t		21.0	male	east_asian/white	3.501790688420215	smiling	036	sub-09	2.0	6.0	036_smiling	0.0		160.71669235954232	
22.0	137.20216725714545	pulse	1.0	t		21.0	male	east_asian/white	3.501790688420215	smiling	036	sub-09	2.0	6.0	036_smiling	0.0		161.41666679244008	
22.0	137.9021845534262	pulse	1.0	t		21.0	male	east_asian/white	3.501790688420215	smiling	036	sub-09	2.0	6.0	036_smiling	0.0		162.11668408872083	
22.0	138.60214781769537	pulse	1.0	t		21.0	male	east_asian/white	3.501790688420215	smiling	036	sub-09	2.0	6.0	036_smiling	0.0		162.81664735299	
23.0	139.2603292451131	face	0.0		146	36.0	female	white	2.7548746518105847	neutral	011	sub-09	2.0	6.0	011_neutral	0.0		163.47482878040773	1.2416399047224331
23.0	139.3021331173668	pulse	0.0	t		36.0	female	white	2.7548746518105847	neutral	011	sub-09	2.0	6.0	011_neutral	0.0		163.51663265266143	
23.0	140.00210362615235	pulse	0.0	t		36.0	female	white	2.7548746518105847	neutral	011	sub-09	2.0	6.0	011_neutral	0.0		164.21660316144698	
23.0	140.50196914983553	fix	1.0		443	36.0	female	white	2.7548746518105847	neutral	011	sub-09	2.0	6.0	011_neutral	0.0		164.71646868513017	3.7582465978694017
23.0	140.7021287706575	pulse	1.0	t		36.0	female	white	2.7548746518105847	neutral	011	sub-09	2.0	6.0	011_neutral	0.0		164.91662830595214	
23.0	141.4020884126694	pulse	1.0	t		36.0	female	white	2.7548746518105847	neutral	011	sub-09	2.0	6.0	011_neutral	0.0		165.61658794796404	
23.0	142.1020758253244	pulse	1.0	t		36.0	female	white	2.7548746518105847	neutral	011	sub-09	2.0	6.0	011_neutral	0.0		166.31657536061903	
23.0	142.80204995636723	pulse	1.0	t		36.0	female	white	2.7548746518105847	neutral	011	sub-09	2.0	6.0	011_neutral	0.0		167.01654949166186	
23.0	143.50209230659675	pulse	1.0	t		36.0	female	white	2.7548746518105847	neutral	011	sub-09	2.0	6.0	011_neutral	0.0		167.7165918418914	
23.0	144.20201391490355	pulse	1.0	t		36.0	female	white	2.7548746518105847	neutral	011	sub-09	2.0	6.0	011_neutral	0.0		168.41651345019818	
24.0	144.26021574770493	face	0.0		147	34.0	male	white	2.651014723438122	neutral	121	sub-09	2.0	6.0	121_neutral	0.0		168.47471528299957	1.2416429232707742
24.0	144.90203241860308	pulse	0.0	t		34.0	male	white	2.651014723438122	neutral	121	sub-09	2.0	6.0	121_neutral	0.0		169.11653195389772	
24.0	145.5018586709757	fix	1.0		443	34.0	male	white	2.651014723438122	neutral	121	sub-09	2.0	6.0	121_neutral	0.0		169.71635820627034	3.758256257224275
24.0	145.6020101719041	pulse	1.0	t		34.0	male	white	2.651014723438122	neutral	121	sub-09	2.0	6.0	121_neutral	0.0		169.81650970719875	
24.0	146.30202746818395	pulse	1.0	t		34.0	male	white	2.651014723438122	neutral	121	sub-09	2.0	6.0	121_neutral	0.0		170.5165270034786	
24.0	147.0020130697094	pulse	1.0	t		34.0	male	white	2.651014723438122	neutral	121	sub-09	2.0	6.0	121_neutral	0.0		171.21651260500403	
24.0	147.70206689042152	pulse	1.0	t		34.0	male	white	2.651014723438122	neutral	121	sub-09	2.0	6.0	121_neutral	0.0		171.91656642571616	
24.0	148.4019263166383	pulse	1.0	t		34.0	male	white	2.651014723438122	neutral	121	sub-09	2.0	6.0	121_neutral	0.0		172.61642585193295	
24.0	149.10191312558345	pulse	1.0	t		34.0	male	white	2.651014723438122	neutral	121	sub-09	2.0	6.0	121_neutral	0.0		173.3164126608781	
25.0	149.26011492819998	face	0.0		147	24.0	female	east_asian	4.409868682849185	neutral	030	sub-09	2.0	6.0	030_neutral	0.0		173.47461446349462	1.2416670716547742
25.0	149.8019406849271	pulse	0.0	t		24.0	female	east_asian	4.409868682849185	neutral	030	sub-09	2.0	6.0	030_neutral	0.0		174.01644022022174	
25.0	150.50178199985476	fix	1.0		443	24.0	female	east_asian	4.409868682849185	neutral	030	sub-09	2.0	6.0	030_neutral	0.0		174.7162815351494	3.7582345236778565
25.0	150.50952427380525	pulse	1.0	t		24.0	female	east_asian	4.409868682849185	neutral	030	sub-09	2.0	6.0	030_neutral	0.0		174.7240238090999	
25.0	151.20189770080287	pulse	1.0	t		24.0	female	east_asian	4.409868682849185	neutral	030	sub-09	2.0	6.0	030_neutral	0.0		175.4163972360975	
25.0	151.90188239676354	pulse	1.0	t		24.0	female	east_asian	4.409868682849185	neutral	030	sub-09	2.0	6.0	030_neutral	0.0		176.11638193205818	
25.0	152.60186648901526	pulse	1.0	t		24.0	female	east_asian	4.409868682849185	neutral	030	sub-09	2.0	6.0	030_neutral	0.0		176.8163660243099	
25.0	153.30183096070505	pulse	1.0	t		24.0	female	east_asian	4.409868682849185	neutral	030	sub-09	2.0	6.0	030_neutral	0.0		177.51633049599968	
25.0	154.0018434273079	pulse	1.0	t		24.0	female	east_asian	4.409868682849185	neutral	030	sub-09	2.0	6.0	030_neutral	0.0		178.21634296260254	
26.0	154.2600165235326	face	0.0		146	23.0	male	white	2.6275368085953046	neutral	141	sub-09	2.0	6.0	141_neutral	0.0		178.47451605882725	1.2416453381092651
26.0	154.70195188374055	pulse	0.0	t		23.0	male	white	2.6275368085953046	neutral	141	sub-09	2.0	6.0	141_neutral	0.0		178.91645141903518	
26.0	155.40179772649026	pulse	0.0	t		23.0	male	white	2.6275368085953046	neutral	141	sub-09	2.0	6.0	141_neutral	0.0		179.6162972617849	
26.0	155.50166186164188	fix	1.0		444	23.0	male	white	2.6275368085953046	neutral	141	sub-09	2.0	6.0	141_neutral	0.0		179.7161613969365	3.758247503434177
26.0	156.10180143930484	pulse	1.0	t		23.0	male	white	2.6275368085953046	neutral	141	sub-09	2.0	6.0	141_neutral	0.0		180.31630097459947	
26.0	156.80179307792605	pulse	1.0	t		23.0	male	white	2.6275368085953046	neutral	141	sub-09	2.0	6.0	141_neutral	0.0		181.01629261322068	
26.0	157.50175030510036	pulse	1.0	t		23.0	male	white	2.6275368085953046	neutral	141	sub-09	2.0	6.0	141_neutral	0.0		181.716249840395	
26.0	158.20174888638212	pulse	1.0	t		23.0	male	white	2.6275368085953046	neutral	141	sub-09	2.0	6.0	141_neutral	0.0		182.41624842167676	
26.0	158.90172422484466	pulse	1.0	t		23.0	male	white	2.6275368085953046	neutral	141	sub-09	2.0	6.0	141_neutral	0.0		183.1162237601393	
27.0	159.25990936507606	face	0.0		146	24.0	female	black	3.0955033824114606	neutral	099	sub-09	2.0	6.0	099_neutral	0.0		183.4744089003707	1.241647451092831
27.0	159.6017225042724	pulse	0.0	t		24.0	female	black	3.0955033824114606	neutral	099	sub-09	2.0	6.0	099_neutral	0.0		183.81622203956704	
27.0	160.30169059821947	pulse	0.0	t		24.0	female	black	3.0955033824114606	neutral	099	sub-09	2.0	6.0	099_neutral	0.0		184.5161901335141	
27.0	160.5015568161689	fix	1.0		444	24.0	female	black	3.0955033824114606	neutral	099	sub-09	2.0	6.0	099_neutral	0.0		184.71605635146352	3.758235429241722
27.0	161.00172600578844	pulse	1.0	t		24.0	female	black	3.0955033824114606	neutral	099	sub-09	2.0	6.0	099_neutral	0.0		185.21622554108308	
27.0	161.70166421610884	pulse	1.0	t		24.0	female	black	3.0955033824114606	neutral	099	sub-09	2.0	6.0	099_neutral	0.0		185.91616375140347	
27.0	162.40165223247368	pulse	1.0	t		24.0	female	black	3.0955033824114606	neutral	099	sub-09	2.0	6.0	099_neutral	0.0		186.61615176776832	
27.0	163.1016327024672	pulse	1.0	t		24.0	female	black	3.0955033824114606	neutral	099	sub-09	2.0	6.0	099_neutral	0.0		187.31613223776185	
27.0	163.80161860584758	pulse	1.0	t		24.0	female	black	3.0955033824114606	neutral	099	sub-09	2.0	6.0	099_neutral	0.0		188.01611814114221	
28.0	164.2597922454106	face	0.0		146	28.0	female	white	5.676880222841227	smiling	124	sub-09	2.0	6.0	124_smiling	0.0		188.47429178070524	1.2416565067369447
28.0	164.50159696285846	pulse	0.0	t		28.0	female	white	5.676880222841227	smiling	124	sub-09	2.0	6.0	124_smiling	0.0		188.7160964981531	
28.0	165.20158829962475	pulse	0.0	t		28.0	female	white	5.676880222841227	smiling	124	sub-09	2.0	6.0	124_smiling	0.0		189.41608783491938	
28.0	165.50144875214755	fix	1.0		444	28.0	female	white	5.676880222841227	smiling	124	sub-09	2.0	6.0	124_smiling	0.0		189.7159482874422	3.7582598794815567
28.0	165.9015817493755	pulse	1.0	t		28.0	female	white	5.676880222841227	smiling	124	sub-09	2.0	6.0	124_smiling	0.0		190.11608128467014	
28.0	166.60156191751503	pulse	1.0	t		28.0	female	white	5.676880222841227	smiling	124	sub-09	2.0	6.0	124_smiling	0.0		190.81606145280966	
28.0	167.3015541598461	pulse	1.0	t		28.0	female	white	5.676880222841227	smiling	124	sub-09	2.0	6.0	124_smiling	0.0		191.51605369514073	
28.0	168.00153523355038	pulse	1.0	t		28.0	female	white	5.676880222841227	smiling	124	sub-09	2.0	6.0	124_smiling	0.0		192.21603476884502	
28.0	168.70153351297722	pulse	1.0	t		28.0	female	white	5.676880222841227	smiling	124	sub-09	2.0	6.0	124_smiling	0.0		192.91603304827186	
29.0	169.2597086316291	face	0.0		146	22.0	male	black	2.767608436132113	neutral	044	sub-09	2.0	6.0	044_neutral	0.0		193.47420816692375	1.2416350750454512
29.0	169.40152122748714	pulse	0.0	t		22.0	male	black	2.767608436132113	neutral	044	sub-09	2.0	6.0	044_neutral	0.0		193.61602076278177	
29.0	170.10148449175722	pulse	0.0	t		22.0	male	black	2.767608436132113	neutral	044	sub-09	2.0	6.0	044_neutral	0.0		194.31598402705185	
29.0	170.50134370667456	fix	1.0		444	22.0	male	black	2.767608436132113	neutral	044	sub-09	2.0	6.0	044_neutral	0.0		194.7158432419692	3.7582336181130813
29.0	170.80147854521692	pulse	1.0	t		22.0	male	black	2.767608436132113	neutral	044	sub-09	2.0	6.0	044_neutral	0.0		195.01597808051156	
29.0	171.50148406916014	pulse	1.0	t		22.0	male	black	2.767608436132113	neutral	044	sub-09	2.0	6.0	044_neutral	0.0		195.71598360445478	
29.0	172.20145005012364	pulse	1.0	t		22.0	male	black	2.767608436132113	neutral	044	sub-09	2.0	6.0	044_neutral	0.0		196.41594958541828	
29.0	172.9014398776162	pulse	1.0	t		22.0	male	black	2.767608436132113	neutral	044	sub-09	2.0	6.0	044_neutral	0.0		197.11593941291085	
29.0	173.60143091252849	pulse	1.0	t		22.0	male	black	2.767608436132113	neutral	044	sub-09	2.0	6.0	044_neutral	0.0		197.81593044782312	
30.0	174.25957732478764	face	0.0		146	32.0	male	white	2.389176283326701	smiling	092	sub-09	2.0	6.0	092_smiling	0.0		198.47407686008228	1.241660128995136
30.0	174.30143341792336	pulse	0.0	t		32.0	male	white	2.389176283326701	smiling	092	sub-09	2.0	6.0	092_smiling	0.0		198.515932953218	
30.0	175.00137857090522	pulse	0.0	t		32.0	male	white	2.389176283326701	smiling	092	sub-09	2.0	6.0	092_smiling	0.0		199.21587810619985	
30.0	175.50123745378278	fix	1.0		443	32.0	male	white	2.389176283326701	smiling	092	sub-09	2.0	6.0	092_smiling	0.0		199.7157369890774	3.758238447790063
30.0	175.7013711150912	pulse	1.0	t		32.0	male	white	2.389176283326701	smiling	092	sub-09	2.0	6.0	092_smiling	0.0		199.91587065038584	
30.0	176.4013763371795	pulse	1.0	t		32.0	male	white	2.389176283326701	smiling	092	sub-09	2.0	6.0	092_smiling	0.0		200.61587587247413	
30.0	177.10134684596505	pulse	1.0	t		32.0	male	white	2.389176283326701	smiling	092	sub-09	2.0	6.0	092_smiling	0.0		201.3158463812597	
30.0	177.80132218442668	pulse	1.0	t		32.0	male	white	2.389176283326701	smiling	092	sub-09	2.0	6.0	092_smiling	0.0		202.01582171972132	
30.0	178.501298428454	pulse	1.0	t		32.0	male	white	2.389176283326701	smiling	092	sub-09	2.0	6.0	092_smiling	0.0		202.71579796374863	
30.0	179.20131874328217	pulse	1.0	t		32.0	male	white	2.389176283326701	smiling	092	sub-09	2.0	6.0	092_smiling	0.0		203.4158182785768	
31.0	179.25947590157284	face	0.0		147	36.0	female	white	2.7548746518105847	smiling	011	sub-09	2.0	6.0	011_smiling	1.0	trustworthiness	203.47397543686748	1.241674316170247
31.0	179.90129166690622	pulse	0.0	t		36.0	female	white	2.7548746518105847	smiling	011	sub-09	2.0	6.0	011_smiling	1.0	trustworthiness	204.11579120220085	
31.0	180.5011502177431	fix	1.0		177	36.0	female	white	2.7548746518105847	smiling	011	sub-09	2.0	6.0	011_smiling	1.0	trustworthiness	204.71564975303772	1.4999557782712145
31.0	180.6012890407692	pulse	1.0	t		36.0	female	white	2.7548746518105847	smiling	011	sub-09	2.0	6.0	011_smiling	1.0	trustworthiness	204.81578857606382	
31.0	181.30129365914763	pulse	1.0	t		36.0	female	white	2.7548746518105847	smiling	011	sub-09	2.0	6.0	011_smiling	1.0	trustworthiness	205.51579319444227	
31.0	182.0011059960143	rating	2.0		294	36.0	female	white	2.7548746518105847	smiling	011	sub-09	2.0	6.0	011_smiling	1.0	trustworthiness	206.21560553130894	2.499971172866026
31.0	181.9963333696569	pulse	2.0	t		36.0	female	white	2.7548746518105847	smiling	011	sub-09	2.0	6.0	011_smiling	1.0	trustworthiness	206.21083290495153	
31.0	182.69606330016086	pulse	2.0	t		36.0	female	white	2.7548746518105847	smiling	011	sub-09	2.0	6.0	011_smiling	1.0	trustworthiness	206.9105628354555	
31.0	183.39612044127625	pulse	2.0	t		36.0	female	white	2.7548746518105847	smiling	011	sub-09	2.0	6.0	011_smiling	1.0	trustworthiness	207.6106199765709	
31.0	183.55132754235	response	2.0	e		36.0	female	white	2.7548746518105847	smiling	011	sub-09	2.0	6.0	011_smiling	1.0	trustworthiness	207.76582707764464	
31.0	184.1012146335588	pulse	2.0	t		36.0	female	white	2.7548746518105847	smiling	011	sub-09	2.0	6.0	011_smiling	1.0	trustworthiness	208.31571416885345	
31.0	184.50107716888033	fix	3.0		444	36.0	female	white	2.7548746518105847	smiling	011	sub-09	2.0	6.0	011_smiling	1.0	trustworthiness	208.71557670417496	3.758232108838456
31.0	184.80120536661707	pulse	3.0	t		36.0	female	white	2.7548746518105847	smiling	011	sub-09	2.0	6.0	011_smiling	1.0	trustworthiness	209.0157049019117	
31.0	185.50118915701387	pulse	3.0	t		36.0	female	white	2.7548746518105847	smiling	011	sub-09	2.0	6.0	011_smiling	1.0	trustworthiness	209.7156886923085	
31.0	186.2011696270074	pulse	3.0	t		36.0	female	white	2.7548746518105847	smiling	011	sub-09	2.0	6.0	011_smiling	1.0	trustworthiness	210.41566916230204	
31.0	186.90115281369435	pulse	3.0	t		36.0	female	white	2.7548746518105847	smiling	011	sub-09	2.0	6.0	011_smiling	1.0	trustworthiness	211.115652348989	
31.0	187.6012739480284	pulse	3.0	t		36.0	female	white	2.7548746518105847	smiling	011	sub-09	2.0	6.0	011_smiling	1.0	trustworthiness	211.81577348332303	
32.0	188.25930927771878	face	0.0		146	22.0	female	white	4.614007162753682	smiling	009	sub-09	2.0	6.0	009_smiling	0.0		212.47380881301342	1.2416444325453995
32.0	188.30115178738833	pulse	0.0	t		22.0	female	white	4.614007162753682	smiling	009	sub-09	2.0	6.0	009_smiling	0.0		212.51565132268297	
32.0	189.00112289988283	pulse	0.0	t		22.0	female	white	4.614007162753682	smiling	009	sub-09	2.0	6.0	009_smiling	0.0		213.21562243517747	
32.0	189.50095371026418	fix	1.0		443	22.0	female	white	4.614007162753682	smiling	009	sub-09	2.0	6.0	009_smiling	0.0		213.71545324555882	3.7582553516585904
32.0	189.7010695621384	pulse	1.0	t		22.0	female	white	4.614007162753682	smiling	009	sub-09	2.0	6.0	009_smiling	0.0		213.91556909743304	
32.0	190.40104278761737	pulse	1.0	t		22.0	female	white	4.614007162753682	smiling	009	sub-09	2.0	6.0	009_smiling	0.0		214.615542322912	
32.0	191.1010434818836	pulse	1.0	t		22.0	female	white	4.614007162753682	smiling	009	sub-09	2.0	6.0	009_smiling	0.0		215.31554301717824	
32.0	191.80104779840713	pulse	1.0	t		22.0	female	white	4.614007162753682	smiling	009	sub-09	2.0	6.0	009_smiling	0.0		216.01554733370176	
32.0	192.50102313686966	pulse	1.0	t		22.0	female	white	4.614007162753682	smiling	009	sub-09	2.0	6.0	009_smiling	0.0		216.7155226721643	
32.0	193.200999682751	pulse	1.0	t		22.0	female	white	4.614007162753682	smiling	009	sub-09	2.0	6.0	009_smiling	0.0		217.41549921804562	
33.0	193.25920906192277	face	0.0		147	28.0	male	white	3.9076800636689217	smiling	033	sub-09	2.0	6.0	033_smiling	0.0		217.4737085972174	1.2416389991585675
33.0	193.90100158443602	pulse	0.0	t		28.0	male	white	3.9076800636689217	smiling	033	sub-09	2.0	6.0	033_smiling	0.0		218.11550111973065	
33.0	194.50084806108134	fix	1.0		443	28.0	male	white	3.9076800636689217	smiling	033	sub-09	2.0	6.0	033_smiling	0.0		218.71534759637598	3.7582342218229314
33.0	194.60099322305814	pulse	1.0	t		28.0	male	white	3.9076800636689217	smiling	033	sub-09	2.0	6.0	033_smiling	0.0		218.81549275835278	
33.0	195.3009827486967	pulse	1.0	t		28.0	male	white	3.9076800636689217	smiling	033	sub-09	2.0	6.0	033_smiling	0.0		219.51548228399133	
33.0	196.00093665546683	pulse	1.0	t		28.0	male	white	3.9076800636689217	smiling	033	sub-09	2.0	6.0	033_smiling	0.0		220.21543619076147	
33.0	196.70092014400961	pulse	1.0	t		28.0	male	white	3.9076800636689217	smiling	033	sub-09	2.0	6.0	033_smiling	0.0		220.91541967930425	
33.0	197.40090453811536	pulse	1.0	t		28.0	male	white	3.9076800636689217	smiling	033	sub-09	2.0	6.0	033_smiling	0.0		221.61540407341	
33.0	198.10090885463978	pulse	1.0	t		28.0	male	white	3.9076800636689217	smiling	033	sub-09	2.0	6.0	033_smiling	0.0		222.31540838993442	
34.0	198.25908228290427	face	0.0		147	47.0	male	east_asian	2.171110226820533	smiling	024	sub-09	2.0	6.0	024_smiling	0.0		222.4735818181989	1.2416682790744744
34.0	198.8009044173741	pulse	0.0	t		47.0	male	east_asian	2.171110226820533	smiling	024	sub-09	2.0	6.0	024_smiling	0.0		223.01540395266875	
34.0	199.50075056197875	fix	1.0		444	47.0	male	east_asian	2.171110226820533	smiling	024	sub-09	2.0	6.0	024_smiling	0.0		223.71525009727338	3.758237542225288
34.0	199.50862112422237	pulse	1.0	t		47.0	male	east_asian	2.171110226820533	smiling	024	sub-09	2.0	6.0	024_smiling	0.0		223.723120659517	
34.0	200.20087652598977	pulse	1.0	t		47.0	male	east_asian	2.171110226820533	smiling	024	sub-09	2.0	6.0	024_smiling	0.0		224.4153760612844	
34.0	200.90084944961382	pulse	1.0	t		47.0	male	east_asian	2.171110226820533	smiling	024	sub-09	2.0	6.0	024_smiling	0.0		225.11534898490845	
34.0	201.6008598032331	pulse	1.0	t		47.0	male	east_asian	2.171110226820533	smiling	024	sub-09	2.0	6.0	024_smiling	0.0		225.81535933852774	
34.0	202.30081280443937	pulse	1.0	t		47.0	male	east_asian	2.171110226820533	smiling	024	sub-09	2.0	6.0	024_smiling	0.0		226.515312339734	
34.0	203.00079900967557	pulse	1.0	t		47.0	male	east_asian	2.171110226820533	smiling	024	sub-09	2.0	6.0	024_smiling	0.0		227.2152985449702	
35.0	203.25898810420404	face	0.0		146	19.0	male	white	2.243931555909272	smiling	130	sub-09	2.0	6.0	130_smiling	0.0		227.47348763949867	1.24164443254449
35.0	203.70079487426392	pulse	0.0	t		19.0	male	white	2.243931555909272	smiling	130	sub-09	2.0	6.0	130_smiling	0.0		227.91529440955856	
35.0	204.4007747405485	pulse	0.0	t		19.0	male	white	2.243931555909272	smiling	130	sub-09	2.0	6.0	130_smiling	0.0		228.61527427584315	
35.0	204.50063253674853	fix	1.0		444	19.0	male	white	2.243931555909272	smiling	130	sub-09	2.0	6.0	130_smiling	0.0		228.71513207204316	3.7582450885965955
35.0	205.10076185134858	pulse	1.0	t		19.0	male	white	2.243931555909272	smiling	130	sub-09	2.0	6.0	130_smiling	0.0		229.31526138664321	
35.0	205.80077673278993	pulse	1.0	t		19.0	male	white	2.243931555909272	smiling	130	sub-09	2.0	6.0	130_smiling	0.0		230.01527626808456	
35.0	206.50071524496616	pulse	1.0	t		19.0	male	white	2.243931555909272	smiling	130	sub-09	2.0	6.0	130_smiling	0.0		230.7152147802608	
35.0	207.2007425024549	pulse	1.0	t		19.0	male	white	2.243931555909272	smiling	130	sub-09	2.0	6.0	130_smiling	0.0		231.41524203774952	
35.0	207.90070455930618	pulse	1.0	t		19.0	male	white	2.243931555909272	smiling	130	sub-09	2.0	6.0	130_smiling	0.0		232.1152040946008	
36.0	208.25887762534512	face	0.0		146	37.0	male	white	3.898925586947871	smiling	101	sub-09	2.0	6.0	101_smiling	0.0		232.47337716063976	1.2416320564971102
36.0	208.6008142231576	pulse	0.0	t		37.0	male	white	3.898925586947871	smiling	101	sub-09	2.0	6.0	101_smiling	0.0		232.81531375845225	
36.0	209.30066127332702	pulse	0.0	t		37.0	male	white	3.898925586947871	smiling	101	sub-09	2.0	6.0	101_smiling	0.0		233.51516080862166	
36.0	209.50050968184223	fix	1.0		444	37.0	male	white	3.898925586947871	smiling	101	sub-09	2.0	6.0	101_smiling	0.0		233.71500921713687	3.7582613887552725
36.0	210.00064083775578	pulse	1.0	t		37.0	male	white	3.898925586947871	smiling	101	sub-09	2.0	6.0	101_smiling	0.0		234.21514037305042	
36.0	210.7006107428315	pulse	1.0	t		37.0	male	white	3.898925586947871	smiling	101	sub-09	2.0	6.0	101_smiling	0.0		234.91511027812612	
36.0	211.4005996647602	pulse	1.0	t		37.0	male	white	3.898925586947871	smiling	101	sub-09	2.0	6.0	101_smiling	0.0		235.61509920005483	
36.0	212.1006100183804	pulse	1.0	t		37.0	male	white	3.898925586947871	smiling	101	sub-09	2.0	6.0	101_smiling	0.0		236.31510955367503	
36.0	212.80057449006927	pulse	1.0	t		37.0	male	white	3.898925586947871	smiling	101	sub-09	2.0	6.0	101_smiling	0.0		237.0150740253639	
37.0	213.2587710705975	face	0.0		146	24.0	female	east_asian	2.9076800636689217	neutral	034	sub-09	2.0	6.0	034_neutral	0.0		237.47327060589214	1.2416737124613064
37.0	213.50056341199797	pulse	0.0	t		24.0	female	east_asian	2.9076800636689217	neutral	034	sub-09	2.0	6.0	034_neutral	0.0		237.7150629472926	
37.0	214.20055867287738	pulse	0.0	t		24.0	female	east_asian	2.9076800636689217	neutral	034	sub-09	2.0	6.0	034_neutral	0.0		238.415058208172	
37.0	214.5004447830588	fix	1.0		444	24.0	female	east_asian	2.9076800636689217	neutral	034	sub-09	2.0	6.0	034_neutral	0.0		238.71494431835345	3.766554245874431
37.0	214.90054699109623	pulse	1.0	t		24.0	female	east_asian	2.9076800636689217	neutral	034	sub-09	2.0	6.0	034_neutral	0.0		239.11504652639087	
37.0	215.600521423994	pulse	1.0	t		24.0	female	east_asian	2.9076800636689217	neutral	034	sub-09	2.0	6.0	034_neutral	0.0		239.81502095928863	
37.0	216.30051427003582	pulse	1.0	t		24.0	female	east_asian	2.9076800636689217	neutral	034	sub-09	2.0	6.0	034_neutral	0.0		240.51501380533045	
37.0	217.0005170772847	pulse	1.0	t		24.0	female	east_asian	2.9076800636689217	neutral	034	sub-09	2.0	6.0	034_neutral	0.0		241.21501661257935	
37.0	217.7004625321215	pulse	1.0	t		24.0	female	east_asian	2.9076800636689217	neutral	034	sub-09	2.0	6.0	034_neutral	0.0		241.91496206741613	
38.0	218.26699902893324	face	0.0		145	40.0	male	black	2.408674890569041	smiling	061	sub-09	2.0	6.0	061_smiling	0.0		242.48149856422788	1.2333425197812176
38.0	218.40048254509566	pulse	0.0	t		40.0	male	black	2.408674890569041	smiling	061	sub-09	2.0	6.0	061_smiling	0.0		242.6149820803903	
38.0	219.10044188525262	pulse	0.0	t		40.0	male	black	2.408674890569041	smiling	061	sub-09	2.0	6.0	061_smiling	0.0		243.31494142054726	
38.0	219.50034154871446	fix	1.0		444	40.0	male	black	2.408674890569041	smiling	061	sub-09	2.0	6.0	061_smiling	0.0		243.7148410840091	3.7665524347457904
38.0	219.8004356368583	pulse	1.0	t		40.0	male	black	2.408674890569041	smiling	061	sub-09	2.0	6.0	061_smiling	0.0		244.01493517215295	
38.0	220.50040856048236	pulse	1.0	t		40.0	male	black	2.408674890569041	smiling	061	sub-09	2.0	6.0	061_smiling	0.0		244.714908095777	
38.0	221.20040502878055	pulse	1.0	t		40.0	male	black	2.408674890569041	smiling	061	sub-09	2.0	6.0	061_smiling	0.0		245.4149045640752	
38.0	221.90045341610676	pulse	1.0	t		40.0	male	black	2.408674890569041	smiling	061	sub-09	2.0	6.0	061_smiling	0.0		246.1149529514014	
38.0	222.60038377820274	pulse	1.0	t		40.0	male	black	2.408674890569041	smiling	061	sub-09	2.0	6.0	061_smiling	0.0		246.81488331349738	
39.0	223.26689398346025	face	0.0		145	31.0	male	west_asian	1.9538400318344609	smiling	070	sub-09	2.0	6.0	070_smiling	1.0	dominance	247.48139351875489	1.233339803088711
39.0	223.30041345052996	pulse	0.0	t		31.0	male	west_asian	1.9538400318344609	smiling	070	sub-09	2.0	6.0	070_smiling	1.0	dominance	247.5149129858246	
39.0	224.00035649052734	pulse	0.0	t		31.0	male	west_asian	1.9538400318344609	smiling	070	sub-09	2.0	6.0	070_smiling	1.0	dominance	248.21485602582197	
39.0	224.50023378654896	fix	1.0		177	31.0	male	west_asian	1.9538400318344609	smiling	070	sub-09	2.0	6.0	070_smiling	1.0	dominance	248.7147333218436	1.4999708710111008
39.0	224.70033273455465	pulse	1.0	t		31.0	male	west_asian	1.9538400318344609	smiling	070	sub-09	2.0	6.0	070_smiling	1.0	dominance	248.91483226984928	
39.0	225.4003095822909	pulse	1.0	t		31.0	male	west_asian	1.9538400318344609	smiling	070	sub-09	2.0	6.0	070_smiling	1.0	dominance	249.61480911758554	
39.0	226.00020465756006	rating	2.0		294	31.0	male	west_asian	1.9538400318344609	smiling	070	sub-09	2.0	6.0	070_smiling	1.0	dominance	250.2147041928547	2.499933139160021
39.0	226.09516817991516	pulse	2.0	t		31.0	male	west_asian	1.9538400318344609	smiling	070	sub-09	2.0	6.0	070_smiling	1.0	dominance	250.3096677152098	
39.0	226.79510699394632	pulse	2.0	t		31.0	male	west_asian	1.9538400318344609	smiling	070	sub-09	2.0	6.0	070_smiling	1.0	dominance	251.00960652924095	
39.0	227.48666903522098	response	2.0	w		31.0	male	west_asian	1.9538400318344609	smiling	070	sub-09	2.0	6.0	070_smiling	1.0	dominance	251.70116857051562	
39.0	227.50320071744864	pulse	2.0	t		31.0	male	west_asian	1.9538400318344609	smiling	070	sub-09	2.0	6.0	070_smiling	1.0	dominance	251.71770025274327	
39.0	228.20025681807056	pulse	2.0	t		31.0	male	west_asian	1.9538400318344609	smiling	070	sub-09	2.0	6.0	070_smiling	1.0	dominance	252.4147563533652	
39.0	228.50013779672008	fix	3.0		444	31.0	male	west_asian	1.9538400318344609	smiling	070	sub-09	2.0	6.0	070_smiling	1.0	dominance	252.71463733201472	3.7499205367221293
39.0	228.90024211774107	pulse	3.0	t		31.0	male	west_asian	1.9538400318344609	smiling	070	sub-09	2.0	6.0	070_smiling	1.0	dominance	253.1147416530357	
39.0	229.60021896547732	pulse	3.0	t		31.0	male	west_asian	1.9538400318344609	smiling	070	sub-09	2.0	6.0	070_smiling	1.0	dominance	253.81471850077196	
39.0	230.3002036614389	pulse	3.0	t		31.0	male	west_asian	1.9538400318344609	smiling	070	sub-09	2.0	6.0	070_smiling	1.0	dominance	254.51470319673354	
39.0	231.00020677054363	pulse	3.0	t		31.0	male	west_asian	1.9538400318344609	smiling	070	sub-09	2.0	6.0	070_smiling	1.0	dominance	255.21470630583826	
39.0	231.70018693868224	pulse	3.0	t		31.0	male	west_asian	1.9538400318344609	smiling	070	sub-09	2.0	6.0	070_smiling	1.0	dominance	255.91468647397687	
40.0	232.2500583334422	fix	0.0		720													256.46455786873685	5.999872617270739
40.0	232.40017555875602	pulse	0.0	t														256.61467509405065	
40.0	233.10014968979885	pulse	0.0	t														257.3146492250935	
40.0	233.80015642116177	pulse	0.0	t														258.0146559564564	
40.0	234.50015047462148	pulse	0.0	t														258.7146500099161	
40.0	235.2001243038103	pulse	0.0	t														259.41462383910493	
40.0	235.90010749049725	pulse	0.0	t														260.1146070257919	
40.0	236.6000755844443	pulse	0.0	t														260.81457511973895	
40.0	237.30006028040498	pulse	0.0	t														261.5145598156996	
40.0	238.00005131531725	pulse	0.0	t														262.2145508506119	
