trial_nr	onset	event_type	phase	response	nr_frames	face_age	face_sex	face_eth	attractiveness	expression	face_id	sub_id	ses	run	trial_type	catch	rating_type	onset_abs	duration
-1.0	0.058611876562281395	fix	0.0		713													26.89977877127967	5.9579312262121675
-1.0	0.7001374340788971	pulse	0.0	t														27.541304328796286	
-1.0	1.4001215263788254	pulse	0.0	t														28.241288421096215	
-1.0	2.1001010908703392	pulse	0.0	t														28.94126798558773	
-1.0	2.8000945406402025	pulse	0.0	t														29.641261435357592	
-1.0	3.500071992154517	pulse	0.0	t														30.341238886871906	
-1.0	4.200057291869598	pulse	0.0	t														31.041224186586987	
-1.0	4.900025687767084	pulse	0.0	t														31.741192582484473	
-1.0	5.600058680397524	pulse	0.0	t														32.44122557511491	
0.0	6.016543102774449	face	0.0		144	27.0	female	white	4.181058495821727	smiling	039	sub-02	2.0	5.0	039_smiling	0.0		32.85770999749184	1.2333366839120572
0.0	6.300012889161735	pulse	0.0	t		27.0	female	white	4.181058495821727	smiling	039	sub-02	2.0	5.0	039_smiling	0.0		33.141179783879124	
0.0	6.999995774045601	pulse	0.0	t		27.0	female	white	4.181058495821727	smiling	039	sub-02	2.0	5.0	039_smiling	0.0		33.84116266876299	
0.0	7.249879786686506	fix	1.0		445	27.0	female	white	4.181058495821727	smiling	039	sub-02	2.0	5.0	039_smiling	0.0		34.091046681403895	3.758245516488387
0.0	7.699970810728701	pulse	1.0	t		27.0	female	white	4.181058495821727	smiling	039	sub-02	2.0	5.0	039_smiling	0.0		34.54113770544609	
0.0	8.399953091904536	pulse	1.0	t		27.0	female	white	4.181058495821727	smiling	039	sub-02	2.0	5.0	039_smiling	0.0		35.241119986621925	
0.0	9.099949258360539	pulse	1.0	t		27.0	female	white	4.181058495821727	smiling	039	sub-02	2.0	5.0	039_smiling	0.0		35.94111615307793	
0.0	9.79992489875076	pulse	1.0	t		27.0	female	white	4.181058495821727	smiling	039	sub-02	2.0	5.0	039_smiling	0.0		36.64109179346815	
0.0	10.499910198465841	pulse	1.0	t		27.0	female	white	4.181058495821727	smiling	039	sub-02	2.0	5.0	039_smiling	0.0		37.34107709318323	
1.0	11.008125303174893	face	0.0		146	19.0	female	white	4.298846000795861	neutral	100	sub-02	2.0	5.0	100_neutral	0.0		37.84929219789228	1.24162287521267
1.0	11.199901233405399	pulse	0.0	t		19.0	female	white	4.298846000795861	neutral	100	sub-02	2.0	5.0	100_neutral	0.0		38.04106812812279	
1.0	11.899869327448869	pulse	0.0	t		19.0	female	white	4.298846000795861	neutral	100	sub-02	2.0	5.0	100_neutral	0.0		38.74103622216626	
1.0	12.249748178387563	fix	1.0		444	19.0	female	white	4.298846000795861	neutral	100	sub-02	2.0	5.0	100_neutral	0.0		39.09091507310495	3.7582424979491407
1.0	12.599855834579103	pulse	1.0	t		19.0	female	white	4.298846000795861	neutral	100	sub-02	2.0	5.0	100_neutral	0.0		39.44102272929649	
1.0	13.299841134295093	pulse	1.0	t		19.0	female	white	4.298846000795861	neutral	100	sub-02	2.0	5.0	100_neutral	0.0		40.14100802901248	
1.0	13.999825226594112	pulse	1.0	t		19.0	female	white	4.298846000795861	neutral	100	sub-02	2.0	5.0	100_neutral	0.0		40.8409921213115	
1.0	14.699808413331994	pulse	1.0	t		19.0	female	white	4.298846000795861	neutral	100	sub-02	2.0	5.0	100_neutral	0.0		41.54097530804938	
1.0	15.399791298216769	pulse	1.0	t		19.0	female	white	4.298846000795861	neutral	100	sub-02	2.0	5.0	100_neutral	0.0		42.24095819293416	
2.0	16.007990676336703	face	0.0		146	20.0	female	white	3.9502586549940313	neutral	091	sub-02	2.0	5.0	091_neutral	1.0	attractiveness	42.84915757105409	1.2416542680184648
2.0	16.09978625725671	pulse	0.0	t		20.0	female	white	3.9502586549940313	neutral	091	sub-02	2.0	5.0	091_neutral	1.0	attractiveness	42.9409531519741	
2.0	16.799760388377763	pulse	0.0	t		20.0	female	white	3.9502586549940313	neutral	091	sub-02	2.0	5.0	091_neutral	1.0	attractiveness	43.64092728309515	
2.0	17.24964494435517	fix	1.0		177	20.0	female	white	3.9502586549940313	neutral	091	sub-02	2.0	5.0	091_neutral	1.0	attractiveness	44.09081183907256	1.508315622056216
2.0	17.499753838147626	pulse	1.0	t		20.0	female	white	3.9502586549940313	neutral	091	sub-02	2.0	5.0	091_neutral	1.0	attractiveness	44.340920732865015	
2.0	18.19973189336997	pulse	1.0	t		20.0	female	white	3.9502586549940313	neutral	091	sub-02	2.0	5.0	091_neutral	1.0	attractiveness	45.04089878808736	
2.0	18.757960566411384	rating	2.0		293	20.0	female	white	3.9502586549940313	neutral	091	sub-02	2.0	5.0	091_neutral	1.0	attractiveness	45.599127461128774	2.4915917087973867
2.0	18.899723230162635	pulse	2.0	t		20.0	female	white	3.9502586549940313	neutral	091	sub-02	2.0	5.0	091_neutral	1.0	attractiveness	45.740890124880025	
2.0	19.599700983530965	pulse	2.0	t		20.0	female	white	3.9502586549940313	neutral	091	sub-02	2.0	5.0	091_neutral	1.0	attractiveness	46.440867878248355	
2.0	19.76634938803636	response	2.0	y		20.0	female	white	3.9502586549940313	neutral	091	sub-02	2.0	5.0	091_neutral	1.0	attractiveness	46.60751628275375	
2.0	20.299661531226775	pulse	2.0	t		20.0	female	white	3.9502586549940313	neutral	091	sub-02	2.0	5.0	091_neutral	1.0	attractiveness	47.140828425944164	
2.0	20.9996625273443	pulse	2.0	t		20.0	female	white	3.9502586549940313	neutral	091	sub-02	2.0	5.0	091_neutral	1.0	attractiveness	47.84082942206169	
2.0	21.24955227520877	fix	3.0		444	20.0	female	white	3.9502586549940313	neutral	091	sub-02	2.0	5.0	091_neutral	1.0	attractiveness	48.09071916992616	3.7582503461508168
2.0	21.699627904702538	pulse	3.0	t		20.0	female	white	3.9502586549940313	neutral	091	sub-02	2.0	5.0	091_neutral	1.0	attractiveness	48.54079479941993	
2.0	22.399625278573694	pulse	3.0	t		20.0	female	white	3.9502586549940313	neutral	091	sub-02	2.0	5.0	091_neutral	1.0	attractiveness	49.240792173291084	
2.0	23.099625972837202	pulse	3.0	t		20.0	female	white	3.9502586549940313	neutral	091	sub-02	2.0	5.0	091_neutral	1.0	attractiveness	49.94079286755459	
2.0	23.79959557614984	pulse	3.0	t		20.0	female	white	3.9502586549940313	neutral	091	sub-02	2.0	5.0	091_neutral	1.0	attractiveness	50.64076247086723	
2.0	24.499573933226202	pulse	3.0	t		20.0	female	white	3.9502586549940313	neutral	091	sub-02	2.0	5.0	091_neutral	1.0	attractiveness	51.34074082794359	
3.0	25.007802621359588	face	0.0		146	28.0	male	east_asian	1.5563072025467568	neutral	005	sub-02	2.0	5.0	005_neutral	0.0		51.84896951607698	1.2416295159982838
3.0	25.199571005243342	pulse	0.0	t		28.0	male	east_asian	1.5563072025467568	neutral	005	sub-02	2.0	5.0	005_neutral	0.0		52.04073789996073	
3.0	25.89954966417281	pulse	0.0	t		28.0	male	east_asian	1.5563072025467568	neutral	005	sub-02	2.0	5.0	005_neutral	0.0		52.7407165588902	
3.0	26.24943213735787	fix	1.0		444	28.0	male	east_asian	1.5563072025467568	neutral	005	sub-02	2.0	5.0	005_neutral	0.0		53.09059903207526	3.7582307256479908
3.0	26.59953436017986	pulse	1.0	t		28.0	male	east_asian	1.5563072025467568	neutral	005	sub-02	2.0	5.0	005_neutral	0.0		53.44070125489725	
3.0	27.299522980288202	pulse	1.0	t		28.0	male	east_asian	1.5563072025467568	neutral	005	sub-02	2.0	5.0	005_neutral	0.0		54.14068987500559	
3.0	27.999497715117286	pulse	1.0	t		28.0	male	east_asian	1.5563072025467568	neutral	005	sub-02	2.0	5.0	005_neutral	0.0		54.840664609834676	
3.0	28.699483014832367	pulse	1.0	t		28.0	male	east_asian	1.5563072025467568	neutral	005	sub-02	2.0	5.0	005_neutral	0.0		55.54064990954976	
3.0	29.39946529600911	pulse	1.0	t		28.0	male	east_asian	1.5563072025467568	neutral	005	sub-02	2.0	5.0	005_neutral	0.0		56.2406321907265	
4.0	30.007662863005862	face	0.0		146	24.0	male	white	3.1153999204138483	smiling	012	sub-02	2.0	5.0	012_smiling	0.0		56.84882975772325	1.2416521550403559
4.0	30.09945421797056	pulse	0.0	t		24.0	male	white	3.1153999204138483	smiling	012	sub-02	2.0	5.0	012_smiling	0.0		56.94062111268795	
4.0	30.79943891397852	pulse	0.0	t		24.0	male	white	3.1153999204138483	smiling	012	sub-02	2.0	5.0	012_smiling	0.0		57.64060580869591	
4.0	31.249315018046218	fix	1.0		444	24.0	male	white	3.1153999204138483	smiling	012	sub-02	2.0	5.0	012_smiling	0.0		58.09048191276361	3.7665410652607534
4.0	31.499420289593218	pulse	1.0	t		24.0	male	white	3.1153999204138483	smiling	012	sub-02	2.0	5.0	012_smiling	0.0		58.34058718431061	
4.0	32.199394722568286	pulse	1.0	t		24.0	male	white	3.1153999204138483	smiling	012	sub-02	2.0	5.0	012_smiling	0.0		59.040561617285675	
4.0	32.899379418575336	pulse	1.0	t		24.0	male	white	3.1153999204138483	smiling	012	sub-02	2.0	5.0	012_smiling	0.0		59.740546313292725	
4.0	33.59939671480333	pulse	1.0	t		24.0	male	white	3.1153999204138483	smiling	012	sub-02	2.0	5.0	012_smiling	0.0		60.44056360952072	
4.0	34.299343980927915	pulse	1.0	t		24.0	male	white	3.1153999204138483	smiling	012	sub-02	2.0	5.0	012_smiling	0.0		61.140510875645305	
5.0	35.01585608330697	face	0.0		146	31.0	female	west_asian	2.364902506963788	smiling	006	sub-02	2.0	5.0	006_smiling	0.0		61.85702297802436	1.2333418154275932
5.0	35.00220292973336	pulse	0.0	t		31.0	female	west_asian	2.364902506963788	smiling	006	sub-02	2.0	5.0	006_smiling	0.0		61.84336982445075	
5.0	35.69931246738088	pulse	0.0	t		31.0	female	west_asian	2.364902506963788	smiling	006	sub-02	2.0	5.0	006_smiling	0.0		62.54047936209827	
5.0	36.249197898734565	fix	1.0		444	31.0	female	west_asian	2.364902506963788	smiling	006	sub-02	2.0	5.0	006_smiling	0.0		63.090364793451954	3.766568835819271
5.0	36.39930953939802	pulse	1.0	t		31.0	female	west_asian	2.364902506963788	smiling	006	sub-02	2.0	5.0	006_smiling	0.0		63.24047643411541	
5.0	37.09928880203552	pulse	1.0	t		31.0	female	west_asian	2.364902506963788	smiling	006	sub-02	2.0	5.0	006_smiling	0.0		63.940455696752906	
5.0	37.79927108321226	pulse	1.0	t		31.0	female	west_asian	2.364902506963788	smiling	006	sub-02	2.0	5.0	006_smiling	0.0		64.64043797792965	
5.0	38.49925940146659	pulse	1.0	t		31.0	female	west_asian	2.364902506963788	smiling	006	sub-02	2.0	5.0	006_smiling	0.0		65.34042629618398	
5.0	39.199238060396056	pulse	1.0	t		31.0	female	west_asian	2.364902506963788	smiling	006	sub-02	2.0	5.0	006_smiling	0.0		66.04040495511344	
5.0	39.89920796556271	pulse	1.0	t		31.0	female	west_asian	2.364902506963788	smiling	006	sub-02	2.0	5.0	006_smiling	0.0		66.7403748602801	
6.0	40.015766734553836	face	0.0		147	54.0	female	white	2.286908077994429	neutral	136	sub-02	2.0	5.0	136_neutral	0.0		66.85693362927123	1.2416298178522993
6.0	40.599206848703034	pulse	0.0	t		54.0	female	white	2.286908077994429	neutral	136	sub-02	2.0	5.0	136_neutral	0.0		67.44037374342042	
6.0	41.257396552406135	fix	1.0		444	54.0	female	white	2.286908077994429	neutral	136	sub-02	2.0	5.0	136_neutral	0.0		68.09856344712352	3.7582286126707913
6.0	41.299174942746504	pulse	1.0	t		54.0	female	white	2.286908077994429	neutral	136	sub-02	2.0	5.0	136_neutral	0.0		68.1403418374639	
6.0	41.99917563701001	pulse	1.0	t		54.0	female	white	2.286908077994429	neutral	136	sub-02	2.0	5.0	136_neutral	0.0		68.8403425317274	
6.0	42.699144334760604	pulse	1.0	t		54.0	female	white	2.286908077994429	neutral	136	sub-02	2.0	5.0	136_neutral	0.0		69.540311229478	
6.0	43.39913144559978	pulse	1.0	t		54.0	female	white	2.286908077994429	neutral	136	sub-02	2.0	5.0	136_neutral	0.0		70.24029834031717	
6.0	44.099120367562136	pulse	1.0	t		54.0	female	white	2.286908077994429	neutral	136	sub-02	2.0	5.0	136_neutral	0.0		70.94028726227953	
6.0	44.79908876345871	pulse	1.0	t		54.0	female	white	2.286908077994429	neutral	136	sub-02	2.0	5.0	136_neutral	0.0		71.6402556581761	
7.0	45.015625165076926	face	0.0		146	22.0	female	white	4.614007162753682	neutral	009	sub-02	2.0	5.0	009_neutral	0.0		71.85679205979432	1.241652758748387
7.0	45.49909368367753	pulse	0.0	t		22.0	female	white	4.614007162753682	neutral	009	sub-02	2.0	5.0	009_neutral	0.0		72.34026057839492	
7.0	46.19906238142812	pulse	0.0	t		22.0	female	white	4.614007162753682	neutral	009	sub-02	2.0	5.0	009_neutral	0.0		73.04022927614551	
7.0	46.25727792382531	fix	1.0		445	22.0	female	white	4.614007162753682	neutral	009	sub-02	2.0	5.0	009_neutral	0.0		73.0984448185427	3.7583816525957445
7.0	46.89904707743608	pulse	1.0	t		22.0	female	white	4.614007162753682	neutral	009	sub-02	2.0	5.0	009_neutral	0.0		73.74021397215347	
7.0	47.59904264018314	pulse	1.0	t		22.0	female	white	4.614007162753682	neutral	009	sub-02	2.0	5.0	009_neutral	0.0		74.44020953490053	
7.0	48.299020997259504	pulse	1.0	t		22.0	female	white	4.614007162753682	neutral	009	sub-02	2.0	5.0	009_neutral	0.0		75.1401878919769	
7.0	48.99900388214337	pulse	1.0	t		22.0	female	white	4.614007162753682	neutral	009	sub-02	2.0	5.0	009_neutral	0.0		75.84017077686076	
7.0	49.698979220679576	pulse	1.0	t		22.0	female	white	4.614007162753682	neutral	009	sub-02	2.0	5.0	009_neutral	0.0		76.54014611539696	
8.0	50.01565957642106	face	0.0		146	54.0	female	white	2.286908077994429	smiling	136	sub-02	2.0	5.0	136_smiling	0.0		76.85682647113845	1.241517830056182
8.0	50.39897719825876	pulse	0.0	t		54.0	female	white	2.286908077994429	smiling	136	sub-02	2.0	5.0	136_smiling	0.0		77.24014409297615	
8.0	51.09898604257796	pulse	0.0	t		54.0	female	white	2.286908077994429	smiling	136	sub-02	2.0	5.0	136_smiling	0.0		77.94015293729535	
8.0	51.25717740647724	fix	1.0		445	54.0	female	white	2.286908077994429	smiling	136	sub-02	2.0	5.0	136_smiling	0.0		78.09834430119463	3.76656340244881
8.0	51.79894417544256	pulse	1.0	t		54.0	female	white	2.286908077994429	smiling	136	sub-02	2.0	5.0	136_smiling	0.0		78.64011107015995	
8.0	52.49891468431724	pulse	1.0	t		54.0	female	white	2.286908077994429	smiling	136	sub-02	2.0	5.0	136_smiling	0.0		79.34008157903463	
8.0	53.198913567457566	pulse	1.0	t		54.0	female	white	2.286908077994429	smiling	136	sub-02	2.0	5.0	136_smiling	0.0		80.04008046217496	
8.0	53.898885887455435	pulse	1.0	t		54.0	female	white	2.286908077994429	smiling	136	sub-02	2.0	5.0	136_smiling	0.0		80.74005278217282	
8.0	54.598903787391464	pulse	1.0	t		54.0	female	white	2.286908077994429	smiling	136	sub-02	2.0	5.0	136_smiling	0.0		81.44007068210885	
9.0	55.02374080892605	face	0.0		145	26.0	male	white	2.7966573816155993	smiling	117	sub-02	2.0	5.0	117_smiling	0.0		81.86490770364344	1.233320685655599
9.0	55.29886041098598	pulse	0.0	t		26.0	male	white	2.7966573816155993	smiling	117	sub-02	2.0	5.0	117_smiling	0.0		82.14002730570337	
9.0	55.9988294105915	pulse	0.0	t		26.0	male	white	2.7966573816155993	smiling	117	sub-02	2.0	5.0	117_smiling	0.0		82.83999630530889	
9.0	56.25706149458165	fix	1.0		445	26.0	male	white	2.7966573816155993	smiling	117	sub-02	2.0	5.0	117_smiling	0.0		83.09822838929904	3.7665600820555483
9.0	56.698830104855006	pulse	1.0	t		26.0	male	white	2.7966573816155993	smiling	117	sub-02	2.0	5.0	117_smiling	0.0		83.5399969995724	
9.0	57.398805745246136	pulse	1.0	t		26.0	male	white	2.7966573816155993	smiling	117	sub-02	2.0	5.0	117_smiling	0.0		84.23997263996353	
9.0	58.0987928560844	pulse	1.0	t		26.0	male	white	2.7966573816155993	smiling	117	sub-02	2.0	5.0	117_smiling	0.0		84.93995975080179	
9.0	58.79876728905947	pulse	1.0	t		26.0	male	white	2.7966573816155993	smiling	117	sub-02	2.0	5.0	117_smiling	0.0		85.63993418377686	
9.0	59.498757116582965	pulse	1.0	t		26.0	male	white	2.7966573816155993	smiling	117	sub-02	2.0	5.0	117_smiling	0.0		86.33992401130035	
10.0	60.0236215766372	face	0.0		145	37.0	male	white	3.898925586947871	neutral	101	sub-02	2.0	5.0	101_neutral	1.0	attractiveness	86.86478847135459	1.2333040836911096
10.0	60.19873849219766	pulse	0.0	t		37.0	male	white	3.898925586947871	neutral	101	sub-02	2.0	5.0	101_neutral	1.0	attractiveness	87.03990538691505	
10.0	60.89871986781236	pulse	0.0	t		37.0	male	white	3.898925586947871	neutral	101	sub-02	2.0	5.0	101_neutral	1.0	attractiveness	87.73988676252975	
10.0	61.25692566032831	fix	1.0		177	37.0	male	white	3.898925586947871	neutral	101	sub-02	2.0	5.0	101_neutral	1.0	attractiveness	88.0980925550457	1.4999823415473656
10.0	61.59871995836875	pulse	1.0	t		37.0	male	white	3.898925586947871	neutral	101	sub-02	2.0	5.0	101_neutral	1.0	attractiveness	88.43988685308614	
10.0	62.29869559875897	pulse	1.0	t		37.0	male	white	3.898925586947871	neutral	101	sub-02	2.0	5.0	101_neutral	1.0	attractiveness	89.13986249347636	
10.0	62.75690800187567	rating	2.0		294	37.0	male	white	3.898925586947871	neutral	101	sub-02	2.0	5.0	101_neutral	1.0	attractiveness	89.59807489659306	2.499941893124742
10.0	62.99867878549685	pulse	2.0	t		37.0	male	white	3.898925586947871	neutral	101	sub-02	2.0	5.0	101_neutral	1.0	attractiveness	89.83984568021424	
10.0	63.6569916455901	response	2.0	g		37.0	male	white	3.898925586947871	neutral	101	sub-02	2.0	5.0	101_neutral	1.0	attractiveness	90.49815854030749	
10.0	63.69864838880949	pulse	2.0	t		37.0	male	white	3.898925586947871	neutral	101	sub-02	2.0	5.0	101_neutral	1.0	attractiveness	90.53981528352688	
10.0	64.3986321792554	pulse	2.0	t		37.0	male	white	3.898925586947871	neutral	101	sub-02	2.0	5.0	101_neutral	1.0	attractiveness	91.23979907397279	
10.0	65.09862653458731	pulse	2.0	t		37.0	male	white	3.898925586947871	neutral	101	sub-02	2.0	5.0	101_neutral	1.0	attractiveness	91.9397934293047	
10.0	65.25684989500041	fix	3.0		444	37.0	male	white	3.898925586947871	neutral	101	sub-02	2.0	5.0	101_neutral	1.0	attractiveness	92.0980167897178	3.766560987617595
10.0	65.79861485284164	pulse	3.0	t		37.0	male	white	3.898925586947871	neutral	101	sub-02	2.0	5.0	101_neutral	1.0	attractiveness	92.63978174755903	
10.0	66.4985892858167	pulse	3.0	t		37.0	male	white	3.898925586947871	neutral	101	sub-02	2.0	5.0	101_neutral	1.0	attractiveness	93.3397561805341	
10.0	67.19856764289216	pulse	3.0	t		37.0	male	white	3.898925586947871	neutral	101	sub-02	2.0	5.0	101_neutral	1.0	attractiveness	94.03973453760955	
10.0	67.89855264075413	pulse	3.0	t		37.0	male	white	3.898925586947871	neutral	101	sub-02	2.0	5.0	101_neutral	1.0	attractiveness	94.73971953547152	
10.0	68.59854729794006	pulse	3.0	t		37.0	male	white	3.898925586947871	neutral	101	sub-02	2.0	5.0	101_neutral	1.0	attractiveness	95.43971419265745	
11.0	69.02341088261801	face	0.0		145	24.0	female	black	3.0955033824114606	smiling	099	sub-02	2.0	5.0	099_smiling	0.0		95.8645777773354	1.2333197800935523
11.0	69.29852414574634	pulse	0.0	t		24.0	female	black	3.0955033824114606	smiling	099	sub-02	2.0	5.0	099_smiling	0.0		96.13969104046373	
11.0	69.998515482539	pulse	0.0	t		24.0	female	black	3.0955033824114606	smiling	099	sub-02	2.0	5.0	099_smiling	0.0		96.8396823772564	
11.0	70.25673066271156	fix	1.0		444	24.0	female	black	3.0955033824114606	smiling	099	sub-02	2.0	5.0	099_smiling	0.0		97.09789755742895	3.76656340244881
11.0	70.69848961366006	pulse	1.0	t		24.0	female	black	3.0955033824114606	smiling	099	sub-02	2.0	5.0	099_smiling	0.0		97.53965650837745	
11.0	71.39847491337605	pulse	1.0	t		24.0	female	black	3.0955033824114606	smiling	099	sub-02	2.0	5.0	099_smiling	0.0		98.23964180809344	
11.0	72.09844180000346	pulse	1.0	t		24.0	female	black	3.0955033824114606	smiling	099	sub-02	2.0	5.0	099_smiling	0.0		98.93960869472085	
11.0	72.79843947572863	pulse	1.0	t		24.0	female	black	3.0955033824114606	smiling	099	sub-02	2.0	5.0	099_smiling	0.0		99.63960637044602	
11.0	73.49843081252129	pulse	1.0	t		24.0	female	black	3.0955033824114606	smiling	099	sub-02	2.0	5.0	099_smiling	0.0		100.33959770723868	
12.0	74.02329406516037	face	0.0		145	40.0	male	white	1.868682849184242	neutral	172	sub-02	2.0	5.0	172_neutral	0.0		100.86446095987776	1.2333040836911096
12.0	74.19841067886682	pulse	0.0	t		40.0	male	white	1.868682849184242	neutral	172	sub-02	2.0	5.0	172_neutral	0.0		101.03957757358421	
12.0	74.89837877290938	pulse	0.0	t		40.0	male	white	1.868682849184242	neutral	172	sub-02	2.0	5.0	172_neutral	0.0		101.73954566762677	
12.0	75.25659814885148	fix	1.0		444	40.0	male	white	1.868682849184242	neutral	172	sub-02	2.0	5.0	172_neutral	0.0		102.09776504356887	3.766561893178732
12.0	75.59838520239737	pulse	1.0	t		40.0	male	white	1.868682849184242	neutral	172	sub-02	2.0	5.0	172_neutral	0.0		102.43955209711476	
12.0	76.29836054093448	pulse	1.0	t		40.0	male	white	1.868682849184242	neutral	172	sub-02	2.0	5.0	172_neutral	0.0		103.13952743565187	
12.0	76.99833044610114	pulse	1.0	t		40.0	male	white	1.868682849184242	neutral	172	sub-02	2.0	5.0	172_neutral	0.0		103.83949734081853	
12.0	77.69833114036464	pulse	1.0	t		40.0	male	white	1.868682849184242	neutral	172	sub-02	2.0	5.0	172_neutral	0.0		104.53949803508203	
12.0	78.39831493081056	pulse	1.0	t		40.0	male	white	1.868682849184242	neutral	172	sub-02	2.0	5.0	172_neutral	0.0		105.23948182552795	
13.0	79.02316004203021	face	0.0		145	22.0	male	black	2.767608436132113	smiling	044	sub-02	2.0	5.0	044_smiling	1.0	dominance	105.8643269367476	1.2333209875096145
13.0	79.09829026934767	pulse	0.0	t		22.0	male	black	2.767608436132113	smiling	044	sub-02	2.0	5.0	044_smiling	1.0	dominance	105.93945716406506	
13.0	79.79827768203995	pulse	0.0	t		22.0	male	black	2.767608436132113	smiling	044	sub-02	2.0	5.0	044_smiling	1.0	dominance	106.63944457675734	
13.0	80.25648102953983	fix	1.0		177	22.0	male	black	2.767608436132113	smiling	044	sub-02	2.0	5.0	044_smiling	1.0	dominance	107.09764792425722	1.4999684562671973
13.0	80.49825845394662	pulse	1.0	t		22.0	male	black	2.767608436132113	smiling	044	sub-02	2.0	5.0	044_smiling	1.0	dominance	107.33942534866401	
13.0	81.19823711287609	pulse	1.0	t		22.0	male	black	2.767608436132113	smiling	044	sub-02	2.0	5.0	044_smiling	1.0	dominance	108.03940400759348	
13.0	81.75644948580702	rating	2.0		294	22.0	male	black	2.767608436132113	smiling	044	sub-02	2.0	5.0	044_smiling	1.0	dominance	108.59761638052441	2.499952759865664
13.0	81.89822422371526	pulse	2.0	t		22.0	male	black	2.767608436132113	smiling	044	sub-02	2.0	5.0	044_smiling	1.0	dominance	108.73939111843265	
13.0	82.59820952343034	pulse	2.0	t		22.0	male	black	2.767608436132113	smiling	044	sub-02	2.0	5.0	044_smiling	1.0	dominance	109.43937641814773	
13.0	82.97644211453553	response	2.0	w		22.0	male	black	2.767608436132113	smiling	044	sub-02	2.0	5.0	044_smiling	1.0	dominance	109.81760900925292	
13.0	83.2981712785413	pulse	2.0	t		22.0	male	black	2.767608436132113	smiling	044	sub-02	2.0	5.0	044_smiling	1.0	dominance	110.1393381732587	
13.0	83.99817076538966	pulse	2.0	t		22.0	male	black	2.767608436132113	smiling	044	sub-02	2.0	5.0	044_smiling	1.0	dominance	110.83933766010705	
13.0	84.25640224567269	fix	3.0		444	22.0	male	black	2.767608436132113	smiling	044	sub-02	2.0	5.0	044_smiling	1.0	dominance	111.09756914039008	3.766544687507121
13.0	84.69817115780006	pulse	3.0	t		22.0	male	black	2.767608436132113	smiling	044	sub-02	2.0	5.0	044_smiling	1.0	dominance	111.53933805251745	
13.0	85.39815223156074	pulse	3.0	t		22.0	male	black	2.767608436132113	smiling	044	sub-02	2.0	5.0	044_smiling	1.0	dominance	112.23931912627813	
13.0	86.09812606082778	pulse	3.0	t		22.0	male	black	2.767608436132113	smiling	044	sub-02	2.0	5.0	044_smiling	1.0	dominance	112.93929295554517	
13.0	86.79811256795892	pulse	3.0	t		22.0	male	black	2.767608436132113	smiling	044	sub-02	2.0	5.0	044_smiling	1.0	dominance	113.63927946267631	
13.0	87.49808700093399	pulse	3.0	t		22.0	male	black	2.767608436132113	smiling	044	sub-02	2.0	5.0	044_smiling	1.0	dominance	114.33925389565138	
14.0	88.02294693317981	face	0.0		145	20.0	female	white	3.9502586549940313	smiling	091	sub-02	2.0	5.0	091_smiling	1.0	trustworthiness	114.8641138278972	1.2333375894731944
14.0	88.19808075255787	pulse	0.0	t		20.0	female	white	3.9502586549940313	smiling	091	sub-02	2.0	5.0	091_smiling	1.0	trustworthiness	115.03924764727526	
14.0	88.89805609109499	pulse	0.0	t		20.0	female	white	3.9502586549940313	smiling	091	sub-02	2.0	5.0	091_smiling	1.0	trustworthiness	115.73922298581238	
14.0	89.256284522653	fix	1.0		177	20.0	female	white	3.9502586549940313	smiling	091	sub-02	2.0	5.0	091_smiling	1.0	trustworthiness	116.0974514173704	1.4999500431804336
14.0	89.59805557794334	pulse	1.0	t		20.0	female	white	3.9502586549940313	smiling	091	sub-02	2.0	5.0	091_smiling	1.0	trustworthiness	116.43922247266073	
14.0	90.29802397384083	pulse	1.0	t		20.0	female	white	3.9502586549940313	smiling	091	sub-02	2.0	5.0	091_smiling	1.0	trustworthiness	117.13919086855822	
14.0	90.75623456583344	rating	2.0		294	20.0	female	white	3.9502586549940313	smiling	091	sub-02	2.0	5.0	091_smiling	1.0	trustworthiness	117.59740146055083	2.499938874585496
14.0	90.99801470692546	pulse	2.0	t		20.0	female	white	3.9502586549940313	smiling	091	sub-02	2.0	5.0	091_smiling	1.0	trustworthiness	117.83918160164285	
14.0	91.69799578068614	pulse	2.0	t		20.0	female	white	3.9502586549940313	smiling	091	sub-02	2.0	5.0	091_smiling	1.0	trustworthiness	118.53916267540353	
14.0	92.01464202693751	response	2.0	y		20.0	female	white	3.9502586549940313	smiling	091	sub-02	2.0	5.0	091_smiling	1.0	trustworthiness	118.8558089216549	
14.0	92.39796115804438	pulse	2.0	t		20.0	female	white	3.9502586549940313	smiling	091	sub-02	2.0	5.0	091_smiling	1.0	trustworthiness	119.23912805276177	
14.0	93.0979681912404	pulse	2.0	t		20.0	female	white	3.9502586549940313	smiling	091	sub-02	2.0	5.0	091_smiling	1.0	trustworthiness	119.93913508595779	
14.0	93.25617344041893	fix	3.0		444	20.0	female	white	3.9502586549940313	smiling	091	sub-02	2.0	5.0	091_smiling	1.0	trustworthiness	120.09734033513632	3.7665797025592838
14.0	93.79795439651753	pulse	3.0	t		20.0	female	white	3.9502586549940313	smiling	091	sub-02	2.0	5.0	091_smiling	1.0	trustworthiness	120.63912129123491	
14.0	94.4979206794369	pulse	3.0	t		20.0	female	white	3.9502586549940313	smiling	091	sub-02	2.0	5.0	091_smiling	1.0	trustworthiness	121.33908757415429	
14.0	95.19792499594769	pulse	3.0	t		20.0	female	white	3.9502586549940313	smiling	091	sub-02	2.0	5.0	091_smiling	1.0	trustworthiness	122.03909189066508	
14.0	95.89790093819192	pulse	3.0	t		20.0	female	white	3.9502586549940313	smiling	091	sub-02	2.0	5.0	091_smiling	1.0	trustworthiness	122.73906783290931	
14.0	96.59788020082942	pulse	3.0	t		20.0	female	white	3.9502586549940313	smiling	091	sub-02	2.0	5.0	091_smiling	1.0	trustworthiness	123.43904709554681	
15.0	97.02275314297822	face	0.0		145	34.0	male	white	2.651014723438122	neutral	121	sub-02	2.0	5.0	121_neutral	0.0		123.8639200376956	1.2333194782395367
15.0	97.29786459498337	pulse	0.0	t		34.0	male	white	2.651014723438122	neutral	121	sub-02	2.0	5.0	121_neutral	0.0		124.13903148970076	
15.0	97.99784446132799	pulse	0.0	t		34.0	male	white	2.651014723438122	neutral	121	sub-02	2.0	5.0	121_neutral	0.0		124.83901135604538	
15.0	98.25607262121775	fix	1.0		444	34.0	male	white	2.651014723438122	neutral	121	sub-02	2.0	5.0	121_neutral	0.0		125.09723951593514	3.758349656082828
15.0	98.69783006289799	pulse	1.0	t		34.0	male	white	2.651014723438122	neutral	121	sub-02	2.0	5.0	121_neutral	0.0		125.53899695761538	
15.0	99.39780902368057	pulse	1.0	t		34.0	male	white	2.651014723438122	neutral	121	sub-02	2.0	5.0	121_neutral	0.0		126.23897591839795	
15.0	100.09780669940574	pulse	1.0	t		34.0	male	white	2.651014723438122	neutral	121	sub-02	2.0	5.0	121_neutral	0.0		126.93897359412313	
15.0	100.79778143423482	pulse	1.0	t		34.0	male	white	2.651014723438122	neutral	121	sub-02	2.0	5.0	121_neutral	0.0		127.63894832895221	
15.0	101.4977706580512	pulse	1.0	t		34.0	male	white	2.651014723438122	neutral	121	sub-02	2.0	5.0	121_neutral	0.0		128.33893755276858	
16.0	102.01442227730058	face	0.0		146	31.0	female	white	2.1822522881018704	neutral	102	sub-02	2.0	5.0	102_neutral	0.0		128.85558917201797	1.2415148115178454
16.0	102.19777225787675	pulse	0.0	t		31.0	female	white	2.1822522881018704	neutral	102	sub-02	2.0	5.0	102_neutral	0.0		129.03893915259414	
16.0	102.89773190001051	pulse	0.0	t		31.0	female	white	2.1822522881018704	neutral	102	sub-02	2.0	5.0	102_neutral	0.0		129.7388987947279	
16.0	103.25593708881843	fix	1.0		444	31.0	female	white	2.1822522881018704	neutral	102	sub-02	2.0	5.0	102_neutral	0.0		130.09710398353582	3.758226499693592
16.0	103.59771387933324	pulse	1.0	t		31.0	female	white	2.1822522881018704	neutral	102	sub-02	2.0	5.0	102_neutral	0.0		130.43888077405063	
16.0	104.29769706607112	pulse	1.0	t		31.0	female	white	2.1822522881018704	neutral	102	sub-02	2.0	5.0	102_neutral	0.0		131.1388639607885	
16.0	104.99769715662751	pulse	1.0	t		31.0	female	white	2.1822522881018704	neutral	102	sub-02	2.0	5.0	102_neutral	0.0		131.8388640513449	
16.0	105.69767551370296	pulse	1.0	t		31.0	female	white	2.1822522881018704	neutral	102	sub-02	2.0	5.0	102_neutral	0.0		132.53884240842035	
16.0	106.39764360774552	pulse	1.0	t		31.0	female	white	2.1822522881018704	neutral	102	sub-02	2.0	5.0	102_neutral	0.0		133.2388105024629	
17.0	107.01416358851202	face	0.0		146	19.0	male	white	3.2522881018702745	smiling	018	sub-02	2.0	5.0	018_smiling	0.0		133.8553304832294	1.2416581921179386
17.0	107.09772036919185	pulse	0.0	t		19.0	male	white	3.2522881018702745	smiling	018	sub-02	2.0	5.0	018_smiling	0.0		133.93888726390924	
17.0	107.79761088678333	pulse	0.0	t		19.0	male	white	3.2522881018702745	smiling	018	sub-02	2.0	5.0	018_smiling	0.0		134.63877778150072	
17.0	108.25582178062996	fix	1.0		444	19.0	male	white	3.2522881018702745	smiling	018	sub-02	2.0	5.0	018_smiling	0.0		135.09698867534735	3.766564609864872
17.0	108.49759920503766	pulse	1.0	t		19.0	male	white	3.2522881018702745	smiling	018	sub-02	2.0	5.0	018_smiling	0.0		135.33876609975505	
17.0	109.19759356036957	pulse	1.0	t		19.0	male	white	3.2522881018702745	smiling	018	sub-02	2.0	5.0	018_smiling	0.0		136.03876045508696	
17.0	109.89756467295229	pulse	1.0	t		19.0	male	white	3.2522881018702745	smiling	018	sub-02	2.0	5.0	018_smiling	0.0		136.73873156766967	
17.0	110.59755118008252	pulse	1.0	t		19.0	male	white	3.2522881018702745	smiling	018	sub-02	2.0	5.0	018_smiling	0.0		137.4387180747999	
17.0	111.29756062810975	pulse	1.0	t		19.0	male	white	3.2522881018702745	smiling	018	sub-02	2.0	5.0	018_smiling	0.0		138.13872752282714	
17.0	111.99750910164948	pulse	1.0	t		19.0	male	white	3.2522881018702745	smiling	018	sub-02	2.0	5.0	018_smiling	0.0		138.83867599636687	
18.0	112.02238639049483	face	0.0		146	22.0	male	black	2.767608436132113	neutral	044	sub-02	2.0	5.0	044_neutral	0.0		138.86355328521222	1.2333218930707517
18.0	112.69751009776792	pulse	0.0	t		22.0	male	black	2.767608436132113	neutral	044	sub-02	2.0	5.0	044_neutral	0.0		139.5386769924853	
18.0	113.25570828356558	fix	1.0		443	22.0	male	black	2.767608436132113	neutral	044	sub-02	2.0	5.0	044_neutral	0.0		140.09687517828297	3.7665597802015327
18.0	113.39748785113534	pulse	1.0	t		22.0	male	black	2.767608436132113	neutral	044	sub-02	2.0	5.0	044_neutral	0.0		140.23865474585273	
18.0	114.0974601711332	pulse	1.0	t		22.0	male	black	2.767608436132113	neutral	044	sub-02	2.0	5.0	044_neutral	0.0		140.9386270658506	
18.0	114.79743852820866	pulse	1.0	t		22.0	male	black	2.767608436132113	neutral	044	sub-02	2.0	5.0	044_neutral	0.0		141.63860542292605	
18.0	115.49744495769664	pulse	1.0	t		22.0	male	black	2.767608436132113	neutral	044	sub-02	2.0	5.0	044_neutral	0.0		142.33861185241403	
18.0	116.19743055926574	pulse	1.0	t		22.0	male	black	2.767608436132113	neutral	044	sub-02	2.0	5.0	044_neutral	0.0		143.03859745398313	
18.0	116.89738537173798	pulse	1.0	t		22.0	male	black	2.767608436132113	neutral	044	sub-02	2.0	5.0	044_neutral	0.0		143.73855226645537	
19.0	117.02226806376711	face	0.0		146	32.0	male	white	2.389176283326701	smiling	092	sub-02	2.0	5.0	092_smiling	0.0		143.8634349584845	1.2333309486875805
19.0	117.59739572532635	pulse	0.0	t		32.0	male	white	2.389176283326701	smiling	092	sub-02	2.0	5.0	092_smiling	0.0		144.43856262004374	
19.0	118.2555990124547	fix	1.0		443	32.0	male	white	2.389176283326701	smiling	092	sub-02	2.0	5.0	092_smiling	0.0		145.09676590717208	3.7582089921679653
19.0	118.297376195379	pulse	1.0	t		32.0	male	white	2.389176283326701	smiling	092	sub-02	2.0	5.0	092_smiling	0.0		145.1385430900964	
19.0	118.99736360807219	pulse	1.0	t		32.0	male	white	2.389176283326701	smiling	092	sub-02	2.0	5.0	092_smiling	0.0		145.83853050278958	
19.0	119.69734287070969	pulse	1.0	t		32.0	male	white	2.389176283326701	smiling	092	sub-02	2.0	5.0	092_smiling	0.0		146.53850976542708	
19.0	120.39732907598591	pulse	1.0	t		32.0	male	white	2.389176283326701	smiling	092	sub-02	2.0	5.0	092_smiling	0.0		147.2384959707033	
19.0	121.09731105530864	pulse	1.0	t		32.0	male	white	2.389176283326701	smiling	092	sub-02	2.0	5.0	092_smiling	0.0		147.93847795002603	
19.0	121.79729152536129	pulse	1.0	t		32.0	male	white	2.389176283326701	smiling	092	sub-02	2.0	5.0	092_smiling	0.0		148.63845842007868	
20.0	122.01380800462266	face	0.0		146	32.0	male	white	2.389176283326701	neutral	092	sub-02	2.0	5.0	092_neutral	0.0		148.85497489934005	1.2416775107676585
20.0	122.49728497513206	pulse	0.0	t		32.0	male	white	2.389176283326701	neutral	092	sub-02	2.0	5.0	092_neutral	0.0		149.33845186984945	
20.0	123.19725306917553	pulse	0.0	t		32.0	male	white	2.389176283326701	neutral	092	sub-02	2.0	5.0	092_neutral	0.0		150.03841996389292	
20.0	123.25548551539032	fix	1.0		1185	32.0	male	white	2.389176283326701	neutral	092	sub-02	2.0	5.0	092_neutral	0.0		150.0966524101077	10.016397609196247
20.0	123.89724561338426	pulse	1.0	t		32.0	male	white	2.389176283326701	neutral	092	sub-02	2.0	5.0	092_neutral	0.0		150.73841250810165	
20.0	124.59721250001166	pulse	1.0	t		32.0	male	white	2.389176283326701	neutral	092	sub-02	2.0	5.0	092_neutral	0.0		151.43837939472905	
20.0	125.29720142197402	pulse	1.0	t		32.0	male	white	2.389176283326701	neutral	092	sub-02	2.0	5.0	092_neutral	0.0		152.1383683166914	
20.0	125.99719487174389	pulse	1.0	t		32.0	male	white	2.389176283326701	neutral	092	sub-02	2.0	5.0	092_neutral	0.0		152.83836176646128	
20.0	126.69717141769615	pulse	1.0	t		32.0	male	white	2.389176283326701	neutral	092	sub-02	2.0	5.0	092_neutral	0.0		153.53833831241354	
20.0	127.3971515858957	pulse	1.0	t		32.0	male	white	2.389176283326701	neutral	092	sub-02	2.0	5.0	092_neutral	0.0		154.2383184806131	
20.0	128.09714745049678	pulse	1.0	t		32.0	male	white	2.389176283326701	neutral	092	sub-02	2.0	5.0	092_neutral	0.0		154.93831434521417	
20.0	128.7971273168423	pulse	1.0	t		32.0	male	white	2.389176283326701	neutral	092	sub-02	2.0	5.0	092_neutral	0.0		155.6382942115597	
20.0	129.49710084425533	pulse	1.0	t		32.0	male	white	2.389176283326701	neutral	092	sub-02	2.0	5.0	092_neutral	0.0		156.33826773897272	
20.0	130.19708916250966	pulse	1.0	t		32.0	male	white	2.389176283326701	neutral	092	sub-02	2.0	5.0	092_neutral	0.0		157.03825605722704	
20.0	130.89707023627034	pulse	1.0	t		32.0	male	white	2.389176283326701	neutral	092	sub-02	2.0	5.0	092_neutral	0.0		157.73823713098773	
20.0	131.5970612712099	pulse	1.0	t		32.0	male	white	2.389176283326701	neutral	092	sub-02	2.0	5.0	092_neutral	0.0		158.43822816592728	
20.0	132.29708007670706	pulse	1.0	t		32.0	male	white	2.389176283326701	neutral	092	sub-02	2.0	5.0	092_neutral	0.0		159.13824697142445	
20.0	132.997020400192	pulse	1.0	t		32.0	male	white	2.389176283326701	neutral	092	sub-02	2.0	5.0	092_neutral	0.0		159.8381872949094	
21.0	133.27188312458657	face	0.0		145	30.0	female	black	2.7345801830481498	smiling	062	sub-02	2.0	5.0	062_smiling	1.0	dominance	160.11305001930396	1.233340306158425
21.0	133.69702018889438	pulse	0.0	t		30.0	female	black	2.7345801830481498	smiling	062	sub-02	2.0	5.0	062_smiling	1.0	dominance	160.53818708361177	
21.0	134.3969955274315	pulse	0.0	t		30.0	female	black	2.7345801830481498	smiling	062	sub-02	2.0	5.0	062_smiling	1.0	dominance	161.2381624221489	
21.0	134.505223430745	fix	1.0		177	30.0	female	black	2.7345801830481498	smiling	062	sub-02	2.0	5.0	062_smiling	1.0	dominance	161.34639032546238	1.4999633247516613
21.0	135.0969874679322	pulse	1.0	t		30.0	female	black	2.7345801830481498	smiling	062	sub-02	2.0	5.0	062_smiling	1.0	dominance	161.93815436264958	
21.0	135.79696552315363	pulse	1.0	t		30.0	female	black	2.7345801830481498	smiling	062	sub-02	2.0	5.0	062_smiling	1.0	dominance	162.63813241787102	
21.0	136.00518675549665	rating	2.0		295	30.0	female	black	2.7345801830481498	smiling	062	sub-02	2.0	5.0	062_smiling	1.0	dominance	162.84635365021404	2.4999228763290375
21.0	136.4969420691059	pulse	2.0	t		30.0	female	black	2.7345801830481498	smiling	062	sub-02	2.0	5.0	062_smiling	1.0	dominance	163.3381089638233	
21.0	137.19694849859388	pulse	2.0	t		30.0	female	black	2.7345801830481498	smiling	062	sub-02	2.0	5.0	062_smiling	1.0	dominance	164.03811539331127	
21.0	137.24996370206918	response	2.0	w		30.0	female	black	2.7345801830481498	smiling	062	sub-02	2.0	5.0	062_smiling	1.0	dominance	164.09113059678657	
21.0	137.89690602775045	pulse	2.0	t		30.0	female	black	2.7345801830481498	smiling	062	sub-02	2.0	5.0	062_smiling	1.0	dominance	164.73807292246784	
21.0	138.5051096318257	fix	3.0		443	30.0	female	black	2.7345801830481498	smiling	062	sub-02	2.0	5.0	062_smiling	1.0	dominance	165.34627652654308	3.766581513683377
21.0	138.59689374229765	pulse	3.0	t		30.0	female	black	2.7345801830481498	smiling	062	sub-02	2.0	5.0	062_smiling	1.0	dominance	165.43806063701504	
21.0	139.29686938268787	pulse	3.0	t		30.0	female	black	2.7345801830481498	smiling	062	sub-02	2.0	5.0	062_smiling	1.0	dominance	166.13803627740526	
21.0	139.9968453249321	pulse	3.0	t		30.0	female	black	2.7345801830481498	smiling	062	sub-02	2.0	5.0	062_smiling	1.0	dominance	166.8380122196495	
21.0	140.69685235812813	pulse	3.0	t		30.0	female	black	2.7345801830481498	smiling	062	sub-02	2.0	5.0	062_smiling	1.0	dominance	167.53801925284552	
21.0	141.39680717060037	pulse	3.0	t		30.0	female	black	2.7345801830481498	smiling	062	sub-02	2.0	5.0	062_smiling	1.0	dominance	168.23797406531776	
21.0	142.09680695930183	pulse	3.0	t		30.0	female	black	2.7345801830481498	smiling	062	sub-02	2.0	5.0	062_smiling	1.0	dominance	168.93797385401922	
22.0	142.27169114550907	face	0.0		146	25.0	female	black	3.858336649423	smiling	126	sub-02	2.0	5.0	126_smiling	0.0		169.11285804022646	1.241635854929882
22.0	142.79680493688102	pulse	0.0	t		25.0	female	black	3.858336649423	smiling	126	sub-02	2.0	5.0	126_smiling	0.0		169.6379718315984	
22.0	143.49677604946282	pulse	0.0	t		25.0	female	black	3.858336649423	smiling	126	sub-02	2.0	5.0	126_smiling	0.0		170.3379429441802	
22.0	143.51332700043895	fix	1.0		443	25.0	female	black	3.858336649423	smiling	126	sub-02	2.0	5.0	126_smiling	0.0		170.35449389515634	3.7582331404792058
22.0	144.19676285844798	pulse	1.0	t		25.0	female	black	3.858336649423	smiling	126	sub-02	2.0	5.0	126_smiling	0.0		171.03792975316537	
22.0	144.89673246176062	pulse	1.0	t		25.0	female	black	3.858336649423	smiling	126	sub-02	2.0	5.0	126_smiling	0.0		171.737899356478	
22.0	145.5967367782714	pulse	1.0	t		25.0	female	black	3.858336649423	smiling	126	sub-02	2.0	5.0	126_smiling	0.0		172.4379036729888	
22.0	146.2967181538861	pulse	1.0	t		25.0	female	black	3.858336649423	smiling	126	sub-02	2.0	5.0	126_smiling	0.0		173.1378850486035	
22.0	146.99668202197427	pulse	1.0	t		25.0	female	black	3.858336649423	smiling	126	sub-02	2.0	5.0	126_smiling	0.0		173.83784891669166	
23.0	147.27156014091815	face	0.0		145	24.0	female	east_asian	2.9076800636689217	neutral	034	sub-02	2.0	5.0	034_neutral	0.0		174.11272703563554	1.2333297412715183
23.0	147.69669086629347	pulse	0.0	t		24.0	female	east_asian	2.9076800636689217	neutral	034	sub-02	2.0	5.0	034_neutral	0.0		174.53785776101086	
23.0	148.39667133634703	pulse	0.0	t		24.0	female	east_asian	2.9076800636689217	neutral	034	sub-02	2.0	5.0	034_neutral	0.0		175.23783823106442	
23.0	148.50488988218967	fix	1.0		444	24.0	female	east_asian	2.9076800636689217	neutral	034	sub-02	2.0	5.0	034_neutral	0.0		175.34605677690706	3.7582464220504335
23.0	149.09665603235408	pulse	1.0	t		24.0	female	east_asian	2.9076800636689217	neutral	034	sub-02	2.0	5.0	034_neutral	0.0		175.93782292707147	
23.0	149.7966298616211	pulse	1.0	t		24.0	female	east_asian	2.9076800636689217	neutral	034	sub-02	2.0	5.0	034_neutral	0.0		176.6377967563385	
23.0	150.4966190854375	pulse	1.0	t		24.0	female	east_asian	2.9076800636689217	neutral	034	sub-02	2.0	5.0	034_neutral	0.0		177.33778598015488	
23.0	151.19660468700658	pulse	1.0	t		24.0	female	east_asian	2.9076800636689217	neutral	034	sub-02	2.0	5.0	034_neutral	0.0		178.03777158172397	
23.0	151.896571875488	pulse	1.0	t		24.0	female	east_asian	2.9076800636689217	neutral	034	sub-02	2.0	5.0	034_neutral	0.0		178.7377387702054	
24.0	152.2631363042401	face	0.0		146	47.0	male	east_asian	2.171110226820533	smiling	024	sub-02	2.0	5.0	024_smiling	0.0		179.1043031989575	1.2416385716151126
24.0	152.59657287160553	pulse	0.0	t		47.0	male	east_asian	2.171110226820533	smiling	024	sub-02	2.0	5.0	024_smiling	0.0		179.43773976632292	
24.0	153.2965560583434	pulse	0.0	t		47.0	male	east_asian	2.171110226820533	smiling	024	sub-02	2.0	5.0	024_smiling	0.0		180.1377229530608	
24.0	153.50477487585522	fix	1.0		444	47.0	male	east_asian	2.171110226820533	smiling	024	sub-02	2.0	5.0	024_smiling	0.0		180.3459417705726	3.766560987617595
24.0	153.9965395469353	pulse	1.0	t		47.0	male	east_asian	2.171110226820533	smiling	024	sub-02	2.0	5.0	024_smiling	0.0		180.8377064416527	
24.0	154.69651518732644	pulse	1.0	t		47.0	male	east_asian	2.171110226820533	smiling	024	sub-02	2.0	5.0	024_smiling	0.0		181.53768208204383	
24.0	155.39649686479515	pulse	1.0	t		47.0	male	east_asian	2.171110226820533	smiling	024	sub-02	2.0	5.0	024_smiling	0.0		182.23766375951254	
24.0	156.09648699417266	pulse	1.0	t		47.0	male	east_asian	2.171110226820533	smiling	024	sub-02	2.0	5.0	024_smiling	0.0		182.93765388889005	
24.0	156.79646444568607	pulse	1.0	t		47.0	male	east_asian	2.171110226820533	smiling	024	sub-02	2.0	5.0	024_smiling	0.0		183.63763134040346	
25.0	157.2713358634728	face	0.0		145	22.0	female	west_asian	3.8205332272184642	neutral	066	sub-02	2.0	5.0	066_neutral	0.0		184.1125027581902	1.2333200819475678
25.0	157.49644883984	pulse	0.0	t		22.0	female	west_asian	3.8205332272184642	neutral	066	sub-02	2.0	5.0	066_neutral	0.0		184.3376157345574	
25.0	158.1964344414091	pulse	0.0	t		22.0	female	west_asian	3.8205332272184642	neutral	066	sub-02	2.0	5.0	066_neutral	0.0		185.0376013361265	
25.0	158.50465594542038	fix	1.0		444	22.0	female	west_asian	3.8205332272184642	neutral	066	sub-02	2.0	5.0	066_neutral	0.0		185.34582284013777	3.758341204173121
25.0	158.89642366522457	pulse	1.0	t		22.0	female	west_asian	3.8205332272184642	neutral	066	sub-02	2.0	5.0	066_neutral	0.0		185.73759055994196	
25.0	159.59640685196337	pulse	1.0	t		22.0	female	west_asian	3.8205332272184642	neutral	066	sub-02	2.0	5.0	066_neutral	0.0		186.43757374668075	
25.0	160.29637947381434	pulse	1.0	t		22.0	female	west_asian	3.8205332272184642	neutral	066	sub-02	2.0	5.0	066_neutral	0.0		187.13754636853173	
25.0	160.9963683957767	pulse	1.0	t		22.0	female	west_asian	3.8205332272184642	neutral	066	sub-02	2.0	5.0	066_neutral	0.0		187.8375352904941	
25.0	161.69634403616692	pulse	1.0	t		22.0	female	west_asian	3.8205332272184642	neutral	066	sub-02	2.0	5.0	066_neutral	0.0		188.5375109308843	
26.0	162.2629971495935	face	0.0		146	19.0	male	white	2.243931555909272	smiling	130	sub-02	2.0	5.0	130_smiling	0.0		189.1041640443109	1.2415241689886898
26.0	162.3963459378465	pulse	0.0	t		19.0	male	white	2.243931555909272	smiling	130	sub-02	2.0	5.0	130_smiling	0.0		189.23751283256388	
26.0	163.0963152393051	pulse	0.0	t		19.0	male	white	2.243931555909272	smiling	130	sub-02	2.0	5.0	130_smiling	0.0		189.9374821340225	
26.0	163.5045213185822	fix	1.0		444	19.0	male	white	2.243931555909272	smiling	130	sub-02	2.0	5.0	130_smiling	0.0		190.34568821329958	3.766579400705268
26.0	163.796298727897	pulse	1.0	t		19.0	male	white	2.243931555909272	smiling	130	sub-02	2.0	5.0	130_smiling	0.0		190.6374656226144	
26.0	164.49628644244422	pulse	1.0	t		19.0	male	white	2.243931555909272	smiling	130	sub-02	2.0	5.0	130_smiling	0.0		191.3374533371616	
26.0	165.19627053474323	pulse	1.0	t		19.0	male	white	2.243931555909272	smiling	130	sub-02	2.0	5.0	130_smiling	0.0		192.03743742946062	
26.0	165.89625613631233	pulse	1.0	t		19.0	male	white	2.243931555909272	smiling	130	sub-02	2.0	5.0	130_smiling	0.0		192.73742303102972	
26.0	166.59623630451188	pulse	1.0	t		19.0	male	white	2.243931555909272	smiling	130	sub-02	2.0	5.0	130_smiling	0.0		193.43740319922927	
27.0	167.27110071928746	face	0.0		145	31.0	female	east_asian	3.395941106247513	neutral	087	sub-02	2.0	5.0	087_neutral	0.0		194.11226761400485	1.2333203838015834
27.0	167.29623156540583	pulse	0.0	t		31.0	female	east_asian	3.395941106247513	neutral	087	sub-02	2.0	5.0	087_neutral	0.0		194.13739846012322	
27.0	167.996206300234	pulse	0.0	t		31.0	female	east_asian	3.395941106247513	neutral	087	sub-02	2.0	5.0	087_neutral	0.0		194.8373731949514	
27.0	168.50442110308904	fix	1.0		443	31.0	female	east_asian	3.395941106247513	neutral	087	sub-02	2.0	5.0	087_neutral	0.0		195.34558799780643	3.766547102338336
27.0	168.69618707214158	pulse	1.0	t		31.0	female	east_asian	3.395941106247513	neutral	087	sub-02	2.0	5.0	087_neutral	0.0		195.53735396685897	
27.0	169.39615999584657	pulse	1.0	t		31.0	female	east_asian	3.395941106247513	neutral	087	sub-02	2.0	5.0	087_neutral	0.0		196.23732689056396	
27.0	170.0961612938181	pulse	1.0	t		31.0	female	east_asian	3.395941106247513	neutral	087	sub-02	2.0	5.0	087_neutral	0.0		196.9373281885355	
27.0	170.7961420657257	pulse	1.0	t		31.0	female	east_asian	3.395941106247513	neutral	087	sub-02	2.0	5.0	087_neutral	0.0		197.63730896044308	
27.0	171.49612313948637	pulse	1.0	t		31.0	female	east_asian	3.395941106247513	neutral	087	sub-02	2.0	5.0	087_neutral	0.0		198.33729003420376	
27.0	172.1961220226267	pulse	1.0	t		31.0	female	east_asian	3.395941106247513	neutral	087	sub-02	2.0	5.0	087_neutral	0.0		199.03728891734409	
28.0	172.27096820542738	face	0.0		146	24.0	female	east_asian	4.409868682849185	smiling	030	sub-02	2.0	5.0	030_smiling	0.0		199.11213510014477	1.2333357783500105
28.0	172.89609434262456	pulse	0.0	t		24.0	female	east_asian	4.409868682849185	smiling	030	sub-02	2.0	5.0	030_smiling	0.0		199.73726123734195	
28.0	173.5043039837774	fix	1.0		443	24.0	female	east_asian	4.409868682849185	smiling	030	sub-02	2.0	5.0	030_smiling	0.0		200.34547087849478	3.758350259790859
28.0	173.5961484650279	pulse	1.0	t		24.0	female	east_asian	4.409868682849185	smiling	030	sub-02	2.0	5.0	030_smiling	0.0		200.4373153597453	
28.0	174.29606343278556	pulse	1.0	t		24.0	female	east_asian	4.409868682849185	smiling	030	sub-02	2.0	5.0	030_smiling	0.0		201.13723032750295	
28.0	174.99602579160455	pulse	1.0	t		24.0	female	east_asian	4.409868682849185	smiling	030	sub-02	2.0	5.0	030_smiling	0.0		201.83719268632194	
28.0	175.69600294126485	pulse	1.0	t		24.0	female	east_asian	4.409868682849185	smiling	030	sub-02	2.0	5.0	030_smiling	0.0		202.53716983598224	
28.0	176.396021444908	pulse	1.0	t		24.0	female	east_asian	4.409868682849185	smiling	030	sub-02	2.0	5.0	030_smiling	0.0		203.2371883396254	
28.0	177.09598712412026	pulse	1.0	t		24.0	female	east_asian	4.409868682849185	smiling	030	sub-02	2.0	5.0	030_smiling	0.0		203.93715401883765	
29.0	177.26265424356825	face	0.0		147	22.0	female	white	4.614007162753682	smiling	009	sub-02	2.0	5.0	009_smiling	0.0		204.10382113828564	1.2498652976983067
29.0	177.79596910344299	pulse	0.0	t		22.0	female	white	4.614007162753682	smiling	009	sub-02	2.0	5.0	009_smiling	0.0		204.63713599816037	
29.0	178.49600722758987	pulse	0.0	t		22.0	female	white	4.614007162753682	smiling	009	sub-02	2.0	5.0	009_smiling	0.0		205.33717412230726	
29.0	178.51251954126656	fix	1.0		443	22.0	female	white	4.614007162753682	smiling	009	sub-02	2.0	5.0	009_smiling	0.0		205.35368643598395	3.758213218122364
29.0	179.1959997717986	pulse	1.0	t		22.0	female	white	4.614007162753682	smiling	009	sub-02	2.0	5.0	009_smiling	0.0		206.037166666516	
29.0	179.8959201729267	pulse	1.0	t		22.0	female	white	4.614007162753682	smiling	009	sub-02	2.0	5.0	009_smiling	0.0		206.7370870676441	
29.0	180.59591090601134	pulse	1.0	t		22.0	female	white	4.614007162753682	smiling	009	sub-02	2.0	5.0	009_smiling	0.0		207.43707780072873	
29.0	181.29589258348005	pulse	1.0	t		22.0	female	white	4.614007162753682	smiling	009	sub-02	2.0	5.0	009_smiling	0.0		208.13705947819744	
29.0	181.99587818504915	pulse	1.0	t		22.0	female	white	4.614007162753682	smiling	009	sub-02	2.0	5.0	009_smiling	0.0		208.83704507976654	
30.0	182.27073275938892	face	0.0		145	25.0	female	west_asian	2.6756864305610826	smiling	064	sub-02	2.0	5.0	064_smiling	0.0		209.1118996541063	1.2333366839111477
30.0	182.6958544291474	pulse	0.0	t		25.0	female	west_asian	2.6756864305610826	smiling	064	sub-02	2.0	5.0	064_smiling	0.0		209.5370213238648	
30.0	183.3958481807722	pulse	0.0	t		25.0	female	west_asian	2.6756864305610826	smiling	064	sub-02	2.0	5.0	064_smiling	0.0		210.23701507548958	
30.0	183.50406944330007	fix	1.0		444	25.0	female	west_asian	2.6756864305610826	smiling	064	sub-02	2.0	5.0	064_smiling	0.0		210.34523633801746	3.766562798740779
30.0	184.09582231189324	pulse	1.0	t		25.0	female	west_asian	2.6756864305610826	smiling	064	sub-02	2.0	5.0	064_smiling	0.0		210.93698920661063	
30.0	184.79579734857634	pulse	1.0	t		25.0	female	west_asian	2.6756864305610826	smiling	064	sub-02	2.0	5.0	064_smiling	0.0		211.63696424329373	
30.0	185.495788383515	pulse	1.0	t		25.0	female	west_asian	2.6756864305610826	smiling	064	sub-02	2.0	5.0	064_smiling	0.0		212.33695527823238	
30.0	186.19578183328576	pulse	1.0	t		25.0	female	west_asian	2.6756864305610826	smiling	064	sub-02	2.0	5.0	064_smiling	0.0		213.03694872800315	
30.0	186.8957411735655	pulse	1.0	t		25.0	female	west_asian	2.6756864305610826	smiling	064	sub-02	2.0	5.0	064_smiling	0.0		213.7369080682829	
31.0	187.27063224204085	face	0.0		145	31.0	male	west_asian	1.9538400318344609	smiling	070	sub-02	2.0	5.0	070_smiling	0.0		214.11179913675824	1.2333025744219412
31.0	187.5957500178847	pulse	0.0	t		31.0	male	west_asian	1.9538400318344609	smiling	070	sub-02	2.0	5.0	070_smiling	0.0		214.4369169126021	
31.0	188.29573018608426	pulse	0.0	t		31.0	male	west_asian	1.9538400318344609	smiling	070	sub-02	2.0	5.0	070_smiling	0.0		215.13689708080165	
31.0	188.5039348164628	fix	1.0		444	31.0	male	west_asian	1.9538400318344609	smiling	070	sub-02	2.0	5.0	070_smiling	0.0		215.34510171118018	3.7665661191340405
31.0	188.99570944872175	pulse	1.0	t		31.0	male	west_asian	1.9538400318344609	smiling	070	sub-02	2.0	5.0	070_smiling	0.0		215.83687634343914	
31.0	189.69569142804357	pulse	1.0	t		31.0	male	west_asian	1.9538400318344609	smiling	070	sub-02	2.0	5.0	070_smiling	0.0		216.53685832276096	
31.0	190.39568155742109	pulse	1.0	t		31.0	male	west_asian	1.9538400318344609	smiling	070	sub-02	2.0	5.0	070_smiling	0.0		217.23684845213847	
31.0	191.09566414045185	pulse	1.0	t		31.0	male	west_asian	1.9538400318344609	smiling	070	sub-02	2.0	5.0	070_smiling	0.0		217.93683103516923	
31.0	191.7956385734269	pulse	1.0	t		31.0	male	west_asian	1.9538400318344609	smiling	070	sub-02	2.0	5.0	070_smiling	0.0		218.6368054681443	
32.0	192.27050093559683	face	0.0		145	40.0	female	west_asian	1.5777954635893354	neutral	038	sub-02	2.0	5.0	038_neutral	0.0		219.11166783031422	1.2333309486875805
32.0	192.4956262879732	pulse	0.0	t		40.0	female	west_asian	1.5777954635893354	neutral	038	sub-02	2.0	5.0	038_neutral	0.0		219.3367931826906	
32.0	193.19561520993466	pulse	0.0	t		40.0	female	west_asian	1.5777954635893354	neutral	038	sub-02	2.0	5.0	038_neutral	0.0		220.03678210465205	
32.0	193.5038318842844	fix	1.0		444	40.0	female	west_asian	1.5777954635893354	neutral	038	sub-02	2.0	5.0	038_neutral	0.0		220.3449987790018	3.758262722159998
32.0	193.89560232077383	pulse	1.0	t		40.0	female	west_asian	1.5777954635893354	neutral	038	sub-02	2.0	5.0	038_neutral	0.0		220.73676921549122	
32.0	194.5955683018401	pulse	1.0	t		40.0	female	west_asian	1.5777954635893354	neutral	038	sub-02	2.0	5.0	038_neutral	0.0		221.4367351965575	
32.0	195.29556748683444	pulse	1.0	t		40.0	female	west_asian	1.5777954635893354	neutral	038	sub-02	2.0	5.0	038_neutral	0.0		222.13673438155183	
32.0	195.99554131610148	pulse	1.0	t		40.0	female	west_asian	1.5777954635893354	neutral	038	sub-02	2.0	5.0	038_neutral	0.0		222.83670821081887	
32.0	196.69551846576178	pulse	1.0	t		40.0	female	west_asian	1.5777954635893354	neutral	038	sub-02	2.0	5.0	038_neutral	0.0		223.53668536047917	
33.0	197.2620946064444	face	0.0		146	24.0	female	black	3.0955033824114606	neutral	099	sub-02	2.0	5.0	099_neutral	0.0		224.1032615011618	1.241603254709844
33.0	197.39552217856453	pulse	0.0	t		24.0	female	black	3.0955033824114606	neutral	099	sub-02	2.0	5.0	099_neutral	0.0		224.23668907328192	
33.0	198.0955029504712	pulse	0.0	t		24.0	female	black	3.0955033824114606	neutral	099	sub-02	2.0	5.0	099_neutral	0.0		224.9366698451886	
33.0	198.50369786115425	fix	1.0		444	24.0	female	black	3.0955033824114606	neutral	099	sub-02	2.0	5.0	099_neutral	0.0		225.34486475587164	3.7665772877280688
33.0	198.7954864390631	pulse	1.0	t		24.0	female	black	3.0955033824114606	neutral	099	sub-02	2.0	5.0	099_neutral	0.0		225.6366533337805	
33.0	199.49546298501537	pulse	1.0	t		24.0	female	black	3.0955033824114606	neutral	099	sub-02	2.0	5.0	099_neutral	0.0		226.33662987973275	
33.0	200.19545311439288	pulse	1.0	t		24.0	female	black	3.0955033824114606	neutral	099	sub-02	2.0	5.0	099_neutral	0.0		227.03662000911027	
33.0	200.89543237703037	pulse	1.0	t		24.0	female	black	3.0955033824114606	neutral	099	sub-02	2.0	5.0	099_neutral	0.0		227.73659927174776	
33.0	201.595401980343	pulse	1.0	t		24.0	female	black	3.0955033824114606	neutral	099	sub-02	2.0	5.0	099_neutral	0.0		228.4365688750604	
34.0	202.27027514888232	face	0.0		145	21.0	male	black	2.969757262236371	neutral	137	sub-02	2.0	5.0	137_neutral	0.0		229.1114420435997	1.2333224967778733
34.0	202.29540448573061	pulse	0.0	t		21.0	male	black	2.969757262236371	neutral	137	sub-02	2.0	5.0	137_neutral	0.0		229.136571380448	
34.0	202.9953795224128	pulse	0.0	t		21.0	male	black	2.969757262236371	neutral	137	sub-02	2.0	5.0	137_neutral	0.0		229.8365464171302	
34.0	203.5035976456602	fix	1.0		443	21.0	male	black	2.969757262236371	neutral	137	sub-02	2.0	5.0	137_neutral	0.0		230.34476454037758	3.7582050680666725
34.0	203.69536150173553	pulse	1.0	t		21.0	male	black	2.969757262236371	neutral	137	sub-02	2.0	5.0	137_neutral	0.0		230.53652839645292	
34.0	204.3953531403822	pulse	1.0	t		21.0	male	black	2.969757262236371	neutral	137	sub-02	2.0	5.0	137_neutral	0.0		231.2365200350996	
34.0	205.0953345159969	pulse	1.0	t		21.0	male	black	2.969757262236371	neutral	137	sub-02	2.0	5.0	137_neutral	0.0		231.9365014107143	
34.0	205.79531709902767	pulse	1.0	t		21.0	male	black	2.969757262236371	neutral	137	sub-02	2.0	5.0	137_neutral	0.0		232.63648399374506	
34.0	206.4952990783495	pulse	1.0	t		21.0	male	black	2.969757262236371	neutral	137	sub-02	2.0	5.0	137_neutral	0.0		233.33646597306688	
34.0	207.19528407621146	pulse	1.0	t		21.0	male	black	2.969757262236371	neutral	137	sub-02	2.0	5.0	137_neutral	0.0		234.03645097092885	
35.0	207.26180271372687	face	0.0		147	26.0	male	white	2.7966573816155993	neutral	117	sub-02	2.0	5.0	117_neutral	0.0		234.10296960844425	1.2416781144756897
35.0	207.8952705833417	pulse	0.0	t		26.0	male	white	2.7966573816155993	neutral	117	sub-02	2.0	5.0	117_neutral	0.0		234.7364374780591	
35.0	208.50348082820256	fix	1.0		443	26.0	male	white	2.7966573816155993	neutral	117	sub-02	2.0	5.0	117_neutral	0.0		235.34464772291994	3.7583152447386965
35.0	208.59524894041806	pulse	1.0	t		26.0	male	white	2.7966573816155993	neutral	117	sub-02	2.0	5.0	117_neutral	0.0		235.43641583513545	
35.0	209.29523303271708	pulse	1.0	t		26.0	male	white	2.7966573816155993	neutral	117	sub-02	2.0	5.0	117_neutral	0.0		236.13639992743447	
35.0	209.9951978063673	pulse	1.0	t		26.0	male	white	2.7966573816155993	neutral	117	sub-02	2.0	5.0	117_neutral	0.0		236.83636470108468	
35.0	210.69521781928051	pulse	1.0	t		26.0	male	white	2.7966573816155993	neutral	117	sub-02	2.0	5.0	117_neutral	0.0		237.5363847139979	
35.0	211.3951816873696	pulse	1.0	t		26.0	male	white	2.7966573816155993	neutral	117	sub-02	2.0	5.0	117_neutral	0.0		238.23634858208698	
35.0	212.09517091118505	pulse	1.0	t		26.0	male	white	2.7966573816155993	neutral	117	sub-02	2.0	5.0	117_neutral	0.0		238.93633780590244	
36.0	212.26179607294125	face	0.0		147	21.0	male	east_asian/white	3.501790688420215	neutral	036	sub-02	2.0	5.0	036_neutral	0.0		239.10296296765864	1.2498994071893321
36.0	212.7952289576897	pulse	0.0	t		21.0	male	east_asian/white	3.501790688420215	neutral	036	sub-02	2.0	5.0	036_neutral	0.0		239.63639585240708	
36.0	213.4951433217393	pulse	0.0	t		21.0	male	east_asian/white	3.501790688420215	neutral	036	sub-02	2.0	5.0	036_neutral	0.0		240.3363102164567	
36.0	213.51169548013058	fix	1.0		443	21.0	male	east_asian/white	3.501790688420215	neutral	036	sub-02	2.0	5.0	036_neutral	0.0		240.35286237484797	3.749968380804603
36.0	214.195124697354	pulse	1.0	t		21.0	male	east_asian/white	3.501790688420215	neutral	036	sub-02	2.0	5.0	036_neutral	0.0		241.0362915920714	
36.0	214.89509248954346	pulse	1.0	t		21.0	male	east_asian/white	3.501790688420215	neutral	036	sub-02	2.0	5.0	036_neutral	0.0		241.73625938426085	
36.0	215.59509258009984	pulse	1.0	t		21.0	male	east_asian/white	3.501790688420215	neutral	036	sub-02	2.0	5.0	036_neutral	0.0		242.43625947481723	
36.0	216.2950603722884	pulse	1.0	t		21.0	male	east_asian/white	3.501790688420215	neutral	036	sub-02	2.0	5.0	036_neutral	0.0		243.13622726700578	
36.0	216.99504567200438	pulse	1.0	t		21.0	male	east_asian/white	3.501790688420215	neutral	036	sub-02	2.0	5.0	036_neutral	0.0		243.83621256672177	
37.0	217.2616638609352	face	0.0		146	34.0	male	white	2.651014723438122	smiling	121	sub-02	2.0	5.0	121_smiling	0.0		244.10283075565258	1.2415806156668623
37.0	217.69503066986545	pulse	0.0	t		34.0	male	white	2.651014723438122	smiling	121	sub-02	2.0	5.0	121_smiling	0.0		244.53619756458284	
37.0	218.39502744002857	pulse	0.0	t		34.0	male	white	2.651014723438122	smiling	121	sub-02	2.0	5.0	121_smiling	0.0		245.23619433474596	
37.0	218.50324447660205	fix	1.0		444	34.0	male	white	2.651014723438122	smiling	121	sub-02	2.0	5.0	121_smiling	0.0		245.34441137131944	3.7665452912151522
37.0	219.09500579710402	pulse	1.0	t		34.0	male	white	2.651014723438122	smiling	121	sub-02	2.0	5.0	121_smiling	0.0		245.9361726918214	
37.0	219.7949865690116	pulse	1.0	t		34.0	male	white	2.651014723438122	smiling	121	sub-02	2.0	5.0	121_smiling	0.0		246.636153463729	
37.0	220.49497730209623	pulse	1.0	t		34.0	male	white	2.651014723438122	smiling	121	sub-02	2.0	5.0	121_smiling	0.0		247.33614419681362	
37.0	221.1949496220941	pulse	1.0	t		34.0	male	white	2.651014723438122	smiling	121	sub-02	2.0	5.0	121_smiling	0.0		248.0361165168115	
37.0	221.8949267717544	pulse	1.0	t		34.0	male	white	2.651014723438122	smiling	121	sub-02	2.0	5.0	121_smiling	0.0		248.7360936664718	
38.0	222.2697897678172	face	0.0		145	31.0	male	west_asian	1.9538400318344609	neutral	070	sub-02	2.0	5.0	070_neutral	0.0		249.1109566625346	1.2333203838015834
38.0	222.59491569371676	pulse	0.0	t		31.0	male	west_asian	1.9538400318344609	neutral	070	sub-02	2.0	5.0	070_neutral	0.0		249.43608258843415	
38.0	223.29490793607147	pulse	0.0	t		31.0	male	west_asian	1.9538400318344609	neutral	070	sub-02	2.0	5.0	070_neutral	0.0		250.13607483078886	
38.0	223.50311015161878	fix	1.0		444	31.0	male	west_asian	1.9538400318344609	neutral	070	sub-02	2.0	5.0	070_neutral	0.0		250.34427704633617	3.766581815536483
38.0	223.9948965561789	pulse	1.0	t		31.0	male	west_asian	1.9538400318344609	neutral	070	sub-02	2.0	5.0	070_neutral	0.0		250.8360634508963	
38.0	224.69486917803079	pulse	1.0	t		31.0	male	west_asian	1.9538400318344609	neutral	070	sub-02	2.0	5.0	070_neutral	0.0		251.53603607274817	
38.0	225.3948593074083	pulse	1.0	t		31.0	male	west_asian	1.9538400318344609	neutral	070	sub-02	2.0	5.0	070_neutral	0.0		252.2360262021257	
38.0	226.09484189043906	pulse	1.0	t		31.0	male	west_asian	1.9538400318344609	neutral	070	sub-02	2.0	5.0	070_neutral	0.0		252.93600878515645	
38.0	226.79478311948515	pulse	1.0	t		31.0	male	west_asian	1.9538400318344609	neutral	070	sub-02	2.0	5.0	070_neutral	0.0		253.63595001420254	
39.0	227.26969196715527	face	0.0		145	37.0	male	white	3.898925586947871	smiling	101	sub-02	2.0	5.0	101_smiling	0.0		254.11085886187266	1.2333179689694589
39.0	227.49480313239837	pulse	0.0	t		37.0	male	white	3.898925586947871	smiling	101	sub-02	2.0	5.0	101_smiling	0.0		254.33597002711576	
39.0	228.19479477104596	pulse	0.0	t		37.0	male	white	3.898925586947871	smiling	101	sub-02	2.0	5.0	101_smiling	0.0		255.03596166576335	
39.0	228.50300993612473	fix	1.0		444	37.0	male	white	3.898925586947871	smiling	101	sub-02	2.0	5.0	101_smiling	0.0		255.34417683084212	3.7498950303079255
39.0	228.8947752410986	pulse	1.0	t		37.0	male	white	3.898925586947871	smiling	101	sub-02	2.0	5.0	101_smiling	0.0		255.735942135816	
39.0	229.59475903154453	pulse	1.0	t		37.0	male	white	3.898925586947871	smiling	101	sub-02	2.0	5.0	101_smiling	0.0		256.4359259262619	
39.0	230.2947337663736	pulse	1.0	t		37.0	male	white	3.898925586947871	smiling	101	sub-02	2.0	5.0	101_smiling	0.0		257.135900661091	
39.0	230.9947257068743	pulse	1.0	t		37.0	male	white	3.898925586947871	smiling	101	sub-02	2.0	5.0	101_smiling	0.0		257.8358926015917	
39.0	231.6947049695118	pulse	1.0	t		37.0	male	white	3.898925586947871	smiling	101	sub-02	2.0	5.0	101_smiling	0.0		258.5358718642292	
40.0	232.25290496643265	fix	0.0		720													259.09407186115004	5.9998723158023495
40.0	232.39469811742765	pulse	0.0	t														259.23586501214504	
40.0	233.0946677207403	pulse	0.0	t														259.9358346154577	
40.0	233.79465724641068	pulse	0.0	t														260.63582414112807	
40.0	234.49463862202538	pulse	0.0	t														261.33580551674277	
40.0	235.19462211061727	pulse	0.0	t														262.03578900533466	
40.0	235.89459624173833	pulse	0.0	t														262.7357631364557	
40.0	236.5945812395994	pulse	0.0	t														263.4357481343168	
40.0	237.29456412448326	pulse	0.0	t														264.13573101920065	
40.0	237.99456270577048	pulse	0.0	t														264.83572960048787	
