trial_nr	onset	event_type	phase	response	nr_frames	face_age	face_sex	face_eth	attractiveness	expression	face_id	sub_id	ses	run	trial_type	catch	rating_type	onset_abs	duration
-1.0	0.05687347564526135	fix	0.0		714													94.40472459008379	5.991261983534059
-1.0	0.7067418681035633	pulse	0.0	t														95.05459298254209	
-1.0	1.4067225495637103	pulse	0.0	t														95.75457366400224	
-1.0	2.106692062494403	pulse	0.0	t														96.45454317693293	
-1.0	2.8066830069292337	pulse	0.0	t														97.15453412136776	
-1.0	3.5066576513490872	pulse	0.0	t														97.85450876578761	
-1.0	4.206640143922414	pulse	0.0	t														98.55449125836094	
-1.0	4.906611467966286	pulse	0.0	t														99.25446258240481	
-1.0	5.606604525368311	pulse	0.0	t														99.95445563980684	
0.0	6.048135459179321	face	0.0		141	24.0	female	black	3.0955033824114606	smiling	099	sub-10	1.0	1.0	099_smiling	0.0		100.39598657361785	1.2083078771320288
0.0	6.306581886456115	pulse	0.0	t		24.0	female	black	3.0955033824114606	smiling	099	sub-10	1.0	1.0	099_smiling	0.0		100.65443300089464	
0.0	7.00666006616666	pulse	0.0	t		24.0	female	black	3.0955033824114606	smiling	099	sub-10	1.0	1.0	099_smiling	0.0		101.35451118060519	
0.0	7.256443336311349	fix	1.0		444	24.0	female	black	3.0955033824114606	smiling	099	sub-10	1.0	1.0	099_smiling	0.0		101.60429445074988	3.7665414986367978
0.0	7.706528458624234	pulse	1.0	t		24.0	female	black	3.0955033824114606	smiling	099	sub-10	1.0	1.0	099_smiling	0.0		102.05437957306276	
0.0	8.006501291929453	response	1.0	e		24.0	female	black	3.0955033824114606	smiling	099	sub-10	1.0	1.0	099_smiling	0.0		102.35435240636798	
0.0	8.406499782668106	pulse	1.0	t		24.0	female	black	3.0955033824114606	smiling	099	sub-10	1.0	1.0	099_smiling	0.0		102.75435089710663	
0.0	9.106481973387417	pulse	1.0	t		24.0	female	black	3.0955033824114606	smiling	099	sub-10	1.0	1.0	099_smiling	0.0		103.45433308782594	
0.0	9.806459334475221	pulse	1.0	t		24.0	female	black	3.0955033824114606	smiling	099	sub-10	1.0	1.0	099_smiling	0.0		104.15431044891375	
0.0	10.506444241869758	pulse	1.0	t		24.0	female	black	3.0955033824114606	smiling	099	sub-10	1.0	1.0	099_smiling	0.0		104.85429535630828	
1.0	11.022984834948147	face	0.0		145	28.0	male	white	3.9076800636689217	neutral	033	sub-10	1.0	1.0	033_neutral	0.0		105.37083594938667	1.2333009345347818
1.0	11.206438506676932	pulse	0.0	t		28.0	male	white	3.9076800636689217	neutral	033	sub-10	1.0	1.0	033_neutral	0.0		105.55428962111546	
1.0	11.906419188137079	pulse	0.0	t		28.0	male	white	3.9076800636689217	neutral	033	sub-10	1.0	1.0	033_neutral	0.0		106.2542703025756	
1.0	12.256285769482929	fix	1.0		445	28.0	male	white	3.9076800636689217	neutral	033	sub-10	1.0	1.0	033_neutral	0.0		106.60413688392146	3.76655115790345
1.0	12.606398662192078	pulse	1.0	t		28.0	male	white	3.9076800636689217	neutral	033	sub-10	1.0	1.0	033_neutral	0.0		106.9542497766306	
1.0	13.17302407572788	response	1.0	b		28.0	male	white	3.9076800636689217	neutral	033	sub-10	1.0	1.0	033_neutral	0.0		107.52087519016641	
1.0	13.306350063994614	pulse	1.0	t		28.0	male	white	3.9076800636689217	neutral	033	sub-10	1.0	1.0	033_neutral	0.0		107.65420117843314	
1.0	14.006336480644677	pulse	1.0	t		28.0	male	white	3.9076800636689217	neutral	033	sub-10	1.0	1.0	033_neutral	0.0		108.3541875950832	
1.0	14.706317765812855	pulse	1.0	t		28.0	male	white	3.9076800636689217	neutral	033	sub-10	1.0	1.0	033_neutral	0.0		109.05416888025138	
1.0	15.406296938013838	pulse	1.0	t		28.0	male	white	3.9076800636689217	neutral	033	sub-10	1.0	1.0	033_neutral	0.0		109.75414805245236	
2.0	16.02283692738638	face	0.0		145	25.0	female	west_asian	2.6756864305610826	neutral	064	sub-10	1.0	1.0	064_neutral	0.0		110.3706880418249	1.2333114993598429
2.0	16.106281845404737	pulse	0.0	t		25.0	female	west_asian	2.6756864305610826	neutral	064	sub-10	1.0	1.0	064_neutral	0.0		110.45413295984326	
2.0	16.806269469463587	pulse	0.0	t		25.0	female	west_asian	2.6756864305610826	neutral	064	sub-10	1.0	1.0	064_neutral	0.0		111.15412058390211	
2.0	17.256148426746222	fix	1.0		444	25.0	female	west_asian	2.6756864305610826	neutral	064	sub-10	1.0	1.0	064_neutral	0.0		111.60399954118475	3.7582025307310687
2.0	17.50625196204055	pulse	1.0	t		25.0	female	west_asian	2.6756864305610826	neutral	064	sub-10	1.0	1.0	064_neutral	0.0		111.85410307647908	
2.0	18.20622721016116	pulse	1.0	t		25.0	female	west_asian	2.6756864305610826	neutral	064	sub-10	1.0	1.0	064_neutral	0.0		112.55407832459969	
2.0	18.906200647172227	pulse	1.0	t		25.0	female	west_asian	2.6756864305610826	neutral	064	sub-10	1.0	1.0	064_neutral	0.0		113.25405176161075	
2.0	19.60618434715434	pulse	1.0	t		25.0	female	west_asian	2.6756864305610826	neutral	064	sub-10	1.0	1.0	064_neutral	0.0		113.95403546159287	
2.0	20.30617529158917	pulse	1.0	t		25.0	female	west_asian	2.6756864305610826	neutral	064	sub-10	1.0	1.0	064_neutral	0.0		114.6540264060277	
3.0	21.01435095747729	face	0.0		147	22.0	female	white	4.614007162753682	neutral	009	sub-10	1.0	1.0	009_neutral	0.0		115.36220207191582	1.2416392987361178
3.0	21.00815815845999	pulse	0.0	t		22.0	female	white	4.614007162753682	neutral	009	sub-10	1.0	1.0	009_neutral	0.0		115.35600927289852	
3.0	21.706115223008965	pulse	0.0	t		22.0	female	white	4.614007162753682	neutral	009	sub-10	1.0	1.0	009_neutral	0.0		116.05396633744749	
3.0	22.25599025621341	fix	1.0		442	22.0	female	white	4.614007162753682	neutral	009	sub-10	1.0	1.0	009_neutral	0.0		116.60384137065193	3.7665466301223205
3.0	22.347967327521474	response	1.0	y		22.0	female	white	4.614007162753682	neutral	009	sub-10	1.0	1.0	009_neutral	0.0		116.69581844196	
3.0	22.40609681002752	pulse	1.0	t		22.0	female	white	4.614007162753682	neutral	009	sub-10	1.0	1.0	009_neutral	0.0		116.75394792446605	
3.0	23.106075680374488	pulse	1.0	t		22.0	female	white	4.614007162753682	neutral	009	sub-10	1.0	1.0	009_neutral	0.0		117.45392679481301	
3.0	23.80606632295894	pulse	1.0	t		22.0	female	white	4.614007162753682	neutral	009	sub-10	1.0	1.0	009_neutral	0.0		118.15391743739747	
3.0	24.506029798845702	pulse	1.0	t		22.0	female	white	4.614007162753682	neutral	009	sub-10	1.0	1.0	009_neutral	0.0		118.85388091328423	
3.0	25.206008065491915	pulse	1.0	t		22.0	female	white	4.614007162753682	neutral	009	sub-10	1.0	1.0	009_neutral	0.0		119.55385917993044	
3.0	25.90600323585386	pulse	1.0	t		22.0	female	white	4.614007162753682	neutral	009	sub-10	1.0	1.0	009_neutral	0.0		120.25385435029239	
4.0	26.02253688633573	face	0.0		146	31.0	female	east_asian	3.395941106247513	smiling	087	sub-10	1.0	1.0	087_smiling	0.0		120.37038800077426	1.2333066697246977
4.0	26.605974861751747	pulse	0.0	t		31.0	female	east_asian	3.395941106247513	smiling	087	sub-10	1.0	1.0	087_smiling	0.0		120.95382597619027	
4.0	27.255843556060427	fix	1.0		443	31.0	female	east_asian	3.395941106247513	smiling	087	sub-10	1.0	1.0	087_smiling	0.0		121.60369467049895	3.7582188307460456
4.0	27.305952524693566	pulse	1.0	t		31.0	female	east_asian	3.395941106247513	smiling	087	sub-10	1.0	1.0	087_smiling	0.0		121.6538036391321	
4.0	28.005929282076977	pulse	1.0	t		31.0	female	east_asian	3.395941106247513	smiling	087	sub-10	1.0	1.0	087_smiling	0.0		122.3537803965155	
4.0	28.064246214773448	response	1.0	b		31.0	female	east_asian	3.395941106247513	smiling	087	sub-10	1.0	1.0	087_smiling	0.0		122.41209732921197	
4.0	28.70591660428545	pulse	1.0	t		31.0	female	east_asian	3.395941106247513	smiling	087	sub-10	1.0	1.0	087_smiling	0.0		123.05376771872398	
4.0	29.40588792832932	pulse	1.0	t		31.0	female	east_asian	3.395941106247513	smiling	087	sub-10	1.0	1.0	087_smiling	0.0		123.75373904276785	
4.0	30.105863780154323	pulse	1.0	t		31.0	female	east_asian	3.395941106247513	smiling	087	sub-10	1.0	1.0	087_smiling	0.0		124.45371489459285	
4.0	30.80584868754886	pulse	1.0	t		31.0	female	east_asian	3.395941106247513	smiling	087	sub-10	1.0	1.0	087_smiling	0.0		125.15369980198739	
5.0	31.014062386806472	face	0.0		146	24.0	male	white	3.1153999204138483	neutral	012	sub-10	1.0	1.0	012_neutral	0.0		125.361913501245	1.241635676509759
5.0	31.505816087512358	pulse	0.0	t		24.0	male	white	3.1153999204138483	neutral	012	sub-10	1.0	1.0	012_neutral	0.0		125.85366720195088	
5.0	32.205797372680536	pulse	0.0	t		24.0	male	white	3.1153999204138483	neutral	012	sub-10	1.0	1.0	012_neutral	0.0		126.55364848711906	
5.0	32.25569806331623	fix	1.0		444	24.0	male	white	3.1153999204138483	neutral	012	sub-10	1.0	1.0	012_neutral	0.0		126.60354917775476	3.7582447900313127
5.0	32.90579525971407	pulse	1.0	t		24.0	male	white	3.1153999204138483	neutral	012	sub-10	1.0	1.0	012_neutral	0.0		127.2536463741526	
5.0	33.6057611504184	pulse	1.0	t		24.0	male	white	3.1153999204138483	neutral	012	sub-10	1.0	1.0	012_neutral	0.0		127.95361226485693	
5.0	34.305755415229214	pulse	1.0	t		24.0	male	white	3.1153999204138483	neutral	012	sub-10	1.0	1.0	012_neutral	0.0		128.65360652966774	
5.0	34.455740020766825	response	1.0	y		24.0	male	white	3.1153999204138483	neutral	012	sub-10	1.0	1.0	012_neutral	0.0		128.80359113520535	
5.0	35.00572130593355	pulse	1.0	t		24.0	male	white	3.1153999204138483	neutral	012	sub-10	1.0	1.0	012_neutral	0.0		129.35357242037207	
5.0	35.70570470406528	pulse	1.0	t		24.0	male	white	3.1153999204138483	neutral	012	sub-10	1.0	1.0	012_neutral	0.0		130.0535558185038	
6.0	36.013942853347544	face	0.0		146	24.0	female	black	3.0955033824114606	neutral	099	sub-10	1.0	1.0	099_neutral	0.0		130.36179396778607	1.2416036801841983
6.0	36.405685687379446	pulse	0.0	t		24.0	female	black	3.0955033824114606	neutral	099	sub-10	1.0	1.0	099_neutral	0.0		130.75353680181797	
6.0	37.10566395402202	pulse	0.0	t		24.0	female	black	3.0955033824114606	neutral	099	sub-10	1.0	1.0	099_neutral	0.0		131.45351506846055	
6.0	37.25554653353174	fix	1.0		444	24.0	female	black	3.0955033824114606	neutral	099	sub-10	1.0	1.0	099_neutral	0.0		131.60339764797027	3.766552063458221
6.0	37.80564342807338	pulse	1.0	t		24.0	female	black	3.0955033824114606	neutral	099	sub-10	1.0	1.0	099_neutral	0.0		132.1534945425119	
6.0	38.188953418175515	response	1.0	e		24.0	female	black	3.0955033824114606	neutral	099	sub-10	1.0	1.0	099_neutral	0.0		132.53680453261404	
6.0	38.505606602109765	pulse	1.0	t		24.0	female	black	3.0955033824114606	neutral	099	sub-10	1.0	1.0	099_neutral	0.0		132.8534577165483	
6.0	39.20559422617225	pulse	1.0	t		24.0	female	black	3.0955033824114606	neutral	099	sub-10	1.0	1.0	099_neutral	0.0		133.55344534061078	
6.0	39.90558879283344	pulse	1.0	t		24.0	female	black	3.0955033824114606	neutral	099	sub-10	1.0	1.0	099_neutral	0.0		134.25343990727197	
6.0	40.60556645577162	pulse	1.0	t		24.0	female	black	3.0955033824114606	neutral	099	sub-10	1.0	1.0	099_neutral	0.0		134.95341757021015	
7.0	41.02209859698996	face	0.0		145	21.0	male	black	2.969757262236371	smiling	137	sub-10	1.0	1.0	137_smiling	0.0		135.3699497114285	1.233299425275618
7.0	41.30553747796512	pulse	0.0	t		21.0	male	black	2.969757262236371	smiling	137	sub-10	1.0	1.0	137_smiling	0.0		135.65338859240364	
7.0	42.00551302793974	pulse	0.0	t		21.0	male	black	2.969757262236371	smiling	137	sub-10	1.0	1.0	137_smiling	0.0		136.35336414237827	
7.0	42.25539802226558	fix	1.0		444	21.0	male	black	2.969757262236371	smiling	137	sub-10	1.0	1.0	137_smiling	0.0		136.6032491367041	3.7665544782794314
7.0	42.705498237184656	pulse	1.0	t		21.0	male	black	2.969757262236371	smiling	137	sub-10	1.0	1.0	137_smiling	0.0		137.05334935162318	
7.0	43.405564644661354	pulse	1.0	t		21.0	male	black	2.969757262236371	smiling	137	sub-10	1.0	1.0	137_smiling	0.0		137.75341575909988	
7.0	43.622150817416696	response	1.0	b		21.0	male	black	2.969757262236371	smiling	137	sub-10	1.0	1.0	137_smiling	0.0		137.97000193185522	
7.0	44.10546925937524	pulse	1.0	t		21.0	male	black	2.969757262236371	smiling	137	sub-10	1.0	1.0	137_smiling	0.0		138.45332037381377	
7.0	44.80543213156125	pulse	1.0	t		21.0	male	black	2.969757262236371	smiling	137	sub-10	1.0	1.0	137_smiling	0.0		139.15328324599977	
7.0	45.505429716740764	pulse	1.0	t		21.0	male	black	2.969757262236371	smiling	137	sub-10	1.0	1.0	137_smiling	0.0		139.8532808311793	
8.0	46.02195250054501	face	0.0		145	30.0	female	black	2.7345801830481498	smiling	062	sub-10	1.0	1.0	062_smiling	0.0		140.36980361498354	1.2332988215675869
8.0	46.20538081669292	pulse	0.0	t		30.0	female	black	2.7345801830481498	smiling	062	sub-10	1.0	1.0	062_smiling	0.0		140.55323193113145	
8.0	46.905370855569345	pulse	0.0	t		30.0	female	black	2.7345801830481498	smiling	062	sub-10	1.0	1.0	062_smiling	0.0		141.25322197000787	
8.0	47.2552513221126	fix	1.0		444	30.0	female	black	2.7345801830481498	smiling	062	sub-10	1.0	1.0	062_smiling	0.0		141.60310243655113	3.758219132596423
8.0	47.60535515925585	pulse	1.0	t		30.0	female	black	2.7345801830481498	smiling	062	sub-10	1.0	1.0	062_smiling	0.0		141.95320627369438	
8.0	48.305327087007754	pulse	1.0	t		30.0	female	black	2.7345801830481498	smiling	062	sub-10	1.0	1.0	062_smiling	0.0		142.65317820144628	
8.0	48.99697876168284	response	1.0	w		30.0	female	black	2.7345801830481498	smiling	062	sub-10	1.0	1.0	062_smiling	0.0		143.34482987612137	
8.0	49.00450272874514	pulse	1.0	t		30.0	female	black	2.7345801830481498	smiling	062	sub-10	1.0	1.0	062_smiling	0.0		143.35235384318366	
8.0	49.705291468450014	pulse	1.0	t		30.0	female	black	2.7345801830481498	smiling	062	sub-10	1.0	1.0	062_smiling	0.0		144.05314258288854	
8.0	50.405278790658485	pulse	1.0	t		30.0	female	black	2.7345801830481498	smiling	062	sub-10	1.0	1.0	062_smiling	0.0		144.753129905097	
9.0	51.01347045470902	face	0.0		146	37.0	male	white	3.898925586947871	neutral	101	sub-10	1.0	1.0	101_neutral	0.0		145.36132156914755	1.2416408079989196
9.0	51.10528060177239	pulse	0.0	t		37.0	male	white	3.898925586947871	neutral	101	sub-10	1.0	1.0	101_neutral	0.0		145.45313171621092	
9.0	51.80523622950568	pulse	0.0	t		37.0	male	white	3.898925586947871	neutral	101	sub-10	1.0	1.0	101_neutral	0.0		146.1530873439442	
9.0	52.25511126270794	fix	1.0		443	37.0	male	white	3.898925586947871	neutral	101	sub-10	1.0	1.0	101_neutral	0.0		146.60296237714647	3.766538480114832
9.0	52.50521298688909	pulse	1.0	t		37.0	male	white	3.898925586947871	neutral	101	sub-10	1.0	1.0	101_neutral	0.0		146.85306410132762	
9.0	53.20518642389652	pulse	1.0	t		37.0	male	white	3.898925586947871	neutral	101	sub-10	1.0	1.0	101_neutral	0.0		147.55303753833505	
9.0	53.688492489916825	response	1.0	e		37.0	male	white	3.898925586947871	neutral	101	sub-10	1.0	1.0	101_neutral	0.0		148.03634360435535	
9.0	53.90515533312282	pulse	1.0	t		37.0	male	white	3.898925586947871	neutral	101	sub-10	1.0	1.0	101_neutral	0.0		148.25300644756135	
9.0	54.60514718311606	pulse	1.0	t		37.0	male	white	3.898925586947871	neutral	101	sub-10	1.0	1.0	101_neutral	0.0		148.9529982975546	
9.0	55.30513571273332	pulse	1.0	t		37.0	male	white	3.898925586947871	neutral	101	sub-10	1.0	1.0	101_neutral	0.0		149.65298682717184	
10.0	56.021649742822774	face	0.0		146	32.0	male	white	2.389176283326701	smiling	092	sub-10	1.0	1.0	092_smiling	0.0		150.3695008572613	1.2333154234365793
10.0	56.007864758157666	pulse	0.0	t		32.0	male	white	2.389176283326701	smiling	092	sub-10	1.0	1.0	092_smiling	0.0		150.3557158725962	
10.0	56.70509466083968	pulse	0.0	t		32.0	male	white	2.389176283326701	smiling	092	sub-10	1.0	1.0	092_smiling	0.0		151.0529457752782	
10.0	57.25496516625935	fix	1.0		442	32.0	male	white	2.389176283326701	smiling	092	sub-10	1.0	1.0	092_smiling	0.0		151.60281628069788	3.7583450049532985
10.0	57.40506507932878	pulse	1.0	t		32.0	male	white	2.389176283326701	smiling	092	sub-10	1.0	1.0	092_smiling	0.0		151.7529161937673	
10.0	57.930053608943126	response	1.0	e		32.0	male	white	2.389176283326701	smiling	092	sub-10	1.0	1.0	092_smiling	0.0		152.27790472338165	
10.0	58.10502946077031	pulse	1.0	t		32.0	male	white	2.389176283326701	smiling	092	sub-10	1.0	1.0	092_smiling	0.0		152.45288057520884	
10.0	58.805016481128405	pulse	1.0	t		32.0	male	white	2.389176283326701	smiling	092	sub-10	1.0	1.0	092_smiling	0.0		153.15286759556693	
10.0	59.50499806814696	pulse	1.0	t		32.0	male	white	2.389176283326701	smiling	092	sub-10	1.0	1.0	092_smiling	0.0		153.8528491825855	
10.0	60.20497210885878	pulse	1.0	t		32.0	male	white	2.389176283326701	smiling	092	sub-10	1.0	1.0	092_smiling	0.0		154.5528232232973	
10.0	60.9049588273665	pulse	1.0	t		32.0	male	white	2.389176283326701	smiling	092	sub-10	1.0	1.0	092_smiling	0.0		155.25280994180503	
11.0	61.01331017121265	face	0.0		147	22.0	female	white	4.614007162753682	smiling	009	sub-10	1.0	1.0	009_smiling	0.0		155.36116128565118	1.2414959189554793
11.0	61.60494977180133	pulse	0.0	t		22.0	female	white	4.614007162753682	smiling	009	sub-10	1.0	1.0	009_smiling	0.0		155.95280088623986	
11.0	62.25480609016813	fix	1.0		443	22.0	female	white	4.614007162753682	smiling	009	sub-10	1.0	1.0	009_smiling	0.0		156.60265720460666	3.7665541764290538
11.0	62.30491143657491	pulse	1.0	t		22.0	female	white	4.614007162753682	smiling	009	sub-10	1.0	1.0	009_smiling	0.0		156.65276255101344	
11.0	62.57158363720009	response	1.0	g		22.0	female	white	4.614007162753682	smiling	009	sub-10	1.0	1.0	009_smiling	0.0		156.91943475163862	
11.0	63.004890608775895	pulse	1.0	t		22.0	female	white	4.614007162753682	smiling	009	sub-10	1.0	1.0	009_smiling	0.0		157.35274172321442	
11.0	63.70489030692261	pulse	1.0	t		22.0	female	white	4.614007162753682	smiling	009	sub-10	1.0	1.0	009_smiling	0.0		158.05274142136113	
11.0	64.40485106614142	pulse	1.0	t		22.0	female	white	4.614007162753682	smiling	009	sub-10	1.0	1.0	009_smiling	0.0		158.75270218057994	
11.0	65.10482812537884	pulse	1.0	t		22.0	female	white	4.614007162753682	smiling	009	sub-10	1.0	1.0	009_smiling	0.0		159.45267923981737	
11.0	65.80480941054338	pulse	1.0	t		22.0	female	white	4.614007162753682	smiling	009	sub-10	1.0	1.0	009_smiling	0.0		160.1526605249819	
12.0	66.02136026659718	face	0.0		145	28.0	male	white	3.9076800636689217	smiling	033	sub-10	1.0	1.0	033_smiling	0.0		160.3692113810357	1.23329942527198
12.0	66.50480699572654	pulse	0.0	t		28.0	male	white	3.9076800636689217	smiling	033	sub-10	1.0	1.0	033_smiling	0.0		160.85265811016507	
12.0	67.20476805679573	pulse	0.0	t		28.0	male	white	3.9076800636689217	smiling	033	sub-10	1.0	1.0	033_smiling	0.0		161.55261917123426	
12.0	67.25465969186916	fix	1.0		443	28.0	male	white	3.9076800636689217	smiling	033	sub-10	1.0	1.0	033_smiling	0.0		161.6025108063077	3.7665502523486794
12.0	67.90475205863186	pulse	1.0	t		28.0	male	white	3.9076800636689217	smiling	033	sub-10	1.0	1.0	033_smiling	0.0		162.25260317307038	
12.0	68.54641942962189	response	1.0	b		28.0	male	white	3.9076800636689217	smiling	033	sub-10	1.0	1.0	033_smiling	0.0		162.89427054406042	
12.0	68.60472217526694	pulse	1.0	t		28.0	male	white	3.9076800636689217	smiling	033	sub-10	1.0	1.0	033_smiling	0.0		162.95257328970547	
12.0	69.304712214147	pulse	1.0	t		28.0	male	white	3.9076800636689217	smiling	033	sub-10	1.0	1.0	033_smiling	0.0		163.65256332858553	
12.0	70.00468263263247	pulse	1.0	t		28.0	male	white	3.9076800636689217	smiling	033	sub-10	1.0	1.0	033_smiling	0.0		164.352533747071	
12.0	70.70477922532882	pulse	1.0	t		28.0	male	white	3.9076800636689217	smiling	033	sub-10	1.0	1.0	033_smiling	0.0		165.05263033976735	
13.0	71.02120994421784	face	0.0		145	34.0	male	white	2.651014723438122	neutral	121	sub-10	1.0	1.0	121_neutral	0.0		165.36906105865637	1.2333118012138584
13.0	71.4048048827608	pulse	0.0	t		34.0	male	white	2.651014723438122	neutral	121	sub-10	1.0	1.0	121_neutral	0.0		165.75265599719933	
13.0	72.10462769553851	pulse	0.0	t		34.0	male	white	2.651014723438122	neutral	121	sub-10	1.0	1.0	121_neutral	0.0		166.45247880997704	
13.0	72.2545217454317	fix	1.0		443	34.0	male	white	2.651014723438122	neutral	121	sub-10	1.0	1.0	121_neutral	0.0		166.60237285987023	3.7582109825889347
13.0	72.80460596218472	pulse	1.0	t		34.0	male	white	2.651014723438122	neutral	121	sub-10	1.0	1.0	121_neutral	0.0		167.15245707662325	
13.0	73.27126457945997	response	1.0	e		34.0	male	white	2.651014723438122	neutral	121	sub-10	1.0	1.0	121_neutral	0.0		167.6191156938985	
13.0	73.50457879548776	pulse	1.0	t		34.0	male	white	2.651014723438122	neutral	121	sub-10	1.0	1.0	121_neutral	0.0		167.8524299099263	
13.0	74.20456973992623	pulse	1.0	t		34.0	male	white	2.651014723438122	neutral	121	sub-10	1.0	1.0	121_neutral	0.0		168.55242085436475	
13.0	74.90454257322926	pulse	1.0	t		34.0	male	white	2.651014723438122	neutral	121	sub-10	1.0	1.0	121_neutral	0.0		169.2523936876678	
13.0	75.60452114172585	pulse	1.0	t		34.0	male	white	2.651014723438122	neutral	121	sub-10	1.0	1.0	121_neutral	0.0		169.95237225616438	
14.0	76.01273272802064	face	0.0		146	31.0	female	white	2.1822522881018704	neutral	102	sub-10	1.0	1.0	102_neutral	0.0		170.36058384245916	1.2416423172580835
14.0	76.30451419912788	pulse	0.0	t		31.0	female	white	2.1822522881018704	neutral	102	sub-10	1.0	1.0	102_neutral	0.0		170.6523653135664	
14.0	77.00448159909138	pulse	0.0	t		31.0	female	white	2.1822522881018704	neutral	102	sub-10	1.0	1.0	102_neutral	0.0		171.3523327135299	
14.0	77.25437504527872	fix	1.0		443	31.0	female	white	2.1822522881018704	neutral	102	sub-10	1.0	1.0	102_neutral	0.0		171.60222615971725	3.7583401753145154
14.0	77.70447435463939	pulse	1.0	t		31.0	female	white	2.1822522881018704	neutral	102	sub-10	1.0	1.0	102_neutral	0.0		172.0523254690779	
14.0	78.404436623121	pulse	1.0	t		31.0	female	white	2.1822522881018704	neutral	102	sub-10	1.0	1.0	102_neutral	0.0		172.75228773755953	
14.0	78.45441790828409	response	1.0	w		31.0	female	white	2.1822522881018704	neutral	102	sub-10	1.0	1.0	102_neutral	0.0		172.8022690227226	
14.0	79.1044209268075	pulse	1.0	t		31.0	female	white	2.1822522881018704	neutral	102	sub-10	1.0	1.0	102_neutral	0.0		173.45227204124603	
14.0	79.80439496751933	pulse	1.0	t		31.0	female	white	2.1822522881018704	neutral	102	sub-10	1.0	1.0	102_neutral	0.0		174.15224608195786	
14.0	80.5043768563919	pulse	1.0	t		31.0	female	white	2.1822522881018704	neutral	102	sub-10	1.0	1.0	102_neutral	0.0		174.85222797083043	
15.0	81.01271522059324	face	0.0		146	21.0	male	east_asian/white	3.501790688420215	smiling	036	sub-10	1.0	1.0	036_smiling	0.0		175.36056633503176	1.2415043708206213
15.0	81.20435753785205	pulse	0.0	t		21.0	male	east_asian/white	3.501790688420215	smiling	036	sub-10	1.0	1.0	036_smiling	0.0		175.55220865229057	
15.0	81.90432856004554	pulse	0.0	t		21.0	male	east_asian/white	3.501790688420215	smiling	036	sub-10	1.0	1.0	036_smiling	0.0		176.25217967448407	
15.0	82.25421959141386	fix	1.0		443	21.0	male	east_asian/white	3.501790688420215	smiling	036	sub-10	1.0	1.0	036_smiling	0.0		176.60207070585238	3.7582429789181333
15.0	82.60430561927933	pulse	1.0	t		21.0	male	east_asian/white	3.501790688420215	smiling	036	sub-10	1.0	1.0	036_smiling	0.0		176.95215673371786	
15.0	83.30429022481985	pulse	1.0	t		21.0	male	east_asian/white	3.501790688420215	smiling	036	sub-10	1.0	1.0	036_smiling	0.0		177.65214133925838	
15.0	83.72094401246068	response	1.0	y		21.0	male	east_asian/white	3.501790688420215	smiling	036	sub-10	1.0	1.0	036_smiling	0.0		178.0687951268992	
15.0	84.00425098403866	pulse	1.0	t		21.0	male	east_asian/white	3.501790688420215	smiling	036	sub-10	1.0	1.0	036_smiling	0.0		178.3521020984772	
15.0	84.70425370070734	pulse	1.0	t		21.0	male	east_asian/white	3.501790688420215	smiling	036	sub-10	1.0	1.0	036_smiling	0.0		179.05210481514587	
15.0	85.4042847914825	pulse	1.0	t		21.0	male	east_asian/white	3.501790688420215	smiling	036	sub-10	1.0	1.0	036_smiling	0.0		179.75213590592102	
16.0	86.01246257033199	face	0.0		146	26.0	male	white	2.7966573816155993	smiling	117	sub-10	1.0	1.0	117_smiling	0.0		180.36031368477052	1.241606698702526
16.0	86.10421476177726	pulse	0.0	t		26.0	male	white	2.7966573816155993	smiling	117	sub-10	1.0	1.0	117_smiling	0.0		180.45206587621578	
16.0	86.80419333027385	pulse	0.0	t		26.0	male	white	2.7966573816155993	smiling	117	sub-10	1.0	1.0	117_smiling	0.0		181.15204444471237	
16.0	87.25406926903452	fix	1.0		443	26.0	male	white	2.7966573816155993	smiling	117	sub-10	1.0	1.0	117_smiling	0.0		181.60192038347304	3.7665487430895155
16.0	87.5041749172924	pulse	1.0	t		26.0	male	white	2.7966573816155993	smiling	117	sub-10	1.0	1.0	117_smiling	0.0		181.85202603173093	
16.0	88.20413899688356	pulse	1.0	t		26.0	male	white	2.7966573816155993	smiling	117	sub-10	1.0	1.0	117_smiling	0.0		182.55199011132208	
16.0	88.83746709811385	response	1.0	y		26.0	male	white	2.7966573816155993	smiling	117	sub-10	1.0	1.0	117_smiling	0.0		183.18531821255237	
16.0	88.90411847093856	pulse	1.0	t		26.0	male	white	2.7966573816155993	smiling	117	sub-10	1.0	1.0	117_smiling	0.0		183.25196958537708	
16.0	89.60410428388786	pulse	1.0	t		26.0	male	white	2.7966573816155993	smiling	117	sub-10	1.0	1.0	117_smiling	0.0		183.9519553983264	
16.0	90.30408255053044	pulse	1.0	t		26.0	male	white	2.7966573816155993	smiling	117	sub-10	1.0	1.0	117_smiling	0.0		184.65193366496896	
17.0	91.02061801212403	face	0.0		145	37.0	male	white	3.898925586947871	smiling	101	sub-10	1.0	1.0	101_smiling	1.0	attractiveness	185.36846912656256	1.2333009345347818
17.0	91.00683302745529	pulse	0.0	t		37.0	male	white	3.898925586947871	smiling	101	sub-10	1.0	1.0	101_smiling	1.0	attractiveness	185.3546841418938	
17.0	91.70404693197634	pulse	0.0	t		37.0	male	white	3.898925586947871	smiling	101	sub-10	1.0	1.0	101_smiling	1.0	attractiveness	186.05189804641486	
17.0	92.25391894665881	fix	1.0		177	37.0	male	white	3.898925586947871	smiling	101	sub-10	1.0	1.0	101_smiling	1.0	attractiveness	186.60177006109734	1.508330516044225
17.0	92.40402610417732	pulse	1.0	t		37.0	male	white	3.898925586947871	smiling	101	sub-10	1.0	1.0	101_smiling	1.0	attractiveness	186.75187721861585	
17.0	93.10399833377596	pulse	1.0	t		37.0	male	white	3.898925586947871	smiling	101	sub-10	1.0	1.0	101_smiling	1.0	attractiveness	187.4518494482145	
17.0	93.76224946270304	rating	2.0		293	37.0	male	white	3.898925586947871	smiling	101	sub-10	1.0	1.0	101_smiling	1.0	attractiveness	188.11010057714157	2.4915635338438733
17.0	93.79888073217444	pulse	2.0	t		37.0	male	white	3.898925586947871	smiling	101	sub-10	1.0	1.0	101_smiling	1.0	attractiveness	188.14673184661297	
17.0	93.89564034918294	response	2.0	e		37.0	male	white	3.898925586947871	smiling	101	sub-10	1.0	1.0	101_smiling	1.0	attractiveness	188.24349146362147	
17.0	94.50395818743709	pulse	2.0	t		37.0	male	white	3.898925586947871	smiling	101	sub-10	1.0	1.0	101_smiling	1.0	attractiveness	188.85180930187562	
17.0	95.20393977445565	pulse	2.0	t		37.0	male	white	3.898925586947871	smiling	101	sub-10	1.0	1.0	101_smiling	1.0	attractiveness	189.55179088889417	
17.0	95.90393162444889	pulse	2.0	t		37.0	male	white	3.898925586947871	smiling	101	sub-10	1.0	1.0	101_smiling	1.0	attractiveness	190.2517827388874	
17.0	96.25381299654691	fix	3.0		444	37.0	male	white	3.898925586947871	smiling	101	sub-10	1.0	1.0	101_smiling	1.0	attractiveness	190.60166411098544	3.7665451208631566
17.0	96.60390536331033	pulse	3.0	t		37.0	male	white	3.898925586947871	smiling	101	sub-10	1.0	1.0	101_smiling	1.0	attractiveness	190.95175647774886	
17.0	97.30388151698935	pulse	3.0	t		37.0	male	white	3.898925586947871	smiling	101	sub-10	1.0	1.0	101_smiling	1.0	attractiveness	191.65173263142788	
17.0	98.00386974475259	pulse	3.0	t		37.0	male	white	3.898925586947871	smiling	101	sub-10	1.0	1.0	101_smiling	1.0	attractiveness	192.35172085919112	
17.0	98.7038410688001	pulse	3.0	t		37.0	male	white	3.898925586947871	smiling	101	sub-10	1.0	1.0	101_smiling	1.0	attractiveness	193.05169218323863	
17.0	99.40381873173828	pulse	3.0	t		37.0	male	white	3.898925586947871	smiling	101	sub-10	1.0	1.0	101_smiling	1.0	attractiveness	193.7516698461768	
18.0	100.02035811741007	face	0.0		145	27.0	male	black	3.5523278949462798	neutral	042	sub-10	1.0	1.0	042_neutral	0.0		194.3682092318486	1.2332948974908504
18.0	100.10379820578964	pulse	0.0	t		27.0	male	black	3.5523278949462798	neutral	042	sub-10	1.0	1.0	042_neutral	0.0		194.45164932022817	
18.0	100.80378311318418	pulse	0.0	t		27.0	male	black	3.5523278949462798	neutral	042	sub-10	1.0	1.0	042_neutral	0.0		195.1516342276227	
18.0	101.25365301490092	fix	1.0		444	27.0	male	black	3.5523278949462798	neutral	042	sub-10	1.0	1.0	042_neutral	0.0		195.60150412933945	3.766550554199057
18.0	101.50376288908956	pulse	1.0	t		27.0	male	black	3.5523278949462798	neutral	042	sub-10	1.0	1.0	042_neutral	0.0		195.85161400352808	
18.0	102.20373783535979	pulse	1.0	t		27.0	male	black	3.5523278949462798	neutral	042	sub-10	1.0	1.0	042_neutral	0.0		196.55158894979832	
18.0	102.90371640385274	pulse	1.0	t		27.0	male	black	3.5523278949462798	neutral	042	sub-10	1.0	1.0	042_neutral	0.0		197.25156751829127	
18.0	103.60370070754288	pulse	1.0	t		27.0	male	black	3.5523278949462798	neutral	042	sub-10	1.0	1.0	042_neutral	0.0		197.9515518219814	
18.0	104.30367263529115	pulse	1.0	t		27.0	male	black	3.5523278949462798	neutral	042	sub-10	1.0	1.0	042_neutral	0.0		198.65152374972968	
19.0	105.02020356909998	face	0.0		146	28.0	female	white	5.676880222841227	smiling	124	sub-10	1.0	1.0	124_smiling	0.0		199.3680546835385	1.2333111975094653
19.0	105.00629935282996	pulse	0.0	t		28.0	female	white	5.676880222841227	smiling	124	sub-10	1.0	1.0	124_smiling	0.0		199.35415046726848	
19.0	105.70364848711688	pulse	0.0	t		28.0	female	white	5.676880222841227	smiling	124	sub-10	1.0	1.0	124_smiling	0.0		200.0514996015554	
19.0	106.25351476660944	fix	1.0		443	28.0	female	white	5.676880222841227	smiling	124	sub-10	1.0	1.0	124_smiling	0.0		200.60136588104797	3.758255053002358
19.0	106.40362343338711	pulse	1.0	t		28.0	female	white	5.676880222841227	smiling	124	sub-10	1.0	1.0	124_smiling	0.0		200.75147454782564	
19.0	107.10358902224107	pulse	1.0	t		28.0	female	white	5.676880222841227	smiling	124	sub-10	1.0	1.0	124_smiling	0.0		201.4514401366796	
19.0	107.80357423148598	pulse	1.0	t		28.0	female	white	5.676880222841227	smiling	124	sub-10	1.0	1.0	124_smiling	0.0		202.1514253459245	
19.0	108.50356276110324	pulse	1.0	t		28.0	female	white	5.676880222841227	smiling	124	sub-10	1.0	1.0	124_smiling	0.0		202.85141387554177	
19.0	109.20352563328561	pulse	1.0	t		28.0	female	white	5.676880222841227	smiling	124	sub-10	1.0	1.0	124_smiling	0.0		203.55137674772413	
19.0	109.90350480548659	pulse	1.0	t		28.0	female	white	5.676880222841227	smiling	124	sub-10	1.0	1.0	124_smiling	0.0		204.25135591992512	
20.0	110.0117698196118	face	0.0		147	24.0	female	east_asian	2.9076800636689217	neutral	034	sub-10	1.0	1.0	034_neutral	0.0		204.35962093405033	1.2415891912787629
20.0	110.60349544807104	pulse	0.0	t		24.0	female	east_asian	2.9076800636689217	neutral	034	sub-10	1.0	1.0	034_neutral	0.0		204.95134656250957	
20.0	111.25335901089056	fix	1.0		1184	24.0	female	east_asian	2.9076800636689217	neutral	034	sub-10	1.0	1.0	034_neutral	0.0		205.6012101253291	10.008102617663098
20.0	111.30347733693998	pulse	1.0	t		24.0	female	east_asian	2.9076800636689217	neutral	034	sub-10	1.0	1.0	034_neutral	0.0		205.6513284513785	
20.0	112.00344232208954	pulse	1.0	t		24.0	female	east_asian	2.9076800636689217	neutral	034	sub-10	1.0	1.0	034_neutral	0.0		206.35129343652807	
20.0	112.70342360725408	pulse	1.0	t		24.0	female	east_asian	2.9076800636689217	neutral	034	sub-10	1.0	1.0	034_neutral	0.0		207.0512747216926	
20.0	113.40341455168891	pulse	1.0	t		24.0	female	east_asian	2.9076800636689217	neutral	034	sub-10	1.0	1.0	034_neutral	0.0		207.75126566612744	
20.0	114.10335599237078	pulse	1.0	t		24.0	female	east_asian	2.9076800636689217	neutral	034	sub-10	1.0	1.0	034_neutral	0.0		208.4512071068093	
20.0	114.80337682016761	pulse	1.0	t		24.0	female	east_asian	2.9076800636689217	neutral	034	sub-10	1.0	1.0	034_neutral	0.0		209.15122793460614	
20.0	115.50334603124793	pulse	1.0	t		24.0	female	east_asian	2.9076800636689217	neutral	034	sub-10	1.0	1.0	034_neutral	0.0		209.85119714568646	
20.0	116.20331584603264	pulse	1.0	t		24.0	female	east_asian	2.9076800636689217	neutral	034	sub-10	1.0	1.0	034_neutral	0.0		210.55116696047116	
20.0	116.9033043756499	pulse	1.0	t		24.0	female	east_asian	2.9076800636689217	neutral	034	sub-10	1.0	1.0	034_neutral	0.0		211.25115549008842	
20.0	117.60326845524105	pulse	1.0	t		24.0	female	east_asian	2.9076800636689217	neutral	034	sub-10	1.0	1.0	034_neutral	0.0		211.95111956967958	
20.0	118.3032735867273	pulse	1.0	t		24.0	female	east_asian	2.9076800636689217	neutral	034	sub-10	1.0	1.0	034_neutral	0.0		212.65112470116583	
20.0	119.00326272004895	pulse	1.0	t		24.0	female	east_asian	2.9076800636689217	neutral	034	sub-10	1.0	1.0	034_neutral	0.0		213.35111383448748	
20.0	119.70322649778973	pulse	1.0	t		24.0	female	east_asian	2.9076800636689217	neutral	034	sub-10	1.0	1.0	034_neutral	0.0		214.05107761222826	
20.0	120.40319872739201	pulse	1.0	t		24.0	female	east_asian	2.9076800636689217	neutral	034	sub-10	1.0	1.0	034_neutral	0.0		214.75104984183054	
20.0	121.10318152181935	pulse	1.0	t		24.0	female	east_asian	2.9076800636689217	neutral	034	sub-10	1.0	1.0	034_neutral	0.0		215.45103263625788	
21.0	121.26146162855366	face	0.0		147	36.0	female	white	2.7548746518105847	smiling	011	sub-10	1.0	1.0	011_smiling	0.0		215.6093127429922	1.2415671560702322
21.0	121.80316099587071	pulse	0.0	t		36.0	female	white	2.7548746518105847	smiling	011	sub-10	1.0	1.0	011_smiling	0.0		216.15101211030924	
21.0	122.5030287846239	fix	1.0		444	36.0	female	white	2.7548746518105847	smiling	011	sub-10	1.0	1.0	011_smiling	0.0		216.85087989906242	3.7582843326636066
21.0	122.51048392939265	pulse	1.0	t		36.0	female	white	2.7548746518105847	smiling	011	sub-10	1.0	1.0	011_smiling	0.0		216.85833504383118	
21.0	123.20310877544762	pulse	1.0	t		36.0	female	white	2.7548746518105847	smiling	011	sub-10	1.0	1.0	011_smiling	0.0		217.55095988988614	
21.0	123.90309187172534	pulse	1.0	t		36.0	female	white	2.7548746518105847	smiling	011	sub-10	1.0	1.0	011_smiling	0.0		218.25094298616386	
21.0	124.6030882494997	pulse	1.0	t		36.0	female	white	2.7548746518105847	smiling	011	sub-10	1.0	1.0	011_smiling	0.0		218.95093936393823	
21.0	125.30306410132471	pulse	1.0	t		36.0	female	white	2.7548746518105847	smiling	011	sub-10	1.0	1.0	011_smiling	0.0		219.65091521576323	
21.0	126.00305202724121	pulse	1.0	t		36.0	female	white	2.7548746518105847	smiling	011	sub-10	1.0	1.0	011_smiling	0.0		220.35090314167974	
22.0	126.2613131172875	face	0.0		146	40.0	male	black	2.408674890569041	smiling	061	sub-10	1.0	1.0	061_smiling	0.0		220.60916423172603	1.2415659486614459
22.0	126.70301731424115	pulse	0.0	t		40.0	male	black	2.408674890569041	smiling	061	sub-10	1.0	1.0	061_smiling	0.0		221.05086842867968	
22.0	127.40300161792766	pulse	0.0	t		40.0	male	black	2.408674890569041	smiling	061	sub-10	1.0	1.0	061_smiling	0.0		221.75085273236618	
22.0	127.50287906594895	fix	1.0		445	40.0	male	black	2.408674890569041	smiling	061	sub-10	1.0	1.0	061_smiling	0.0		221.85073018038747	3.766555383834202
22.0	128.10297928086948	pulse	1.0	t		40.0	male	black	2.408674890569041	smiling	061	sub-10	1.0	1.0	061_smiling	0.0		222.450830395308	
22.0	128.80294819009578	pulse	1.0	t		40.0	male	black	2.408674890569041	smiling	061	sub-10	1.0	1.0	061_smiling	0.0		223.1507993045343	
22.0	129.50292947526032	pulse	1.0	t		40.0	male	black	2.408674890569041	smiling	061	sub-10	1.0	1.0	061_smiling	0.0		223.85078058969884	
22.0	130.2029007993042	pulse	1.0	t		40.0	male	black	2.408674890569041	smiling	061	sub-10	1.0	1.0	061_smiling	0.0		224.55075191374272	
22.0	130.90290593079044	pulse	1.0	t		40.0	male	black	2.408674890569041	smiling	061	sub-10	1.0	1.0	061_smiling	0.0		225.25075704522897	
23.0	131.26943444978315	face	0.0		145	24.0	female	east_asian	4.409868682849185	neutral	030	sub-10	1.0	1.0	030_neutral	0.0		225.61728556422167	1.2332976141624385
23.0	131.60287001038523	pulse	0.0	t		24.0	female	east_asian	4.409868682849185	neutral	030	sub-10	1.0	1.0	030_neutral	0.0		225.95072112482376	
23.0	132.3028343918304	pulse	0.0	t		24.0	female	east_asian	4.409868682849185	neutral	030	sub-10	1.0	1.0	030_neutral	0.0		226.65068550626893	
23.0	132.5027320639456	fix	1.0		444	24.0	female	east_asian	4.409868682849185	neutral	030	sub-10	1.0	1.0	030_neutral	0.0		226.8505831783841	3.758286747481179
23.0	133.0028340899771	pulse	1.0	t		24.0	female	east_asian	4.409868682849185	neutral	030	sub-10	1.0	1.0	030_neutral	0.0		227.35068520441564	
23.0	133.70278669918844	pulse	1.0	t		24.0	female	east_asian	4.409868682849185	neutral	030	sub-10	1.0	1.0	030_neutral	0.0		228.05063781362696	
23.0	134.40280209364573	pulse	1.0	t		24.0	female	east_asian	4.409868682849185	neutral	030	sub-10	1.0	1.0	030_neutral	0.0		228.75065320808426	
23.0	135.10276466397772	pulse	1.0	t		24.0	female	east_asian	4.409868682849185	neutral	030	sub-10	1.0	1.0	030_neutral	0.0		229.45061577841625	
23.0	135.8027432324743	pulse	1.0	t		24.0	female	east_asian	4.409868682849185	neutral	030	sub-10	1.0	1.0	030_neutral	0.0		230.15059434691284	
24.0	136.26101881142677	face	0.0		146	36.0	female	white	2.7548746518105847	neutral	011	sub-10	1.0	1.0	011_neutral	1.0	trustworthiness	230.6088699258653	1.241562326435087
24.0	136.50272451763885	pulse	0.0	t		36.0	female	white	2.7548746518105847	neutral	011	sub-10	1.0	1.0	011_neutral	1.0	trustworthiness	230.85057563207738	
24.0	137.20269312501478	pulse	0.0	t		36.0	female	white	2.7548746518105847	neutral	011	sub-10	1.0	1.0	011_neutral	1.0	trustworthiness	231.5505442394533	
24.0	137.50258113786185	fix	1.0		177	36.0	female	white	2.7548746518105847	neutral	011	sub-10	1.0	1.0	011_neutral	1.0	trustworthiness	231.85043225230038	1.4999610610720993
24.0	137.90268225833643	pulse	1.0	t		36.0	female	white	2.7548746518105847	neutral	011	sub-10	1.0	1.0	011_neutral	1.0	trustworthiness	232.25053337277495	
24.0	138.60266535461778	pulse	1.0	t		36.0	female	white	2.7548746518105847	neutral	011	sub-10	1.0	1.0	011_neutral	1.0	trustworthiness	232.9505164690563	
24.0	139.00254219893395	rating	2.0		295	36.0	female	white	2.7548746518105847	neutral	011	sub-10	1.0	1.0	011_neutral	1.0	trustworthiness	233.35039331337248	2.499924536958133
24.0	139.29741342879788	pulse	2.0	t		36.0	female	white	2.7548746518105847	neutral	011	sub-10	1.0	1.0	011_neutral	1.0	trustworthiness	233.6452645432364	
24.0	139.997397430634	pulse	2.0	t		36.0	female	white	2.7548746518105847	neutral	011	sub-10	1.0	1.0	011_neutral	1.0	trustworthiness	234.34524854507254	
24.0	140.6973759991306	pulse	2.0	t		36.0	female	white	2.7548746518105847	neutral	011	sub-10	1.0	1.0	011_neutral	1.0	trustworthiness	235.04522711356913	
24.0	141.39734068242615	pulse	2.0	t		36.0	female	white	2.7548746518105847	neutral	011	sub-10	1.0	1.0	011_neutral	1.0	trustworthiness	235.74519179686467	
24.0	141.50246673589209	fix	3.0		443	36.0	female	white	2.7548746518105847	neutral	011	sub-10	1.0	1.0	011_neutral	1.0	trustworthiness	235.8503178503306	3.766546328268305
24.0	142.01090893723813	response	3.0	b		36.0	female	white	2.7548746518105847	neutral	011	sub-10	1.0	1.0	011_neutral	1.0	trustworthiness	236.35876005167665	
24.0	142.10255517857513	pulse	3.0	t		36.0	female	white	2.7548746518105847	neutral	011	sub-10	1.0	1.0	011_neutral	1.0	trustworthiness	236.45040629301366	
24.0	142.80254944338594	pulse	3.0	t		36.0	female	white	2.7548746518105847	neutral	011	sub-10	1.0	1.0	011_neutral	1.0	trustworthiness	237.15040055782447	
24.0	143.5025138248311	pulse	3.0	t		36.0	female	white	2.7548746518105847	neutral	011	sub-10	1.0	1.0	011_neutral	1.0	trustworthiness	237.85036493926964	
24.0	144.20250084518557	pulse	3.0	t		36.0	female	white	2.7548746518105847	neutral	011	sub-10	1.0	1.0	011_neutral	1.0	trustworthiness	238.5503519596241	
24.0	144.90247548960542	pulse	3.0	t		36.0	female	white	2.7548746518105847	neutral	011	sub-10	1.0	1.0	011_neutral	1.0	trustworthiness	239.25032660404395	
25.0	145.2690130641604	face	0.0		145	22.0	female	west_asian	3.8205332272184642	neutral	066	sub-10	1.0	1.0	066_neutral	0.0		239.61686417859892	1.2333054623195494
25.0	145.6024776025697	pulse	0.0	t		22.0	female	west_asian	3.8205332272184642	neutral	066	sub-10	1.0	1.0	066_neutral	0.0		239.95032871700823	
25.0	146.30242719325906	pulse	0.0	t		22.0	female	west_asian	3.8205332272184642	neutral	066	sub-10	1.0	1.0	066_neutral	0.0		240.6502783076976	
25.0	146.50231852647994	fix	1.0		444	22.0	female	west_asian	3.8205332272184642	neutral	066	sub-10	1.0	1.0	066_neutral	0.0		240.85016964091847	3.766554176425416
25.0	147.00241391176314	pulse	1.0	t		22.0	female	west_asian	3.8205332272184642	neutral	066	sub-10	1.0	1.0	066_neutral	0.0		241.35026502620167	
25.0	147.7024087802747	pulse	1.0	t		22.0	female	west_asian	3.8205332272184642	neutral	066	sub-10	1.0	1.0	066_neutral	0.0		242.05025989471324	
25.0	148.4023888580341	pulse	1.0	t		22.0	female	west_asian	3.8205332272184642	neutral	066	sub-10	1.0	1.0	066_neutral	0.0		242.75023997247263	
25.0	149.1023481079901	pulse	1.0	t		22.0	female	west_asian	3.8205332272184642	neutral	066	sub-10	1.0	1.0	066_neutral	0.0		243.45019922242864	
25.0	149.80232516722754	pulse	1.0	t		22.0	female	west_asian	3.8205332272184642	neutral	066	sub-10	1.0	1.0	066_neutral	0.0		244.15017628166606	
26.0	150.26887270290536	face	0.0		145	19.0	female	white	4.298846000795861	smiling	100	sub-10	1.0	1.0	100_smiling	0.0		244.61672381734388	1.2332982178631937
26.0	150.50232426166986	pulse	0.0	t		19.0	female	white	4.298846000795861	smiling	100	sub-10	1.0	1.0	100_smiling	0.0		244.85017537610838	
26.0	151.20228109681193	pulse	0.0	t		19.0	female	white	4.298846000795861	smiling	100	sub-10	1.0	1.0	100_smiling	0.0		245.55013221125046	
26.0	151.50217092076855	fix	1.0		444	19.0	female	white	4.298846000795861	smiling	100	sub-10	1.0	1.0	100_smiling	0.0		245.85002203520708	3.766555987542233
26.0	151.90228019125425	pulse	1.0	t		19.0	female	white	4.298846000795861	smiling	100	sub-10	1.0	1.0	100_smiling	0.0		246.25013130569278	
26.0	152.6022611745684	pulse	1.0	t		19.0	female	white	4.298846000795861	smiling	100	sub-10	1.0	1.0	100_smiling	0.0		246.95011228900694	
26.0	153.30222948009032	pulse	1.0	t		19.0	female	white	4.298846000795861	smiling	100	sub-10	1.0	1.0	100_smiling	0.0		247.65008059452884	
26.0	154.0022005022838	pulse	1.0	t		19.0	female	white	4.298846000795861	smiling	100	sub-10	1.0	1.0	100_smiling	0.0		248.35005161672234	
26.0	154.70219778561295	pulse	1.0	t		19.0	female	white	4.298846000795861	smiling	100	sub-10	1.0	1.0	100_smiling	0.0		249.05004890005148	
27.0	155.26872690831078	face	0.0		145	40.0	male	white	1.868682849184242	neutral	172	sub-10	1.0	1.0	172_neutral	1.0	attractiveness	249.6165780227493	1.233295199341228
27.0	155.40217967448189	pulse	0.0	t		40.0	male	white	1.868682849184242	neutral	172	sub-10	1.0	1.0	172_neutral	1.0	attractiveness	249.7500307889204	
27.0	156.10215341334333	pulse	0.0	t		40.0	male	white	1.868682849184242	neutral	172	sub-10	1.0	1.0	172_neutral	1.0	attractiveness	250.45000452778186	
27.0	156.502022107652	fix	1.0		177	40.0	male	white	1.868682849184242	neutral	172	sub-10	1.0	1.0	172_neutral	1.0	attractiveness	250.84987322209054	1.4999692110795877
27.0	156.8021353022159	pulse	1.0	t		40.0	male	white	1.868682849184242	neutral	172	sub-10	1.0	1.0	172_neutral	1.0	attractiveness	251.14998641665443	
27.0	157.50210602255538	pulse	1.0	t		40.0	male	white	1.868682849184242	neutral	172	sub-10	1.0	1.0	172_neutral	1.0	attractiveness	251.8499571369939	
27.0	158.0019913187316	rating	2.0		295	40.0	male	white	1.868682849184242	neutral	172	sub-10	1.0	1.0	172_neutral	1.0	attractiveness	252.34984243317012	2.4999221221405605
27.0	158.19688941344066	pulse	2.0	t		40.0	male	white	1.868682849184242	neutral	172	sub-10	1.0	1.0	172_neutral	1.0	attractiveness	252.54474052787918	
27.0	158.89697996908944	pulse	2.0	t		40.0	male	white	1.868682849184242	neutral	172	sub-10	1.0	1.0	172_neutral	1.0	attractiveness	253.24483108352797	
27.0	159.59680368742556	pulse	2.0	t		40.0	male	white	1.868682849184242	neutral	172	sub-10	1.0	1.0	172_neutral	1.0	attractiveness	253.9446548018641	
27.0	160.2967789355498	pulse	2.0	t		40.0	male	white	1.868682849184242	neutral	172	sub-10	1.0	1.0	172_neutral	1.0	attractiveness	254.64463004998834	
27.0	160.50191344087216	fix	3.0		443	40.0	male	white	1.868682849184242	neutral	172	sub-10	1.0	1.0	172_neutral	1.0	attractiveness	254.84976455531068	3.7582788993277063
27.0	160.79367408417966	response	3.0	e		40.0	male	white	1.868682849184242	neutral	172	sub-10	1.0	1.0	172_neutral	1.0	attractiveness	255.14152519861818	
27.0	161.00198769650524	pulse	3.0	t		40.0	male	white	1.868682849184242	neutral	172	sub-10	1.0	1.0	172_neutral	1.0	attractiveness	255.34983881094377	
27.0	161.7019771316809	pulse	3.0	t		40.0	male	white	1.868682849184242	neutral	172	sub-10	1.0	1.0	172_neutral	1.0	attractiveness	256.04982824611943	
27.0	162.40196083166302	pulse	3.0	t		40.0	male	white	1.868682849184242	neutral	172	sub-10	1.0	1.0	172_neutral	1.0	attractiveness	256.74981194610154	
27.0	163.10194483349915	pulse	3.0	t		40.0	male	white	1.868682849184242	neutral	172	sub-10	1.0	1.0	172_neutral	1.0	attractiveness	257.4497959479377	
27.0	163.80191344087507	pulse	3.0	t		40.0	male	white	1.868682849184242	neutral	172	sub-10	1.0	1.0	172_neutral	1.0	attractiveness	258.1497645553136	
28.0	164.26019234019986	face	0.0		146	25.0	female	black	3.858336649423	smiling	126	sub-10	1.0	1.0	126_smiling	0.0		258.6080434546384	1.2415647412526596
28.0	164.50190680012747	pulse	0.0	t		25.0	female	black	3.858336649423	smiling	126	sub-10	1.0	1.0	126_smiling	0.0		258.849757914566	
28.0	165.2018883871424	pulse	0.0	t		25.0	female	black	3.858336649423	smiling	126	sub-10	1.0	1.0	126_smiling	0.0		259.5497395015809	
28.0	165.50175708145252	fix	1.0		444	25.0	female	black	3.858336649423	smiling	126	sub-10	1.0	1.0	126_smiling	0.0		259.84960819589105	3.766555383834202
28.0	165.9018651445258	pulse	1.0	t		25.0	female	black	3.858336649423	smiling	126	sub-10	1.0	1.0	126_smiling	0.0		260.2497162589643	
28.0	166.60184069450042	pulse	1.0	t		25.0	female	black	3.858336649423	smiling	126	sub-10	1.0	1.0	126_smiling	0.0		260.94969180893895	
28.0	167.3017975296425	pulse	1.0	t		25.0	female	black	3.858336649423	smiling	126	sub-10	1.0	1.0	126_smiling	0.0		261.649648644081	
28.0	168.00178787037294	pulse	1.0	t		25.0	female	black	3.858336649423	smiling	126	sub-10	1.0	1.0	126_smiling	0.0		262.34963898481146	
28.0	168.70177398517262	pulse	1.0	t		25.0	female	black	3.858336649423	smiling	126	sub-10	1.0	1.0	126_smiling	0.0		263.04962509961115	
29.0	169.26831246528673	face	0.0		145	34.0	male	white	2.651014723438122	smiling	121	sub-10	1.0	1.0	121_smiling	0.0		263.61616357972525	1.2333045567611407
29.0	169.4017685518338	pulse	0.0	t		34.0	male	white	2.651014723438122	smiling	121	sub-10	1.0	1.0	121_smiling	0.0		263.74961966627234	
29.0	170.10172931105262	pulse	0.0	t		34.0	male	white	2.651014723438122	smiling	121	sub-10	1.0	1.0	121_smiling	0.0		264.44958042549115	
29.0	170.50161702204787	fix	1.0		444	34.0	male	white	2.651014723438122	smiling	121	sub-10	1.0	1.0	121_smiling	0.0		264.8494681364864	3.7665523653122364
29.0	170.8017250851226	pulse	1.0	t		34.0	male	white	2.651014723438122	smiling	121	sub-10	1.0	1.0	121_smiling	0.0		265.1495761995611	
29.0	171.50169731472488	pulse	1.0	t		34.0	male	white	2.651014723438122	smiling	121	sub-10	1.0	1.0	121_smiling	0.0		265.8495484291634	
29.0	172.2016565646809	pulse	1.0	t		34.0	male	white	2.651014723438122	smiling	121	sub-10	1.0	1.0	121_smiling	0.0		266.5495076791194	
29.0	172.90166048875835	pulse	1.0	t		34.0	male	white	2.651014723438122	smiling	121	sub-10	1.0	1.0	121_smiling	0.0		267.2495116031969	
29.0	173.60162577576193	pulse	1.0	t		34.0	male	white	2.651014723438122	smiling	121	sub-10	1.0	1.0	121_smiling	0.0		267.94947689020046	
30.0	174.2681693873601	face	0.0		145	40.0	male	black	2.408674890569041	neutral	061	sub-10	1.0	1.0	061_neutral	0.0		268.61602050179863	1.2333048586151563
30.0	174.3016269831678	pulse	0.0	t		40.0	male	black	2.408674890569041	neutral	061	sub-10	1.0	1.0	061_neutral	0.0		268.64947809760633	
30.0	175.00160102388327	pulse	0.0	t		40.0	male	black	2.408674890569041	neutral	061	sub-10	1.0	1.0	061_neutral	0.0		269.3494521383218	
30.0	175.50147424597526	fix	1.0		443	40.0	male	black	2.408674890569041	neutral	061	sub-10	1.0	1.0	061_neutral	0.0		269.8493253604138	3.758285540072393
30.0	175.70158261090182	pulse	1.0	t		40.0	male	black	2.408674890569041	neutral	061	sub-10	1.0	1.0	061_neutral	0.0		270.04943372534035	
30.0	176.40155423679607	pulse	1.0	t		40.0	male	black	2.408674890569041	neutral	061	sub-10	1.0	1.0	061_neutral	0.0		270.7494053512346	
30.0	177.10152827751153	pulse	1.0	t		40.0	male	black	2.408674890569041	neutral	061	sub-10	1.0	1.0	061_neutral	0.0		271.44937939195006	
30.0	177.80151137378925	pulse	1.0	t		40.0	male	black	2.408674890569041	neutral	061	sub-10	1.0	1.0	061_neutral	0.0		272.1493624882278	
30.0	178.50148330153752	pulse	1.0	t		40.0	male	black	2.408674890569041	neutral	061	sub-10	1.0	1.0	061_neutral	0.0		272.84933441597605	
30.0	179.20145764410336	pulse	1.0	t		40.0	male	black	2.408674890569041	neutral	061	sub-10	1.0	1.0	061_neutral	0.0		273.5493087585419	
31.0	179.25975978604765	face	0.0		147	31.0	female	east_asian	3.395941106247513	neutral	087	sub-10	1.0	1.0	087_neutral	0.0		273.6076109004862	1.2415550819823693
31.0	179.90144466446145	pulse	0.0	t		31.0	female	east_asian	3.395941106247513	neutral	087	sub-10	1.0	1.0	087_neutral	0.0		274.2492957789	
31.0	180.50131486803002	fix	1.0		443	31.0	female	east_asian	3.395941106247513	neutral	087	sub-10	1.0	1.0	087_neutral	0.0		274.84916598246855	3.758217925191275
31.0	180.60164871652523	pulse	1.0	t		31.0	female	east_asian	3.395941106247513	neutral	087	sub-10	1.0	1.0	087_neutral	0.0		274.94949983096376	
31.0	181.3014033107138	pulse	1.0	t		31.0	female	east_asian	3.395941106247513	neutral	087	sub-10	1.0	1.0	087_neutral	0.0		275.6492544251523	
31.0	182.0013900292215	pulse	1.0	t		31.0	female	east_asian	3.395941106247513	neutral	087	sub-10	1.0	1.0	087_neutral	0.0		276.34924114366004	
31.0	182.70137010697727	pulse	1.0	t		31.0	female	east_asian	3.395941106247513	neutral	087	sub-10	1.0	1.0	087_neutral	0.0		277.0492212214158	
31.0	183.40134324213432	pulse	1.0	t		31.0	female	east_asian	3.395941106247513	neutral	087	sub-10	1.0	1.0	087_neutral	0.0		277.74919435657284	
31.0	184.10131667914538	pulse	1.0	t		31.0	female	east_asian	3.395941106247513	neutral	087	sub-10	1.0	1.0	087_neutral	0.0		278.4491677935839	
32.0	184.2595327932213	face	0.0		147	22.0	male	black	2.767608436132113	smiling	044	sub-10	1.0	1.0	044_smiling	1.0	dominance	278.6073839076598	1.2416392987361178
32.0	184.80128649392645	pulse	0.0	t		22.0	male	black	2.767608436132113	smiling	044	sub-10	1.0	1.0	044_smiling	1.0	dominance	279.149137608365	
32.0	185.50117209195741	fix	1.0		176	22.0	male	black	2.767608436132113	smiling	044	sub-10	1.0	1.0	044_smiling	1.0	dominance	279.84902320639594	1.4999631740356563
32.0	185.50904982975408	pulse	1.0	t		22.0	male	black	2.767608436132113	smiling	044	sub-10	1.0	1.0	044_smiling	1.0	dominance	279.8569009441926	
32.0	186.20126536427415	pulse	1.0	t		22.0	male	black	2.767608436132113	smiling	044	sub-10	1.0	1.0	044_smiling	1.0	dominance	280.5491164787127	
32.0	186.90124363092036	pulse	1.0	t		22.0	male	black	2.767608436132113	smiling	044	sub-10	1.0	1.0	044_smiling	1.0	dominance	281.2490947453589	
32.0	187.00113526599307	rating	2.0		295	22.0	male	black	2.767608436132113	smiling	044	sub-10	1.0	1.0	044_smiling	1.0	dominance	281.3489863804316	2.499913972133072
32.0	187.59597812175707	pulse	2.0	t		22.0	male	black	2.767608436132113	smiling	044	sub-10	1.0	1.0	044_smiling	1.0	dominance	281.9438292361956	
32.0	188.29597299026864	pulse	2.0	t		22.0	male	black	2.767608436132113	smiling	044	sub-10	1.0	1.0	044_smiling	1.0	dominance	282.64382410470716	
32.0	188.99594793653887	pulse	2.0	t		22.0	male	black	2.767608436132113	smiling	044	sub-10	1.0	1.0	044_smiling	1.0	dominance	283.3437990509774	
32.0	189.43448962835828	response	2.0	e		22.0	male	black	2.767608436132113	smiling	044	sub-10	1.0	1.0	044_smiling	1.0	dominance	283.7823407427968	
32.0	189.50104923812614	fix	3.0		443	22.0	male	black	2.767608436132113	smiling	044	sub-10	1.0	1.0	044_smiling	1.0	dominance	283.84890035256467	3.766553270870645
32.0	189.70113737895736	pulse	3.0	t		22.0	male	black	2.767608436132113	smiling	044	sub-10	1.0	1.0	044_smiling	1.0	dominance	284.0489884933959	
32.0	190.4011277196878	pulse	3.0	t		22.0	male	black	2.767608436132113	smiling	044	sub-10	1.0	1.0	044_smiling	1.0	dominance	284.7489788341263	
32.0	191.10111111781953	pulse	3.0	t		22.0	male	black	2.767608436132113	smiling	044	sub-10	1.0	1.0	044_smiling	1.0	dominance	285.44896223225805	
32.0	191.8010978363236	pulse	3.0	t		22.0	male	black	2.767608436132113	smiling	044	sub-10	1.0	1.0	044_smiling	1.0	dominance	286.14894895076213	
32.0	192.50107248074346	pulse	3.0	t		22.0	male	black	2.767608436132113	smiling	044	sub-10	1.0	1.0	044_smiling	1.0	dominance	286.848923595182	
32.0	193.20105678442997	pulse	3.0	t		22.0	male	black	2.767608436132113	smiling	044	sub-10	1.0	1.0	044_smiling	1.0	dominance	287.5489078988685	
33.0	193.2676025089968	face	0.0		146	19.0	female	white	4.298846000795861	neutral	100	sub-10	1.0	1.0	100_neutral	0.0		287.6154536234353	1.2332985197172093
33.0	193.9010413899705	pulse	0.0	t		19.0	female	white	4.298846000795861	neutral	100	sub-10	1.0	1.0	100_neutral	0.0		288.248892504409	
33.0	194.500901028714	fix	1.0		443	19.0	female	white	4.298846000795861	neutral	100	sub-10	1.0	1.0	100_neutral	0.0		288.8487521431525	3.766553270867007
33.0	194.60102931588335	pulse	1.0	t		19.0	female	white	4.298846000795861	neutral	100	sub-10	1.0	1.0	100_neutral	0.0		288.9488804303219	
33.0	195.30099037695254	pulse	1.0	t		19.0	female	white	4.298846000795861	neutral	100	sub-10	1.0	1.0	100_neutral	0.0		289.64884149139107	
33.0	196.00095143802537	pulse	1.0	t		19.0	female	white	4.298846000795861	neutral	100	sub-10	1.0	1.0	100_neutral	0.0		290.3488025524639	
33.0	196.70094781579974	pulse	1.0	t		19.0	female	white	4.298846000795861	neutral	100	sub-10	1.0	1.0	100_neutral	0.0		291.04879893023826	
33.0	197.4009272898511	pulse	1.0	t		19.0	female	white	4.298846000795861	neutral	100	sub-10	1.0	1.0	100_neutral	0.0		291.7487784042896	
33.0	198.1009019342673	pulse	1.0	t		19.0	female	white	4.298846000795861	neutral	100	sub-10	1.0	1.0	100_neutral	0.0		292.44875304870584	
34.0	198.267454299581	face	0.0		146	31.0	male	west_asian	1.9538400318344609	smiling	070	sub-10	1.0	1.0	070_smiling	0.0		292.61530541401953	1.2333009345347818
34.0	198.80089468981896	pulse	0.0	t		31.0	male	west_asian	1.9538400318344609	smiling	070	sub-10	1.0	1.0	070_smiling	0.0		293.1487458042575	
34.0	199.5007552341158	fix	1.0		444	31.0	male	west_asian	1.9538400318344609	smiling	070	sub-10	1.0	1.0	070_smiling	0.0		293.8486063485543	3.758245997440099
34.0	199.50829036970754	pulse	1.0	t		31.0	male	west_asian	1.9538400318344609	smiling	070	sub-10	1.0	1.0	070_smiling	0.0		293.85614148414606	
34.0	200.20084397865503	pulse	1.0	t		31.0	male	west_asian	1.9538400318344609	smiling	070	sub-10	1.0	1.0	070_smiling	0.0		294.54869509309356	
34.0	200.90082586752396	pulse	1.0	t		31.0	male	west_asian	1.9538400318344609	smiling	070	sub-10	1.0	1.0	070_smiling	0.0		295.2486769819625	
34.0	201.6008168119588	pulse	1.0	t		31.0	male	west_asian	1.9538400318344609	smiling	070	sub-10	1.0	1.0	070_smiling	0.0		295.9486679263973	
34.0	202.3007697230205	pulse	1.0	t		31.0	male	west_asian	1.9538400318344609	smiling	070	sub-10	1.0	1.0	070_smiling	0.0		296.648620837459	
34.0	203.00076157301373	pulse	1.0	t		31.0	male	west_asian	1.9538400318344609	smiling	070	sub-10	1.0	1.0	070_smiling	0.0		297.34861268745226	
35.0	203.25900123155589	face	0.0		146	27.0	female	white	4.181058495821727	smiling	039	sub-10	1.0	1.0	039_smiling	0.0		297.6068523459944	1.2416057931477553
35.0	203.70074768781342	pulse	0.0	t		27.0	female	white	4.181058495821727	smiling	039	sub-10	1.0	1.0	039_smiling	0.0		298.04859880225195	
35.0	204.40072565260562	pulse	0.0	t		27.0	female	white	4.181058495821727	smiling	039	sub-10	1.0	1.0	039_smiling	0.0		298.74857676704414	
35.0	204.50060702470364	fix	1.0		444	27.0	female	white	4.181058495821727	smiling	039	sub-10	1.0	1.0	039_smiling	0.0		298.84845813914217	3.766553270870645
35.0	205.10071478592727	pulse	1.0	t		27.0	female	white	4.181058495821727	smiling	039	sub-10	1.0	1.0	039_smiling	0.0		299.4485659003658	
35.0	205.8006806766316	pulse	1.0	t		27.0	female	white	4.181058495821727	smiling	039	sub-10	1.0	1.0	039_smiling	0.0		300.1485317910701	
35.0	206.50066347105894	pulse	1.0	t		27.0	female	white	4.181058495821727	smiling	039	sub-10	1.0	1.0	039_smiling	0.0		300.84851458549747	
35.0	207.20063268213926	pulse	1.0	t		27.0	female	white	4.181058495821727	smiling	039	sub-10	1.0	1.0	039_smiling	0.0		301.5484837965778	
35.0	207.90061879693894	pulse	1.0	t		27.0	female	white	4.181058495821727	smiling	039	sub-10	1.0	1.0	039_smiling	0.0		302.24846991137747	
36.0	208.26716029557429	face	0.0		145	31.0	female	west_asian	2.364902506963788	smiling	006	sub-10	1.0	1.0	006_smiling	0.0		302.6150114100128	1.2333063678743201
36.0	208.60060128951227	pulse	0.0	t		31.0	female	west_asian	2.364902506963788	smiling	006	sub-10	1.0	1.0	006_smiling	0.0		302.9484524039508	
36.0	209.3005692931838	pulse	0.0	t		31.0	female	west_asian	2.364902506963788	smiling	006	sub-10	1.0	1.0	006_smiling	0.0		303.6484204076223	
36.0	209.5004666634486	fix	1.0		444	31.0	female	west_asian	2.364902506963788	smiling	006	sub-10	1.0	1.0	006_smiling	0.0		303.84831777788713	3.758295199342683
36.0	210.00055389872432	pulse	1.0	t		31.0	female	west_asian	2.364902506963788	smiling	006	sub-10	1.0	1.0	006_smiling	0.0		304.34840501316285	
36.0	210.70053397648007	pulse	1.0	t		31.0	female	west_asian	2.364902506963788	smiling	006	sub-10	1.0	1.0	006_smiling	0.0		305.0483850909186	
36.0	211.40051978942938	pulse	1.0	t		31.0	female	west_asian	2.364902506963788	smiling	006	sub-10	1.0	1.0	006_smiling	0.0		305.7483709038679	
36.0	212.10048839680167	pulse	1.0	t		31.0	female	west_asian	2.364902506963788	smiling	006	sub-10	1.0	1.0	006_smiling	0.0		306.4483395112402	
36.0	212.800471191229	pulse	1.0	t		31.0	female	west_asian	2.364902506963788	smiling	006	sub-10	1.0	1.0	006_smiling	0.0		307.14832230566753	
37.0	213.2587618627913	face	0.0		146	32.0	male	white	2.389176283326701	neutral	092	sub-10	1.0	1.0	092_neutral	1.0	trustworthiness	307.6066129772298	1.2415502523472242
37.0	213.50046394677702	pulse	0.0	t		32.0	male	white	2.389176283326701	neutral	092	sub-10	1.0	1.0	092_neutral	1.0	trustworthiness	307.84831506121554	
37.0	214.20043768563846	pulse	0.0	t		32.0	male	white	2.389176283326701	neutral	092	sub-10	1.0	1.0	092_neutral	1.0	trustworthiness	308.548288800077	
37.0	214.5003121151385	fix	1.0		177	32.0	male	white	2.389176283326701	neutral	092	sub-10	1.0	1.0	092_neutral	1.0	trustworthiness	308.84816322957704	1.4999649851488357
37.0	214.9004108207955	pulse	1.0	t		32.0	male	white	2.389176283326701	neutral	092	sub-10	1.0	1.0	092_neutral	1.0	trustworthiness	309.24826193523404	
37.0	215.60040206708436	pulse	1.0	t		32.0	male	white	2.389176283326701	neutral	092	sub-10	1.0	1.0	092_neutral	1.0	trustworthiness	309.9482531815229	
37.0	216.00027710028735	rating	2.0		294	32.0	male	white	2.389176283326701	neutral	092	sub-10	1.0	1.0	092_neutral	1.0	trustworthiness	310.3481282147259	2.499917594359431
37.0	216.29513776532986	pulse	2.0	t		32.0	male	white	2.389176283326701	neutral	092	sub-10	1.0	1.0	092_neutral	1.0	trustworthiness	310.6429888797684	
37.0	216.99511482456364	pulse	2.0	t		32.0	male	white	2.389176283326701	neutral	092	sub-10	1.0	1.0	092_neutral	1.0	trustworthiness	311.34296593900217	
37.0	217.6950804134176	pulse	2.0	t		32.0	male	white	2.389176283326701	neutral	092	sub-10	1.0	1.0	092_neutral	1.0	trustworthiness	312.0429315278561	
37.0	218.39536838038111	pulse	2.0	t		32.0	male	white	2.389176283326701	neutral	092	sub-10	1.0	1.0	092_neutral	1.0	trustworthiness	312.74321949481964	
37.0	218.4114063896086	response	2.0	w		32.0	male	white	2.389176283326701	neutral	092	sub-10	1.0	1.0	092_neutral	1.0	trustworthiness	312.7592575040471	
37.0	218.50019469464678	fix	3.0		444	32.0	male	white	2.389176283326701	neutral	092	sub-10	1.0	1.0	092_neutral	1.0	trustworthiness	312.8480458090853	3.766550554199057
37.0	219.10027619473112	pulse	3.0	t		32.0	male	white	2.389176283326701	neutral	092	sub-10	1.0	1.0	092_neutral	1.0	trustworthiness	313.44812730916965	
37.0	219.80026472434838	pulse	3.0	t		32.0	male	white	2.389176283326701	neutral	092	sub-10	1.0	1.0	092_neutral	1.0	trustworthiness	314.1481158387869	
37.0	220.50024691507133	pulse	3.0	t		32.0	male	white	2.389176283326701	neutral	092	sub-10	1.0	1.0	092_neutral	1.0	trustworthiness	314.84809802950986	
37.0	221.200219446524	pulse	3.0	t		32.0	male	white	2.389176283326701	neutral	092	sub-10	1.0	1.0	092_neutral	1.0	trustworthiness	315.5480705609625	
37.0	221.90021069281283	pulse	3.0	t		32.0	male	white	2.389176283326701	neutral	092	sub-10	1.0	1.0	092_neutral	1.0	trustworthiness	316.24806180725136	
38.0	222.26674524884584	face	0.0		145	21.0	male	black	2.969757262236371	neutral	137	sub-10	1.0	1.0	137_neutral	0.0		316.61459636328436	1.2333093863962858
38.0	222.60018714834223	pulse	0.0	t		21.0	male	black	2.969757262236371	neutral	137	sub-10	1.0	1.0	137_neutral	0.0		316.94803826278076	
38.0	223.30013764458636	pulse	0.0	t		21.0	male	black	2.969757262236371	neutral	137	sub-10	1.0	1.0	137_neutral	0.0		317.6479887590249	
38.0	223.50005463524212	fix	1.0		444	21.0	male	black	2.969757262236371	neutral	137	sub-10	1.0	1.0	137_neutral	0.0		317.84790574968065	3.758235432615038
38.0	224.00013975755428	pulse	1.0	t		21.0	male	black	2.969757262236371	neutral	137	sub-10	1.0	1.0	137_neutral	0.0		318.3479908719928	
38.0	224.7001319093979	pulse	1.0	t		21.0	male	black	2.969757262236371	neutral	137	sub-10	1.0	1.0	137_neutral	0.0		319.0479830238364	
38.0	225.40009417787587	pulse	1.0	t		21.0	male	black	2.969757262236371	neutral	137	sub-10	1.0	1.0	137_neutral	0.0		319.7479452923144	
38.0	226.1000845186063	pulse	1.0	t		21.0	male	black	2.969757262236371	neutral	137	sub-10	1.0	1.0	137_neutral	0.0		320.44793563304484	
38.0	226.8000464852339	pulse	1.0	t		21.0	male	black	2.969757262236371	neutral	137	sub-10	1.0	1.0	137_neutral	0.0		321.14789759967243	
39.0	227.25829006785716	face	0.0		146	31.0	male	west_asian	1.9538400318344609	neutral	070	sub-10	1.0	1.0	070_neutral	0.0		321.6061411822957	1.2416070005565416
39.0	227.5000479944938	pulse	0.0	t		31.0	male	west_asian	1.9538400318344609	neutral	070	sub-10	1.0	1.0	070_neutral	0.0		321.8478991089323	
39.0	228.20001116853018	pulse	0.0	t		31.0	male	west_asian	1.9538400318344609	neutral	070	sub-10	1.0	1.0	070_neutral	0.0		322.5478622829687	
39.0	228.4998970684137	fix	1.0		444	31.0	male	west_asian	1.9538400318344609	neutral	070	sub-10	1.0	1.0	070_neutral	0.0		322.84774818285223	3.749901294340816
39.0	228.900005433341	pulse	1.0	t		31.0	male	west_asian	1.9538400318344609	neutral	070	sub-10	1.0	1.0	070_neutral	0.0		323.2478565477795	
39.0	229.5999749462717	pulse	1.0	t		31.0	male	west_asian	1.9538400318344609	neutral	070	sub-10	1.0	1.0	070_neutral	0.0		323.9478260607102	
39.0	230.2999489869835	pulse	1.0	t		31.0	male	west_asian	1.9538400318344609	neutral	070	sub-10	1.0	1.0	070_neutral	0.0		324.64780010142204	
39.0	230.9999284610385	pulse	1.0	t		31.0	male	west_asian	1.9538400318344609	neutral	070	sub-10	1.0	1.0	070_neutral	0.0		325.34777957547703	
39.0	231.6999209147325	pulse	1.0	t		31.0	male	west_asian	1.9538400318344609	neutral	070	sub-10	1.0	1.0	070_neutral	0.0		326.047772029171	
40.0	232.24979836275452	fix	0.0		720													326.59764947719304	5.999823416485015
40.0	232.39990370915984	pulse	0.0	t														326.74775482359837	
40.0	233.09988348506522	pulse	0.0	t														327.44773459950375	
40.0	233.79985873318583	pulse	0.0	t														328.14770984762436	
40.0	234.49983458501447	pulse	0.0	t														328.847685699453	
40.0	235.1998074183175	pulse	0.0	t														329.54765853275603	
40.0	235.8997811571826	pulse	0.0	t														330.2476322716211	
40.0	236.59978749607762	pulse	0.0	t														330.94763861051615	
40.0	237.29973618120857	pulse	0.0	t														331.6475872956471	
40.0	237.9997283330522	pulse	0.0	t														332.3475794474907	
