trial_nr	onset	event_type	phase	response	nr_frames	face_age	face_sex	face_eth	attractiveness	expression	face_id	sub_id	ses	run	trial_type	catch	onset_abs	duration
-1.0	0.05658660772769508	fix	0.0		714												87.54423697292623	5.96630606085273
-1.0	0.706465518672303	pulse	0.0	t													88.19411588387084	
-1.0	1.406449610924028	pulse	0.0	t													88.89409997612256	
-1.0	2.106432797610978	pulse	0.0	t													89.59408316280951	
-1.0	2.806419606556119	pulse	0.0	t													90.29406997175465	
-1.0	3.506406113646335	pulse	0.0	t													90.99405647884487	
-1.0	4.206384470656303	pulse	0.0	t													91.69403483585484	
-1.0	4.90637339258501	pulse	0.0	t													92.39402375778354	
-1.0	5.60635718298181	pulse	0.0	t													93.09400754818034	
0.0	6.022892668580425	face	0.0		144	20.0	female	white	3.9502586549940313	neutral	091	sub-02	1.0	4.0	091_neutral	0.0	93.51054303377896	1.233333765992029
0.0	6.30634218079831	pulse	0.0	t		20.0	female	white	3.9502586549940313	neutral	091	sub-02	1.0	4.0	091_neutral	0.0	93.79399254599684	
0.0	7.006343176918563	pulse	0.0	t		20.0	female	white	3.9502586549940313	neutral	091	sub-02	1.0	4.0	091_neutral	0.0	94.4939935421171	
0.0	7.256226434572454	fix	1.0		444	20.0	female	white	3.9502586549940313	neutral	091	sub-02	1.0	4.0	091_neutral	0.0	94.74387679977099	3.7582209402107765
0.0	7.706318817236024	pulse	1.0	t		20.0	female	white	3.9502586549940313	neutral	091	sub-02	1.0	4.0	091_neutral	0.0	95.19396918243456	
0.0	8.406300192794333	pulse	1.0	t		20.0	female	white	3.9502586549940313	neutral	091	sub-02	1.0	4.0	091_neutral	0.0	95.89395055799287	
0.0	9.106290322141831	pulse	1.0	t		20.0	female	white	3.9502586549940313	neutral	091	sub-02	1.0	4.0	091_neutral	0.0	96.59394068734036	
0.0	9.80627230140999	pulse	1.0	t		20.0	female	white	3.9502586549940313	neutral	091	sub-02	1.0	4.0	091_neutral	0.0	97.29392266660852	
0.0	10.50626786414432	pulse	1.0	t		20.0	female	white	3.9502586549940313	neutral	091	sub-02	1.0	4.0	091_neutral	0.0	97.99391822934285	
1.0	11.01444737478323	face	0.0		146	40.0	male	white	1.868682849184242	neutral	172	sub-02	1.0	4.0	172_neutral	0.0	98.50209773998176	1.241622698998981
1.0	11.206216639383456	pulse	0.0	t		40.0	male	white	1.868682849184242	neutral	172	sub-02	1.0	4.0	172_neutral	0.0	98.69386700458199	
1.0	11.906347131216535	pulse	0.0	t		40.0	male	white	1.868682849184242	neutral	172	sub-02	1.0	4.0	172_neutral	0.0	99.39399749641507	
1.0	12.256070073782212	fix	1.0		444	40.0	male	white	1.868682849184242	neutral	172	sub-02	1.0	4.0	172_neutral	0.0	99.74372043898074	3.7583742824535875
1.0	12.606216216787288	pulse	1.0	t		40.0	male	white	1.868682849184242	neutral	172	sub-02	1.0	4.0	172_neutral	0.0	100.09386658198582	
1.0	13.30620483686107	pulse	1.0	t		40.0	male	white	1.868682849184242	neutral	172	sub-02	1.0	4.0	172_neutral	0.0	100.7938552020596	
1.0	14.006186514274304	pulse	1.0	t		40.0	male	white	1.868682849184242	neutral	172	sub-02	1.0	4.0	172_neutral	0.0	101.49383687947284	
1.0	14.70617121023497	pulse	1.0	t		40.0	male	white	1.868682849184242	neutral	172	sub-02	1.0	4.0	172_neutral	0.0	102.1938215754335	
1.0	15.406157415470261	pulse	1.0	t		40.0	male	white	1.868682849184242	neutral	172	sub-02	1.0	4.0	172_neutral	0.0	102.8938077806688	
2.0	16.0144443562358	face	0.0		146	47.0	male	east_asian	2.171110226820533	neutral	024	sub-02	1.0	4.0	024_neutral	0.0	103.50209472143433	1.2415620261817821
2.0	16.106153883769366	pulse	0.0	t		47.0	male	east_asian	2.171110226820533	neutral	024	sub-02	1.0	4.0	024_neutral	0.0	103.5938042489679	
2.0	16.806141598278373	pulse	0.0	t		47.0	male	east_asian	2.171110226820533	neutral	024	sub-02	1.0	4.0	024_neutral	0.0	104.2937919634769	
2.0	17.25600638241758	fix	1.0		444	47.0	male	east_asian	2.171110226820533	neutral	024	sub-02	1.0	4.0	024_neutral	0.0	104.74365674761611	3.7582321088393655
2.0	17.50612055899819	pulse	1.0	t		47.0	male	east_asian	2.171110226820533	neutral	024	sub-02	1.0	4.0	024_neutral	0.0	104.99377092419672	
2.0	18.206098614154143	pulse	1.0	t		47.0	male	east_asian	2.171110226820533	neutral	024	sub-02	1.0	4.0	024_neutral	0.0	105.69374897935268	
2.0	18.90608149898617	pulse	1.0	t		47.0	male	east_asian	2.171110226820533	neutral	024	sub-02	1.0	4.0	024_neutral	0.0	106.3937318641847	
2.0	19.606058044867495	pulse	1.0	t		47.0	male	east_asian	2.171110226820533	neutral	024	sub-02	1.0	4.0	024_neutral	0.0	107.09370841006603	
2.0	20.30605692800509	pulse	1.0	t		47.0	male	east_asian	2.171110226820533	neutral	024	sub-02	1.0	4.0	024_neutral	0.0	107.79370729320362	
3.0	21.014238491256947	face	0.0		147	22.0	female	white	4.614007162753682	neutral	009	sub-02	1.0	4.0	009_neutral	0.0	108.50188885645548	1.2416601289942264
3.0	21.007945422235935	pulse	0.0	t		22.0	female	white	4.614007162753682	neutral	009	sub-02	1.0	4.0	009_neutral	0.0	108.49559578743447	
3.0	21.706026018073317	pulse	0.0	t		22.0	female	white	4.614007162753682	neutral	009	sub-02	1.0	4.0	009_neutral	0.0	109.19367638327185	
3.0	22.255898620251173	fix	1.0		443	22.0	female	white	4.614007162753682	neutral	009	sub-02	1.0	4.0	009_neutral	0.0	109.7435489854497	3.7582976113326367
3.0	22.406010110324132	pulse	1.0	t		22.0	female	white	4.614007162753682	neutral	009	sub-02	1.0	4.0	009_neutral	0.0	109.89366047552267	
3.0	23.106025897331165	pulse	1.0	t		22.0	female	white	4.614007162753682	neutral	009	sub-02	1.0	4.0	009_neutral	0.0	110.5936762625297	
3.0	23.805971955876885	pulse	1.0	t		22.0	female	white	4.614007162753682	neutral	009	sub-02	1.0	4.0	009_neutral	0.0	111.29362232107542	
3.0	24.5059648019178	pulse	1.0	t		22.0	female	white	4.614007162753682	neutral	009	sub-02	1.0	4.0	009_neutral	0.0	111.99361516711633	
3.0	25.205951912717865	pulse	1.0	t		22.0	female	white	4.614007162753682	neutral	009	sub-02	1.0	4.0	009_neutral	0.0	112.6936022779164	
3.0	25.905945060613703	pulse	1.0	t		22.0	female	white	4.614007162753682	neutral	009	sub-02	1.0	4.0	009_neutral	0.0	113.39359542581224	
4.0	26.01419623158381	face	0.0		147	21.0	male	black	2.969757262236371	neutral	137	sub-02	1.0	4.0	137_neutral	0.0	113.50184659678234	1.2415602150531413
4.0	26.60592462504337	pulse	0.0	t		21.0	male	black	2.969757262236371	neutral	137	sub-02	1.0	4.0	137_neutral	0.0	114.0935749902419	
4.0	27.25575644663695	fix	1.0		443	21.0	male	black	2.969757262236371	neutral	137	sub-02	1.0	4.0	137_neutral	0.0	114.74340681183548	3.7666263891742346
4.0	27.305933469388947	pulse	1.0	t		21.0	male	black	2.969757262236371	neutral	137	sub-02	1.0	4.0	137_neutral	0.0	114.79358383458748	
4.0	28.005894318820538	pulse	1.0	t		21.0	male	black	2.969757262236371	neutral	137	sub-02	1.0	4.0	137_neutral	0.0	115.49354468401907	
4.0	28.70587478881407	pulse	1.0	t		21.0	male	black	2.969757262236371	neutral	137	sub-02	1.0	4.0	137_neutral	0.0	116.1935251540126	
4.0	29.405860088485497	pulse	1.0	t		21.0	male	black	2.969757262236371	neutral	137	sub-02	1.0	4.0	137_neutral	0.0	116.89351045368403	
4.0	30.105863801299165	pulse	1.0	t		21.0	male	black	2.969757262236371	neutral	137	sub-02	1.0	4.0	137_neutral	0.0	117.5935141664977	
4.0	30.80582193403734	pulse	1.0	t		21.0	male	black	2.969757262236371	neutral	137	sub-02	1.0	4.0	137_neutral	0.0	118.29347229923587	
5.0	31.022382835811186	face	0.0		145	31.0	male	west_asian	1.9538400318344609	neutral	070	sub-02	1.0	4.0	070_neutral	1.0	118.51003320100972	1.2334617524302303
5.0	31.505814176369313	pulse	0.0	t		31.0	male	west_asian	1.9538400318344609	neutral	070	sub-02	1.0	4.0	070_neutral	1.0	118.99346454156785	
5.0	32.20580490942666	pulse	0.0	t		31.0	male	west_asian	1.9538400318344609	neutral	070	sub-02	1.0	4.0	070_neutral	1.0	119.6934552746252	
5.0	32.255844588241416	fix	1.0		237	31.0	male	west_asian	1.9538400318344609	neutral	070	sub-02	1.0	4.0	070_neutral	1.0	119.74349495343995	2.0081642669711073
5.0	32.90579232208074	pulse	1.0	t		31.0	male	west_asian	1.9538400318344609	neutral	070	sub-02	1.0	4.0	070_neutral	1.0	120.39344268727928	
5.0	33.60577369763996	pulse	1.0	t		31.0	male	west_asian	1.9538400318344609	neutral	070	sub-02	1.0	4.0	070_neutral	1.0	121.0934240628385	
5.0	34.26400885521252	rating	2.0		234	31.0	male	west_asian	1.9538400318344609	neutral	070	sub-02	1.0	4.0	070_neutral	1.0	121.75165922041106	1.991601191843074
5.0	34.3005357017264	pulse	2.0	t		31.0	male	west_asian	1.9538400318344609	neutral	070	sub-02	1.0	4.0	070_neutral	1.0	121.78818606692494	
5.0	35.000434067212154	pulse	2.0	t		31.0	male	west_asian	1.9538400318344609	neutral	070	sub-02	1.0	4.0	070_neutral	1.0	122.48808443241069	
5.0	35.29745255672515	response	2.0	w		31.0	male	west_asian	1.9538400318344609	neutral	070	sub-02	1.0	4.0	070_neutral	1.0	122.78510292192368	
5.0	35.70571842802474	pulse	2.0	t		31.0	male	west_asian	1.9538400318344609	neutral	070	sub-02	1.0	4.0	070_neutral	1.0	123.19336879322327	
5.0	36.2556100470556	fix	3.0		443	31.0	male	west_asian	1.9538400318344609	neutral	070	sub-02	1.0	4.0	070_neutral	1.0	123.74326041225413	3.766569942325077
5.0	36.40572153712856	pulse	3.0	t		31.0	male	west_asian	1.9538400318344609	neutral	070	sub-02	1.0	4.0	070_neutral	1.0	123.89337190232709	
5.0	37.10571317575068	pulse	3.0	t		31.0	male	west_asian	1.9538400318344609	neutral	070	sub-02	1.0	4.0	070_neutral	1.0	124.59336354094921	
5.0	37.805687910503366	pulse	3.0	t		31.0	male	west_asian	1.9538400318344609	neutral	070	sub-02	1.0	4.0	070_neutral	1.0	125.2933382757019	
5.0	38.505678643560714	pulse	3.0	t		31.0	male	west_asian	1.9538400318344609	neutral	070	sub-02	1.0	4.0	070_neutral	1.0	125.99332900875925	
5.0	39.20566967847299	pulse	3.0	t		31.0	male	west_asian	1.9538400318344609	neutral	070	sub-02	1.0	4.0	070_neutral	1.0	126.69332004367152	
5.0	39.90565588370828	pulse	3.0	t		31.0	male	west_asian	1.9538400318344609	neutral	070	sub-02	1.0	4.0	070_neutral	1.0	127.39330624890681	
6.0	40.022179989380675	face	0.0		146	47.0	male	east_asian	2.171110226820533	smiling	024	sub-02	1.0	4.0	024_smiling	0.0	127.50983035457921	1.2333316530075535
6.0	40.60559620701315	pulse	0.0	t		47.0	male	east_asian	2.171110226820533	smiling	024	sub-02	1.0	4.0	024_smiling	0.0	128.09324657221168	
6.0	41.25551164238823	fix	1.0		443	47.0	male	east_asian	2.171110226820533	smiling	024	sub-02	1.0	4.0	024_smiling	0.0	128.74316200758676	3.7665596792612632
6.0	41.30562497377559	pulse	1.0	t		47.0	male	east_asian	2.171110226820533	smiling	024	sub-02	1.0	4.0	024_smiling	0.0	128.79327533897413	
6.0	42.005616612397716	pulse	1.0	t		47.0	male	east_asian	2.171110226820533	smiling	024	sub-02	1.0	4.0	024_smiling	0.0	129.49326697759625	
6.0	42.70559346013397	pulse	1.0	t		47.0	male	east_asian	2.171110226820533	smiling	024	sub-02	1.0	4.0	024_smiling	0.0	130.1932438253325	
6.0	43.40558208020775	pulse	1.0	t		47.0	male	east_asian	2.171110226820533	smiling	024	sub-02	1.0	4.0	024_smiling	0.0	130.89323244540628	
6.0	44.10556345576606	pulse	1.0	t		47.0	male	east_asian	2.171110226820533	smiling	024	sub-02	1.0	4.0	024_smiling	0.0	131.5932138209646	
6.0	44.80554060535724	pulse	1.0	t		47.0	male	east_asian	2.171110226820533	smiling	024	sub-02	1.0	4.0	024_smiling	0.0	132.29319097055577	
7.0	45.02207132164949	face	0.0		145	19.0	male	white	2.243931555909272	neutral	130	sub-02	1.0	4.0	130_neutral	0.0	132.50972168684802	1.2332803376912125
7.0	45.5055403940587	pulse	0.0	t		19.0	male	white	2.243931555909272	neutral	130	sub-02	1.0	4.0	130_neutral	0.0	132.99319075925723	
7.0	46.20547649139644	pulse	0.0	t		19.0	male	white	2.243931555909272	neutral	130	sub-02	1.0	4.0	130_neutral	0.0	133.69312685659497	
7.0	46.255351659340704	fix	1.0		444	19.0	male	white	2.243931555909272	neutral	130	sub-02	1.0	4.0	130_neutral	0.0	133.74300202453924	3.7666179372390616
7.0	46.90550103219175	pulse	1.0	t		19.0	male	white	2.243931555909272	neutral	130	sub-02	1.0	4.0	130_neutral	0.0	134.39315139739028	
7.0	47.6054866337181	pulse	1.0	t		19.0	male	white	2.243931555909272	neutral	130	sub-02	1.0	4.0	130_neutral	0.0	135.09313699891663	
7.0	48.305481290887656	pulse	1.0	t		19.0	male	white	2.243931555909272	neutral	130	sub-02	1.0	4.0	130_neutral	0.0	135.7931316560862	
7.0	49.005453308946926	pulse	1.0	t		19.0	male	white	2.243931555909272	neutral	130	sub-02	1.0	4.0	130_neutral	0.0	136.49310367414546	
7.0	49.70543891047237	pulse	1.0	t		19.0	male	white	2.243931555909272	neutral	130	sub-02	1.0	4.0	130_neutral	0.0	137.1930892756709	
8.0	50.021969596579765	face	0.0		145	26.0	female	white	4.854755272582572	smiling	027	sub-02	1.0	4.0	027_smiling	0.0	137.5096199617783	1.233288487770551
8.0	50.405543442792805	pulse	0.0	t		26.0	female	white	4.854755272582572	smiling	027	sub-02	1.0	4.0	027_smiling	0.0	137.89319380799134	
8.0	51.105424602555104	pulse	0.0	t		26.0	female	white	4.854755272582572	smiling	027	sub-02	1.0	4.0	027_smiling	0.0	138.59307496775364	
8.0	51.25525808435032	fix	1.0		445	26.0	female	white	4.854755272582572	smiling	027	sub-02	1.0	4.0	027_smiling	0.0	138.74290844954885	3.766607070466307
8.0	51.8053969224693	pulse	1.0	t		26.0	female	white	4.854755272582572	smiling	027	sub-02	1.0	4.0	027_smiling	0.0	139.29304728766783	
8.0	52.5053807128661	pulse	1.0	t		26.0	female	white	4.854755272582572	smiling	027	sub-02	1.0	4.0	027_smiling	0.0	139.99303107806463	
8.0	53.205367219956315	pulse	1.0	t		26.0	female	white	4.854755272582572	smiling	027	sub-02	1.0	4.0	027_smiling	0.0	140.69301758515485	
8.0	53.905349802933415	pulse	1.0	t		26.0	female	white	4.854755272582572	smiling	027	sub-02	1.0	4.0	027_smiling	0.0	141.39300016813195	
8.0	54.6053320840565	pulse	1.0	t		26.0	female	white	4.854755272582572	smiling	027	sub-02	1.0	4.0	027_smiling	0.0	142.09298244925503	
9.0	55.02186515481662	face	0.0		145	37.0	male	white	3.898925586947871	smiling	101	sub-02	1.0	4.0	101_smiling	0.0	142.50951552001516	1.2333174658324424
9.0	55.30528116115056	pulse	0.0	t		37.0	male	white	3.898925586947871	smiling	101	sub-02	1.0	4.0	101_smiling	0.0	142.7929315263491	
9.0	56.0053008722698	pulse	0.0	t		37.0	male	white	3.898925586947871	smiling	101	sub-02	1.0	4.0	101_smiling	0.0	143.49295123746833	
9.0	56.255182620649066	fix	1.0		444	37.0	male	white	3.898925586947871	smiling	101	sub-02	1.0	4.0	101_smiling	0.0	143.7428329858476	3.7665732627274338
9.0	56.705294925729504	pulse	1.0	t		37.0	male	white	3.898925586947871	smiling	101	sub-02	1.0	4.0	101_smiling	0.0	144.19294529092804	
9.0	57.405278716126304	pulse	1.0	t		37.0	male	white	3.898925586947871	smiling	101	sub-02	1.0	4.0	101_smiling	0.0	144.89292908132484	
9.0	58.105274278860634	pulse	1.0	t		37.0	male	white	3.898925586947871	smiling	101	sub-02	1.0	4.0	101_smiling	0.0	145.59292464405917	
9.0	58.80525655998372	pulse	1.0	t		37.0	male	white	3.898925586947871	smiling	101	sub-02	1.0	4.0	101_smiling	0.0	146.29290692518225	
9.0	59.50523340771997	pulse	1.0	t		37.0	male	white	3.898925586947871	smiling	101	sub-02	1.0	4.0	101_smiling	0.0	146.9928837729185	
10.0	60.0217558833765	face	0.0		145	40.0	female	west_asian	1.5777954635893354	neutral	038	sub-02	1.0	4.0	038_neutral	1.0	147.50940624857503	1.2332893933353262
10.0	60.20518882376473	pulse	0.0	t		40.0	female	west_asian	1.5777954635893354	neutral	038	sub-02	1.0	4.0	038_neutral	1.0	147.69283918896326	
10.0	60.90516446408219	pulse	0.0	t		40.0	female	west_asian	1.5777954635893354	neutral	038	sub-02	1.0	4.0	038_neutral	1.0	148.39281482928072	
10.0	61.255045276711826	fix	1.0		236	40.0	female	west_asian	1.5777954635893354	neutral	038	sub-02	1.0	4.0	038_neutral	1.0	148.74269564191036	2.0000102630629044
10.0	61.6051965512479	pulse	1.0	t		40.0	female	west_asian	1.5777954635893354	neutral	038	sub-02	1.0	4.0	038_neutral	1.0	149.09284691644643	
10.0	62.30518758616017	pulse	1.0	t		40.0	female	west_asian	1.5777954635893354	neutral	038	sub-02	1.0	4.0	038_neutral	1.0	149.7928379513587	
10.0	63.00516020792929	pulse	1.0	t		40.0	female	west_asian	1.5777954635893354	neutral	038	sub-02	1.0	4.0	038_neutral	1.0	150.49281057312783	
10.0	63.25505553977473	rating	2.0		235	40.0	female	west_asian	1.5777954635893354	neutral	038	sub-02	1.0	4.0	038_neutral	1.0	150.74270590497326	1.9999538162146564
10.0	63.69681884274269	response	2.0	d		40.0	female	west_asian	1.5777954635893354	neutral	038	sub-02	1.0	4.0	038_neutral	1.0	151.18446920794122	
10.0	63.70748276937229	pulse	2.0	t		40.0	female	west_asian	1.5777954635893354	neutral	038	sub-02	1.0	4.0	038_neutral	1.0	151.19513313457082	
10.0	64.40513473138344	pulse	2.0	t		40.0	female	west_asian	1.5777954635893354	neutral	038	sub-02	1.0	4.0	038_neutral	1.0	151.89278509658197	
10.0	65.10511882363517	pulse	2.0	t		40.0	female	west_asian	1.5777954635893354	neutral	038	sub-02	1.0	4.0	038_neutral	1.0	152.5927691888337	
10.0	65.25500935598939	fix	3.0		444	40.0	female	west_asian	1.5777954635893354	neutral	038	sub-02	1.0	4.0	038_neutral	1.0	152.74265972118792	3.766561792244829
10.0	65.80510502887046	pulse	3.0	t		40.0	female	west_asian	1.5777954635893354	neutral	038	sub-02	1.0	4.0	038_neutral	1.0	153.292755394069	
10.0	66.50508308402641	pulse	3.0	t		40.0	female	west_asian	1.5777954635893354	neutral	038	sub-02	1.0	4.0	038_neutral	1.0	153.99273344922494	
10.0	67.20509524877434	pulse	3.0	t		40.0	female	west_asian	1.5777954635893354	neutral	038	sub-02	1.0	4.0	038_neutral	1.0	154.69274561397287	
10.0	67.90506122973784	pulse	3.0	t		40.0	female	west_asian	1.5777954635893354	neutral	038	sub-02	1.0	4.0	038_neutral	1.0	155.39271159493637	
10.0	68.60504049231258	pulse	3.0	t		40.0	female	west_asian	1.5777954635893354	neutral	038	sub-02	1.0	4.0	038_neutral	1.0	156.09269085751112	
11.0	69.02157114823422	face	0.0		145	24.0	male	white	3.1153999204138483	neutral	012	sub-02	1.0	4.0	012_neutral	0.0	156.50922151343275	1.2332764135780963
11.0	69.30498806013293	pulse	0.0	t		24.0	male	white	3.1153999204138483	neutral	012	sub-02	1.0	4.0	012_neutral	0.0	156.79263842533146	
11.0	70.00513696510916	pulse	0.0	t		24.0	male	white	3.1153999204138483	neutral	012	sub-02	1.0	4.0	012_neutral	0.0	157.4927873303077	
11.0	70.25484756181231	fix	1.0		444	24.0	male	white	3.1153999204138483	neutral	012	sub-02	1.0	4.0	012_neutral	0.0	157.74249792701085	3.7583812251141353
11.0	70.70500333398559	pulse	1.0	t		24.0	male	white	3.1153999204138483	neutral	012	sub-02	1.0	4.0	012_neutral	0.0	158.19265369918412	
11.0	71.40499436889786	pulse	1.0	t		24.0	male	white	3.1153999204138483	neutral	012	sub-02	1.0	4.0	012_neutral	0.0	158.8926447340964	
11.0	72.1049823852627	pulse	1.0	t		24.0	male	white	3.1153999204138483	neutral	012	sub-02	1.0	4.0	012_neutral	0.0	159.59263275046123	
11.0	72.80496798678814	pulse	1.0	t		24.0	male	white	3.1153999204138483	neutral	012	sub-02	1.0	4.0	012_neutral	0.0	160.29261835198668	
11.0	73.50494272154083	pulse	1.0	t		24.0	male	white	3.1153999204138483	neutral	012	sub-02	1.0	4.0	012_neutral	0.0	160.99259308673936	
12.0	74.01322878692645	face	0.0		146	25.0	female	black	3.858336649423	smiling	126	sub-02	1.0	4.0	126_smiling	0.0	161.50087915212498	1.2415620261826916
12.0	74.20505057426362	pulse	0.0	t		25.0	female	black	3.858336649423	smiling	126	sub-02	1.0	4.0	126_smiling	0.0	161.69270093946216	
12.0	74.90491271717292	pulse	0.0	t		25.0	female	black	3.858336649423	smiling	126	sub-02	1.0	4.0	126_smiling	0.0	162.39256308237145	
12.0	75.25479081310914	fix	1.0		444	25.0	female	black	3.858336649423	smiling	126	sub-02	1.0	4.0	126_smiling	0.0	162.74244117830767	3.7665720553077335
12.0	75.60490677063353	pulse	1.0	t		25.0	female	black	3.858336649423	smiling	126	sub-02	1.0	4.0	126_smiling	0.0	163.09255713583207	
12.0	76.30488874990078	pulse	1.0	t		25.0	female	black	3.858336649423	smiling	126	sub-02	1.0	4.0	126_smiling	0.0	163.79253911509932	
12.0	77.00486620134689	pulse	1.0	t		25.0	female	black	3.858336649423	smiling	126	sub-02	1.0	4.0	126_smiling	0.0	164.49251656654542	
12.0	77.70485814182393	pulse	1.0	t		25.0	female	black	3.858336649423	smiling	126	sub-02	1.0	4.0	126_smiling	0.0	165.19250850702247	
12.0	78.40484525262309	pulse	1.0	t		25.0	female	black	3.858336649423	smiling	126	sub-02	1.0	4.0	126_smiling	0.0	165.89249561782162	
13.0	79.02136286841687	face	0.0		145	21.0	male	east_asian/white	3.501790688420215	smiling	036	sub-02	1.0	4.0	036_smiling	0.0	166.5090132336154	1.2332848655132693
13.0	79.10494797381398	pulse	0.0	t		21.0	male	east_asian/white	3.501790688420215	smiling	036	sub-02	1.0	4.0	036_smiling	0.0	166.5925983390125	
13.0	79.80493085864691	pulse	0.0	t		21.0	male	east_asian/white	3.501790688420215	smiling	036	sub-02	1.0	4.0	036_smiling	0.0	167.29258122384545	
13.0	80.25464773393014	fix	1.0		444	21.0	male	east_asian/white	3.501790688420215	smiling	036	sub-02	1.0	4.0	036_smiling	0.0	167.74229809912867	3.7666194465127774
13.0	80.50479813308812	pulse	1.0	t		21.0	male	east_asian/white	3.501790688420215	smiling	036	sub-02	1.0	4.0	036_smiling	0.0	167.99244849828665	
13.0	81.20478494203326	pulse	1.0	t		21.0	male	east_asian/white	3.501790688420215	smiling	036	sub-02	1.0	4.0	036_smiling	0.0	168.6924353072318	
13.0	81.90478895670185	pulse	1.0	t		21.0	male	east_asian/white	3.501790688420215	smiling	036	sub-02	1.0	4.0	036_smiling	0.0	169.39243932190038	
13.0	82.60474708944002	pulse	1.0	t		21.0	male	east_asian/white	3.501790688420215	smiling	036	sub-02	1.0	4.0	036_smiling	0.0	170.09239745463856	
13.0	83.30475019854475	pulse	1.0	t		21.0	male	east_asian/white	3.501790688420215	smiling	036	sub-02	1.0	4.0	036_smiling	0.0	170.79240056374329	
14.0	84.02126718044292	face	0.0		146	31.0	female	east_asian	3.395941106247513	smiling	087	sub-02	1.0	4.0	087_smiling	0.0	171.50891754564145	1.2332806395461375
14.0	84.00757836678986	pulse	0.0	t		31.0	female	east_asian	3.395941106247513	smiling	087	sub-02	1.0	4.0	087_smiling	0.0	171.4952287319884	
14.0	84.70471747748343	pulse	0.0	t		31.0	female	east_asian	3.395941106247513	smiling	087	sub-02	1.0	4.0	087_smiling	0.0	172.19236784268196	
14.0	85.25454781998906	fix	1.0		443	31.0	female	east_asian	3.395941106247513	smiling	087	sub-02	1.0	4.0	087_smiling	0.0	172.7421981851876	3.7582737648026523
14.0	85.40469734376802	pulse	1.0	t		31.0	female	east_asian	3.395941106247513	smiling	087	sub-02	1.0	4.0	087_smiling	0.0	172.89234770896655	
14.0	86.10469290650235	pulse	1.0	t		31.0	female	east_asian	3.395941106247513	smiling	087	sub-02	1.0	4.0	087_smiling	0.0	173.59234327170088	
14.0	86.80465737819122	pulse	1.0	t		31.0	female	east_asian	3.395941106247513	smiling	087	sub-02	1.0	4.0	087_smiling	0.0	174.29230774338976	
14.0	87.50470636922637	pulse	1.0	t		31.0	female	east_asian	3.395941106247513	smiling	087	sub-02	1.0	4.0	087_smiling	0.0	174.9923567344249	
14.0	88.20463522204864	pulse	1.0	t		31.0	female	east_asian	3.395941106247513	smiling	087	sub-02	1.0	4.0	087_smiling	0.0	175.69228558724717	
14.0	88.90462474768628	pulse	1.0	t		31.0	female	east_asian	3.395941106247513	smiling	087	sub-02	1.0	4.0	087_smiling	0.0	176.39227511288482	
15.0	89.01282158479171	face	0.0		147	21.0	male	black	2.969757262236371	smiling	137	sub-02	1.0	4.0	137_smiling	0.0	176.50047194999024	1.2416712976228155
15.0	89.6047404486344	pulse	0.0	t		21.0	male	black	2.969757262236371	smiling	137	sub-02	1.0	4.0	137_smiling	0.0	177.09239081383294	
15.0	90.25449288241452	fix	1.0		443	21.0	male	black	2.969757262236371	smiling	137	sub-02	1.0	4.0	137_smiling	0.0	177.74214324761306	3.766560282970204
15.0	90.30459927114134	pulse	1.0	t		21.0	male	black	2.969757262236371	smiling	137	sub-02	1.0	4.0	137_smiling	0.0	177.79224963633987	
15.0	91.00457430774804	pulse	1.0	t		21.0	male	black	2.969757262236371	smiling	137	sub-02	1.0	4.0	137_smiling	0.0	178.49222467294658	
15.0	91.7045650408063	pulse	1.0	t		21.0	male	black	2.969757262236371	smiling	137	sub-02	1.0	4.0	137_smiling	0.0	179.19221540600483	
15.0	92.40454520894491	pulse	1.0	t		21.0	male	black	2.969757262236371	smiling	137	sub-02	1.0	4.0	137_smiling	0.0	179.89219557414344	
15.0	93.1045643163543	pulse	1.0	t		21.0	male	black	2.969757262236371	smiling	137	sub-02	1.0	4.0	137_smiling	0.0	180.59221468155283	
15.0	93.80451731756057	pulse	1.0	t		21.0	male	black	2.969757262236371	smiling	137	sub-02	1.0	4.0	137_smiling	0.0	181.2921676827591	
16.0	94.02105316538473	face	0.0		145	32.0	male	white	2.389176283326701	smiling	092	sub-02	1.0	4.0	092_smiling	0.0	181.50870353058326	1.2332845636583443
16.0	94.50450382465078	pulse	0.0	t		32.0	male	white	2.389176283326701	smiling	092	sub-02	1.0	4.0	092_smiling	0.0	181.99215418984932	
16.0	95.20461379035714	pulse	0.0	t		32.0	male	white	2.389176283326701	smiling	092	sub-02	1.0	4.0	092_smiling	0.0	182.69226415555568	
16.0	95.25433772904307	fix	1.0		444	32.0	male	white	2.389176283326701	smiling	092	sub-02	1.0	4.0	092_smiling	0.0	182.7419880942416	3.758288555688523
16.0	95.90447653697629	pulse	1.0	t		32.0	male	white	2.389176283326701	smiling	092	sub-02	1.0	4.0	092_smiling	0.0	183.39212690217482	
16.0	96.60446364777636	pulse	1.0	t		32.0	male	white	2.389176283326701	smiling	092	sub-02	1.0	4.0	092_smiling	0.0	184.0921140129749	
16.0	97.30444472147974	pulse	1.0	t		32.0	male	white	2.389176283326701	smiling	092	sub-02	1.0	4.0	092_smiling	0.0	184.79209508667827	
16.0	98.00443213413382	pulse	1.0	t		32.0	male	white	2.389176283326701	smiling	092	sub-02	1.0	4.0	092_smiling	0.0	185.49208249933235	
16.0	98.70439479469496	pulse	1.0	t		32.0	male	white	2.389176283326701	smiling	092	sub-02	1.0	4.0	092_smiling	0.0	186.1920451598935	
17.0	99.0126262847316	face	0.0		146	27.0	male	black	3.5523278949462798	smiling	042	sub-02	1.0	4.0	042_smiling	1.0	186.50027664993013	1.2416525826238285
17.0	99.40443020226303	pulse	0.0	t		27.0	male	black	3.5523278949462798	smiling	042	sub-02	1.0	4.0	042_smiling	1.0	186.89208056746156	
17.0	100.10435875323037	pulse	0.0	t		27.0	male	black	3.5523278949462798	smiling	042	sub-02	1.0	4.0	042_smiling	1.0	187.5920091184289	
17.0	100.25427886735542	fix	1.0		236	27.0	male	black	3.5523278949462798	smiling	042	sub-02	1.0	4.0	042_smiling	1.0	187.74192923255396	1.9999417420222017
17.0	100.80437816249469	pulse	1.0	t		27.0	male	black	3.5523278949462798	smiling	042	sub-02	1.0	4.0	042_smiling	1.0	188.29202852769322	
17.0	101.50435893434314	pulse	1.0	t		27.0	male	black	3.5523278949462798	smiling	042	sub-02	1.0	4.0	042_smiling	1.0	188.99200929954168	
17.0	102.20452987472072	pulse	1.0	t		27.0	male	black	3.5523278949462798	smiling	042	sub-02	1.0	4.0	042_smiling	1.0	189.69218023991925	
17.0	102.25422060937763	rating	2.0		235	27.0	male	black	3.5523278949462798	smiling	042	sub-02	1.0	4.0	042_smiling	1.0	189.74187097457616	1.9999646829883204
17.0	102.89907001552365	pulse	2.0	t		27.0	male	black	3.5523278949462798	smiling	042	sub-02	1.0	4.0	042_smiling	1.0	190.38672038072218	
17.0	103.24600140483199	response	2.0	y		27.0	male	black	3.5523278949462798	smiling	042	sub-02	1.0	4.0	042_smiling	1.0	190.73365177003052	
17.0	103.32409335644661	response	2.0	b		27.0	male	black	3.5523278949462798	smiling	042	sub-02	1.0	4.0	042_smiling	1.0	190.81174372164514	
17.0	103.59903146866509	pulse	2.0	t		27.0	male	black	3.5523278949462798	smiling	042	sub-02	1.0	4.0	042_smiling	1.0	191.08668183386362	
17.0	104.25418529236595	fix	3.0		443	27.0	male	black	3.5523278949462798	smiling	042	sub-02	1.0	4.0	042_smiling	1.0	191.74183565756448	3.766571149743868
17.0	104.30429560520497	pulse	3.0	t		27.0	male	black	3.5523278949462798	smiling	042	sub-02	1.0	4.0	042_smiling	1.0	191.7919459704035	
17.0	105.00428633826232	pulse	3.0	t		27.0	male	black	3.5523278949462798	smiling	042	sub-02	1.0	4.0	042_smiling	1.0	192.49193670346085	
17.0	105.70427073236897	pulse	3.0	t		27.0	male	black	3.5523278949462798	smiling	042	sub-02	1.0	4.0	042_smiling	1.0	193.1919210975675	
17.0	106.40425090050758	pulse	3.0	t		27.0	male	black	3.5523278949462798	smiling	042	sub-02	1.0	4.0	042_smiling	1.0	193.8919012657061	
17.0	107.10425250033859	pulse	3.0	t		27.0	male	black	3.5523278949462798	smiling	042	sub-02	1.0	4.0	042_smiling	1.0	194.59190286553712	
17.0	107.80422391468801	pulse	3.0	t		27.0	male	black	3.5523278949462798	smiling	042	sub-02	1.0	4.0	042_smiling	1.0	195.29187427988654	
18.0	108.02075644210981	face	0.0		145	25.0	female	west_asian	2.6756864305610826	smiling	064	sub-02	1.0	4.0	064_smiling	0.0	195.50840680730835	1.233328332605197
18.0	108.50421162919793	pulse	0.0	t		25.0	female	west_asian	2.6756864305610826	smiling	064	sub-02	1.0	4.0	064_smiling	0.0	195.99186199439646	
18.0	109.20431102998555	pulse	0.0	t		25.0	female	west_asian	2.6756864305610826	smiling	064	sub-02	1.0	4.0	064_smiling	0.0	196.69196139518408	
18.0	109.25408477471501	fix	1.0		444	25.0	female	west_asian	2.6756864305610826	smiling	064	sub-02	1.0	4.0	064_smiling	0.0	196.74173513991354	3.7665868461936043
18.0	109.90418253039388	pulse	1.0	t		25.0	female	west_asian	2.6756864305610826	smiling	064	sub-02	1.0	4.0	064_smiling	0.0	197.39183289559242	
18.0	110.60416511337189	pulse	1.0	t		25.0	female	west_asian	2.6756864305610826	smiling	064	sub-02	1.0	4.0	064_smiling	0.0	198.09181547857042	
18.0	111.30415856312266	pulse	1.0	t		25.0	female	west_asian	2.6756864305610826	smiling	064	sub-02	1.0	4.0	064_smiling	0.0	198.7918089283212	
18.0	112.00414657948659	pulse	1.0	t		25.0	female	west_asian	2.6756864305610826	smiling	064	sub-02	1.0	4.0	064_smiling	0.0	199.49179694468512	
18.0	112.70412221980405	pulse	1.0	t		25.0	female	west_asian	2.6756864305610826	smiling	064	sub-02	1.0	4.0	064_smiling	0.0	200.19177258500258	
19.0	113.02067162090862	face	0.0		145	27.0	female	white	3.504576203740549	smiling	144	sub-02	1.0	4.0	144_smiling	0.0	200.50832198610715	1.2332727913208146
19.0	113.40424033558975	pulse	0.0	t		27.0	female	white	3.504576203740549	smiling	144	sub-02	1.0	4.0	144_smiling	0.0	200.89189070078828	
19.0	114.10405478543998	pulse	0.0	t		27.0	female	white	3.504576203740549	smiling	144	sub-02	1.0	4.0	144_smiling	0.0	201.59170515063852	
19.0	114.25394441222943	fix	1.0		444	27.0	female	white	3.504576203740549	smiling	144	sub-02	1.0	4.0	144_smiling	0.0	201.74159477742796	3.7584086939014014
19.0	114.80409260784745	pulse	1.0	t		27.0	female	white	3.504576203740549	smiling	144	sub-02	1.0	4.0	144_smiling	0.0	202.29174297304598	
19.0	115.5040607017936	pulse	1.0	t		27.0	female	white	3.504576203740549	smiling	144	sub-02	1.0	4.0	144_smiling	0.0	202.99171106699214	
19.0	116.20405083114201	pulse	1.0	t		27.0	female	white	3.504576203740549	smiling	144	sub-02	1.0	4.0	144_smiling	0.0	203.69170119634055	
19.0	116.90403039557168	pulse	1.0	t		27.0	female	white	3.504576203740549	smiling	144	sub-02	1.0	4.0	144_smiling	0.0	204.3916807607702	
19.0	117.60403229725671	pulse	1.0	t		27.0	female	white	3.504576203740549	smiling	144	sub-02	1.0	4.0	144_smiling	0.0	205.09168266245524	
20.0	118.01235310613083	face	0.0		146	26.0	female	white	4.854755272582572	neutral	027	sub-02	1.0	4.0	027_neutral	0.0	205.50000347132936	1.2416782402833633
20.0	118.30402152104034	pulse	0.0	t		26.0	female	white	4.854755272582572	neutral	027	sub-02	1.0	4.0	027_neutral	0.0	205.79167188623887	
20.0	119.003944034911	pulse	0.0	t		26.0	female	white	4.854755272582572	neutral	027	sub-02	1.0	4.0	027_neutral	0.0	206.49159440010953	
20.0	119.2540313464142	fix	1.0		444	26.0	female	white	4.854755272582572	neutral	027	sub-02	1.0	4.0	027_neutral	0.0	206.74168171161273	3.766428372419796
20.0	119.70398064989877	pulse	1.0	t		26.0	female	white	4.854755272582572	neutral	027	sub-02	1.0	4.0	027_neutral	0.0	207.1916310150973	
20.0	120.40395749763502	pulse	1.0	t		26.0	female	white	4.854755272582572	neutral	027	sub-02	1.0	4.0	027_neutral	0.0	207.89160786283355	
20.0	121.1039612104496	pulse	1.0	t		26.0	female	white	4.854755272582572	neutral	027	sub-02	1.0	4.0	027_neutral	0.0	208.59161157564813	
20.0	121.80392779512204	pulse	1.0	t		26.0	female	white	4.854755272582572	neutral	027	sub-02	1.0	4.0	027_neutral	0.0	209.29157816032057	
20.0	122.5039149059221	pulse	1.0	t		26.0	female	white	4.854755272582572	neutral	027	sub-02	1.0	4.0	027_neutral	0.0	209.99156527112063	
21.0	123.02045971883399	face	0.0		145	54.0	female	white	2.286908077994429	neutral	136	sub-02	1.0	4.0	136_neutral	0.0	210.50811008403252	1.2332712820470988
21.0	123.20386971825701	pulse	0.0	t		54.0	female	white	2.286908077994429	neutral	136	sub-02	1.0	4.0	136_neutral	0.0	210.69152008345554	
21.0	123.90385230123502	pulse	0.0	t		54.0	female	white	2.286908077994429	neutral	136	sub-02	1.0	4.0	136_neutral	0.0	211.39150266643355	
21.0	124.25373100088109	fix	1.0		444	54.0	female	white	2.286908077994429	neutral	136	sub-02	1.0	4.0	136_neutral	0.0	211.74138136607962	3.7666076741752477
21.0	124.6038738234829	pulse	1.0	t		54.0	female	white	2.286908077994429	neutral	136	sub-02	1.0	4.0	136_neutral	0.0	212.09152418868143	
21.0	125.30385550089613	pulse	1.0	t		54.0	female	white	2.286908077994429	neutral	136	sub-02	1.0	4.0	136_neutral	0.0	212.79150586609467	
21.0	126.00384170613142	pulse	1.0	t		54.0	female	white	2.286908077994429	neutral	136	sub-02	1.0	4.0	136_neutral	0.0	213.49149207132996	
21.0	126.7038454189451	pulse	1.0	t		54.0	female	white	2.286908077994429	neutral	136	sub-02	1.0	4.0	136_neutral	0.0	214.19149578414363	
21.0	127.40381230547337	pulse	1.0	t		54.0	female	white	2.286908077994429	neutral	136	sub-02	1.0	4.0	136_neutral	0.0	214.8914626706719	
22.0	128.02033867505634	face	0.0		145	24.0	female	black	3.0955033824114606	neutral	099	sub-02	1.0	4.0	099_neutral	1.0	215.50798904025487	1.233326219621631
22.0	128.10392559158208	pulse	0.0	t		24.0	female	black	3.0955033824114606	neutral	099	sub-02	1.0	4.0	099_neutral	1.0	215.59157595678062	
22.0	128.80376811392944	pulse	0.0	t		24.0	female	black	3.0955033824114606	neutral	099	sub-02	1.0	4.0	099_neutral	1.0	216.29141847912797	
22.0	129.25366489467797	fix	1.0		236	24.0	female	black	3.0955033824114606	neutral	099	sub-02	1.0	4.0	099_neutral	1.0	216.7413152598765	1.9999553254883722
22.0	129.5037742415816	pulse	1.0	t		24.0	female	black	3.0955033824114606	neutral	099	sub-02	1.0	4.0	099_neutral	1.0	216.99142460678013	
22.0	130.20377252100934	pulse	1.0	t		24.0	female	black	3.0955033824114606	neutral	099	sub-02	1.0	4.0	099_neutral	1.0	217.69142288620787	
22.0	130.9037430297949	pulse	1.0	t		24.0	female	black	3.0955033824114606	neutral	099	sub-02	1.0	4.0	099_neutral	1.0	218.39139339499343	
22.0	131.25362022016634	rating	2.0		235	24.0	female	black	3.0955033824114606	neutral	099	sub-02	1.0	4.0	099_neutral	1.0	218.74127058536487	1.9999692108094678
22.0	131.5984413425167	pulse	2.0	t		24.0	female	black	3.0955033824114606	neutral	099	sub-02	1.0	4.0	099_neutral	1.0	219.08609170771524	
22.0	132.29876049360428	pulse	2.0	t		24.0	female	black	3.0955033824114606	neutral	099	sub-02	1.0	4.0	099_neutral	1.0	219.7864108588028	
22.0	132.64538610399268	response	2.0	w		24.0	female	black	3.0955033824114606	neutral	099	sub-02	1.0	4.0	099_neutral	1.0	220.1330364691912	
22.0	133.00369108058203	pulse	2.0	t		24.0	female	black	3.0955033824114606	neutral	099	sub-02	1.0	4.0	099_neutral	1.0	220.49134144578056	
22.0	133.2535894309758	fix	3.0		444	24.0	female	black	3.0955033824114606	neutral	099	sub-02	1.0	4.0	099_neutral	1.0	220.74123979617434	3.758359189713701
22.0	133.7036818136403	pulse	3.0	t		24.0	female	black	3.0955033824114606	neutral	099	sub-02	1.0	4.0	099_neutral	1.0	221.19133217883882	
22.0	134.40366409476246	pulse	3.0	t		24.0	female	black	3.0955033824114606	neutral	099	sub-02	1.0	4.0	099_neutral	1.0	221.891314459961	
22.0	135.10366539273855	pulse	3.0	t		24.0	female	black	3.0955033824114606	neutral	099	sub-02	1.0	4.0	099_neutral	1.0	222.59131575793708	
22.0	135.80363137370205	pulse	3.0	t		24.0	female	black	3.0955033824114606	neutral	099	sub-02	1.0	4.0	099_neutral	1.0	223.29128173890058	
22.0	136.50362693643638	pulse	3.0	t		24.0	female	black	3.0955033824114606	neutral	099	sub-02	1.0	4.0	099_neutral	1.0	223.9912773016349	
23.0	137.0119486206895	face	0.0		146	31.0	female	east_asian	3.395941106247513	neutral	087	sub-02	1.0	4.0	087_neutral	0.0	224.49959898588804	1.241491392156604
23.0	137.2037378077066	pulse	0.0	t		31.0	female	east_asian	3.395941106247513	neutral	087	sub-02	1.0	4.0	087_neutral	0.0	224.69138817290514	
23.0	137.9036023654544	pulse	0.0	t		31.0	female	east_asian	3.395941106247513	neutral	087	sub-02	1.0	4.0	087_neutral	0.0	225.39125273065292	
23.0	138.2534400128461	fix	1.0		1185	31.0	female	east_asian	3.395941106247513	neutral	087	sub-02	1.0	4.0	087_neutral	0.0	225.74109037804465	10.008138005603541
23.0	138.6035810243202	pulse	1.0	t		31.0	female	east_asian	3.395941106247513	neutral	087	sub-02	1.0	4.0	087_neutral	0.0	226.09123138951873	
23.0	139.30356572028086	pulse	1.0	t		31.0	female	east_asian	3.395941106247513	neutral	087	sub-02	1.0	4.0	087_neutral	0.0	226.7912160854794	
23.0	140.003552529226	pulse	1.0	t		31.0	female	east_asian	3.395941106247513	neutral	087	sub-02	1.0	4.0	087_neutral	0.0	227.49120289442453	
23.0	140.70354960123404	pulse	1.0	t		31.0	female	east_asian	3.395941106247513	neutral	087	sub-02	1.0	4.0	087_neutral	0.0	228.19119996643258	
23.0	141.40352161929331	pulse	1.0	t		31.0	female	east_asian	3.395941106247513	neutral	087	sub-02	1.0	4.0	087_neutral	0.0	228.89117198449185	
23.0	142.10351808759242	pulse	1.0	t		31.0	female	east_asian	3.395941106247513	neutral	087	sub-02	1.0	4.0	087_neutral	0.0	229.59116845279095	
23.0	142.80349493532867	pulse	1.0	t		31.0	female	east_asian	3.395941106247513	neutral	087	sub-02	1.0	4.0	087_neutral	0.0	230.2911453005272	
23.0	143.50347721645176	pulse	1.0	t		31.0	female	east_asian	3.395941106247513	neutral	087	sub-02	1.0	4.0	087_neutral	0.0	230.9911275816503	
23.0	144.2034528567683	pulse	1.0	t		31.0	female	east_asian	3.395941106247513	neutral	087	sub-02	1.0	4.0	087_neutral	0.0	231.69110322196684	
23.0	144.90355587981412	pulse	1.0	t		31.0	female	east_asian	3.395941106247513	neutral	087	sub-02	1.0	4.0	087_neutral	0.0	232.39120624501265	
23.0	145.60360426714033	pulse	1.0	t		31.0	female	east_asian	3.395941106247513	neutral	087	sub-02	1.0	4.0	087_neutral	0.0	233.09125463233886	
23.0	146.30340966134554	pulse	1.0	t		31.0	female	east_asian	3.395941106247513	neutral	087	sub-02	1.0	4.0	087_neutral	0.0	233.79106002654407	
23.0	147.00340250738645	pulse	1.0	t		31.0	female	east_asian	3.395941106247513	neutral	087	sub-02	1.0	4.0	087_neutral	0.0	234.491052872585	
23.0	147.703392033025	pulse	1.0	t		31.0	female	east_asian	3.395941106247513	neutral	087	sub-02	1.0	4.0	087_neutral	0.0	235.19104239822354	
24.0	148.26157801844965	face	0.0		146	34.0	male	white	2.651014723438122	smiling	121	sub-02	1.0	4.0	121_smiling	0.0	235.7492283836482	1.2416664679458336
24.0	148.40338186051758	pulse	0.0	t		34.0	male	white	2.651014723438122	smiling	121	sub-02	1.0	4.0	121_smiling	0.0	235.89103222571612	
24.0	149.10349695775585	pulse	0.0	t		34.0	male	white	2.651014723438122	smiling	121	sub-02	1.0	4.0	121_smiling	0.0	236.59114732295438	
24.0	149.5032444863955	fix	1.0		444	34.0	male	white	2.651014723438122	smiling	121	sub-02	1.0	4.0	121_smiling	0.0	236.99089485159402	3.7665678293406017
24.0	149.80333978195813	pulse	1.0	t		34.0	male	white	2.651014723438122	smiling	121	sub-02	1.0	4.0	121_smiling	0.0	237.29099014715666	
24.0	150.5033335335629	pulse	1.0	t		34.0	male	white	2.651014723438122	smiling	121	sub-02	1.0	4.0	121_smiling	0.0	237.99098389876144	
24.0	151.20331822952448	pulse	1.0	t		34.0	male	white	2.651014723438122	smiling	121	sub-02	1.0	4.0	121_smiling	0.0	238.69096859472302	
24.0	151.90330684959827	pulse	1.0	t		34.0	male	white	2.651014723438122	smiling	121	sub-02	1.0	4.0	121_smiling	0.0	239.3909572147968	
24.0	152.6032984882204	pulse	1.0	t		34.0	male	white	2.651014723438122	smiling	121	sub-02	1.0	4.0	121_smiling	0.0	240.09094885341892	
25.0	153.2698123157361	face	0.0		145	22.0	male	black	2.767608436132113	neutral	044	sub-02	1.0	4.0	044_neutral	0.0	240.75746268093462	1.2332736968855897
25.0	153.30339547416952	pulse	0.0	t		22.0	male	black	2.767608436132113	neutral	044	sub-02	1.0	4.0	044_neutral	0.0	240.79104583936805	
25.0	154.0032219982122	pulse	0.0	t		22.0	male	black	2.767608436132113	neutral	044	sub-02	1.0	4.0	044_neutral	0.0	241.49087236341074	
25.0	154.50308601262168	fix	1.0		443	22.0	male	black	2.767608436132113	neutral	044	sub-02	1.0	4.0	044_neutral	0.0	241.9907363778202	3.7666215594963433
25.0	154.70324261489532	pulse	1.0	t		22.0	male	black	2.767608436132113	neutral	044	sub-02	1.0	4.0	044_neutral	0.0	242.19089298009385	
25.0	155.40323093311417	pulse	1.0	t		22.0	male	black	2.767608436132113	neutral	044	sub-02	1.0	4.0	044_neutral	0.0	242.8908812983127	
25.0	156.10324098487945	pulse	1.0	t		22.0	male	black	2.767608436132113	neutral	044	sub-02	1.0	4.0	044_neutral	0.0	243.59089135007798	
25.0	156.80319821205285	pulse	1.0	t		22.0	male	black	2.767608436132113	neutral	044	sub-02	1.0	4.0	044_neutral	0.0	244.29084857725138	
25.0	157.50318320986935	pulse	1.0	t		22.0	male	black	2.767608436132113	neutral	044	sub-02	1.0	4.0	044_neutral	0.0	244.99083357506788	
25.0	158.20317998002247	pulse	1.0	t		22.0	male	black	2.767608436132113	neutral	044	sub-02	1.0	4.0	044_neutral	0.0	245.690830345221	
26.0	158.26970757211802	face	0.0		146	31.0	female	white	2.1822522881018704	smiling	102	sub-02	1.0	4.0	102_smiling	0.0	245.75735793731656	1.2333241066380651
26.0	158.9031613555817	pulse	0.0	t		31.0	female	white	2.1822522881018704	smiling	102	sub-02	1.0	4.0	102_smiling	0.0	246.39081172078022	
26.0	159.5030316787561	fix	1.0		443	31.0	female	white	2.1822522881018704	smiling	102	sub-02	1.0	4.0	102_smiling	0.0	246.99068204395462	3.766571451598793
26.0	159.60322091153466	pulse	1.0	t		31.0	female	white	2.1822522881018704	smiling	102	sub-02	1.0	4.0	102_smiling	0.0	247.0908712767332	
26.0	160.3031253141171	pulse	1.0	t		31.0	female	white	2.1822522881018704	smiling	102	sub-02	1.0	4.0	102_smiling	0.0	247.79077567931563	
26.0	161.00311091564254	pulse	1.0	t		31.0	female	white	2.1822522881018704	smiling	102	sub-02	1.0	4.0	102_smiling	0.0	248.49076128084107	
26.0	161.70309742273275	pulse	1.0	t		31.0	female	white	2.1822522881018704	smiling	102	sub-02	1.0	4.0	102_smiling	0.0	249.1907477879313	
26.0	162.40308211869433	pulse	1.0	t		31.0	female	white	2.1822522881018704	smiling	102	sub-02	1.0	4.0	102_smiling	0.0	249.89073248389286	
26.0	163.10307888884836	pulse	1.0	t		31.0	female	white	2.1822522881018704	smiling	102	sub-02	1.0	4.0	102_smiling	0.0	250.5907292540469	
27.0	163.26960313035488	face	0.0		146	28.0	female	white	5.676880222841227	neutral	124	sub-02	1.0	4.0	124_neutral	0.0	250.7572534955534	1.233325917766706
27.0	163.8030557365846	pulse	0.0	t		28.0	female	white	5.676880222841227	neutral	124	sub-02	1.0	4.0	124_neutral	0.0	251.29070610178314	
27.0	164.5029290481216	fix	1.0		444	28.0	female	white	5.676880222841227	neutral	124	sub-02	1.0	4.0	124_neutral	0.0	251.99057941332012	3.766570847888943
27.0	164.51039723790745	pulse	1.0	t		28.0	female	white	5.676880222841227	neutral	124	sub-02	1.0	4.0	124_neutral	0.0	251.998047603106	
27.0	165.20302482665193	pulse	1.0	t		28.0	female	white	5.676880222841227	neutral	124	sub-02	1.0	4.0	124_neutral	0.0	252.69067519185046	
27.0	165.9030182764027	pulse	1.0	t		28.0	female	white	5.676880222841227	neutral	124	sub-02	1.0	4.0	124_neutral	0.0	253.39066864160122	
27.0	166.6029703720451	pulse	1.0	t		28.0	female	white	5.676880222841227	neutral	124	sub-02	1.0	4.0	124_neutral	0.0	254.09062073724363	
27.0	167.3029743867137	pulse	1.0	t		28.0	female	white	5.676880222841227	neutral	124	sub-02	1.0	4.0	124_neutral	0.0	254.79062475191222	
27.0	168.00296572348088	pulse	1.0	t		28.0	female	white	5.676880222841227	neutral	124	sub-02	1.0	4.0	124_neutral	0.0	255.49061608867942	
28.0	168.26949989601053	face	0.0		145	28.0	male	east_asian	1.5563072025467568	neutral	005	sub-02	1.0	4.0	005_neutral	0.0	255.75715026120906	1.2332703764823236
28.0	168.70295494726452	pulse	0.0	t		28.0	male	east_asian	1.5563072025467568	neutral	005	sub-02	1.0	4.0	005_neutral	0.0	256.19060531246305	
28.0	169.40292998387122	pulse	0.0	t		28.0	male	east_asian	1.5563072025467568	neutral	005	sub-02	1.0	4.0	005_neutral	0.0	256.89058034906975	
28.0	169.50277027249285	fix	1.0		444	28.0	male	east_asian	1.5563072025467568	neutral	005	sub-02	1.0	4.0	005_neutral	0.0	256.9904206376914	3.766641180059196
28.0	170.10292524475062	pulse	1.0	t		28.0	male	east_asian	1.5563072025467568	neutral	005	sub-02	1.0	4.0	005_neutral	0.0	257.59057560994916	
28.0	170.80290541289014	pulse	1.0	t		28.0	male	east_asian	1.5563072025467568	neutral	005	sub-02	1.0	4.0	005_neutral	0.0	258.2905557780887	
28.0	171.50289282554513	pulse	1.0	t		28.0	male	east_asian	1.5563072025467568	neutral	005	sub-02	1.0	4.0	005_neutral	0.0	258.99054319074367	
28.0	172.2028775215058	pulse	1.0	t		28.0	male	east_asian	1.5563072025467568	neutral	005	sub-02	1.0	4.0	005_neutral	0.0	259.69052788670433	
28.0	172.90286674528943	pulse	1.0	t		28.0	male	east_asian	1.5563072025467568	neutral	005	sub-02	1.0	4.0	005_neutral	0.0	260.39051711048796	
29.0	173.26941145255205	face	0.0		145	19.0	female	white	4.298846000795861	smiling	100	sub-02	1.0	4.0	100_smiling	0.0	260.7570618177506	1.2333129380103856
29.0	173.60285476165336	pulse	0.0	t		19.0	female	white	4.298846000795861	smiling	100	sub-02	1.0	4.0	100_smiling	0.0	261.0905051268519	
29.0	174.3028325149544	pulse	0.0	t		19.0	female	white	4.298846000795861	smiling	100	sub-02	1.0	4.0	100_smiling	0.0	261.7904828801529	
29.0	174.50272439056243	fix	1.0		444	19.0	female	white	4.298846000795861	smiling	100	sub-02	1.0	4.0	100_smiling	0.0	261.99037475576097	3.7665808090978317
29.0	175.00282626656008	pulse	1.0	t		19.0	female	white	4.298846000795861	smiling	100	sub-02	1.0	4.0	100_smiling	0.0	262.4904766317586	
29.0	175.7028103588118	pulse	1.0	t		19.0	female	white	4.298846000795861	smiling	100	sub-02	1.0	4.0	100_smiling	0.0	263.19046072401034	
29.0	176.40279505477247	pulse	1.0	t		19.0	female	white	4.298846000795861	smiling	100	sub-02	1.0	4.0	100_smiling	0.0	263.890445419971	
29.0	177.1027803544439	pulse	1.0	t		19.0	female	white	4.298846000795861	smiling	100	sub-02	1.0	4.0	100_smiling	0.0	264.5904307196424	
29.0	177.80276203185713	pulse	1.0	t		19.0	female	white	4.298846000795861	smiling	100	sub-02	1.0	4.0	100_smiling	0.0	265.29041239705566	
30.0	178.26930519966027	face	0.0		145	24.0	female	east_asian	4.409868682849185	smiling	030	sub-02	1.0	4.0	030_smiling	0.0	265.7569555648588	1.2333075046235535
30.0	178.5027506519309	pulse	0.0	t		24.0	female	east_asian	4.409868682849185	smiling	030	sub-02	1.0	4.0	030_smiling	0.0	265.99040101712944	
30.0	179.2027305182146	pulse	0.0	t		24.0	female	east_asian	4.409868682849185	smiling	030	sub-02	1.0	4.0	030_smiling	0.0	266.6903808834131	
30.0	179.50261270428382	fix	1.0		444	24.0	female	east_asian	4.409868682849185	smiling	030	sub-02	1.0	4.0	030_smiling	0.0	266.99026306948235	3.758339569149939
30.0	179.90272336425642	pulse	1.0	t		24.0	female	east_asian	4.409868682849185	smiling	030	sub-02	1.0	4.0	030_smiling	0.0	267.39037372945495	
30.0	180.60269900457297	pulse	1.0	t		24.0	female	east_asian	4.409868682849185	smiling	030	sub-02	1.0	4.0	030_smiling	0.0	268.0903493697715	
30.0	181.3026846060984	pulse	1.0	t		24.0	female	east_asian	4.409868682849185	smiling	030	sub-02	1.0	4.0	030_smiling	0.0	268.79033497129694	
30.0	182.0026732261722	pulse	1.0	t		24.0	female	east_asian	4.409868682849185	smiling	030	sub-02	1.0	4.0	030_smiling	0.0	269.4903235913707	
30.0	182.70265882769854	pulse	1.0	t		24.0	female	east_asian	4.409868682849185	smiling	030	sub-02	1.0	4.0	030_smiling	0.0	270.1903091928971	
31.0	183.26095227343376	face	0.0		146	28.0	female	white	5.676880222841227	smiling	124	sub-02	1.0	4.0	124_smiling	0.0	270.7486026386323	1.241587985696242
31.0	183.40317629739457	pulse	0.0	t		28.0	female	white	5.676880222841227	smiling	124	sub-02	1.0	4.0	124_smiling	0.0	270.8908266625931	
31.0	184.1026387845386	pulse	0.0	t		28.0	female	white	5.676880222841227	smiling	124	sub-02	1.0	4.0	124_smiling	0.0	271.59028914973715	
31.0	184.50254025913	fix	1.0		444	28.0	female	white	5.676880222841227	smiling	124	sub-02	1.0	4.0	124_smiling	0.0	271.99019062432853	3.7665575662776973
31.0	184.80261261372743	pulse	1.0	t		28.0	female	white	5.676880222841227	smiling	124	sub-02	1.0	4.0	124_smiling	0.0	272.29026297892597	
31.0	185.50260455420357	pulse	1.0	t		28.0	female	white	5.676880222841227	smiling	124	sub-02	1.0	4.0	124_smiling	0.0	272.9902549194021	
31.0	186.20260102250268	pulse	1.0	t		28.0	female	white	5.676880222841227	smiling	124	sub-02	1.0	4.0	124_smiling	0.0	273.6902513877012	
31.0	186.90257696467415	pulse	1.0	t		28.0	female	white	5.676880222841227	smiling	124	sub-02	1.0	4.0	124_smiling	0.0	274.3902273298727	
31.0	187.60255773652352	pulse	1.0	t		28.0	female	white	5.676880222841227	smiling	124	sub-02	1.0	4.0	124_smiling	0.0	275.09020810172206	
32.0	188.2690978254077	face	0.0		145	27.0	female	white	4.181058495821727	smiling	039	sub-02	1.0	4.0	039_smiling	1.0	275.75674819060623	1.2333050897850626
32.0	188.30251194514858	pulse	0.0	t		27.0	female	white	4.181058495821727	smiling	039	sub-02	1.0	4.0	039_smiling	1.0	275.7901623103471	
32.0	189.0024921132881	pulse	0.0	t		27.0	female	white	4.181058495821727	smiling	039	sub-02	1.0	4.0	039_smiling	1.0	276.49014247848663	
32.0	189.50240291519276	fix	1.0		236	27.0	female	white	4.181058495821727	smiling	039	sub-02	1.0	4.0	039_smiling	1.0	276.9900532803913	1.9999498921015402
32.0	189.70251182440734	pulse	1.0	t		27.0	female	white	4.181058495821727	smiling	039	sub-02	1.0	4.0	039_smiling	1.0	277.19016218960587	
32.0	190.402501350045	pulse	1.0	t		27.0	female	white	4.181058495821727	smiling	039	sub-02	1.0	4.0	039_smiling	1.0	277.8901517152435	
32.0	191.10249721463424	pulse	1.0	t		27.0	female	white	4.181058495821727	smiling	039	sub-02	1.0	4.0	039_smiling	1.0	278.5901475798328	
32.0	191.5023528072943	rating	2.0		235	27.0	female	white	4.181058495821727	smiling	039	sub-02	1.0	4.0	039_smiling	1.0	278.99000317249283	1.9999689089554522
32.0	191.79727883928354	pulse	2.0	t		27.0	female	white	4.181058495821727	smiling	039	sub-02	1.0	4.0	039_smiling	1.0	279.28492920448207	
32.0	192.1805339268194	response	2.0	y		27.0	female	white	4.181058495821727	smiling	039	sub-02	1.0	4.0	039_smiling	1.0	279.66818429201794	
32.0	192.50257225573932	pulse	2.0	t		27.0	female	white	4.181058495821727	smiling	039	sub-02	1.0	4.0	039_smiling	1.0	279.99022262093786	
32.0	193.20243862461666	pulse	2.0	t		27.0	female	white	4.181058495821727	smiling	039	sub-02	1.0	4.0	039_smiling	1.0	280.6900889898152	
32.0	193.50232171624975	fix	3.0		444	27.0	female	white	4.181058495821727	smiling	039	sub-02	1.0	4.0	039_smiling	1.0	280.9899720814483	3.766571451598793
32.0	193.9024329799313	pulse	3.0	t		27.0	female	white	4.181058495821727	smiling	039	sub-02	1.0	4.0	039_smiling	1.0	281.3900833451298	
32.0	194.60240771468398	pulse	3.0	t		27.0	female	white	4.181058495821727	smiling	039	sub-02	1.0	4.0	039_smiling	1.0	282.0900580798825	
32.0	195.30239542919298	pulse	3.0	t		27.0	female	white	4.181058495821727	smiling	039	sub-02	1.0	4.0	039_smiling	1.0	282.7900457943915	
32.0	196.00237589918743	pulse	3.0	t		27.0	female	white	4.181058495821727	smiling	039	sub-02	1.0	4.0	039_smiling	1.0	283.49002626438596	
32.0	196.70236270813257	pulse	3.0	t		27.0	female	white	4.181058495821727	smiling	039	sub-02	1.0	4.0	039_smiling	1.0	284.1900130733311	
33.0	197.26889316784855	face	0.0		145	22.0	female	west_asian	3.8205332272184642	neutral	066	sub-02	1.0	4.0	066_neutral	0.0	284.7565435330471	1.2333241066380651
33.0	197.40235374304484	pulse	0.0	t		22.0	female	west_asian	3.8205332272184642	neutral	066	sub-02	1.0	4.0	066_neutral	0.0	284.8900041082434	
33.0	198.1023523243266	pulse	0.0	t		22.0	female	west_asian	3.8205332272184642	neutral	066	sub-02	1.0	4.0	066_neutral	0.0	285.59000268952514	
33.0	198.5022172744866	fix	1.0		444	22.0	female	west_asian	3.8205332272184642	neutral	066	sub-02	1.0	4.0	066_neutral	0.0	285.98986763968514	3.7583911863221147
33.0	198.802739090891	pulse	1.0	t		22.0	female	west_asian	3.8205332272184642	neutral	066	sub-02	1.0	4.0	066_neutral	0.0	286.29038945608954	
33.0	199.50230752907373	pulse	1.0	t		22.0	female	west_asian	3.8205332272184642	neutral	066	sub-02	1.0	4.0	066_neutral	0.0	286.98995789427227	
33.0	200.20230520479163	pulse	1.0	t		22.0	female	west_asian	3.8205332272184642	neutral	066	sub-02	1.0	4.0	066_neutral	0.0	287.68995556999016	
33.0	200.9022748080124	pulse	1.0	t		22.0	female	west_asian	3.8205332272184642	neutral	066	sub-02	1.0	4.0	066_neutral	0.0	288.38992517321094	
33.0	201.60226372994111	pulse	1.0	t		22.0	female	west_asian	3.8205332272184642	neutral	066	sub-02	1.0	4.0	066_neutral	0.0	289.08991409513965	
34.0	202.26060846080873	face	0.0		146	28.0	male	white	3.9076800636689217	neutral	033	sub-02	1.0	4.0	033_neutral	0.0	289.74825882600726	1.2414569807096996
34.0	202.3022867614627	pulse	0.0	t		28.0	male	white	3.9076800636689217	neutral	033	sub-02	1.0	4.0	033_neutral	0.0	289.78993712666124	
34.0	203.00220233267282	pulse	0.0	t		28.0	male	white	3.9076800636689217	neutral	033	sub-02	1.0	4.0	033_neutral	0.0	290.48985269787136	
34.0	203.50206544151843	fix	1.0		443	28.0	male	white	3.9076800636689217	neutral	033	sub-02	1.0	4.0	033_neutral	0.0	290.98971580671696	3.7666200502226275
34.0	203.70222536419533	pulse	1.0	t		28.0	male	white	3.9076800636689217	neutral	033	sub-02	1.0	4.0	033_neutral	0.0	291.18987572939386	
34.0	204.40220583418886	pulse	1.0	t		28.0	male	white	3.9076800636689217	neutral	033	sub-02	1.0	4.0	033_neutral	0.0	291.8898561993874	
34.0	205.10226206973948	pulse	1.0	t		28.0	male	white	3.9076800636689217	neutral	033	sub-02	1.0	4.0	033_neutral	0.0	292.589912434938	
34.0	205.80217915022422	pulse	1.0	t		28.0	male	white	3.9076800636689217	neutral	033	sub-02	1.0	4.0	033_neutral	0.0	293.28982951542275	
34.0	206.50215992207268	pulse	1.0	t		28.0	male	white	3.9076800636689217	neutral	033	sub-02	1.0	4.0	033_neutral	0.0	293.9898102872712	
34.0	207.20214703287274	pulse	1.0	t		28.0	male	white	3.9076800636689217	neutral	033	sub-02	1.0	4.0	033_neutral	0.0	294.6897973980713	
35.0	207.26868549174105	face	0.0		146	34.0	male	white	2.651014723438122	neutral	121	sub-02	1.0	4.0	121_neutral	0.0	294.7563358569396	1.233318371396308
35.0	207.9021353510916	pulse	0.0	t		34.0	male	white	2.651014723438122	neutral	121	sub-02	1.0	4.0	121_neutral	0.0	295.38978571629013	
35.0	208.50200386313736	fix	1.0		443	34.0	male	white	2.651014723438122	neutral	121	sub-02	1.0	4.0	121_neutral	0.0	295.9896542283359	3.758390582613174
35.0	208.60212487672925	pulse	1.0	t		34.0	male	white	2.651014723438122	neutral	121	sub-02	1.0	4.0	121_neutral	0.0	296.0897752419278	
35.0	209.3020978003533	pulse	1.0	t		34.0	male	white	2.651014723438122	neutral	121	sub-02	1.0	4.0	121_neutral	0.0	296.7897481655518	
35.0	210.002086722282	pulse	1.0	t		34.0	male	white	2.651014723438122	neutral	121	sub-02	1.0	4.0	121_neutral	0.0	297.48973708748053	
35.0	210.70206930526	pulse	1.0	t		34.0	male	white	2.651014723438122	neutral	121	sub-02	1.0	4.0	121_neutral	0.0	298.18971967045854	
35.0	211.40205581234932	pulse	1.0	t		34.0	male	white	2.651014723438122	neutral	121	sub-02	1.0	4.0	121_neutral	0.0	298.88970617754785	
35.0	212.10207642903333	pulse	1.0	t		34.0	male	white	2.651014723438122	neutral	121	sub-02	1.0	4.0	121_neutral	0.0	299.58972679423186	
36.0	212.26039444575053	face	0.0		147	24.0	male	white	3.1153999204138483	smiling	012	sub-02	1.0	4.0	012_smiling	0.0	299.74804481094907	1.2414708660307952
36.0	212.8019965280655	pulse	0.0	t		24.0	male	white	3.1153999204138483	smiling	012	sub-02	1.0	4.0	012_smiling	0.0	300.28964689326403	
36.0	213.50186531178133	fix	1.0		444	24.0	male	white	3.1153999204138483	smiling	012	sub-02	1.0	4.0	012_smiling	0.0	300.98951567697986	3.7666164279644363
36.0	213.50945062123174	pulse	1.0	t		24.0	male	white	3.1153999204138483	smiling	012	sub-02	1.0	4.0	012_smiling	0.0	300.99710098643027	
36.0	214.20201270748294	pulse	1.0	t		24.0	male	white	3.1153999204138483	smiling	012	sub-02	1.0	4.0	012_smiling	0.0	301.68966307268147	
36.0	214.90198744223562	pulse	1.0	t		24.0	male	white	3.1153999204138483	smiling	012	sub-02	1.0	4.0	012_smiling	0.0	302.38963780743416	
36.0	215.60198662722814	pulse	1.0	t		24.0	male	white	3.1153999204138483	smiling	012	sub-02	1.0	4.0	012_smiling	0.0	303.0896369924267	
36.0	216.30195623044892	pulse	1.0	t		24.0	male	white	3.1153999204138483	smiling	012	sub-02	1.0	4.0	012_smiling	0.0	303.78960659564746	
36.0	217.00194756721612	pulse	1.0	t		24.0	male	white	3.1153999204138483	smiling	012	sub-02	1.0	4.0	012_smiling	0.0	304.48959793241465	
37.0	217.26848173974577	face	0.0		145	25.0	female	west_asian	2.6756864305610826	neutral	064	sub-02	1.0	4.0	064_neutral	0.0	304.7561321049443	1.2333165602676672
37.0	217.70192924462935	pulse	0.0	t		25.0	female	west_asian	2.6756864305610826	neutral	064	sub-02	1.0	4.0	064_neutral	0.0	305.1895796098279	
37.0	218.40188858478632	pulse	0.0	t		25.0	female	west_asian	2.6756864305610826	neutral	064	sub-02	1.0	4.0	064_neutral	0.0	305.88953894998485	
37.0	218.50179830001343	fix	1.0		444	25.0	female	west_asian	2.6756864305610826	neutral	064	sub-02	1.0	4.0	064_neutral	0.0	305.98944866521197	3.766581714662607
37.0	219.10189924026145	pulse	1.0	t		25.0	female	west_asian	2.6756864305610826	neutral	064	sub-02	1.0	4.0	064_neutral	0.0	306.58954960546	
37.0	219.80188423807704	pulse	1.0	t		25.0	female	west_asian	2.6756864305610826	neutral	064	sub-02	1.0	4.0	064_neutral	0.0	307.28953460327557	
37.0	220.5018662173452	pulse	1.0	t		25.0	female	west_asian	2.6756864305610826	neutral	064	sub-02	1.0	4.0	064_neutral	0.0	307.98951658254373	
37.0	221.201869024595	pulse	1.0	t		25.0	female	west_asian	2.6756864305610826	neutral	064	sub-02	1.0	4.0	064_neutral	0.0	308.68951938979353	
37.0	221.90185492797536	pulse	1.0	t		25.0	female	west_asian	2.6756864305610826	neutral	064	sub-02	1.0	4.0	064_neutral	0.0	309.3895052931739	
38.0	222.26838001467604	face	0.0		145	19.0	male	white	2.243931555909272	smiling	130	sub-02	1.0	4.0	130_smiling	0.0	309.7560303798746	1.2333123343005354
38.0	222.60179132716803	pulse	0.0	t		19.0	male	white	2.243931555909272	smiling	130	sub-02	1.0	4.0	130_smiling	0.0	310.08944169236656	
38.0	223.30193147835507	pulse	0.0	t		19.0	male	white	2.243931555909272	smiling	130	sub-02	1.0	4.0	130_smiling	0.0	310.7895818435536	
38.0	223.50169234897658	fix	1.0		444	19.0	male	white	2.243931555909272	smiling	130	sub-02	1.0	4.0	130_smiling	0.0	310.9893427141751	3.7582411644834792
38.0	224.00179633795778	pulse	1.0	t		19.0	male	white	2.243931555909272	smiling	130	sub-02	1.0	4.0	130_smiling	0.0	311.4894467031563	
38.0	224.70177560053253	pulse	1.0	t		19.0	male	white	2.243931555909272	smiling	130	sub-02	1.0	4.0	130_smiling	0.0	312.18942596573106	
38.0	225.40177237068565	pulse	1.0	t		19.0	male	white	2.243931555909272	smiling	130	sub-02	1.0	4.0	130_smiling	0.0	312.8894227358842	
38.0	226.10178695027298	pulse	1.0	t		19.0	male	white	2.243931555909272	smiling	130	sub-02	1.0	4.0	130_smiling	0.0	313.5894373154715	
38.0	226.80173753664076	pulse	1.0	t		19.0	male	white	2.243931555909272	smiling	130	sub-02	1.0	4.0	130_smiling	0.0	314.2893879018393	
39.0	227.25993351346006	face	0.0		146	40.0	male	black	2.408674890569041	smiling	061	sub-02	1.0	4.0	061_smiling	0.0	314.7475838786586	1.2416589215754357
39.0	227.5017116676836	pulse	0.0	t		40.0	male	black	2.408674890569041	smiling	061	sub-02	1.0	4.0	061_smiling	0.0	314.9893620328821	
39.0	228.20173017138404	pulse	0.0	t		40.0	male	black	2.408674890569041	smiling	061	sub-02	1.0	4.0	061_smiling	0.0	315.6893805365826	
39.0	228.5015924350355	fix	1.0		444	40.0	male	black	2.408674890569041	smiling	061	sub-02	1.0	4.0	061_smiling	0.0	315.989242800234	3.749918725592579
39.0	228.9018552298303	pulse	1.0	t		40.0	male	black	2.408674890569041	smiling	061	sub-02	1.0	4.0	061_smiling	0.0	316.3895055950288	
39.0	229.60168054645328	pulse	1.0	t		40.0	male	black	2.408674890569041	smiling	061	sub-02	1.0	4.0	061_smiling	0.0	317.0893309116518	
39.0	230.3016682609632	pulse	1.0	t		40.0	male	black	2.408674890569041	smiling	061	sub-02	1.0	4.0	061_smiling	0.0	317.78931862616173	
39.0	231.00164933466658	pulse	1.0	t		40.0	male	black	2.408674890569041	smiling	061	sub-02	1.0	4.0	061_smiling	0.0	318.4892996998651	
39.0	231.7016231638545	pulse	1.0	t		40.0	male	black	2.408674890569041	smiling	061	sub-02	1.0	4.0	061_smiling	0.0	319.189273529053	
40.0	232.25151116062807	fix	0.0		720												319.7391615258266	5.99987503211014
40.0	232.40163713973197	pulse	0.0	t													319.8892875049305	
40.0	233.10162183569355	pulse	0.0	t													320.5892722008921	
40.0	233.80158751480212	pulse	0.0	t													321.28923788000066	
40.0	234.50159364245428	pulse	0.0	t													321.9892440076528	
40.0	235.20156686793325	pulse	0.0	t													322.6892172331318	
40.0	235.90155035647513	pulse	0.0	t													323.38920072167366	
40.0	236.6015275060663	pulse	0.0	t													324.08917787126484	
40.0	237.30152186138093	pulse	0.0	t													324.78917222657947	
40.0	238.0015014258106	pulse	0.0	t													325.48915179100914	
