trial_nr	onset	event_type	phase	response	nr_frames	trial_type	stim_name	task_probe	onset_abs	duration
0.0	0.05520020333096909	baseline	0.0		41.0		baseline	0.0	101.84673083331836	0.3497753583633312
0.0	0.40497556169430027	ISI	1.0		11.0		baseline	0.0	102.19650619168169	0.09999993962992448
1.0	0.5049755013242248	baseline	0.0		48.0		baseline	0.0	102.29650613131162	0.39999372138299805
1.0	0.7050858600741776	pulse	0.0	t			baseline	0.0	102.49661649006157	
1.0	0.9049692227072228	ISI	1.0		11.0		baseline	0.0	102.69649985269461	0.09999903405878285
2.0	1.0049682567660057	baseline	0.0		48.0		baseline	0.0	102.7964988867534	0.3999765155622299
2.0	1.4049447723282356	ISI	1.0		11.0		baseline	0.0	103.19647540231563	0.0999960154931614
2.0	1.4095019004889764	pulse	1.0	t			baseline	0.0	103.20103253047637	
3.0	1.504940787821397	baseline	0.0		48.0		baseline	0.0	103.29647141780879	0.39999643809278496
3.0	1.904937225914182	ISI	1.0		11.0		baseline	0.0	103.69646785590157	0.09999752477597212
4.0	2.004934750690154	baseline	0.0		48.0		baseline	0.0	103.79646538067755	0.39999311767132895
4.0	2.1050472828083002	pulse	0.0	t			baseline	0.0	103.89657791279569	
4.0	2.404927868361483	ISI	1.0		11.0		baseline	0.0	104.19645849834887	0.09999812848946021
5.0	2.504925996850943	baseline	0.0		48.0		baseline	0.0	104.29645662683834	0.3999949288099742
5.0	2.8050341822345217	pulse	0.0	t			baseline	0.0	104.59656481222191	
5.0	2.9049209256609174	ISI	1.0		11.0		baseline	0.0	104.69645155564831	0.09999692106430302
6.0	3.0049178467252204	baseline	0.0		48.0		baseline	0.0	104.79644847671261	0.3999952306658088
6.0	3.404913077391029	ISI	1.0		11.0		baseline	0.0	105.19644370737842	0.10000054334159358
7.0	3.504913620732623	baseline	0.0		47.0		baseline	0.0	105.29644425072001	0.39999191024617176
7.0	3.509084070668905	pulse	0.0	t			baseline	0.0	105.3006147006563	
7.0	3.9049055309787946	ISI	1.0		11.0		baseline	0.0	105.69643616096619	0.09999782663180667
8.0	4.004903357610601	baseline	0.0		48.0		baseline	0.0	105.796433987598	0.39999311767132895
8.0	4.2050134145047195	pulse	0.0	t			baseline	0.0	105.99654404449211	
8.0	4.40489647528193	ISI	1.0		11.0		baseline	0.0	106.19642710526932	0.0999842430883291
9.0	4.504880718370259	baseline	0.0		48.0		baseline	0.0	106.29641134835765	0.4000085123552708
9.0	4.90488923072553	ISI	1.0		11.0		baseline	0.0	106.69641986071292	0.10000295819372695
9.0	4.909333162684561	pulse	1.0	t			baseline	0.0	106.70086379267195	
10.0	5.004892188919257	baseline	0.0		48.0		baseline	0.0	106.79642281890665	0.39998919353638485
10.0	5.404881382455642	ISI	1.0		11.0		baseline	0.0	107.19641201244303	0.10000144891091622
11.0	5.504882831366558	baseline	0.0		48.0		baseline	0.0	107.29641346135395	0.3999928158136754
11.0	5.605020115719526	pulse	0.0	t			baseline	0.0	107.39655074570692	
11.0	5.9048756471802335	ISI	1.0		5.0		baseline	0.0	107.69640627716763	0.12519077333308815
12.0	6.030066420513322	adult	0.0		45.0	face	adult-29.jpg	0.0	107.82159705050071	0.37475036464275036
12.0	6.304934267720455	pulse	0.0	t		face	adult-29.jpg	0.0	108.09646489770785	
12.0	6.404816785156072	ISI	1.0		7.0	face	adult-29.jpg	0.0	108.19634741514346	0.11668777650083939
13.0	6.521504561656911	adult	0.0		46.0	face	adult-107.jpg	0.0	108.3130351916443	0.38330648822375224
13.0	6.904811049880664	ISI	1.0		5.0	face	adult-107.jpg	0.0	108.69634167986806	0.11667811709230591
14.0	7.0214891669729695	adult	0.0		45.0	face	adult-72.jpg	0.0	108.81301979696036	0.38328837683366146
14.0	7.013352925834624	pulse	0.0	t		face	adult-72.jpg	0.0	108.80488355582202	
14.0	7.404777543806631	ISI	1.0		8.0	face	adult-72.jpg	0.0	109.19630817379402	0.11670890645655163
15.0	7.521486450263183	adult	0.0		46.0	face	adult-136.jpg	0.0	109.31301708025057	0.3833037715176033
15.0	7.70490746285941	pulse	0.0	t		face	adult-136.jpg	0.0	109.4964380928468	
15.0	7.904790221780786	ISI	1.0		8.0	face	adult-136.jpg	0.0	109.69632085176818	0.11669200249161804
16.0	8.021482224272404	adult	0.0		46.0	face	adult-136.jpg	1.0	109.8130128542598	0.38330648822557123
16.0	8.404788712497975	ISI	1.0		6.0	face	adult-136.jpg	1.0	110.19631934248537	0.11668415422172984
16.0	8.447355615980996	pulse	1.0	t		face	adult-136.jpg	1.0	110.23888624596839	
17.0	8.521472866719705	adult	0.0		46.0	face	adult-95.jpg	0.0	110.3130034967071	0.38330799750838196
17.0	8.571561431428563	response	0.0	b		face	adult-95.jpg	0.0	110.36309206141595	
17.0	8.904780864228087	ISI	1.0		7.0	face	adult-95.jpg	0.0	110.69631149421548	0.11668536164870602
18.0	9.021466225876793	adult	0.0		46.0	face	adult-27.jpg	0.0	110.81299685586418	0.38330588451208314
18.0	9.104894543399496	pulse	0.0	t		face	adult-27.jpg	0.0	110.89642517338689	
18.0	9.404772110388876	ISI	1.0		7.0	face	adult-27.jpg	0.0	111.19630274037627	0.11668475793521793
19.0	9.521456868324094	adult	0.0		46.0	face	adult-10.jpg	0.0	111.31298749831149	0.38330860122005106
19.0	9.80487661312145	pulse	0.0	t		face	adult-10.jpg	0.0	111.59640724310884	
19.0	9.904765469544145	ISI	1.0		7.0	face	adult-10.jpg	0.0	111.69629609953154	0.11668536164870602
20.0	10.021450831192851	adult	0.0		46.0	face	adult-78.jpg	0.0	111.81298146118024	0.38330860122005106
20.0	10.404759432412902	ISI	1.0		4.0	face	adult-78.jpg	0.0	112.1962900624003	0.11666815582611889
21.0	10.521427588239021	adult	0.0		45.0	face	adult-123.jpg	0.0	112.31295821822641	0.3833233921905048
21.0	10.513407260012173	pulse	0.0	t		face	adult-123.jpg	0.0	112.30493788999956	
21.0	10.904750980429526	ISI	1.0		7.0	face	adult-123.jpg	0.0	112.69628161041692	0.11668505979287147
22.0	11.021436040222397	adult	0.0		46.0	face	adult-110.jpg	0.0	112.81296667020979	0.3833055826544296
22.0	11.204857656530294	pulse	0.0	t		face	adult-110.jpg	0.0	112.99638828651769	
22.0	11.404741622876827	ISI	1.0		7.0	face	adult-110.jpg	0.0	113.19627225286422	0.11668838021432748
23.0	11.521430003091155	adult	0.0		46.0	face	adult-112.jpg	0.0	113.31296063307855	0.38330407337343786
23.0	11.904734076464592	ISI	1.0		6.0	face	adult-112.jpg	0.0	113.69626470645198	0.11668596536037512
23.0	11.947790289395925	pulse	1.0	t		face	adult-112.jpg	0.0	113.73932091938332	
24.0	12.021420041824967	car	0.0		46.0	object	car-107.jpg	0.0	113.81295067181236	0.38333727759345493
24.0	12.404757319418422	ISI	1.0		5.0	object	car-107.jpg	0.0	114.19628794940581	0.11669139877812995
25.0	12.521448718196552	car	0.0		46.0	object	car-74.jpg	0.0	114.31297934818394	0.3832702654399327
25.0	12.604839907366113	pulse	0.0	t		object	car-74.jpg	0.0	114.3963705373535	
25.0	12.904718983636485	ISI	1.0		7.0	object	car-74.jpg	0.0	114.69624961362388	0.11668566350635956
26.0	13.021404647142845	car	0.0		46.0	object	car-31.jpg	0.0	114.81293527713024	0.38330739379489387
26.0	13.304825599367177	pulse	0.0	t		object	car-31.jpg	0.0	115.09635622935457	
26.0	13.404712040937738	ISI	1.0		7.0	object	car-31.jpg	0.0	115.19624267092513	0.11668838021250849
27.0	13.521400421150247	car	0.0		46.0	object	car-90.jpg	0.0	115.31293105113764	0.38330346965994977
27.0	13.904703890810197	ISI	1.0		8.0	object	car-90.jpg	0.0	115.69623452079759	0.11666875953960698
28.0	14.021372650349804	car	0.0		45.0	object	car-109.jpg	0.0	115.8129032803372	0.3833239959039929
28.0	14.013467933176798	pulse	0.0	t		object	car-109.jpg	0.0	115.80499856316419	
28.0	14.404696646253797	ISI	1.0		7.0	object	car-109.jpg	0.0	116.19622727624119	0.11668566350454057
29.0	14.521382309758337	car	0.0		46.0	object	car-143.jpg	0.0	116.31291293974573	0.3833061863679177
29.0	14.704803926068053	pulse	0.0	t		object	car-143.jpg	0.0	116.49633455605544	
29.0	14.904688496126255	ISI	1.0		6.0	object	car-143.jpg	0.0	116.69621912611365	0.11668747464500484
30.0	15.02137597077126	car	0.0		46.0	object	car-101.jpg	0.0	116.81290660075865	0.38330648822557123
30.0	15.404682458996831	ISI	1.0		7.0	object	car-101.jpg	0.0	117.19621308898422	0.11668566350454057
30.0	15.436994692154258	pulse	1.0	t		object	car-101.jpg	0.0	117.22852532214165	
31.0	15.521368122501372	car	0.0		46.0	object	car-101.jpg	1.0	117.31289875248876	0.3833061863679177
31.0	15.90467430886929	ISI	1.0		7.0	object	car-101.jpg	1.0	117.69620493885668	0.11668445607938338
32.0	16.021358764948673	car	0.0		46.0	object	car-54.jpg	0.0	117.81288939493606	0.3833076956507284
32.0	16.10478376204992	pulse	0.0	t		object	car-54.jpg	0.0	117.89631439203731	
32.0	16.12975092005945	response	0.0	b		object	car-54.jpg	0.0	117.92128155004684	
32.0	16.4046664605994	ISI	1.0		8.0	object	car-54.jpg	0.0	118.1961970905868	0.11668988949713821
33.0	16.52135635009654	car	0.0		46.0	object	car-110.jpg	0.0	118.31288698008393	0.3833010548059974
33.0	16.804773680041762	pulse	0.0	t		object	car-110.jpg	0.0	118.59630431002915	
33.0	16.904657404902537	ISI	1.0		7.0	object	car-110.jpg	0.0	118.69618803488993	0.11668928578365012
34.0	17.021346690686187	car	0.0		46.0	object	car-88.jpg	0.0	118.81287732067358	0.38330467708692595
34.0	17.404651367773113	ISI	1.0		8.0	object	car-88.jpg	0.0	119.1961819977605	0.11668083380027383
35.0	17.521332201573387	car	0.0		45.0	object	car-33.jpg	0.0	119.31286283156078	0.3833116197856725
35.0	17.51422287637979	pulse	0.0	t		object	car-33.jpg	0.0	119.30575350636718	
35.0	17.90464382135906	ISI	1.0		5.0	object	car-33.jpg	0.0	119.69617445134645	0.11667570223835355
36.0	18.021319523597413	body	0.0		46.0	body	body-116.jpg	0.0	119.8128501535848	0.38331826063040353
36.0	18.20475140302915	pulse	0.0	t		body	body-116.jpg	0.0	119.99628203301654	
36.0	18.404637784227816	ISI	1.0		6.0	body	body-116.jpg	0.0	120.19616841421521	0.11668868207016203
37.0	18.521326466297978	body	0.0		46.0	body	body-8.jpg	0.0	120.31285709628537	0.3833324478873692
37.0	18.904658914185347	ISI	1.0		7.0	body	body-8.jpg	0.0	120.69618954417274	0.11668445607938338
37.0	18.939485914166653	pulse	1.0	t		body	body-8.jpg	0.0	120.73101654415404	
38.0	19.02134337026473	body	0.0		46.0	body	body-107.jpg	0.0	120.81287400025212	0.383278717423309
38.0	19.40462208768804	ISI	1.0		7.0	body	body-107.jpg	0.0	121.19615271767543	0.11668566350454057
39.0	19.52130775119258	body	0.0		46.0	body	body-30.jpg	0.0	121.31283838117997	0.38330467708692595
39.0	19.60472791859138	pulse	0.0	t		body	body-30.jpg	0.0	121.39625854857877	
39.0	19.904612428279506	ISI	1.0		7.0	body	body-30.jpg	0.0	121.6961430582669	0.1166989451921836
40.0	20.02131137347169	body	0.0		46.0	body	body-103.jpg	0.0	121.81284200345908	0.3832938102514163
40.0	20.304721458860513	pulse	0.0	t		body	body-103.jpg	0.0	122.0962520888479	
40.0	20.404605183723106	ISI	1.0		6.0	body	body-103.jpg	0.0	122.1961358137105	0.11668566350454057
41.0	20.521290847227647	body	0.0		46.0	body	body-56.jpg	0.0	122.31282147721504	0.38330799750656297
41.0	20.90459884473421	ISI	1.0		7.0	body	body-56.jpg	0.0	122.6961294747216	0.11667841894814046
42.0	21.02127726368235	body	0.0		45.0	body	body-20.jpg	0.0	122.81280789366974	0.38331433649545943
42.0	21.014980234434915	pulse	0.0	t		body	body-20.jpg	0.0	122.80651086442231	
42.0	21.40459160017781	ISI	1.0		6.0	body	body-20.jpg	0.0	123.1961222301652	0.11668475793521793
43.0	21.521276358113028	body	0.0		46.0	body	body-128.jpg	0.0	123.31280698810042	0.38330528079859505
43.0	21.704696766995767	pulse	0.0	t		body	body-128.jpg	0.0	123.49622739698316	
43.0	21.904581638911623	ISI	1.0		8.0	body	body-128.jpg	0.0	123.69611226889901	0.11668868207016203
44.0	22.021270320981785	body	0.0		46.0	body	body-128.jpg	1.0	123.81280095096918	0.3832950176765735
44.0	22.404565338658358	ISI	1.0		4.0	body	body-128.jpg	1.0	124.19609596864575	0.11669532291489304
44.0	22.46157939793011	pulse	1.0	t		body	body-128.jpg	1.0	124.2531100279175	
44.0	22.461748739448012	response	1.0	b		body	body-128.jpg	1.0	124.2532793694354	
45.0	22.52126066157325	body	0.0		46.0	body	body-41.jpg	0.0	124.31279129156064	0.3833067900814058
45.0	22.904567451654657	ISI	1.0		6.0	body	body-41.jpg	0.0	124.69609808164205	0.1166871727873513
46.0	23.021254624442008	body	0.0		46.0	body	body-115.jpg	0.0	124.8127852544294	0.3833049789427605
46.0	23.104679621545074	pulse	0.0	t		body	body-115.jpg	0.0	124.89621025153247	
46.0	23.40455960338477	ISI	1.0		7.0	body	body-115.jpg	0.0	125.19609023337216	0.11668747464500484
47.0	23.521247078029774	body	0.0		46.0	body	body-80.jpg	0.0	125.31277770801717	0.38330407337161887
47.0	23.804678293376128	pulse	0.0	t		body	body-80.jpg	0.0	125.59620892336352	
47.0	23.904551151401392	ISI	1.0		6.0	body	body-80.jpg	0.0	125.69608178138878	0.1166871727873513
48.0	24.021238324188744	car	0.0		46.0	object	car-95.jpg	0.0	125.81276895417614	0.38329018797230674
48.0	24.40452851216105	ISI	1.0		7.0	object	car-95.jpg	0.0	126.19605914214844	0.11669562477072759
49.0	24.521224136931778	car	0.0		45.0	object	car-139.jpg	0.0	126.31275476691917	0.3833140346396249
49.0	24.51330462878832	pulse	0.0	t		object	car-139.jpg	0.0	126.30483525877571	
49.0	24.904538171571403	ISI	1.0		7.0	object	car-139.jpg	0.0	126.6960688015588	0.11668143751194293
50.0	25.021219609083346	car	0.0		46.0	object	car-136.jpg	0.0	126.81275023907074	0.3833402961572574
50.0	25.20467593889407	pulse	0.0	t		object	car-136.jpg	0.0	126.99620656888146	
50.0	25.404559905240603	ISI	1.0		7.0	object	car-136.jpg	0.0	127.196090535228	0.11668958764130366
51.0	25.521249492881907	car	0.0		46.0	object	car-108.jpg	0.0	127.3127801228693	0.3832708691534208
51.0	25.904520362035328	ISI	1.0		7.0	object	car-108.jpg	0.0	127.69605099202272	0.11668807835667394
51.0	25.94481579506646	pulse	1.0	t		object	car-108.jpg	0.0	127.73634642505385	
52.0	26.021208440392	car	0.0		46.0	object	car-117.jpg	0.0	127.8127390703794	0.3833055826562486
52.0	26.40451402304825	ISI	1.0		7.0	object	car-117.jpg	0.0	128.19604465303564	0.1166871727873513
53.0	26.5212011958356	car	0.0		46.0	object	car-133.jpg	0.0	128.312731825823	0.38330709193724033
53.0	26.604626796650336	pulse	0.0	t		object	car-133.jpg	0.0	128.39615742663773	
53.0	26.904508287772842	ISI	1.0		6.0	object	car-133.jpg	0.0	128.69603891776023	0.11668958764130366
54.0	27.021197875414146	car	0.0		46.0	object	car-27.jpg	0.0	128.81272850540154	0.38330075295016286
54.0	27.304613997932393	pulse	0.0	t		object	car-27.jpg	0.0	129.09614462791978	
54.0	27.40449862836431	ISI	1.0		5.0	object	car-27.jpg	0.0	129.1960292583517	0.1166989451921836
55.0	27.521197573556492	car	0.0		46.0	object	car-64.jpg	0.0	129.31272820354388	0.3832714728669089
55.0	27.9044690464234	ISI	1.0		7.0	object	car-64.jpg	0.0	129.6959996764108	0.11670317118478124
56.0	28.021172217608182	car	0.0		45.0	object	car-64.jpg	1.0	129.81270284759557	0.38331192164150707
56.0	28.01516255578281	pulse	0.0	t		object	car-64.jpg	1.0	129.8066931857702	
56.0	28.40448413924969	ISI	1.0		7.0	object	car-64.jpg	1.0	130.19601476923708	0.11668445607938338
57.0	28.521168595329073	car	0.0		46.0	object	car-132.jpg	0.0	130.31269922531646	0.38330799750838196
57.0	28.57126289531152	response	0.0	b		object	car-132.jpg	0.0	130.3627935252989	
57.0	28.704560025984392	pulse	0.0	t		object	car-132.jpg	0.0	130.49609065597178	
57.0	28.904476592837455	ISI	1.0		5.0	object	car-132.jpg	0.0	130.69600722282485	0.11668687092969776
58.0	29.021163463767152	car	0.0		46.0	object	car-13.jpg	0.0	130.81269409375454	0.38330679008322477
58.0	29.404470253850377	ISI	1.0		7.0	object	car-13.jpg	0.0	131.19600088383777	0.11668566350454057
58.0	29.438175253077134	pulse	1.0	t		object	car-13.jpg	0.0	131.22970588306453	
59.0	29.521155917354918	car	0.0		46.0	object	car-122.jpg	0.0	131.3126865473423	0.3833061863679177
59.0	29.904462103722835	ISI	1.0		7.0	object	car-122.jpg	0.0	131.69599273371023	0.11668536164870602
60.0	30.02114746537154	car	0.0		46.0	object	car-123.jpg	0.0	131.81267809535893	0.38330588451208314
60.0	30.104570651334143	pulse	0.0	t		object	car-123.jpg	0.0	131.89610128132153	
60.0	30.404453349883624	ISI	1.0		7.0	object	car-123.jpg	0.0	132.19598397987102	0.1166871727873513
61.0	30.521140522670976	car	0.0		46.0	object	car-53.jpg	0.0	132.31267115265837	0.3833061863679177
61.0	30.804559060043175	pulse	0.0	t		object	car-53.jpg	0.0	132.59608969003057	
61.0	30.904446709038893	ISI	1.0		7.0	object	car-53.jpg	0.0	132.69597733902629	0.11668505979287147
62.0	31.021131768831765	car	0.0		46.0	object	car-129.jpg	0.0	132.81266239881916	0.3833067900814058
62.0	31.40443855891317	ISI	1.0		7.0	object	car-129.jpg	0.0	133.19596918890056	0.11668173936959647
63.0	31.521120298282767	car	0.0		45.0	object	car-38.jpg	0.0	133.31265092827016	0.38334059801491094
63.0	31.51036394239236	pulse	0.0	t		object	car-38.jpg	0.0	133.30189457237975	
63.0	31.904460896297678	ISI	1.0		7.0	object	car-38.jpg	0.0	133.69599152628507	0.11667238181689754
64.0	32.021133278114576	car	0.0		46.0	object	car-70.jpg	0.0	133.81266390810197	0.38332158105185954
64.0	32.20457210024506	pulse	0.0	t		object	car-70.jpg	0.0	133.99610273023245	
64.0	32.404454859166435	ISI	1.0		6.0	object	car-70.jpg	0.0	134.19598548915383	0.11668988949531922
65.0	32.521144748661754	car	0.0		46.0	object	car-32.jpg	0.0	134.31267537864915	0.38330346965994977
65.0	32.904448218321704	ISI	1.0		4.0	object	car-32.jpg	0.0	134.6959788483091	0.116675400382519
65.0	32.965631821958596	pulse	1.0	t		object	car-32.jpg	0.0	134.757162451946	
66.0	33.02112361870422	car	0.0		46.0	object	car-21.jpg	0.0	134.81265424869162	0.3833167513475928
66.0	33.404440370051816	ISI	1.0		6.0	object	car-21.jpg	0.0	135.1959710000392	0.11668898392781557
67.0	33.52112935397963	car	0.0		46.0	object	car-41.jpg	0.0	135.31265998396702	0.3833016585194855
67.0	33.60454952137661	pulse	0.0	t		object	car-41.jpg	0.0	135.396080151364	
67.0	33.90443101249912	ISI	1.0		6.0	object	car-41.jpg	0.0	135.6959616424865	0.1166904932106263
68.0	34.02112150570974	car	0.0		46.0	object	car-67.jpg	0.0	135.81265213569714	0.3833022622329736
68.0	34.304543061645745	pulse	0.0	t		object	car-67.jpg	0.0	136.09607369163314	
68.0	34.40442376794272	ISI	1.0		6.0	object	car-67.jpg	0.0	136.1959543979301	0.11668838021432748
69.0	34.521112148157044	car	0.0		46.0	object	car-44.jpg	0.0	136.31264277814444	0.3833037715157843
69.0	34.90441591967283	ISI	1.0		6.0	object	car-44.jpg	0.0	136.69594654966022	0.11668415422172984
70.0	35.02110007389456	car	0.0		45.0	object	car-126.jpg	0.0	136.81263070388195	0.38330920493353915
70.0	35.009992658850024	pulse	0.0	t		object	car-126.jpg	0.0	136.80152328883742	
70.0	35.4044092788281	ISI	1.0		6.0	object	car-126.jpg	0.0	137.1959399088155	0.11669290806275967
71.0	35.52110218689086	car	0.0		46.0	object	car-87.jpg	0.0	137.31263281687825	0.38329954552500567
71.0	35.704517464211676	pulse	0.0	t		object	car-87.jpg	0.0	137.49604809419907	
71.0	35.90440173241586	ISI	1.0		11.0	object	car-87.jpg	0.0	137.69593236240325	0.10003646426957857
72.0	36.00443819668544	baseline	0.0		48.0		baseline	0.0	137.79596882667283	0.3999922121001873
72.0	36.40443040878563	ISI	1.0		11.0		baseline	0.0	138.19596103877302	0.1000183528776688
72.0	36.40893923990188	pulse	1.0	t			baseline	0.0	138.20046986988928	
73.0	36.5044487616633	baseline	0.0		48.0		baseline	0.0	138.2959793916507	0.39997621370639536
73.0	36.90442497536969	ISI	1.0		11.0		baseline	0.0	138.69595560535709	0.09999812848946021
74.0	37.00442310385915	baseline	0.0		48.0		baseline	0.0	138.79595373384655	0.3999967399486195
74.0	37.10453261740986	pulse	0.0	t			baseline	0.0	138.89606324739725	
74.0	37.40441984380777	ISI	1.0		11.0		baseline	0.0	139.19595047379516	0.0999960154931614
75.0	37.504415859300934	baseline	0.0		48.0		baseline	0.0	139.29594648928833	0.3999961362369504
75.0	37.804521931688214	pulse	0.0	t			baseline	0.0	139.5960525616756	
75.0	37.904411995537885	ISI	1.0		11.0		baseline	0.0	139.69594262552528	0.09999420435451611
76.0	38.0044061998924	baseline	0.0		48.0		baseline	0.0	139.7959368298798	0.3999955325234623
76.0	38.40440173241586	ISI	1.0		11.0		baseline	0.0	140.19593236240325	0.09999752477597212
77.0	38.504399257191835	baseline	0.0		47.0		baseline	0.0	140.29592988717923	0.3999940232406516
77.0	38.508576649826864	pulse	0.0	t			baseline	0.0	140.30010727981426	
77.0	38.90439328043249	ISI	1.0		11.0		baseline	0.0	140.69592391041988	0.0999987322029483
78.0	39.004392012635435	baseline	0.0		48.0		baseline	0.0	140.79592264262283	0.3999934195271635
78.0	39.2045017676719	pulse	0.0	t			baseline	0.0	140.9960323976593	
78.0	39.4043854321626	ISI	1.0		11.0		baseline	0.0	141.19591606215	0.10000114705508167
79.0	39.50438657921768	baseline	0.0		48.0		baseline	0.0	141.29591720920507	0.3999928158136754
79.0	39.904379395031356	ISI	1.0		11.0		baseline	0.0	141.69591002501875	0.10001382502923661
79.0	39.90887373703299	pulse	1.0	t			baseline	0.0	141.70040436702038	
80.0	40.00439322006059	baseline	0.0		48.0		baseline	0.0	141.79592385004798	0.3999792322701978
80.0	40.40437245233079	ISI	1.0		11.0		baseline	0.0	142.19590308231818	0.09999812848946021
81.0	40.50437058082025	baseline	0.0		48.0		baseline	0.0	142.29590121080764	0.39999251395784086
81.0	40.6044831129384	pulse	0.0	t			baseline	0.0	142.3960137429258	
81.0	40.90436309477809	ISI	1.0		11.0		baseline	0.0	142.69589372476548	0.09999993962992448
82.0	41.004363034408016	baseline	0.0		48.0		baseline	0.0	142.7958936643954	0.4000012677970517
82.0	41.30446850308181	pulse	0.0	t			baseline	0.0	143.0959991330692	
82.0	41.40436430220507	ISI	1.0		11.0		baseline	0.0	143.19589493219246	0.09997096140068606
83.0	41.50433526360575	baseline	0.0		48.0		baseline	0.0	143.29586589359315	0.4000051919319958
83.0	41.90434045553775	ISI	1.0		4.0		baseline	0.0	143.69587108552514	0.11665457228082232
84.0	42.02099502781857	house	0.0		45.0	place	house-128.jpg	0.0	143.81252565780596	0.38330860122187005
84.0	42.0112900382519	pulse	0.0	t		place	house-128.jpg	0.0	143.8028206682393	
84.0	42.40430362904044	ISI	1.0		6.0	place	house-128.jpg	0.0	144.19583425902783	0.11669019135297276
85.0	42.520993820393414	house	0.0		46.0	place	house-12.jpg	0.0	144.3125244503808	0.3832696617264446
85.0	42.704379515773326	pulse	0.0	t		place	house-12.jpg	0.0	144.49591014576072	
85.0	42.90426348211986	ISI	1.0		4.0	place	house-12.jpg	0.0	144.69579411210725	0.11668505979287147
86.0	43.02094854191273	house	0.0		46.0	place	house-49.jpg	0.0	144.81247917190012	0.38330709193724033
86.0	43.40425563384997	ISI	1.0		7.0	place	house-49.jpg	0.0	145.19578626383736	0.11668747464500484
86.0	43.44367145692922	pulse	1.0	t		place	house-49.jpg	0.0	145.23520208691662	
87.0	43.520943108494976	house	0.0		46.0	place	house-141.jpg	0.0	145.31247373848237	0.38330739379489387
87.0	43.90425050228987	ISI	1.0		7.0	place	house-141.jpg	0.0	145.69578113227726	0.11668475793521793
88.0	44.02093526022509	house	0.0		46.0	place	house-82.jpg	0.0	145.81246589021248	0.38330467708510696
88.0	44.104364785174766	pulse	0.0	t		place	house-82.jpg	0.0	145.89589541516216	
88.0	44.404239937310194	ISI	1.0		7.0	place	house-82.jpg	0.0	146.1957705672976	0.11668777650083939
89.0	44.520927713811034	house	0.0		46.0	place	house-81.jpg	0.0	146.31245834379843	0.38330739379489387
89.0	44.804350779031665	pulse	0.0	t		place	house-81.jpg	0.0	146.59588140901906	
89.0	44.90423510760593	ISI	1.0		8.0	place	house-81.jpg	0.0	146.69576573759332	0.1166832486524072
90.0	45.020918356258335	house	0.0		46.0	place	house-81.jpg	1.0	146.81244898624573	0.3833089030777046
90.0	45.40422725933604	ISI	1.0		7.0	place	house-81.jpg	1.0	147.19575788932343	0.11667872080397501
90.0	45.444065681567736	response	1.0	b		place	house-81.jpg	1.0	147.23559631155513	
91.0	45.520905980140014	house	0.0		45.0	place	house-96.jpg	0.0	147.3124366101274	0.3833122234991606
91.0	45.512993716554774	pulse	0.0	t		place	house-96.jpg	0.0	147.30452434654217	
91.0	45.904218203639175	ISI	1.0		7.0	place	house-96.jpg	0.0	147.69574883362657	0.1166793245174631
92.0	46.02089752815664	house	0.0		46.0	place	house-31.jpg	0.0	147.81242815814403	0.3833122235009796
92.0	46.20435748024647	pulse	0.0	t		place	house-31.jpg	0.0	147.99588811023386	
92.0	46.40420975165762	ISI	1.0		7.0	place	house-31.jpg	0.0	148.195740381645	0.11668596536037512
93.0	46.52089571701799	house	0.0		46.0	place	house-53.jpg	0.0	148.31242634700538	0.38330588451208314
93.0	46.904201601530076	ISI	1.0		7.0	place	house-53.jpg	0.0	148.69573223151747	0.11669049320880731
93.0	46.94106915171142	pulse	1.0	t		place	house-53.jpg	0.0	148.7325997816988	
94.0	47.02089209473888	house	0.0		46.0	place	house-122.jpg	0.0	148.81242272472628	0.38330196037713904
94.0	47.40419405511602	ISI	1.0		8.0	place	house-122.jpg	0.0	149.19572468510341	0.11668717278917029
95.0	47.52088122790519	house	0.0		46.0	place	house-125.jpg	0.0	149.31241185789258	0.38330648822375224
95.0	47.60430924357206	pulse	0.0	t		place	house-125.jpg	0.0	149.39583987355945	
95.0	47.904187716128945	ISI	1.0		11.0	place	house-125.jpg	0.0	149.69571834611634	0.09999782663362566
96.0	48.00418554276257	baseline	0.0		48.0		baseline	0.0	149.79571617274996	0.39999824923143024
96.0	48.304294935571306	pulse	0.0	t			baseline	0.0	150.0958255655587	
96.0	48.404183791994	ISI	1.0		11.0		baseline	0.0	150.1957144219814	0.09999450621216965
97.0	48.50417829820617	baseline	0.0		48.0		baseline	0.0	150.29570892819356	0.40006254467334657
97.0	48.90424084287952	ISI	1.0		11.0		baseline	0.0	150.6957714728669	0.0999993359164364
98.0	49.00424017879595	baseline	0.0		47.0		baseline	0.0	150.79577080878335	0.3999949288099742
98.0	49.008561557000576	pulse	0.0	t			baseline	0.0	150.80009218698797	
98.0	49.40423510760593	ISI	1.0		11.0		baseline	0.0	151.19576573759332	0.09999722292013757
99.0	49.504232330526065	baseline	0.0		48.0		baseline	0.0	151.29576296051346	0.39999311767132895
99.0	49.70434117999321	pulse	0.0	t			baseline	0.0	151.4958718099806	
99.0	49.904225448197394	ISI	1.0		11.0		baseline	0.0	151.6957560781848	0.09999903405878285
100.0	50.00422448225618	baseline	0.0		48.0		baseline	0.0	151.79575511224357	0.39999583437929687
100.0	50.404220316635474	ISI	1.0		11.0		baseline	0.0	152.19575094662287	0.09999843034711375
100.0	50.40880340445983	pulse	1.0	t			baseline	0.0	152.20033403444722	
101.0	50.50421874698259	baseline	0.0		48.0		baseline	0.0	152.29574937696998	0.39999372138299805
101.0	50.904212468365586	ISI	1.0		11.0		baseline	0.0	152.69574309835298	0.09999752477597212
102.0	51.00420999314156	baseline	0.0		48.0		baseline	0.0	152.79574062312895	0.3999961362369504
102.0	51.10431196028003	pulse	0.0	t			baseline	0.0	152.89584259026742	
102.0	51.40420612937851	ISI	1.0		11.0		baseline	0.0	153.1957367593659	0.09999510992383875
103.0	51.50420123930235	baseline	0.0		48.0		baseline	0.0	153.29573186928974	0.3999955325234623
103.0	51.80431395253436	pulse	0.0	t			baseline	0.0	153.59584458252175	
103.0	51.90419677182581	ISI	1.0		11.0		baseline	0.0	153.6957274018132	0.0999999396281055
104.0	52.004196711453915	baseline	0.0		48.0		baseline	0.0	153.7957273414413	0.3999934195271635
104.0	52.40419013098108	ISI	1.0		11.0		baseline	0.0	154.19572076096847	0.0999993359164364
105.0	52.504189466897515	baseline	0.0		47.0		baseline	0.0	154.2957200968849	0.3999916083885182
105.0	52.50843145683211	pulse	0.0	t			baseline	0.0	154.2999620868195	
105.0	52.90418107528603	ISI	1.0		11.0		baseline	0.0	154.69571170527342	0.09999843034529476
106.0	53.00417950563133	baseline	0.0		48.0		baseline	0.0	154.79571013561872	0.39999704180627305
106.0	53.2042928829469	pulse	0.0	t			baseline	0.0	154.9958235129343	
106.0	53.4041765474376	ISI	1.0		11.0		baseline	0.0	155.195707177425	0.09999571363732684
107.0	53.50417226107493	baseline	0.0		48.0		baseline	0.0	155.29570289106232	0.3999949288099742
107.0	53.9041671898849	ISI	1.0		6.0		baseline	0.0	155.6956978198723	0.11665034629004367
107.0	53.946111665185526	pulse	1.0	t			baseline	0.0	155.73764229517292	
108.0	54.020817536174945	adult	0.0		46.0	face	adult-87.jpg	0.0	155.81234816616234	0.38327117100925534
108.0	54.4040887071842	ISI	1.0		7.0	face	adult-87.jpg	0.0	156.1956193371716	0.11668626721802866
109.0	54.52077497440223	adult	0.0		46.0	face	adult-41.jpg	0.0	156.31230560438962	0.38330588451208314
109.0	54.60419906593597	pulse	0.0	t		face	adult-41.jpg	0.0	156.39572969592336	
109.0	54.90408085891431	ISI	1.0		7.0	face	adult-41.jpg	0.0	156.6956114889017	0.11668626721802866
110.0	55.02076712613234	adult	0.0		46.0	face	adult-114.jpg	0.0	156.81229775611973	0.38330588451208314
110.0	55.30418838021433	pulse	0.0	t		face	adult-114.jpg	0.0	157.09571901020172	
110.0	55.404073010644424	ISI	1.0		7.0	face	adult-114.jpg	0.0	157.19560364063182	0.11668928578365012
111.0	55.520762296428074	adult	0.0		46.0	face	adult-68.jpg	0.0	157.31229292641547	0.38330528079859505
111.0	55.90406757722667	ISI	1.0		6.0	face	adult-68.jpg	0.0	157.69559820721406	0.11667751337881782
112.0	56.02074509060549	adult	0.0		45.0	face	adult-26.jpg	0.0	157.81227572059288	0.38331373278197134
112.0	56.0122194545329	pulse	0.0	t		face	adult-26.jpg	0.0	157.8037500845203	
112.0	56.40405882338746	ISI	1.0		7.0	face	adult-26.jpg	0.0	158.19558945337485	0.11668626721802866
113.0	56.52074509060549	adult	0.0		46.0	face	adult-30.jpg	0.0	158.31227572059288	0.38330648822557123
113.0	56.7041667069152	pulse	0.0	t		face	adult-30.jpg	0.0	158.4956973369026	
113.0	56.90405157883106	ISI	1.0		7.0	face	adult-30.jpg	0.0	158.69558220881845	0.11668355050824175
114.0	57.0207351293393	adult	0.0		46.0	face	adult-44.jpg	0.0	158.8122657593267	0.38330980864702724
114.0	57.40404493798633	ISI	1.0		7.0	face	adult-44.jpg	0.0	159.19557556797372	0.11668445607938338
114.0	57.44127199930517	pulse	1.0	t		face	adult-44.jpg	0.0	159.23280262929256	
115.0	57.52072939406571	adult	0.0		46.0	face	adult-116.jpg	0.0	159.3122600240531	0.38330709193724033
115.0	57.90403648600295	ISI	1.0		6.0	face	adult-116.jpg	0.0	159.69556711599034	0.11668596536219411
116.0	58.020722451365145	adult	0.0		46.0	face	adult-75.jpg	0.0	159.81225308135254	0.38328898054533056
116.0	58.10413145007078	pulse	0.0	t		face	adult-75.jpg	0.0	159.89566208005817	
116.0	58.404011431910476	ISI	1.0		5.0	face	adult-75.jpg	0.0	160.19554206189787	0.10836830844527867
117.0	58.512379740355755	adult	0.0		47.0	face	adult-79.jpg	0.0	160.30391037034315	0.39164225653439644
117.0	58.8041370646024	pulse	0.0	t		face	adult-79.jpg	0.0	160.5956676945898	
117.0	58.90402199689015	ISI	1.0		4.0	face	adult-79.jpg	0.0	160.69555262687754	0.11668838021432748
118.0	59.02071037710448	adult	0.0		46.0	face	adult-62.jpg	0.0	160.81224100709187	0.38330256408880814
118.0	59.40401294119329	ISI	1.0		6.0	face	adult-62.jpg	0.0	161.19554357118068	0.10834566920493671
119.0	59.51235861039822	adult	0.0		46.0	face	adult-102.jpg	0.0	161.30388924038562	0.39164738809449773
119.0	59.50756814713168	pulse	0.0	t		face	adult-102.jpg	0.0	161.29909877711907	
119.0	59.90400599849272	ISI	1.0		6.0	face	adult-102.jpg	0.0	161.6955366284801	0.108354121188313
120.0	60.012360119681034	house	0.0		47.0	place	house-18.jpg	0.0	161.80389074966843	0.3916694236231706
120.0	60.20414557695767	pulse	0.0	t		place	house-18.jpg	0.0	161.99567620694506	
120.0	60.404029543304205	ISI	1.0		5.0	place	house-18.jpg	0.0	162.1955601732916	0.11668838021250849
121.0	60.52071792351671	house	0.0		46.0	place	house-133.jpg	0.0	162.3122485535041	0.3833028659464617
121.0	60.904020789463175	ISI	1.0		4.0	place	house-133.jpg	0.0	162.69555141945057	0.11669139877994894
121.0	60.96749367308803	pulse	1.0	t		place	house-133.jpg	0.0	162.75902430307542	
122.0	61.020712188243124	house	0.0		46.0	place	house-67.jpg	0.0	162.81224281823052	0.38330135666365095
122.0	61.404013544906775	ISI	1.0		7.0	place	house-67.jpg	0.0	163.19554417489417	0.11670407675410388
123.0	61.52071762166088	house	0.0		46.0	place	house-67.jpg	1.0	163.31224825164827	0.38328837683184247
123.0	61.60412601665303	pulse	0.0	t		place	house-67.jpg	1.0	163.39565664664042	
123.0	61.90400599849272	ISI	1.0		5.0	place	house-67.jpg	1.0	163.6955366284801	0.11668687093151675
124.0	62.02069286942424	house	0.0		46.0	place	house-16.jpg	0.0	163.81222349941163	0.38330739379489387
124.0	62.304112010509925	pulse	0.0	t		place	house-16.jpg	0.0	164.09564264049732	
124.0	62.40400026321913	ISI	1.0		6.0	place	house-16.jpg	0.0	164.19553089320652	0.11668807835667394
125.0	62.520688341575806	house	0.0		46.0	place	house-92.jpg	0.0	164.3122189715632	0.3832714728669089
125.0	62.903959814442715	ISI	1.0		6.0	place	house-92.jpg	0.0	164.6954904444301	0.11667841894814046
126.0	63.020638233390855	house	0.0		45.0	place	house-80.jpg	0.0	164.81216886337825	0.3833167513475928
126.0	63.012298540947086	pulse	0.0	t		place	house-80.jpg	0.0	164.80382917093448	
126.0	63.23740201736837	response	0.0	b		place	house-80.jpg	0.0	165.02893264735576	
126.0	63.40395498473845	ISI	1.0		4.0	place	house-80.jpg	0.0	165.19548561472584	0.11668234308308456
127.0	63.52063732782153	house	0.0		46.0	place	house-57.jpg	0.0	165.31216795780892	0.38330860122005106
127.0	63.70406105712573	pulse	0.0	t		place	house-57.jpg	0.0	165.49559168711312	
127.0	63.90394592904158	ISI	1.0		7.0	place	house-57.jpg	0.0	165.69547655902898	0.11668536164870602
128.0	64.02063129069029	house	0.0		46.0	place	house-93.jpg	0.0	165.81216192067768	0.38330588451208314
128.0	64.40393717520237	ISI	1.0		6.0	place	house-93.jpg	0.0	166.19546780518976	0.11668475793521793
128.0	64.445149648398	pulse	1.0	t		place	house-93.jpg	0.0	166.2366802783854	
129.0	64.52062193313759	house	0.0		46.0	place	house-40.jpg	0.0	166.31215256312498	0.3833070919390593
129.0	64.90392902507665	ISI	1.0		7.0	place	house-40.jpg	0.0	166.69545965506404	0.11668747464318585
130.0	65.02061649971984	house	0.0		46.0	place	house-7.jpg	0.0	166.81214712970723	0.38330346965994977
130.0	65.10403998754009	pulse	0.0	t		place	house-7.jpg	0.0	166.89557061752748	
130.0	65.40391996937979	ISI	1.0		7.0	place	house-7.jpg	0.0	167.19545059936718	0.11668868207016203
131.0	65.52060865144995	house	0.0		46.0	place	house-140.jpg	0.0	167.31213928143734	0.38330648822557123
131.0	65.80402507582585	pulse	0.0	t		place	house-140.jpg	0.0	167.59555570581324	
131.0	65.90391513967552	ISI	1.0		7.0	place	house-140.jpg	0.0	167.6954457696629	0.11668626721802866
132.0	66.02060140689355	adult	0.0		46.0	face	adult-67.jpg	0.0	167.81213203688094	0.3833049789427605
132.0	66.40390638583631	ISI	1.0		6.0	face	adult-67.jpg	0.0	168.1954370158237	0.1166799282291322
133.0	66.52058631406544	adult	0.0		45.0	face	adult-125.jpg	0.0	168.31211694405283	0.3833128272126487
133.0	66.51117291791525	pulse	0.0	t		face	adult-125.jpg	0.0	168.30270354790264	
133.0	66.90389914127809	ISI	1.0		7.0	face	adult-125.jpg	0.0	168.69542977126548	0.11668445607938338
134.0	67.02058359735747	adult	0.0		46.0	face	adult-108.jpg	0.0	168.81211422734486	0.38330860122187005
134.0	67.2040097415138	pulse	0.0	t		face	adult-108.jpg	0.0	168.9955403715012	
134.0	67.40389219857934	ISI	1.0		7.0	face	adult-108.jpg	0.0	169.19542282856673	0.1167028693271277
135.0	67.52059506790647	adult	0.0		46.0	face	adult-53.jpg	0.0	169.31212569789386	0.38328747126251983
135.0	67.90388253916899	ISI	1.0		7.0	face	adult-53.jpg	0.0	169.69541316915638	0.11668566350454057
135.0	67.9438248000497	pulse	1.0	t		face	adult-53.jpg	0.0	169.7353554300371	
136.0	68.02056820267353	adult	0.0		46.0	face	adult-11.jpg	0.0	169.81209883266092	0.38330799750838196
136.0	68.40387620018191	ISI	1.0		6.0	face	adult-11.jpg	0.0	170.1954068301693	0.11668958763948467
137.0	68.5205657878214	adult	0.0		46.0	face	adult-3.jpg	0.0	170.3120964178088	0.3833336553143454
137.0	68.60401885758256	pulse	0.0	t		face	adult-3.jpg	0.0	170.39554948756995	
137.0	68.90389944313574	ISI	1.0		6.0	face	adult-3.jpg	0.0	170.69543007312313	0.11668807835667394
138.0	69.02058752149242	adult	0.0		46.0	face	adult-101.jpg	0.0	170.8121181514798	0.3833061863679177
138.0	69.3040087755744	pulse	0.0	t		face	adult-101.jpg	0.0	171.0955394055618	
138.0	69.40389370786033	ISI	1.0		6.0	face	adult-101.jpg	0.0	171.19542433784773	0.11669381363208231
139.0	69.52058752149242	adult	0.0		46.0	face	adult-92.jpg	0.0	171.3121181514798	0.3832971306728723
139.0	69.90388465216529	ISI	1.0		7.0	face	adult-92.jpg	0.0	171.69541528215268	0.1166675521126308
140.0	70.02055220427792	adult	0.0		45.0	face	adult-84.jpg	0.0	171.8120828342653	0.38332550518680364
140.0	70.0106727416296	pulse	0.0	t		face	adult-84.jpg	0.0	171.802203371617	
140.0	70.40387770946472	ISI	1.0		7.0	face	adult-84.jpg	0.0	172.19540833945211	0.11668868207016203
141.0	70.52056639153489	adult	0.0		46.0	face	adult-84.jpg	1.0	172.31209702152228	0.38330467708510696
141.0	70.70398891341392	pulse	0.0	t		face	adult-84.jpg	1.0	172.49551954340131	
141.0	70.90387106861999	ISI	1.0		5.0	face	adult-84.jpg	1.0	172.69540169860738	0.11669200249343703
142.0	71.02056307111343	adult	0.0		46.0	face	adult-49.jpg	0.0	172.81209370110082	0.38329954552500567
142.0	71.12090954204723	response	0.0	b		face	adult-49.jpg	0.0	172.91244017203462	
142.0	71.40386261663843	ISI	1.0		7.0	face	adult-49.jpg	0.0	173.19539324662583	0.1166871727873513
142.0	71.44061938546838	pulse	1.0	t		face	adult-49.jpg	0.0	173.23215001545577	
143.0	71.52054978942579	adult	0.0		46.0	face	adult-28.jpg	0.0	173.31208041941318	0.3833055826544296
143.0	71.90385537208022	ISI	1.0		6.0	face	adult-28.jpg	0.0	173.6953860020676	0.11668687093151675
144.0	72.02054224301173	word	0.0		46.0	character	word-127.jpg	0.0	173.81207287299912	0.3833049789427605
144.0	72.10400799074705	pulse	0.0	t		character	word-127.jpg	0.0	173.89553862073444	
144.0	72.40384722195449	ISI	1.0		6.0	character	word-127.jpg	0.0	174.19537785194188	0.11668898392599658
145.0	72.52053620588049	word	0.0		46.0	character	word-12.jpg	0.0	174.31206683586788	0.3833037715176033
145.0	72.80394961169259	pulse	0.0	t		character	word-12.jpg	0.0	174.59548024167998	
145.0	72.90383997739809	ISI	1.0		6.0	character	word-12.jpg	0.0	174.69537060738548	0.11668868207016203
146.0	73.02052865946825	word	0.0		46.0	character	word-85.jpg	0.0	174.81205928945565	0.38330256408880814
146.0	73.40383122355706	ISI	1.0		6.0	character	word-85.jpg	0.0	175.19536185354445	0.11668294679657265
147.0	73.52051417035364	word	0.0		45.0	character	word-109.jpg	0.0	175.31204480034103	0.38330799750838196
147.0	73.5107678264394	pulse	0.0	t		character	word-109.jpg	0.0	175.3022984564268	
147.0	73.90382216786202	ISI	1.0		6.0	character	word-109.jpg	0.0	175.6953527978494	0.11668988949531922
148.0	74.02051205735734	word	0.0		46.0	character	word-40.jpg	0.0	175.81204268734473	0.38330588451208314
148.0	74.20393457923637	pulse	0.0	t		character	word-40.jpg	0.0	175.99546520922377	
148.0	74.40381794186942	ISI	1.0		6.0	character	word-40.jpg	0.0	176.1953485718568	0.11668958763948467
149.0	74.5205075295089	word	0.0		46.0	character	word-141.jpg	0.0	176.3120381594963	0.3832992436691711
149.0	74.90380677317808	ISI	1.0		6.0	character	word-141.jpg	0.0	176.69533740316547	0.11668838021432748
149.0	74.94838011707179	pulse	1.0	t		character	word-141.jpg	0.0	176.73991074705918	
150.0	75.0204951533924	word	0.0		46.0	character	word-54.jpg	0.0	176.8120257833798	0.3832892824011651
150.0	75.40378443579357	ISI	1.0		5.0	character	word-54.jpg	0.0	177.19531506578096	0.11670588789274916
151.0	75.52049032368632	word	0.0		46.0	character	word-106.jpg	0.0	177.3120209536737	0.38330528080041404
151.0	75.60396754197063	pulse	0.0	t		character	word-106.jpg	0.0	177.39549817195802	
151.0	75.90379560448673	ISI	1.0		7.0	character	word-106.jpg	0.0	177.69532623447412	0.11668747464318585
152.0	76.02048307912992	word	0.0		46.0	character	word-57.jpg	0.0	177.8120137091173	0.38330588451208314
152.0	76.30390131464628	pulse	0.0	t		character	word-57.jpg	0.0	178.09543194463367	
152.0	76.403788963642	ISI	1.0		7.0	character	word-57.jpg	0.0	178.1953195936294	0.11668475793521793
153.0	76.52047372157722	word	0.0		46.0	character	word-120.jpg	0.0	178.3120043515646	0.3833049789427605
153.0	76.90377870051998	ISI	1.0		6.0	character	word-120.jpg	0.0	178.69530933050737	0.11668264493891911
154.0	77.0204613454589	word	0.0		45.0	character	word-137.jpg	0.0	178.8119919754463	0.38330860122187005
154.0	77.01074096120828	pulse	0.0	t		character	word-137.jpg	0.0	178.80227159119568	
154.0	77.40376994668077	ISI	1.0		7.0	character	word-137.jpg	0.0	179.19530057666816	0.11668807835667394
155.0	77.52045802503744	word	0.0		46.0	character	word-18.jpg	0.0	179.31198865502483	0.38330407337343786
155.0	77.70388024505883	pulse	0.0	t		character	word-18.jpg	0.0	179.49541087504622	
155.0	77.90376209841088	ISI	1.0		7.0	character	word-18.jpg	0.0	179.69529272839827	0.1166910969222954
156.0	78.02045319533318	word	0.0		46.0	character	word-103.jpg	0.0	179.81198382532057	0.3832696617264446
156.0	78.40372285705962	ISI	1.0		6.0	character	word-103.jpg	0.0	180.195253487047	0.11668626721802866
156.0	78.45013812955222	pulse	1.0	t		character	word-103.jpg	0.0	180.2416687595396	
157.0	78.52040912427765	word	0.0		46.0	character	word-22.jpg	0.0	180.31193975426504	0.3833055826562486
157.0	78.9037147069339	ISI	1.0		7.0	character	word-22.jpg	0.0	180.6952453369213	0.11668838021432748
158.0	79.02040308714822	word	0.0		46.0	character	word-132.jpg	0.0	180.81193371713562	0.38330467708510696
158.0	79.10383442323655	pulse	0.0	t		character	word-132.jpg	0.0	180.89536505322394	
158.0	79.40370776423333	ISI	1.0		7.0	character	word-132.jpg	0.0	181.19523839422072	0.11668747464500484
159.0	79.52039523887834	word	0.0		46.0	character	word-44.jpg	0.0	181.31192586886573	0.38330467708510696
159.0	79.80381196511007	pulse	0.0	t		character	word-44.jpg	0.0	181.59534259509746	
159.0	79.90369991596344	ISI	1.0		6.0	character	word-44.jpg	0.0	181.69523054595084	0.11668626721802866
160.0	80.02038618318147	word	0.0		46.0	character	word-97.jpg	0.0	181.81191681316886	0.3833049789427605
160.0	80.40369116212423	ISI	1.0		7.0	character	word-97.jpg	0.0	182.19522179211162	0.11667328738622018
161.0	80.52036444951045	word	0.0		45.0	character	word-65.jpg	0.0	182.31189507949784	0.38332218476534763
161.0	80.51069719201041	pulse	0.0	t		character	word-65.jpg	0.0	182.3022278219978	
161.0	80.9036866342758	ISI	1.0		6.0	character	word-65.jpg	0.0	182.6952172642632	0.11668264493891911
162.0	81.02036927921472	word	0.0		46.0	character	word-116.jpg	0.0	182.8118999092021	0.3833089030777046
162.0	81.20379421594589	pulse	0.0	t		character	word-116.jpg	0.0	182.99532484593328	
162.0	81.40367818229242	ISI	1.0		7.0	character	word-116.jpg	0.0	183.19520881227982	0.11668505979287147
163.0	81.5203632420853	word	0.0		46.0	character	word-70.jpg	0.0	183.3118938720727	0.38330860122005106
163.0	81.90367184330535	ISI	1.0		6.0	character	word-70.jpg	0.0	183.69520247329274	0.11668385236589529
163.0	81.94460147692371	pulse	1.0	t		character	word-70.jpg	0.0	183.7361321069111	
164.0	82.02035569567124	word	0.0		46.0	character	word-76.jpg	0.0	183.81188632565863	0.38330980864702724
164.0	82.40366550431827	ISI	1.0		6.0	character	word-76.jpg	0.0	184.19519613430566	0.11668294679657265
165.0	82.52034845111484	word	0.0		46.0	character	word-144.jpg	0.0	184.31187908110223	0.38330739379489387
165.0	82.60377344821609	pulse	0.0	t		character	word-144.jpg	0.0	184.39530407820348	
165.0	82.90365584490974	ISI	1.0		7.0	character	word-144.jpg	0.0	184.69518647489713	0.1166832486524072
166.0	83.02033909356214	word	0.0		46.0	character	word-138.jpg	0.0	184.81186972354953	0.38333274974320375
166.0	83.30376246063861	pulse	0.0	t		character	word-138.jpg	0.0	185.095293090626	
166.0	83.40367184330535	ISI	1.0		7.0	character	word-138.jpg	0.0	185.19520247329274	0.11666060941206524
167.0	83.52033245271741	word	0.0		46.0	character	word-64.jpg	0.0	185.3118630827048	0.38330799750838196
167.0	83.9036404502258	ISI	1.0		6.0	character	word-64.jpg	0.0	185.69517108021319	0.1166681558242999
168.0	84.0203086060501	adult	0.0		45.0	face	adult-18.jpg	0.0	185.81183923603749	0.3833559926988528
168.0	84.01063531141881	pulse	0.0	t		face	adult-18.jpg	0.0	185.8021659414062	
168.0	84.40366459874895	ISI	1.0		6.0	face	adult-18.jpg	0.0	186.19519522873634	0.11668777650083939
169.0	84.52035237524979	adult	0.0		46.0	face	adult-37.jpg	0.0	186.31188300523718	0.38330467708510696
169.0	84.70377157670555	pulse	0.0	t		face	adult-37.jpg	0.0	186.49530220669294	
169.0	84.90365705233489	ISI	1.0		4.0	face	adult-37.jpg	0.0	186.69518768232228	0.11668868207016203
170.0	85.02034573440505	adult	0.0		46.0	face	adult-86.jpg	0.0	186.81187636439245	0.3833028659464617
170.0	85.40364860035152	ISI	1.0		7.0	face	adult-86.jpg	0.0	187.1951792303389	0.11668807835667394
170.0	85.4403299050482	pulse	1.0	t		face	adult-86.jpg	0.0	187.2318605350356	
171.0	85.52033667870819	adult	0.0		46.0	face	adult-43.jpg	0.0	187.31186730869558	0.3833037715176033
171.0	85.9036404502258	ISI	1.0		7.0	face	adult-43.jpg	0.0	187.69517108021319	0.11669079506464186
172.0	86.02033124529044	adult	0.0		46.0	face	adult-97.jpg	0.0	187.81186187527783	0.38330467708692595
172.0	86.10375262011439	pulse	0.0	t		face	adult-97.jpg	0.0	187.89528325010178	
172.0	86.40363592237736	ISI	1.0		6.0	face	adult-97.jpg	0.0	188.19516655236475	0.11668536164870602
173.0	86.52032128402607	adult	0.0		46.0	face	adult-65.jpg	0.0	188.31185191401346	0.38330528079859505
173.0	86.80373831211546	pulse	0.0	t		face	adult-65.jpg	0.0	188.59526894210285	
173.0	86.90362656482466	ISI	1.0		6.0	face	adult-65.jpg	0.0	188.69515719481205	0.11668898392599658
174.0	87.02031554875066	adult	0.0		46.0	face	adult-115.jpg	0.0	188.81184617873805	0.38330256409062713
174.0	87.40361811284129	ISI	1.0		6.0	face	adult-115.jpg	0.0	189.19514874282868	0.11668385236589529
175.0	87.52030196520718	adult	0.0		45.0	face	adult-130.jpg	0.0	189.31183259519457	0.3833082993642165
175.0	87.51112703572107	pulse	0.0	t		face	adult-130.jpg	0.0	189.30265766570847	
175.0	87.9036102645714	ISI	1.0		7.0	face	adult-130.jpg	0.0	189.6951408945588	0.11668747464500484
176.0	88.0202977392164	adult	0.0		46.0	face	adult-130.jpg	1.0	189.8118283692038	0.38330588451208314
176.0	88.20371814809914	pulse	0.0	t		face	adult-130.jpg	1.0	189.99524877808653	
176.0	88.40360362372849	ISI	1.0		7.0	face	adult-130.jpg	1.0	190.19513425371588	0.11668807835667394
177.0	88.52029170208516	adult	0.0		46.0	face	adult-141.jpg	0.0	190.31182233207255	0.3833043752292724
177.0	88.73707389931042	response	0.0	b		face	adult-141.jpg	0.0	190.5286045292978	
177.0	88.90359607731443	ISI	1.0		7.0	face	adult-141.jpg	0.0	190.69512670730182	0.11668898392599658
177.0	88.93991455045216	pulse	1.0	t		face	adult-141.jpg	0.0	190.73144518043955	
178.0	89.02028506124043	adult	0.0		46.0	face	adult-98.jpg	0.0	190.81181569122782	0.38330920493535814
178.0	89.40359426617579	ISI	1.0		6.0	face	adult-98.jpg	0.0	191.19512489616318	0.11668234308126557
179.0	89.52027660925705	adult	0.0		46.0	face	adult-46.jpg	0.0	191.31180723924444	0.38330407337343786
179.0	89.60369949336382	pulse	0.0	t		face	adult-46.jpg	0.0	191.3952301233512	
179.0	89.90358068263049	ISI	1.0		7.0	face	adult-46.jpg	0.0	191.69511131261788	0.11669170063578349
180.0	90.02027238326627	adult	0.0		46.0	face	adult-80.jpg	0.0	191.81180301325367	0.38330014923849376
180.0	90.30369031692499	pulse	0.0	t		face	adult-80.jpg	0.0	192.09522094691238	
180.0	90.40357253250477	ISI	1.0		6.0	face	adult-80.jpg	0.0	192.19510316249216	0.11665789270227833
181.0	90.52023042520705	adult	0.0		46.0	face	adult-13.jpg	0.0	192.31176105519444	0.3833351645971561
181.0	90.9035655898042	ISI	1.0		7.0	face	adult-13.jpg	0.0	192.6950962197916	0.11668204122543102
182.0	91.02024763102963	adult	0.0		45.0	face	adult-13.jpg	1.0	192.81177826101703	0.3833095067911927
182.0	91.01034432171582	pulse	0.0	t		face	adult-13.jpg	1.0	192.8018749517032	
182.0	91.40355713782083	ISI	1.0		7.0	face	adult-13.jpg	1.0	193.19508776780822	0.11668656907386321
183.0	91.52024370689469	adult	0.0		46.0	face	adult-52.jpg	0.0	193.31177433688208	0.3833061863697367
183.0	91.6370033252515	response	0.0	b		face	adult-52.jpg	0.0	193.4285339552389	
183.0	91.70364389138922	pulse	0.0	t		face	adult-52.jpg	0.0	193.4951745213766	
183.0	91.90354989326443	ISI	1.0		7.0	face	adult-52.jpg	0.0	193.69508052325182	0.11668838021250849
184.0	92.02023827347693	adult	0.0		46.0	face	adult-47.jpg	0.0	193.81176890346433	0.38328686755085073
184.0	92.40352514102779	ISI	1.0		6.0	face	adult-47.jpg	0.0	194.19505577101518	0.11670498232342652
184.0	92.44996275090307	pulse	1.0	t		face	adult-47.jpg	0.0	194.24149338089046	
185.0	92.52023012335121	adult	0.0		46.0	face	adult-109.jpg	0.0	194.3117607533386	0.38330588451208314
185.0	92.9035360078633	ISI	1.0		6.0	face	adult-109.jpg	0.0	194.6950666378507	0.11668656907386321
186.0	93.02022257693716	adult	0.0		46.0	face	adult-8.jpg	0.0	194.81175320692455	0.3833049789427605
186.0	93.10364153690898	pulse	0.0	t		face	adult-8.jpg	0.0	194.89517216689637	
186.0	93.40352755587992	ISI	1.0		6.0	face	adult-8.jpg	0.0	195.1950581858673	0.11668868207016203
187.0	93.52021623795008	adult	0.0		46.0	face	adult-91.jpg	0.0	195.31174686793747	0.38330256409062713
187.0	93.80363477532228	pulse	0.0	t		face	adult-91.jpg	0.0	195.59516540530967	
187.0	93.90351880204071	ISI	1.0		7.0	face	adult-91.jpg	0.0	195.6950494320281	0.11669049320880731
188.0	94.02020929524951	adult	0.0		46.0	face	adult-93.jpg	0.0	195.8117399252369	0.3833016585213045
188.0	94.40351095377082	ISI	1.0		7.0	face	adult-93.jpg	0.0	196.1950415837582	0.11668445607756439
189.0	94.52019540984838	adult	0.0		45.0	face	adult-17.jpg	0.0	196.31172603983578	0.3833082993642165
189.0	94.51028817639963	pulse	0.0	t		face	adult-17.jpg	0.0	196.30181880638702	
189.0	94.9035037092126	ISI	1.0		6.0	face	adult-17.jpg	0.0	196.6950343392	0.11668868207016203
190.0	95.02019239128276	adult	0.0		46.0	face	adult-138.jpg	0.0	196.81172302127015	0.38330467708692595
190.0	95.20361400759248	pulse	0.0	t		face	adult-138.jpg	0.0	196.99514463757987	
190.0	95.40349706836969	ISI	1.0		7.0	face	adult-138.jpg	0.0	197.19502769835708	0.11668807835667394
191.0	95.52018514672636	adult	0.0		46.0	face	adult-111.jpg	0.0	197.31171577671375	0.3833031678041152
191.0	95.90348831453048	ISI	1.0		11.0	face	adult-111.jpg	0.0	197.69501894451787	0.10003767169473576
191.0	95.90796363956906	pulse	1.0	t		face	adult-111.jpg	0.0	197.69949426955645	
192.0	96.00352598622521	baseline	0.0		48.0		baseline	0.0	197.7950566162126	0.3999928158154944
192.0	96.40351880204071	ISI	1.0		11.0		baseline	0.0	198.1950494320281	0.09999812848946021
193.0	96.50351693053017	baseline	0.0		48.0		baseline	0.0	198.29504756051756	0.39999251395784086
193.0	96.60362885893483	pulse	0.0	t			baseline	0.0	198.39515948892222	
193.0	96.90350944448801	ISI	1.0		11.0		baseline	0.0	198.6950400744754	0.100019560302826
194.0	97.00352900479083	baseline	0.0		48.0		baseline	0.0	198.79505963477823	0.3999753081352537
194.0	97.30361726764386	pulse	0.0	t			baseline	0.0	199.09514789763125	
194.0	97.40350431292609	ISI	1.0		11.0		baseline	0.0	199.19503494291348	0.09999692106430302
195.0	97.50350123399039	baseline	0.0		48.0		baseline	0.0	199.29503186397778	0.3999940232406516
195.0	97.90349525723104	ISI	1.0		11.0		baseline	0.0	199.69502588721843	0.09999752477597212
196.0	98.00349278200702	baseline	0.0		47.0		baseline	0.0	199.7950234119944	0.3999955325234623
196.0	98.00777703185668	pulse	0.0	t			baseline	0.0	199.79930766184407	
196.0	98.40348831453048	ISI	1.0		11.0		baseline	0.0	200.19501894451787	0.09999722292013757
197.0	98.50348553745062	baseline	0.0		48.0		baseline	0.0	200.295016167438	0.3999928158136754
197.0	98.70359499063125	pulse	0.0	t			baseline	0.0	200.49512562061864	
197.0	98.90347835326429	ISI	1.0		11.0		baseline	0.0	200.69500898325168	0.09999963777227094
198.0	99.00347799103656	baseline	0.0		48.0		baseline	0.0	200.79500862102395	0.3999955325234623
198.0	99.40347352356002	ISI	1.0		11.0		baseline	0.0	201.19500415354742	0.09999692106248403
198.0	99.40831379315387	pulse	1.0	t			baseline	0.0	201.19984442314126	
199.0	99.50347044462251	baseline	0.0		48.0		baseline	0.0	201.2950010746099	0.3999946269541397
199.0	99.90346507157665	ISI	1.0		11.0		baseline	0.0	201.69499570156404	0.09999752477597212
200.0	100.00346259635262	baseline	0.0		48.0		baseline	0.0	201.79499322634	0.3999946269541397
200.0	100.10357573218425	pulse	0.0	t			baseline	0.0	201.89510636217165	
200.0	100.40345722330676	ISI	1.0		11.0		baseline	0.0	202.19498785329415	0.10000054334159358
201.0	100.50345776664835	baseline	0.0		48.0		baseline	0.0	202.29498839663574	0.3999922121020063
201.0	100.80356444274912	pulse	0.0	t			baseline	0.0	202.5950950727365	
201.0	100.90344997875036	ISI	1.0		11.0		baseline	0.0	202.69498060873775	0.09999722291831858
202.0	101.00344720166868	baseline	0.0		48.0		baseline	0.0	202.79497783165607	0.3999943250983051
202.0	101.40344152676698	ISI	1.0		11.0		baseline	0.0	203.19497215675437	0.09999782663180667
203.0	101.50343935339879	baseline	0.0		47.0		baseline	0.0	203.29496998338618	0.3999934195289825
203.0	101.50771726426319	pulse	0.0	t			baseline	0.0	203.29924789425058	
203.0	101.90343277292777	ISI	1.0		6.0		baseline	0.0	203.69496340291516	0.11665306299801159
204.0	102.02008583592578	word	0.0		46.0	character	word-34.jpg	0.0	203.81161646591318	0.3833037715157843
204.0	102.20350745223368	pulse	0.0	t		character	word-34.jpg	0.0	203.99503808222107	
204.0	102.40338960744157	ISI	1.0		5.0	character	word-34.jpg	0.0	204.19492023742896	0.11668777650083939
205.0	102.52007738394241	word	0.0		46.0	character	word-91.jpg	0.0	204.3116080139298	0.38330407337343786
205.0	102.90338145731585	ISI	1.0		6.0	character	word-91.jpg	0.0	204.69491208730324	0.11669290806094068
205.0	102.9478247010411	pulse	1.0	t		character	word-91.jpg	0.0	204.7393553310285	
206.0	103.02007436537679	word	0.0		46.0	character	word-82.jpg	0.0	204.81160499536418	0.3832998473808402
206.0	103.40337421275763	ISI	1.0		6.0	character	word-82.jpg	0.0	205.19490484274502	0.11668053194443928
207.0	103.52005474470207	word	0.0		46.0	character	word-118.jpg	0.0	205.31158537468946	0.3832808304196078
207.0	103.603454385855	pulse	0.0	t		character	word-118.jpg	0.0	205.3949850158424	
207.0	103.90333557512167	ISI	1.0		7.0	character	word-118.jpg	0.0	205.69486620510907	0.11668596536037512
208.0	104.02002154048205	word	0.0		46.0	character	word-121.jpg	0.0	205.81155217046944	0.38330980864884623
208.0	104.30344098342539	pulse	0.0	t		character	word-121.jpg	0.0	206.09497161341278	
208.0	104.4033313491309	ISI	1.0		7.0	character	word-121.jpg	0.0	206.1948619791183	0.11669411548609787
209.0	104.52002546461699	word	0.0		46.0	character	word-88.jpg	0.0	206.31155609460438	0.3832944139649044
209.0	104.9033198785819	ISI	1.0		6.0	character	word-88.jpg	0.0	206.6948505085693	0.1166793245174631
210.0	105.01999920309936	word	0.0		45.0	character	word-139.jpg	0.0	206.81152983308675	0.38329531953240803
210.0	105.01156985926355	pulse	0.0	t		character	word-139.jpg	0.0	206.80310048925094	
210.0	105.40329452263177	ISI	1.0		7.0	character	word-139.jpg	0.0	207.19482515261916	0.11671645287242427
211.0	105.52001097550419	word	0.0		46.0	character	word-36.jpg	0.0	207.31154160549158	0.38329411210725084
211.0	105.70342021569559	pulse	0.0	t		character	word-36.jpg	0.0	207.49495084568298	
211.0	105.90330508761144	ISI	1.0		7.0	character	word-36.jpg	0.0	207.69483571759883	0.11668475793521793
212.0	106.01998984554666	word	0.0		46.0	character	word-95.jpg	0.0	207.81152047553405	0.3833061863679177
212.0	106.40329603191458	ISI	1.0		6.0	character	word-95.jpg	0.0	208.19482666190197	0.11669139877994894
212.0	106.44718989674038	pulse	1.0	t		character	word-95.jpg	0.0	208.23872052672777	
213.0	106.51998743069453	word	0.0		46.0	character	word-73.jpg	0.0	208.31151806068192	0.3833010548078164
213.0	106.90328848550234	ISI	1.0		6.0	character	word-73.jpg	0.0	208.69481911548974	0.11668445607756439
214.0	107.01997294157991	word	0.0		46.0	character	word-28.jpg	0.0	208.8115035715673	0.38330980864702724
214.0	107.10340427767005	pulse	0.0	t		character	word-28.jpg	0.0	208.89493490765744	
214.0	107.40328275022694	ISI	1.0		6.0	character	word-28.jpg	0.0	209.19481338021433	0.11668415422172984
215.0	107.51996690444867	word	0.0		46.0	character	word-50.jpg	0.0	209.31149753443606	0.38330679008322477
215.0	107.80338846038649	pulse	0.0	t		character	word-50.jpg	0.0	209.59491909037388	
215.0	107.90327369453189	ISI	1.0		7.0	character	word-50.jpg	0.0	209.69480432451928	0.11668505979105248
216.0	108.01995875432294	car	0.0		46.0	object	car-7.jpg	0.0	209.81148938431033	0.38330739379489387
216.0	108.40326614811784	ISI	1.0		7.0	object	car-7.jpg	0.0	210.19479677810523	0.1166793245174631
217.0	108.5199454726353	car	0.0		45.0	object	car-97.jpg	0.0	210.3114761026227	0.38331524206478207
217.0	108.51201781436612	pulse	0.0	t		object	car-97.jpg	0.0	210.3035484443535	
217.0	108.90326071470008	ISI	1.0		7.0	object	car-97.jpg	0.0	210.69479134468747	0.11669441734375141
218.0	109.01995513204383	car	0.0		46.0	object	car-99.jpg	0.0	210.81148576203123	0.3832847545545519
218.0	109.20337433350142	pulse	0.0	t		object	car-99.jpg	0.0	210.9949049634888	
218.0	109.40323988659839	ISI	1.0		8.0	object	car-99.jpg	0.0	211.19477051658578	0.1166989451921836
219.0	109.51993883179057	car	0.0		46.0	object	car-20.jpg	0.0	211.31146946177796	0.38333818316277757
219.0	109.90327701495335	ISI	1.0		7.0	object	car-20.jpg	0.0	211.69480764494074	0.11668958763948467
219.0	109.93994775467036	pulse	1.0	t		object	car-20.jpg	0.0	211.73147838465775	
220.0	110.01996660259283	car	0.0		46.0	object	car-22.jpg	0.0	211.81149723258022	0.3832684543012874
220.0	110.40323505689412	ISI	1.0		7.0	object	car-22.jpg	0.0	212.1947656868815	0.11668656907386321
221.0	110.51992162596798	car	0.0		46.0	object	car-115.jpg	0.0	212.31145225595537	0.38330679008322477
221.0	110.60334752864037	pulse	0.0	t		object	car-115.jpg	0.0	212.39487815862776	
221.0	110.9032284160512	ISI	1.0		7.0	object	car-115.jpg	0.0	212.6947590460386	0.11668626721620967
222.0	111.01991468326742	car	0.0		46.0	object	car-55.jpg	0.0	212.8114453132548	0.3833061863697367
222.0	111.30333472992243	pulse	0.0	t		object	car-55.jpg	0.0	213.09486535990982	
222.0	111.40322086963715	ISI	1.0		8.0	object	car-55.jpg	0.0	213.19475149962454	0.11668505979105248
223.0	111.5199059294282	car	0.0		46.0	object	car-55.jpg	1.0	213.3114365594156	0.3833076956525474
223.0	111.90321362508075	ISI	1.0		8.0	object	car-55.jpg	1.0	213.69474425506814	0.11667841894632147
223.0	111.96999213965682	response	1.0	b		object	car-55.jpg	1.0	213.76152276964422	
224.0	112.01989204402707	car	0.0		45.0	object	car-125.jpg	0.0	213.81142267401447	0.38331252535681415
224.0	112.01198279900746	pulse	0.0	t		object	car-125.jpg	0.0	213.80351342899485	
224.0	112.40320456938389	ISI	1.0		7.0	object	car-125.jpg	0.0	214.19473519937128	0.11668807835667394
225.0	112.51989264774056	car	0.0		46.0	object	car-127.jpg	0.0	214.31142327772795	0.3833067900814058
225.0	112.7033172826159	pulse	0.0	t		object	car-127.jpg	0.0	214.4948479126033	
225.0	112.90319943782197	ISI	1.0		7.0	object	car-127.jpg	0.0	214.69473006780936	0.11668445607938338
226.0	113.01988389390135	car	0.0		46.0	object	car-75.jpg	0.0	214.81141452388874	0.38330588451208314
226.0	113.40318977841343	ISI	1.0		7.0	object	car-75.jpg	0.0	215.19472040840083	0.11668596536219411
226.0	113.44295032165792	pulse	1.0	t		object	car-75.jpg	0.0	215.2344809516453	
227.0	113.51987574377563	car	0.0		46.0	object	car-94.jpg	0.0	215.31140637376302	0.3833073937930749
227.0	113.9031831375687	ISI	1.0		6.0	object	car-94.jpg	0.0	215.6947137675561	0.11668415422354883
228.0	114.01986729179225	adult	0.0		46.0	face	adult-59.jpg	0.0	215.81139792177964	0.3833082993642165
228.0	114.10329772231125	pulse	0.0	t		face	adult-59.jpg	0.0	215.89482835229865	
228.0	114.40317559115647	ISI	1.0		7.0	face	adult-59.jpg	0.0	216.19470622114386	0.11668445607756439
229.0	114.51986004723403	adult	0.0		46.0	face	adult-56.jpg	0.0	216.31139067722142	0.38330739379489387
229.0	114.80328250874118	pulse	0.0	t		face	adult-56.jpg	0.0	216.59481313872857	
229.0	114.90316744102893	ISI	1.0		6.0	face	adult-56.jpg	0.0	216.69469807101632	0.10833600979458424
230.0	115.01150345082351	adult	0.0		47.0	face	adult-94.jpg	0.0	216.8030340808109	0.39166731062869076
230.0	115.4031707614522	ISI	1.0		6.0	face	adult-94.jpg	0.0	217.1947013914396	0.10832665224188531
231.0	115.51149741369409	adult	0.0		46.0	face	adult-15.jpg	0.0	217.30302804368148	0.3916549345085514
231.0	115.50708517667044	pulse	0.0	t		face	adult-15.jpg	0.0	217.29861580665784	
231.0	115.90315234820264	ISI	1.0		6.0	face	adult-15.jpg	0.0	217.69468297819003	0.10847456194642291
232.0	116.01162691014906	adult	0.0		47.0	face	adult-9.jpg	0.0	217.80315754013645	0.39154868100740714
232.0	116.20329313409275	pulse	0.0	t		face	adult-9.jpg	0.0	217.99482376408014	
232.0	116.40317559115647	ISI	1.0		6.0	face	adult-9.jpg	0.0	218.19470622114386	0.11668928578365012
233.0	116.51986487694012	adult	0.0		46.0	face	adult-2.jpg	0.0	218.3113955069275	0.3833037715157843
233.0	116.9031686484559	ISI	1.0		6.0	face	adult-2.jpg	0.0	218.6946992784433	0.1166871727873513
233.0	116.94985046027068	pulse	1.0	t		face	adult-2.jpg	0.0	218.74138109025807	
234.0	117.01985582124325	adult	0.0		46.0	face	adult-105.jpg	0.0	218.81138645123065	0.3833076956507284
234.0	117.40316351689398	ISI	1.0		7.0	face	adult-105.jpg	0.0	219.19469414688137	0.11668747464500484
235.0	117.51985099153899	adult	0.0		46.0	face	adult-77.jpg	0.0	219.31138162152638	0.38330346965994977
235.0	117.60327417750159	pulse	0.0	t		face	adult-77.jpg	0.0	219.39480480748898	
235.0	117.90315446119894	ISI	1.0		6.0	face	adult-77.jpg	0.0	219.69468509118633	0.11668868207016203
236.0	118.0198431432691	adult	0.0		46.0	face	adult-139.jpg	0.0	219.8113737732565	0.3833016585194855
236.0	118.30326017135849	pulse	0.0	t		face	adult-139.jpg	0.0	220.09479080134588	
236.0	118.40314480178859	ISI	1.0		6.0	face	adult-139.jpg	0.0	220.19467543177598	0.1167022656154586
237.0	118.51984706740404	adult	0.0		46.0	face	adult-51.jpg	0.0	220.31137769739144	0.3832904898281413
237.0	118.90313755723218	ISI	1.0		7.0	face	adult-51.jpg	0.0	220.69466818721958	0.11668294679657265
238.0	119.01982050402876	adult	0.0		45.0	face	adult-4.jpg	0.0	220.81135113401615	0.3833128272126487
238.0	119.01114152483387	pulse	0.0	t		face	adult-4.jpg	0.0	220.80267215482127	
238.0	119.4031333312414	ISI	1.0		7.0	face	adult-4.jpg	0.0	221.1946639612288	0.12502143181336578
239.0	119.52815476305477	adult	0.0		45.0	face	adult-132.jpg	0.0	221.31968539304216	0.3749704180590925
239.0	119.70324242219431	pulse	0.0	t		face	adult-132.jpg	0.0	221.4947730521817	
239.0	119.90312518111386	ISI	1.0		6.0	face	adult-132.jpg	0.0	221.69465581110126	0.11668596536219411
240.0	120.01981114647606	body	0.0		46.0	body	body-91.jpg	0.0	221.81134177646345	0.3832735858613887
240.0	120.40308473233745	ISI	1.0		6.0	body	body-91.jpg	0.0	222.19461536232484	0.11668083380027383
240.0	120.44371160384799	pulse	1.0	t		body	body-91.jpg	0.0	222.23524223383538	
241.0	120.51976556613772	body	0.0		46.0	body	body-138.jpg	0.0	222.3112961961251	0.38331252535681415
241.0	120.90307809149454	ISI	1.0		7.0	body	body-138.jpg	0.0	222.69460872148193	0.1166714762475749
242.0	121.01974956774211	body	0.0		46.0	body	body-51.jpg	0.0	222.8112801977295	0.3833200717690488
242.0	121.10318482796538	pulse	0.0	t		body	body-51.jpg	0.0	222.89471545795277	
242.0	121.40306963951116	ISI	1.0		7.0	body	body-51.jpg	0.0	223.19460026949855	0.11668656907386321
243.0	121.51975620858502	body	0.0		46.0	body	body-54.jpg	0.0	223.3112868385724	0.3833076956525474
243.0	121.80317534967071	pulse	0.0	t		body	body-54.jpg	0.0	223.5947059796581	
243.0	121.90306390423757	ISI	1.0		7.0	body	body-54.jpg	0.0	223.69459453422496	0.11667087253408681
244.0	122.01973477677166	body	0.0		46.0	body	body-77.jpg	0.0	223.81126540675905	0.3833194680555607
244.0	122.40305424482722	ISI	1.0		7.0	body	body-77.jpg	0.0	224.1945848748146	0.11667811709230591
245.0	122.51973236191952	body	0.0		45.0	body	body-39.jpg	0.0	224.31126299190691	0.3833116197856725
245.0	122.51145605934835	pulse	0.0	t		body	body-39.jpg	0.0	224.30298668933574	
245.0	122.9030439817052	ISI	1.0		6.0	body	body-39.jpg	0.0	224.6945746116926	0.11668234308308456
246.0	123.01972632478828	body	0.0		45.0	body	body-113.jpg	0.0	224.81125695477567	0.3833107142163499
246.0	123.01164834196243	response	0.0	b		body	body-113.jpg	0.0	224.80317897194982	
246.0	123.20314975223664	pulse	0.0	t		body	body-113.jpg	0.0	224.99468038222403	
246.0	123.40303703900463	ISI	1.0		7.0	body	body-113.jpg	0.0	225.19456766899202	0.11668596536219411
247.0	123.51972300436682	body	0.0		46.0	body	body-42.jpg	0.0	225.31125363435422	0.38330920493353915
247.0	123.90303220930036	ISI	1.0		7.0	body	body-42.jpg	0.0	225.69456283928776	0.11668445607938338
247.0	123.93548540946176	pulse	1.0	t		body	body-42.jpg	0.0	225.72701603944915	
248.0	124.01971666537975	body	0.0		46.0	body	body-42.jpg	1.0	225.81124729536714	0.38330588451208314
248.0	124.40302254989183	ISI	1.0		7.0	body	body-42.jpg	1.0	226.19455317987922	0.11668807835667394
249.0	124.5197106282485	body	0.0		46.0	body	body-61.jpg	0.0	226.3112412582359	0.3833037715157843
249.0	124.6031338142111	pulse	0.0	t		body	body-61.jpg	0.0	226.3946644441985	
249.0	124.90301439976429	ISI	1.0		7.0	body	body-61.jpg	0.0	226.69454502975168	0.11668687093151675
250.0	125.0197012706958	body	0.0		46.0	body	body-127.jpg	0.0	226.8112319006832	0.38330648822557123
250.0	125.30312252477597	pulse	0.0	t		body	body-127.jpg	0.0	227.09465315476336	
250.0	125.40300775892138	ISI	1.0		6.0	body	body-127.jpg	0.0	227.19453838890877	0.11668807835667394
251.0	125.51969583727805	body	0.0		46.0	body	body-123.jpg	0.0	227.31122646726544	0.3833049789427605
251.0	125.90300081622081	ISI	1.0		7.0	body	body-123.jpg	0.0	227.6945314462082	0.1166793245174631
252.0	126.01968014073827	house	0.0		45.0	place	house-107.jpg	0.0	227.81121077072567	0.38333274974320375
252.0	126.01152005293443	pulse	0.0	t		place	house-107.jpg	0.0	227.80305068292182	
252.0	126.40301289048148	ISI	1.0		6.0	place	house-107.jpg	0.0	228.19454352046887	0.11669985076332523
253.0	126.5197127412448	house	0.0		46.0	place	house-136.jpg	0.0	228.3112433712322	0.383275397001853
253.0	126.70310236075966	pulse	0.0	t		place	house-136.jpg	0.0	228.49463299074705	
253.0	126.90298813824666	ISI	1.0		7.0	place	house-136.jpg	0.0	228.69451876823405	0.11668083379845484
254.0	127.01966897204511	house	0.0		46.0	place	house-126.jpg	0.0	228.8111996020325	0.38330799750838196
254.0	127.40297696955349	ISI	1.0		7.0	place	house-126.jpg	0.0	229.19450759954088	0.11668445607938338
254.0	127.4430278987893	pulse	1.0	t		place	house-126.jpg	0.0	229.2345585287767	
255.0	127.51966142563288	house	0.0		46.0	place	house-5.jpg	0.0	229.31119205562027	0.3833089030777046
255.0	127.90297032871058	ISI	1.0		6.0	place	house-5.jpg	0.0	229.69450095869797	0.11668204122543102
256.0	128.019652369936	house	0.0		46.0	place	house-1.jpg	0.0	229.8111829999234	0.3833089030777046
256.0	128.1031833186844	pulse	0.0	t		place	house-1.jpg	0.0	229.89471394867178	
256.0	128.40296127301372	ISI	1.0		6.0	place	house-1.jpg	0.0	230.1944919030011	0.11668505979105248
257.0	128.51964633280477	house	0.0		46.0	place	house-19.jpg	0.0	230.31117696279216	0.38330980864702724
257.0	128.80306969988305	pulse	0.0	t		place	house-19.jpg	0.0	230.59460032987045	
257.0	128.9029561414518	ISI	1.0		7.0	place	house-19.jpg	0.0	230.6944867714392	0.11668536164870602
258.0	129.0196415031005	house	0.0		46.0	place	house-113.jpg	0.0	230.8111721330879	0.38330467708692595
258.0	129.40294618018743	ISI	1.0		6.0	place	house-113.jpg	0.0	231.19447681017482	0.11667751337699883
259.0	129.51962369356443	house	0.0		45.0	place	house-97.jpg	0.0	231.31115432355182	0.3833155439224356
259.0	129.51144489065518	pulse	0.0	t		place	house-97.jpg	0.0	231.30297552064258	
259.0	129.90293923748686	ISI	1.0		6.0	place	house-97.jpg	0.0	231.69446986747425	0.11668536164870602
260.0	130.01962459913557	house	0.0		46.0	place	house-84.jpg	0.0	231.81115522912296	0.3833076956507284
260.0	130.20304953586492	pulse	0.0	t		place	house-84.jpg	0.0	231.9945801658523	
260.0	130.4029322947863	ISI	1.0		7.0	place	house-84.jpg	0.0	232.1944629247737	0.11668505979105248
261.0	130.51961735457735	house	0.0		46.0	place	house-135.jpg	0.0	232.31114798456474	0.38330739379489387
261.0	130.90292474837224	ISI	1.0		4.0	place	house-135.jpg	0.0	232.69445537835963	0.11668355051006074
261.0	130.96225555657475	pulse	1.0	t		place	house-135.jpg	0.0	232.75378618656214	
262.0	131.0196082988823	house	0.0		46.0	place	house-114.jpg	0.0	232.8111389288697	0.3833089030777046
262.0	131.40291720196	ISI	1.0		7.0	place	house-114.jpg	0.0	233.1944478319474	0.11667811709048692
263.0	131.5195953190505	house	0.0		46.0	place	house-101.jpg	0.0	233.3111259490379	0.38331192164332606
263.0	131.60302665514064	pulse	0.0	t		place	house-101.jpg	0.0	233.39455728512803	
263.0	131.90290724069382	ISI	1.0		7.0	place	house-101.jpg	0.0	233.6944378706812	0.11668898392599658
264.0	132.01959622461982	car	0.0		46.0	object	car-119.jpg	0.0	233.8111268546072	0.3833028659464617
264.0	132.3030174787018	pulse	0.0	t		object	car-119.jpg	0.0	234.0945481086892	
264.0	132.40289909056628	ISI	1.0		7.0	object	car-119.jpg	0.0	234.19442972055367	0.11668687093151675
265.0	132.5195859614978	car	0.0		46.0	object	car-80.jpg	0.0	234.3111165914852	0.3833381831609586
265.0	132.90292414465875	ISI	1.0		6.0	object	car-80.jpg	0.0	234.69445477464615	0.11668173937141546
266.0	133.01960588403017	car	0.0		45.0	object	car-142.jpg	0.0	234.81113651401756	0.3833116197856725
266.0	133.01163898440973	pulse	0.0	t		object	car-142.jpg	0.0	234.80316961439712	
266.0	133.40291750381584	ISI	1.0		7.0	object	car-142.jpg	0.0	235.19444813380323	0.11668807835667394
267.0	133.51960558217252	car	0.0		46.0	object	car-14.jpg	0.0	235.3111362121599	0.383282037846584
267.0	133.7029909756966	pulse	0.0	t		object	car-14.jpg	0.0	235.49452160568399	
267.0	133.9028876200191	ISI	1.0		7.0	object	car-14.jpg	0.0	235.6944182500065	0.11667479666903091
268.0	134.01956241668813	car	0.0		46.0	object	car-52.jpg	0.0	235.81109304667552	0.3833082993642165
268.0	134.40287071605235	ISI	1.0		7.0	object	car-52.jpg	0.0	236.19440134603974	0.11668475793521793
268.0	134.43589865106333	pulse	1.0	t		object	car-52.jpg	0.0	236.22742928105072	
269.0	134.51955547398757	car	0.0		46.0	object	car-82.jpg	0.0	236.31108610397496	0.3833067900814058
269.0	134.90286226406897	ISI	1.0		7.0	object	car-82.jpg	0.0	236.69439289405636	0.11668505979287147
270.0	135.01954732386184	car	0.0		46.0	object	car-82.jpg	1.0	236.81107795384924	0.38330860122005106
270.0	135.10297473581522	pulse	0.0	t		object	car-82.jpg	1.0	236.89450536580262	
270.0	135.4028559250819	ISI	1.0		7.0	object	car-82.jpg	1.0	237.1943865550693	0.11668928578365012
271.0	135.51954521086554	car	0.0		46.0	object	car-60.jpg	0.0	237.31107584085294	0.38330196037713904
271.0	135.70296229932683	response	0.0	b		object	car-60.jpg	0.0	237.49449292931422	
271.0	135.8029368830048	pulse	0.0	t		object	car-60.jpg	0.0	237.5944675129922	
271.0	135.90284717124268	ISI	1.0		7.0	object	car-60.jpg	0.0	237.69437780123008	0.11668596536037512
272.0	136.01953313660306	car	0.0		46.0	object	car-118.jpg	0.0	237.81106376659045	0.3833061863697367
272.0	136.4028393229728	ISI	1.0		6.0	object	car-118.jpg	0.0	238.1943699529602	0.11667902265980956
273.0	136.5195183456326	car	0.0		45.0	object	car-58.jpg	0.0	238.31104897562	0.38331433649545943
273.0	136.50891201244121	pulse	0.0	t		object	car-58.jpg	0.0	238.3004426424286	
273.0	136.90283268212806	ISI	1.0		6.0	object	car-58.jpg	0.0	238.69436331211546	0.11668475793521793
274.0	137.01951744006328	car	0.0		46.0	object	car-92.jpg	0.0	238.81104807005067	0.3833067900814058
274.0	137.20294086751164	pulse	0.0	t		object	car-92.jpg	0.0	238.99447149749903	
274.0	137.4028242301447	ISI	1.0		6.0	object	car-92.jpg	0.0	239.19435486013208	0.10835351747482491
275.0	137.5111777476195	car	0.0		47.0	object	car-18.jpg	0.0	239.3027083776069	0.39163893611294043
275.0	137.90281668373245	ISI	1.0		6.0	object	car-18.jpg	0.0	239.69434731371985	0.10835231004784873
275.0	137.9502525331809	pulse	1.0	t		object	car-18.jpg	0.0	239.7417831631683	
276.0	138.0111689937803	house	0.0		47.0	place	house-134.jpg	0.0	239.8026996237677	0.3916413509650738
276.0	138.40281034474538	ISI	1.0		5.0	place	house-134.jpg	0.0	240.19434097473277	0.11668898392599658
277.0	138.51949932867137	house	0.0		46.0	place	house-94.jpg	0.0	240.31102995865876	0.38330256409062713
277.0	138.6029514928614	pulse	0.0	t		place	house-94.jpg	0.0	240.39448212284879	
277.0	138.902801892762	ISI	1.0		6.0	place	house-94.jpg	0.0	240.6943325227494	0.10835321561717137
278.0	139.01115510837917	house	0.0		47.0	place	house-29.jpg	0.0	240.80268573836656	0.391639237968775
278.0	139.3029073010639	pulse	0.0	t		place	house-29.jpg	0.0	241.0944379310513	
278.0	139.40279434634795	ISI	1.0		5.0	place	house-29.jpg	0.0	241.19432497633534	0.10835563046930474
279.0	139.51114997681725	house	0.0		47.0	place	house-11.jpg	0.0	241.30268060680464	0.39166912176733604
279.0	139.9028190985846	ISI	1.0		6.0	place	house-11.jpg	0.0	241.69434972857198	0.1166832486524072
280.0	140.019502347237	house	0.0		45.0	place	house-144.jpg	0.0	241.8110329772244	0.3833089030777046
280.0	140.00808794409204	pulse	0.0	t		place	house-144.jpg	0.0	241.79961857407943	
280.0	140.4028112503147	ISI	1.0		5.0	place	house-144.jpg	0.0	242.1943418803021	0.11668687092969776
281.0	140.5194981212444	house	0.0		46.0	place	house-104.jpg	0.0	242.3110287512318	0.38330528080041404
281.0	140.70291853012714	pulse	0.0	t		place	house-104.jpg	0.0	242.49444916011453	
281.0	140.9028034020448	ISI	1.0		7.0	place	house-104.jpg	0.0	242.6943340320322	0.11668898392599658
282.0	141.0194923859708	house	0.0		46.0	place	house-98.jpg	0.0	242.8110230159582	0.3833049789427605
282.0	141.40279736491357	ISI	1.0		5.0	place	house-98.jpg	0.0	243.19432799490096	0.11668626721802866
282.0	141.45306855282797	pulse	1.0	t		place	house-98.jpg	0.0	243.24459918281536	
283.0	141.5194836321316	house	0.0		46.0	place	house-10.jpg	0.0	243.311014262119	0.38327117100925534
283.0	141.90275480314085	ISI	1.0		6.0	place	house-10.jpg	0.0	243.69428543312824	0.1166865690756822
284.0	142.01944137221653	house	0.0		46.0	place	house-24.jpg	0.0	243.81097200220393	0.3833061863679177
284.0	142.1028995735378	pulse	0.0	t		place	house-24.jpg	0.0	243.8944302035252	
284.0	142.40274755858445	ISI	1.0		6.0	place	house-24.jpg	0.0	244.19427818857184	0.11668445607938338
285.0	142.51943201466383	house	0.0		46.0	place	house-22.jpg	0.0	244.31096264465123	0.38330920493353915
285.0	142.80285236317468	pulse	0.0	t		place	house-22.jpg	0.0	244.59438299316207	
285.0	142.90274121959737	ISI	1.0		7.0	place	house-22.jpg	0.0	244.69427184958477	0.11668536164870602
286.0	143.01942658124608	house	0.0		46.0	place	house-117.jpg	0.0	244.81095721123347	0.38329803624219494
286.0	143.40272461748827	ISI	1.0		7.0	place	house-117.jpg	0.0	245.19425524747567	0.11668777650083939
287.0	143.5194123939891	house	0.0		45.0	place	house-20.jpg	0.0	245.3109430239765	0.3833140346378059
287.0	143.51140293259778	pulse	0.0	t		place	house-20.jpg	0.0	245.30293356258517	
287.0	143.90272642862692	ISI	1.0		6.0	place	house-20.jpg	0.0	245.6942570586143	0.11668204122725001
288.0	144.01940846985417	house	0.0		46.0	place	house-52.jpg	0.0	245.81093909984156	0.3833095067893737
288.0	144.202834010297	pulse	0.0	t		place	house-52.jpg	0.0	245.9943646402844	
288.0	144.40271797664354	ISI	1.0		7.0	place	house-52.jpg	0.0	246.19424860663094	0.11668747464500484
289.0	144.51940545128855	house	0.0		46.0	place	house-137.jpg	0.0	246.31093608127594	0.3833037715157843
289.0	144.90270922280433	ISI	1.0		6.0	place	house-137.jpg	0.0	246.69423985279172	0.11668536164870602
289.0	144.9477857615475	pulse	1.0	t		place	house-137.jpg	0.0	246.73931639153489	
290.0	145.01939458445304	house	0.0		46.0	place	house-120.jpg	0.0	246.81092521444043	0.38330920493353915
290.0	145.40270378938658	ISI	1.0		6.0	place	house-120.jpg	0.0	247.19423441937397	0.11668355050824175
291.0	145.51938733989482	house	0.0		46.0	place	house-8.jpg	0.0	247.3109179698822	0.3833095067911927
291.0	145.60287391573183	pulse	0.0	t		place	house-8.jpg	0.0	247.39440454571923	
291.0	145.902696846686	ISI	1.0		7.0	place	house-8.jpg	0.0	247.6942274766734	0.11668445607938338
292.0	146.0193813027654	house	0.0		46.0	place	house-99.jpg	0.0	247.8109119327528	0.38330648822375224
292.0	146.30279953827994	pulse	0.0	t		place	house-99.jpg	0.0	248.09433016826733	
292.0	146.40268779098915	ISI	1.0		6.0	place	house-99.jpg	0.0	248.19421842097654	0.11668536164870602
293.0	146.51937315263785	house	0.0		46.0	place	house-110.jpg	0.0	248.31090378262525	0.3833076956525474
293.0	146.9026808482904	ISI	1.0		7.0	place	house-110.jpg	0.0	248.6942114782778	0.11671011388352781
294.0	147.01939096217393	house	0.0		45.0	place	house-112.jpg	0.0	248.81092159216132	0.38327962299263163
294.0	147.00930774636436	pulse	0.0	t		place	house-112.jpg	0.0	248.80083837635175	
294.0	147.40267058516656	ISI	1.0		6.0	place	house-112.jpg	0.0	249.19420121515395	0.11668777650083939
295.0	147.5193583616674	house	0.0		46.0	place	house-45.jpg	0.0	249.3108889916548	0.38333788130512403
295.0	147.70281288033948	pulse	0.0	t		place	house-45.jpg	0.0	249.49434351032687	
295.0	147.90269624297252	ISI	1.0		7.0	place	house-45.jpg	0.0	249.69422687295992	0.11668988949713821
296.0	148.01938613246966	house	0.0		46.0	place	house-25.jpg	0.0	249.81091676245705	0.38330196037713904
296.0	148.4026880928468	ISI	1.0		7.0	place	house-25.jpg	0.0	250.1942187228342	0.11669019135297276
296.0	148.44301401338817	pulse	1.0	t		place	house-25.jpg	0.0	250.23454464337556	
297.0	148.51937828419977	house	0.0		46.0	place	house-89.jpg	0.0	250.31090891418717	0.38330316780229623
297.0	148.90268145200207	ISI	1.0		6.0	place	house-89.jpg	0.0	250.69421208198946	0.11668868207016203
298.0	149.01937013407223	house	0.0		46.0	place	house-35.jpg	0.0	250.81090076405962	0.38330467708692595
298.0	149.10279694231394	pulse	0.0	t		place	house-35.jpg	0.0	250.89432757230134	
298.0	149.40267481115916	ISI	1.0		6.0	place	house-35.jpg	0.0	251.19420544114655	0.11668656907386321
299.0	149.51936138023302	house	0.0		46.0	place	house-85.jpg	0.0	251.3108920102204	0.3833043752292724
299.0	149.80278082317454	pulse	0.0	t		place	house-85.jpg	0.0	251.59431145316194	
299.0	149.9026657554623	ISI	1.0		6.0	place	house-85.jpg	0.0	251.6941963854497	0.1166871727873513
300.0	150.01935292824965	body	0.0		46.0	body	body-35.jpg	0.0	251.81088355823704	0.3833049789427605
300.0	150.4026579071924	ISI	1.0		7.0	body	body-35.jpg	0.0	252.1941885371798	0.11668958763948467
301.0	150.5193474948319	body	0.0		45.0	body	body-28.jpg	0.0	252.31087812481928	0.3833037715176033
301.0	150.5094333186844	pulse	0.0	t		body	body-28.jpg	0.0	252.30096394867178	
301.0	150.9026512663495	ISI	1.0		7.0	body	body-28.jpg	0.0	252.6941818963369	0.11668566350454057
302.0	151.01933692985403	body	0.0		46.0	body	body-1.jpg	0.0	252.81086755984143	0.3833055826544296
302.0	151.20275945173307	pulse	0.0	t		body	body-1.jpg	0.0	252.99429008172046	
302.0	151.40264251250846	ISI	1.0		7.0	body	body-1.jpg	0.0	253.19417314249586	0.11669079506646085
303.0	151.51933330757493	body	0.0		46.0	body	body-101.jpg	0.0	253.31086393756232	0.3833016585213045
303.0	151.90263496609623	ISI	1.0		7.0	body	body-101.jpg	0.0	253.69416559608362	0.11668928578365012
303.0	151.94290655246004	pulse	1.0	t		body	body-101.jpg	0.0	253.73443718244744	
304.0	152.01932425187988	body	0.0		46.0	body	body-81.jpg	0.0	253.81085488186727	0.38330256408880814
304.0	152.4026268159687	ISI	1.0		7.0	body	body-81.jpg	0.0	254.19415744595608	0.11668777650083939
305.0	152.51931459246953	body	0.0		46.0	body	body-81.jpg	1.0	254.31084522245692	0.3833082993642165
305.0	152.60274170256707	pulse	0.0	t		body	body-81.jpg	1.0	254.39427233255446	
305.0	152.90262289183374	ISI	1.0		6.0	body	body-81.jpg	1.0	254.69415352182114	0.11666815582611889
306.0	153.01929104765986	body	0.0		45.0	body	body-13.jpg	0.0	254.81082167764725	0.3833227884788357
306.0	153.02380742518835	response	0.0	b		body	body-13.jpg	0.0	254.81533805517574	
306.0	153.30272648899881	pulse	0.0	t		body	body-13.jpg	0.0	255.0942571189862	
306.0	153.4026138361387	ISI	1.0		6.0	body	body-13.jpg	0.0	255.1941444661261	0.11668536164688703
307.0	153.51929919778559	body	0.0		46.0	body	body-60.jpg	0.0	255.31082982777298	0.38330467708692595
307.0	153.9026038748725	ISI	1.0		7.0	body	body-60.jpg	0.0	255.6941345048599	0.11668415422172984
308.0	154.01928802909424	body	0.0		45.0	body	body-45.jpg	0.0	255.81081865908163	0.38330980864702724
308.0	154.00970861184578	pulse	0.0	t		body	body-45.jpg	0.0	255.80123924183317	
308.0	154.40259783774127	ISI	1.0		6.0	body	body-45.jpg	0.0	256.19412846772866	0.11669049320880731
309.0	154.51928833095008	body	0.0		46.0	body	body-79.jpg	0.0	256.31081896093747	0.3833022622347926
309.0	154.70270753240766	pulse	0.0	t		body	body-79.jpg	0.0	256.49423816239505	
309.0	154.90259059318487	ISI	1.0		7.0	body	body-79.jpg	0.0	256.69412122317226	0.11668807835667394
310.0	155.01927867154154	body	0.0		46.0	body	body-47.jpg	0.0	256.81080930152893	0.3833028659464617
310.0	155.402581537488	ISI	1.0		7.0	body	body-47.jpg	0.0	257.1941121674754	0.1167061897504027
310.0	155.44039420049012	pulse	1.0	t		body	body-47.jpg	0.0	257.2319248304775	
311.0	155.5192877272384	body	0.0		46.0	body	body-9.jpg	0.0	257.3108183572258	0.38328686754903174
311.0	155.90257459478744	ISI	1.0		11.0	body	body-9.jpg	0.0	257.69410522477483	0.10003555870025593
312.0	156.0026101534877	baseline	0.0		48.0		baseline	0.0	257.7941407834751	0.3999955325234623
312.0	156.10272268560584	pulse	0.0	t			baseline	0.0	257.89425331559323	
312.0	156.40260568601116	ISI	1.0		11.0		baseline	0.0	258.19413631599855	0.09999631735081493
313.0	156.50260200336197	baseline	0.0		48.0		baseline	0.0	258.29413263334936	0.39999191024435277
313.0	156.80270747203576	pulse	0.0	t			baseline	0.0	258.59423810202316	
313.0	156.90259391360632	ISI	1.0		11.0		baseline	0.0	258.6941245435937	0.09999963777227094
314.0	157.0025935513786	baseline	0.0		48.0		baseline	0.0	258.794124181366	0.39999311767132895
314.0	157.40258666904992	ISI	1.0		11.0		baseline	0.0	259.1941172990373	0.10002378629542363
315.0	157.50261045534535	baseline	0.0		47.0		baseline	0.0	259.29414108533274	0.39996685615187744
315.0	157.50705740587	pulse	0.0	t			baseline	0.0	259.2985880358574	
315.0	157.90257731149723	ISI	1.0		11.0		baseline	0.0	259.6941079414846	0.10000054334159358
316.0	158.00257785483882	baseline	0.0		48.0		baseline	0.0	259.7941084848262	0.3999940232406516
316.0	158.2026854968808	pulse	0.0	t			baseline	0.0	259.9942161268682	
316.0	158.40257187807947	ISI	1.0		11.0		baseline	0.0	260.19410250806686	0.09999752477597212
317.0	158.50256940285544	baseline	0.0		48.0		baseline	0.0	260.29410003284283	0.39999523066762777
317.0	158.90256463352307	ISI	1.0		11.0		baseline	0.0	260.69409526351046	0.09999963777227094
317.0	158.90727540666194	pulse	1.0	t			baseline	0.0	260.69880603664933	
318.0	159.00256427129534	baseline	0.0		48.0		baseline	0.0	260.79409490128273	0.3999916083866992
318.0	159.40255587968204	ISI	1.0		11.0		baseline	0.0	261.19408650966943	0.10000235448205785
319.0	159.5025582341641	baseline	0.0		48.0		baseline	0.0	261.2940888641515	0.39999191024435277
319.0	159.60267529412886	pulse	0.0	t			baseline	0.0	261.39420592411625	
319.0	159.90255014440845	ISI	1.0		11.0		baseline	0.0	261.69408077439584	0.10000054334159358
320.0	160.00255068775004	baseline	0.0		48.0		baseline	0.0	261.79408131773744	0.39997802484504064
320.0	160.30264347844968	pulse	0.0	t			baseline	0.0	262.0941741084371	
320.0	160.40252871259509	ISI	1.0		11.0		baseline	0.0	262.1940593425825	0.09998846907910774
321.0	160.5025171816742	baseline	0.0		48.0		baseline	0.0	262.2940478116616	0.4000208884735912
321.0	160.90253807014778	ISI	1.0		11.0		baseline	0.0	262.6940687001352	0.10000295819372695
322.0	161.0025410283415	baseline	0.0		47.0		baseline	0.0	262.7940716583289	0.3999861749707634
322.0	161.00698345101773	pulse	0.0	t			baseline	0.0	262.7985140810051	
322.0	161.40252720331227	ISI	1.0		11.0		baseline	0.0	263.19405783329967	0.0999960154931614
323.0	161.50252321880544	baseline	0.0		48.0		baseline	0.0	263.2940538487928	0.3999961362369504
323.0	161.70263478498237	pulse	0.0	t			baseline	0.0	263.49416541496976	
323.0	161.9025193550424	ISI	1.0		6.0		baseline	0.0	263.6940499850298	0.11664974257655558
324.0	162.01916909761894	car	0.0		46.0	object	car-137.jpg	0.0	263.81069972760633	0.38330709193724033
324.0	162.40247618955618	ISI	1.0		6.0	object	car-137.jpg	0.0	264.1940068195436	0.11668626721802866
324.0	162.44730279108626	pulse	1.0	t		object	car-137.jpg	0.0	264.23883342107365	
325.0	162.5191624567742	car	0.0		46.0	object	car-47.jpg	0.0	264.3106930867616	0.38330528079859505
325.0	162.9024677375728	ISI	1.0		7.0	object	car-47.jpg	0.0	264.6939983675602	0.11668687093151675
326.0	163.01915460850432	car	0.0		46.0	object	car-19.jpg	0.0	264.8106852384917	0.38330467708692595
326.0	163.1025826241712	pulse	0.0	t		object	car-19.jpg	0.0	264.8941132541586	
326.0	163.40245928559125	ISI	1.0		6.0	object	car-19.jpg	0.0	265.19398991557864	0.1166910969222954
327.0	163.51915038251354	car	0.0		46.0	object	car-81.jpg	0.0	265.31068101250094	0.38327328400555416
327.0	163.80253511195224	pulse	0.0	t		object	car-81.jpg	0.0	265.59406574193963	
327.0	163.9024236665191	ISI	1.0		7.0	object	car-81.jpg	0.0	265.6939542965065	0.1166832486524072
328.0	164.0191069151715	car	0.0		46.0	object	car-104.jpg	0.0	265.8106375451589	0.3833043752292724
328.0	164.40241129040078	ISI	1.0		6.0	object	car-104.jpg	0.0	266.19394192038817	0.11668294679657265
329.0	164.51909423719735	car	0.0		45.0	object	car-130.jpg	0.0	266.31062486718474	0.3833116197856725
329.0	164.509205718854	pulse	0.0	t		object	car-130.jpg	0.0	266.3007363488414	
329.0	164.90240585698302	ISI	1.0		6.0	object	car-130.jpg	0.0	266.6939364869704	0.11668505979105248
330.0	165.01909091677408	car	0.0		46.0	object	car-28.jpg	0.0	266.81062154676147	0.3833076956525474
330.0	165.20251494793592	pulse	0.0	t		object	car-28.jpg	0.0	266.9940455779233	
330.0	165.40239861242662	ISI	1.0		7.0	object	car-28.jpg	0.0	267.193929242414	0.11668807835667394
331.0	165.5190866907833	car	0.0		46.0	object	car-34.jpg	0.0	267.3106173207707	0.3833031678041152
331.0	165.9023898585874	ISI	1.0		7.0	object	car-34.jpg	0.0	267.6939204885748	0.11668566350454057
331.0	165.9381556324024	pulse	1.0	t		object	car-34.jpg	0.0	267.7296862623898	
332.0	166.01907552209195	car	0.0		46.0	object	car-34.jpg	1.0	267.81060615207934	0.3833067900814058
332.0	166.40238231217336	ISI	1.0		6.0	object	car-34.jpg	1.0	268.19391294216075	0.11668747464318585
332.0	166.46086429979005	response	1.0	b		object	car-34.jpg	1.0	268.25239492977744	
333.0	166.51906978681654	car	0.0		46.0	object	car-68.jpg	0.0	268.31060041680394	0.38330588451208314
333.0	166.60248874678837	pulse	0.0	t		object	car-68.jpg	0.0	268.39401937677576	
333.0	166.90237567132863	ISI	1.0		7.0	object	car-68.jpg	0.0	268.693906301316	0.1166871727873513
334.0	167.01906284411598	car	0.0		46.0	object	car-42.jpg	0.0	268.81059347410337	0.3833049789427605
334.0	167.30248379634213	pulse	0.0	t		object	car-42.jpg	0.0	269.0940144263295	
334.0	167.40236782305874	ISI	1.0		7.0	object	car-42.jpg	0.0	269.19389845304613	0.11668355051006074
335.0	167.5190513735688	car	0.0		46.0	object	car-16.jpg	0.0	269.3105820035562	0.3833107142163499
335.0	167.90236208778515	ISI	1.0		5.0	object	car-16.jpg	0.0	269.69389271777254	0.11667811709048692
336.0	168.01904020487564	word	0.0		45.0	character	word-4.jpg	0.0	269.81057083486303	0.38331192164332606
336.0	168.00930110551963	pulse	0.0	t		character	word-4.jpg	0.0	269.800831735507	
336.0	168.40235212651896	ISI	1.0		6.0	character	word-4.jpg	0.0	270.19388275650635	0.11668505979287147
337.0	168.51903718631183	word	0.0		46.0	character	word-135.jpg	0.0	270.3105678162992	0.3833067900814058
337.0	168.70246031190254	pulse	0.0	t		character	word-135.jpg	0.0	270.49399094188993	
337.0	168.90234397639324	ISI	1.0		6.0	character	word-135.jpg	0.0	270.69387460638063	0.11668566350454057
338.0	169.01902963989778	word	0.0		46.0	character	word-110.jpg	0.0	270.8105602698852	0.3833067900814058
338.0	169.4023364299792	ISI	1.0		6.0	character	word-110.jpg	0.0	271.1938670599666	0.11669441734375141
338.0	169.44762970171723	pulse	1.0	t		character	word-110.jpg	0.0	271.2391603317046	
339.0	169.51903084732294	word	0.0		46.0	character	word-99.jpg	0.0	271.31056147731033	0.3833291274659132
339.0	169.90235997478885	ISI	1.0		6.0	character	word-99.jpg	0.0	271.69389060477624	0.11668868207016203
340.0	170.019048656859	word	0.0		46.0	character	word-84.jpg	0.0	271.8105792868464	0.38330407337343786
340.0	170.10248935050186	pulse	0.0	t		character	word-84.jpg	0.0	271.89401998048925	
340.0	170.40235273023245	ISI	1.0		5.0	character	word-84.jpg	0.0	272.19388336021984	0.11668868207016203
341.0	170.5190414123026	word	0.0		46.0	character	word-53.jpg	0.0	272.31057204229	0.3833043752292724
341.0	170.80246085524414	pulse	0.0	t		character	word-53.jpg	0.0	272.5939914852315	
341.0	170.90234578753189	ISI	1.0		6.0	character	word-53.jpg	0.0	272.6938764175193	0.11668385236589529
342.0	171.01902963989778	word	0.0		46.0	character	word-17.jpg	0.0	272.8105602698852	0.38330980864702724
342.0	171.4023394485448	ISI	1.0		7.0	character	word-17.jpg	0.0	273.1938700785322	0.1166636279776867
343.0	171.5190030765225	word	0.0		45.0	character	word-131.jpg	0.0	273.3105337065099	0.38332882560825965
343.0	171.50937626779705	pulse	0.0	t		character	word-131.jpg	0.0	273.30090689778444	
343.0	171.90233190213075	ISI	1.0		6.0	character	word-131.jpg	0.0	273.69386253211815	0.11668747464500484
344.0	172.01901937677576	word	0.0		46.0	character	word-68.jpg	0.0	273.81055000676315	0.3833037715157843
344.0	172.20243888008918	pulse	0.0	t		character	word-68.jpg	0.0	273.99396951007657	
344.0	172.40232314829154	ISI	1.0		6.0	character	word-68.jpg	0.0	274.19385377827894	0.11668928578365012
345.0	172.5190124340752	word	0.0		46.0	character	word-100.jpg	0.0	274.3105430640626	0.3833037715157843
345.0	172.90231620559098	ISI	1.0		6.0	character	word-100.jpg	0.0	274.69384683557837	0.11668898392781557
345.0	172.9455855292399	pulse	1.0	t		character	word-100.jpg	0.0	274.7371161592273	
346.0	173.0190051895188	word	0.0		46.0	character	word-123.jpg	0.0	274.8105358195062	0.38327056729576725
346.0	173.40227575681456	ISI	1.0		6.0	character	word-123.jpg	0.0	275.19380638680195	0.11668566350454057
347.0	173.5189614203191	word	0.0		46.0	character	word-1.jpg	0.0	275.3104920503065	0.3833061863697367
347.0	173.60238762484732	pulse	0.0	t		character	word-1.jpg	0.0	275.3939182548347	
347.0	173.90226760668884	ISI	1.0		7.0	character	word-1.jpg	0.0	275.69379823667623	0.11668898392599658
348.0	174.01895659061483	body	0.0		46.0	body	body-62.jpg	0.0	275.8104872206022	0.3833067900814058
348.0	174.30237512798703	pulse	0.0	t		body	body-62.jpg	0.0	276.0939057579744	
348.0	174.40226338069624	ISI	1.0		6.0	body	body-62.jpg	0.0	276.19379401068363	0.11668204122725001
349.0	174.5189454219235	body	0.0		46.0	body	body-136.jpg	0.0	276.3104760519109	0.3833082993642165
349.0	174.9022537212877	ISI	1.0		6.0	body	body-136.jpg	0.0	276.6937843512751	0.11667902266162855
350.0	175.01893274394934	body	0.0		45.0	body	body-122.jpg	0.0	276.8104633739367	0.3833122234991606
350.0	175.00895970577403	pulse	0.0	t		body	body-122.jpg	0.0	276.8004903357614	
350.0	175.4022449674485	ISI	1.0		6.0	body	body-122.jpg	0.0	277.1937755974359	0.11670709531790635
351.0	175.5189520627664	body	0.0		46.0	body	body-34.jpg	0.0	277.3104826927538	0.38328626383736264
351.0	175.7023613029578	pulse	0.0	t		body	body-34.jpg	0.0	277.4938919329452	
351.0	175.90223832660377	ISI	1.0		6.0	body	body-34.jpg	0.0	277.69376895659116	0.11668475793521793
352.0	176.01892308453898	body	0.0		46.0	body	body-72.jpg	0.0	277.8104537145264	0.3833070919390593
352.0	176.40223017647804	ISI	1.0		7.0	body	body-72.jpg	0.0	278.19376080646543	0.11668747464318585
352.0	176.43983606775146	pulse	1.0	t		body	body-72.jpg	0.0	278.23136669773885	
353.0	176.51891765112123	body	0.0		46.0	body	body-67.jpg	0.0	278.3104482811086	0.3833082993642165
353.0	176.90222595048544	ISI	1.0		6.0	body	body-67.jpg	0.0	278.69375658047284	0.11668143751376192
354.0	177.0189073879992	body	0.0		46.0	body	body-59.jpg	0.0	278.8104380179866	0.38330135666365095
354.0	177.10230069016507	pulse	0.0	t		body	body-59.jpg	0.0	278.89383132015246	
354.0	177.40220874466286	ISI	1.0		7.0	body	body-59.jpg	0.0	279.19373937465025	0.11669290806275967
355.0	177.51890165272562	body	0.0		46.0	body	body-82.jpg	0.0	279.310432282713	0.3833167513475928
355.0	177.80232351051927	pulse	0.0	t		body	body-82.jpg	0.0	279.59385414050666	
355.0	177.9022184040732	ISI	1.0		7.0	body	body-82.jpg	0.0	279.6937490340606	0.116672079959244
356.0	178.01889048403245	body	0.0		46.0	body	body-87.jpg	0.0	279.81042111401985	0.38330799750838196
356.0	178.40219848154084	ISI	1.0		6.0	body	body-87.jpg	0.0	280.1937291115282	0.11667811709230591
357.0	178.51887659863314	body	0.0		45.0	body	body-50.jpg	0.0	280.31040722862053	0.383314638351294
357.0	178.50888816577572	pulse	0.0	t		body	body-50.jpg	0.0	280.3004187957631	
357.0	178.90219123698444	ISI	1.0		6.0	body	body-50.jpg	0.0	280.6937218669718	0.11667298553038563
358.0	179.01886422251482	body	0.0		46.0	body	body-44.jpg	0.0	280.8103948525022	0.3833514648486016
358.0	179.2023317210169	pulse	0.0	t		body	body-44.jpg	0.0	280.9938623510043	
358.0	179.40221568736342	ISI	1.0		7.0	body	body-44.jpg	0.0	281.1937463173508	0.11668958763948467
359.0	179.5189052750029	body	0.0		46.0	body	body-52.jpg	0.0	281.3104359049903	0.38330196037713904
359.0	179.90220723538005	ISI	1.0		6.0	body	body-52.jpg	0.0	281.69373786536744	0.11669109692411439
359.0	179.9506286464275	pulse	1.0	t		body	body-52.jpg	0.0	281.7421592764149	
360.0	180.01889833230416	word	0.0		46.0	character	word-78.jpg	0.0	281.81042896229155	0.38326935987061006
360.0	180.40216769217477	ISI	1.0		6.0	character	word-78.jpg	0.0	282.19369832216216	0.11668777650083939
361.0	180.5188554686756	word	0.0		46.0	character	word-63.jpg	0.0	282.310386098663	0.3833049789409415
361.0	180.6022858991946	pulse	0.0	t		character	word-63.jpg	0.0	282.393816529182	
361.0	180.90216044761655	ISI	1.0		6.0	character	word-63.jpg	0.0	282.69369107760394	0.1166865690756822
362.0	181.01884701669223	word	0.0		46.0	character	word-49.jpg	0.0	282.8103776466796	0.38330588451208314
362.0	181.3022697800552	pulse	0.0	t		character	word-49.jpg	0.0	283.0938004100426	
362.0	181.40215290120432	ISI	1.0		6.0	character	word-49.jpg	0.0	283.1936835311917	0.11668505979105248
363.0	181.51883796099537	word	0.0		46.0	character	word-101.jpg	0.0	283.31036859098276	0.3833070919390593
363.0	181.90214505293443	ISI	1.0		7.0	character	word-101.jpg	0.0	283.6936756829218	0.11668113565610838
364.0	182.01882618859054	word	0.0		45.0	character	word-67.jpg	0.0	283.81035681857793	0.3833128272126487
364.0	182.00884801885513	pulse	0.0	t		character	word-67.jpg	0.0	283.8003786488425	
364.0	182.4021390158032	ISI	1.0		6.0	character	word-67.jpg	0.0	284.1936696457906	0.11668687093151675
365.0	182.5188258867347	word	0.0		46.0	character	word-89.jpg	0.0	284.3103565167221	0.38330467708510696
365.0	182.70224659747328	pulse	0.0	t		character	word-89.jpg	0.0	284.49377722746067	
365.0	182.9021305638198	ISI	1.0		7.0	character	word-89.jpg	0.0	284.6936611938072	0.11668566350454057
366.0	183.01881622732435	word	0.0		46.0	character	word-107.jpg	0.0	284.81034685731174	0.3833067900814058
366.0	183.40212301740576	ISI	1.0		6.0	character	word-107.jpg	0.0	285.19365364739315	0.1166865690756822
366.0	183.4479240118435	pulse	1.0	t		character	word-107.jpg	0.0	285.2394546418309	
367.0	183.51880958648144	word	0.0		46.0	character	word-61.jpg	0.0	285.31034021646883	0.38330588451208314
367.0	183.90211547099352	ISI	1.0		6.0	character	word-61.jpg	0.0	285.6936461009809	0.1166832486524072
368.0	184.01879871964593	word	0.0		46.0	character	word-46.jpg	0.0	285.8103293496333	0.38330920493353915
368.0	184.10222854645326	pulse	0.0	t		character	word-46.jpg	0.0	285.89375917644065	
368.0	184.40210792457947	ISI	1.0		6.0	character	word-46.jpg	0.0	286.19363855456686	0.11668838021432748
369.0	184.5187963047938	word	0.0		46.0	character	word-93.jpg	0.0	286.3103269347812	0.3833049789427605
369.0	184.80221544587948	pulse	0.0	t		character	word-93.jpg	0.0	286.5937460758669	
369.0	184.90210128373656	ISI	1.0		7.0	character	word-93.jpg	0.0	286.69363191372395	0.11668294679475366
370.0	185.0187842305313	word	0.0		46.0	character	word-55.jpg	0.0	286.8103148605187	0.3833076956525474
370.0	185.40209192618386	ISI	1.0		6.0	character	word-55.jpg	0.0	287.19362255617125	0.11668023008678574
371.0	185.51877215627064	word	0.0		45.0	character	word-90.jpg	0.0	287.31030278625803	0.38331494020712853
371.0	185.50885164113424	pulse	0.0	t		character	word-90.jpg	0.0	287.30038227112163	
371.0	185.90208709647777	ISI	1.0		6.0	character	word-90.jpg	0.0	287.69361772646516	0.11668868207016203
372.0	186.01877577854793	house	0.0		46.0	place	house-78.jpg	0.0	287.8103064085353	0.383334560883668
372.0	186.2022272786544	pulse	0.0	t		place	house-78.jpg	0.0	287.9937579086418	
372.0	186.4021103394316	ISI	1.0		6.0	place	house-78.jpg	0.0	288.193640969419	0.1166871727873513
373.0	186.51879751221895	house	0.0		46.0	place	house-61.jpg	0.0	288.31032814220634	0.3833049789427605
373.0	186.9021024911617	ISI	1.0		6.0	place	house-61.jpg	0.0	288.6936331211491	0.11668747464500484
373.0	186.94871547968614	pulse	1.0	t		place	house-61.jpg	0.0	288.74024610967354	
374.0	187.01878996580672	house	0.0		46.0	place	house-109.jpg	0.0	288.8103205957941	0.38330407337161887
374.0	187.40209403917834	ISI	1.0		7.0	place	house-109.jpg	0.0	289.19362466916573	0.1166871727873513
375.0	187.5187812119657	house	0.0		46.0	place	house-109.jpg	1.0	289.3103118419531	0.38330588451208314
375.0	187.60220530349943	pulse	0.0	t		place	house-109.jpg	1.0	289.3937359334868	
375.0	187.90208709647777	ISI	1.0		6.0	place	house-109.jpg	1.0	289.69361772646516	0.11668475793521793
376.0	188.018771854413	house	0.0		46.0	place	house-13.jpg	0.0	289.8103024844004	0.3833055826562486
376.0	188.302191901068	pulse	0.0	t		place	house-13.jpg	0.0	290.0937225310554	
376.0	188.32716207764315	response	0.0	b		place	house-13.jpg	0.0	290.11869270763054	
376.0	188.40207743706924	ISI	1.0		6.0	place	house-13.jpg	0.0	290.19360806705663	0.11669049320880731
377.0	188.51876793027805	house	0.0		46.0	place	house-21.jpg	0.0	290.31029856026544	0.38330407337343786
377.0	188.90207200365148	ISI	1.0		7.0	place	house-21.jpg	0.0	290.6936026336389	0.11668234308308456
378.0	189.01875434673457	house	0.0		45.0	place	house-129.jpg	0.0	290.81028497672196	0.38330799750838196
378.0	189.00896574290527	pulse	0.0	t		place	house-129.jpg	0.0	290.80049637289267	
378.0	189.40206234424295	ISI	1.0		7.0	place	house-129.jpg	0.0	291.19359297423034	0.11669079506464186
379.0	189.5187531393076	house	0.0		46.0	place	house-32.jpg	0.0	291.310283769295	0.3832735858632077
379.0	189.7021394384028	pulse	0.0	t		place	house-32.jpg	0.0	291.4936700683902	
379.0	189.9020267251708	ISI	1.0		6.0	place	house-32.jpg	0.0	291.6935573551582	0.11668294679657265
380.0	190.01870967196737	house	0.0		46.0	place	house-118.jpg	0.0	291.81024030195476	0.3833076956507284
380.0	190.4020173676181	ISI	1.0		4.0	place	house-118.jpg	0.0	292.1935479976055	0.1166871727873513
380.0	190.45980176477497	pulse	1.0	t		place	house-118.jpg	0.0	292.25133239476236	
381.0	190.51870454040545	house	0.0		46.0	place	house-90.jpg	0.0	292.31023517039284	0.3833028659464617
381.0	190.9020074063519	ISI	1.0		6.0	place	house-90.jpg	0.0	292.6935380363393	0.11668807835667394
382.0	191.0186954847086	house	0.0		46.0	place	house-17.jpg	0.0	292.810226114696	0.3833049789427605
382.0	191.10211987809816	pulse	0.0	t		place	house-17.jpg	0.0	292.89365050808556	
382.0	191.40200046365135	ISI	1.0		6.0	place	house-17.jpg	0.0	293.19353109363874	0.11668626721802866
383.0	191.51868673086938	house	0.0		46.0	place	house-71.jpg	0.0	293.31021736085677	0.38330920493535814
383.0	191.8021067775244	pulse	0.0	t		place	house-71.jpg	0.0	293.5936374075118	
383.0	191.90199593580473	ISI	1.0		6.0	place	house-71.jpg	0.0	293.6935265657921	0.11666875953778799
384.0	192.01866469534252	word	0.0		46.0	character	word-140.jpg	0.0	293.8101953253299	0.38332097733837145
384.0	192.4019856726809	ISI	1.0		6.0	character	word-140.jpg	0.0	294.1935163026683	0.11667902266162855
385.0	192.51866469534252	word	0.0		45.0	character	word-94.jpg	0.0	294.3101953253299	0.3833149402089475
385.0	192.50875806560725	pulse	0.0	t		character	word-94.jpg	0.0	294.30028869559465	
385.0	192.90197963555147	ISI	1.0		7.0	character	word-94.jpg	0.0	294.69351026553886	0.11668294679475366
386.0	193.01866258234622	word	0.0		46.0	character	word-16.jpg	0.0	294.8101932123336	0.38330799750838196
386.0	193.20209144321234	pulse	0.0	t		character	word-16.jpg	0.0	294.99362207319973	
386.0	193.4019705798546	ISI	1.0		7.0	character	word-16.jpg	0.0	295.193501209842	0.11668505979105248
387.0	193.51865563964566	word	0.0		46.0	character	word-42.jpg	0.0	295.31018626963305	0.38331252535681415
387.0	193.90196816500247	ISI	1.0		4.0	character	word-42.jpg	0.0	295.69349879498986	0.11668053194262029
387.0	193.96142182881704	pulse	1.0	t		character	word-42.jpg	0.0	295.75295245880443	
388.0	194.0186486969451	word	0.0		46.0	character	word-66.jpg	0.0	295.8101793269325	0.38329471582073893
388.0	194.40194341276583	ISI	1.0		7.0	character	word-66.jpg	0.0	296.1934740427532	0.11669622848421568
389.0	194.51863964125005	word	0.0		46.0	character	word-66.jpg	1.0	296.31017027123744	0.3833089030777046
