trial_nr	onset	event_type	phase	response	nr_frames	rating_type	face_id	repetition	session	rating	onset_abs	duration
0.0	0.010534189479130873	cue	0.0		479						33.91120829550073	3.9921351278903785
0.0	4.002669317369509	fix	1.0		120						37.90334342339111	1.0169220775460417
0.0	5.019591394915551	face	0.0		147	trustworthiness	038	1.0	1		38.92026550093715	1.2836609281725941
0.0	6.303252323088145	rating	1.0		454	trustworthiness	038	1.0	1		40.20392642910974	3.791822223402505
0.0	10.09507454649065	fix	2.0		60	trustworthiness	038	1.0	1	-1.4700000000000002	43.99574865251225	0.5250405091478569
1.0	10.620115055638507	face	0.0		146	trustworthiness	117	1.0	1		44.520789161660105	1.2251448307670216
1.0	11.845259886405529	rating	1.0		442	trustworthiness	117	1.0	1		45.745933992427126	3.692116895755589
1.0	15.537376782161118	fix	2.0		60	trustworthiness	117	1.0	1	0.5300000000000002	49.438050888182715	0.5167738659852148
2.0	16.054150648146333	face	0.0		147	trustworthiness	066	1.0	1		49.95482475416793	1.2334633932541692
2.0	17.287614041400502	rating	1.0		147	trustworthiness	066	1.0	1		51.1882881474221	1.2334467911441607
2.0	18.521060832544663	fix	2.0		60	trustworthiness	066	1.0	1	2.96	52.42173493856626	0.516779903116003
3.0	19.037840735660666	face	0.0		147	trustworthiness	144	1.0	1		52.93851484168226	1.2334579598364144
3.0	20.27129869549708	rating	1.0		154	trustworthiness	144	1.0	1		54.17197280151868	1.2917986785928406
3.0	21.56309737408992	fix	2.0		60	trustworthiness	144	1.0	1	3.3099999999999996	55.46377148011152	0.5167678288544266
4.0	22.079865202944347	face	0.0		147	trustworthiness	018	1.0	1		55.980539308965945	1.2334902584857446
4.0	23.313355461430092	rating	1.0		303	trustworthiness	018	1.0	1		57.21402956745169	2.533589086316624
4.0	25.846944547746716	fix	2.0		59	trustworthiness	018	1.0	1	1.71	59.74761865376831	0.516768734424204
5.0	26.36371328217092	face	0.0		147	trustworthiness	062	1.0	1		60.26438738819252	1.2334576579796703
5.0	27.59717094015059	rating	1.0		136	trustworthiness	062	1.0	1		61.49784504617219	1.1417832235379137
5.0	28.738954163688504	fix	2.0		60	trustworthiness	062	1.0	1	0.3899999999999997	62.6396282697101	0.5167723567028588
6.0	29.255726520391363	face	0.0		147	trustworthiness	121	1.0	1		63.15640062641296	1.233435924308651
6.0	30.489162444700014	rating	1.0		476	trustworthiness	121	1.0	1		64.38983655072161	3.9671746107255785
6.0	34.45633705542559	fix	2.0		60	trustworthiness	121	1.0	1	1.3899999999999997	68.35701116144719	0.5167430766186953
7.0	34.97308013204429	face	0.0		147	trustworthiness	136	1.0	1		68.87375423806589	1.2334597709755144
7.0	36.2065399030198	rating	1.0		590	trustworthiness	136	1.0	1		70.1072140090414	4.925576666731104
7.0	41.132116569750906	fix	2.0		60	trustworthiness	136	1.0	1	0.6500000000000004	75.0327906757725	0.5167856383900471
8.0	41.64890220814095	face	0.0		147	trustworthiness	034	1.0	1		75.54957631416255	1.2334507152795595
8.0	42.88235292342051	rating	1.0		1105	trustworthiness	034	1.0	1		76.78302702944211	9.217766551397744
8.0	52.10011947481826	fix	2.0		60	trustworthiness	034	1.0	1	0.16999999999999993	86.00079358083985	0.5167620935799278
9.0	52.616881568398185	face	0.0		147	trustworthiness	126	1.0	1		86.51755567441978	1.2334588654061918
9.0	53.85034043380438	rating	1.0		384	trustworthiness	126	1.0	1		87.75101453982597	3.2086987809825587
9.0	57.059039214786935	fix	2.0		60	trustworthiness	126	1.0	1	1.7000000000000002	90.95971332080853	0.5167512267448728
10.0	57.57579044153181	face	0.0		147	trustworthiness	033	1.0	1		91.4764645475534	1.233449507853038
10.0	58.809239949384846	rating	1.0		219	trustworthiness	033	1.0	1		92.70991405540644	1.8335487582830865
10.0	60.64278870766793	fix	2.0		60	trustworthiness	033	1.0	1	-1.1600000000000001	94.54346281368953	0.5167657158585826
11.0	61.159554423526515	face	0.0		147	trustworthiness	130	1.0	1		95.06022852954811	1.233449507853038
11.0	62.39300393137955	rating	1.0		204	trustworthiness	130	1.0	1		96.29367803740115	1.7085747179453392
11.0	64.10157864932489	fix	2.0		60	trustworthiness	130	1.0	1	-1.92	98.00225275534649	0.5167479063229621
12.0	64.61832655564785	face	0.0		147	trustworthiness	061	1.0	1		98.51900066166945	1.2334567524103477
12.0	65.8517833080582	rating	1.0		214	trustworthiness	061	1.0	1		99.7524574140798	1.7918777650056654
12.0	67.64366107306387	fix	2.0		60	trustworthiness	061	1.0	1	0.5599999999999996	101.54433517908546	0.5167578675886944
13.0	68.16041894065256	face	0.0		147	trustworthiness	009	1.0	1		102.06109304667416	1.2334519227056262
13.0	69.39387086335819	rating	1.0		229	trustworthiness	009	1.0	1		103.29454496937979	1.9168964801110633
13.0	71.31076734346925	fix	2.0		60	trustworthiness	009	1.0	1	2.7800000000000002	105.21144144949085	0.5167563583063384
14.0	71.82752370177559	face	0.0		147	trustworthiness	172	1.0	1		105.72819780779719	1.233460978401581
14.0	73.06098468017717	rating	1.0		226	trustworthiness	172	1.0	1		106.96165878619877	1.8918810250565912
14.0	74.95286570523376	fix	2.0		60	trustworthiness	172	1.0	1	-0.3500000000000001	108.85353981125536	0.5167560564495943
15.0	75.46962176168336	face	0.0		147	trustworthiness	006	1.0	1		109.37029586770495	1.2334561486968596
15.0	76.70307791038022	rating	1.0		338	trustworthiness	006	1.0	1		110.60375201640181	2.8253527495508024
15.0	79.52843065993102	fix	2.0		60	trustworthiness	006	1.0	1	0.2999999999999998	113.42910476595262	0.516734322778575
16.0	80.0451649827096	face	0.0		147	trustworthiness	100	1.0	1		113.94583908873119	1.2334670155323693
16.0	81.27863199824196	rating	1.0		313	trustworthiness	100	1.0	1		115.17930610426356	2.616965484516186
16.0	83.89559748275815	fix	2.0		60	trustworthiness	100	1.0	1	1.83	117.79627158877975	0.5167539434537503
17.0	84.4123514262119	face	0.0		147	trustworthiness	102	1.0	1		118.3130255322335	1.2335098791609198
17.0	85.64586130537282	rating	1.0		907	trustworthiness	102	1.0	1		119.54653541139442	7.56754009862243
17.0	93.21340140399525	fix	2.0		60	trustworthiness	102	1.0	1	1.7400000000000002	127.11407551001685	0.5167602824412825
18.0	93.73016168643653	face	0.0		147	trustworthiness	027	1.0	1		127.63083579245813	1.23344709300045
18.0	94.96360877943698	rating	1.0		150	trustworthiness	027	1.0	1		128.86428288545858	1.2585120525282036
18.0	96.22212083196519	fix	2.0		60	trustworthiness	027	1.0	1	-0.5	130.12279493798678	0.5167156076731771
19.0	96.73883643963836	face	0.0		147	trustworthiness	024	1.0	1		130.63951054565996	1.2334543375577596
19.0	97.97229077719612	rating	1.0		218	trustworthiness	024	1.0	1		131.87296488321772	1.8252259698047055
19.0	99.79751674700083	fix	2.0		60	trustworthiness	024	1.0	1	0.8499999999999996	133.69819085302242	0.5167466988968954
20.0	100.31426344589772	face	0.0		147	trustworthiness	011	1.0	1		134.21493755191932	1.2334636951104585
20.0	101.54772714100818	rating	1.0		185	trustworthiness	011	1.0	1		135.44840124702978	1.5501670474081948
20.0	103.09789418841638	fix	2.0		61	trustworthiness	011	1.0	1	-0.5099999999999998	136.99856829443797	0.5251129547168603
21.0	103.62300714313324	face	0.0		146	trustworthiness	039	1.0	1		137.52368124915483	1.2250971374342043
21.0	104.84810428056744	rating	1.0		179	trustworthiness	039	1.0	1		138.74877838658904	1.5001753786486915
21.0	106.34827965921613	fix	2.0		60	trustworthiness	039	1.0	1	-1.0099999999999998	140.24895376523773	0.516765112146004
22.0	106.86504477136214	face	0.0		147	trustworthiness	070	1.0	1		140.76571887738373	1.2334649025365252
22.0	108.09850967389866	rating	1.0		458	trustworthiness	070	1.0	1		141.99918377992026	3.8254574937695907
22.0	111.92396716766825	fix	2.0		60	trustworthiness	070	1.0	1	-0.81	145.82464127368985	0.5167654140022933
23.0	112.44073258167055	face	0.0		147	trustworthiness	036	1.0	1		146.34140668769214	1.2334259630429187
23.0	113.67415854471346	rating	1.0		188	trustworthiness	036	1.0	1		147.57483265073506	1.5751888414506539
23.0	115.24934738616412	fix	2.0		60	trustworthiness	036	1.0	1	0.9500000000000002	149.15002149218572	0.516770545563304
24.0	115.76611793172742	face	0.0		147	trustworthiness	044	1.0	1		149.66679203774902	1.2334449800050606
24.0	116.99956291173248	rating	1.0		292	trustworthiness	044	1.0	1		150.90023701775408	2.441984078878704
24.0	119.44154699061119	fix	2.0		60	trustworthiness	044	1.0	1	-1.08	153.34222109663278	0.5167331153525083
25.0	119.9582801059637	face	0.0		147	trustworthiness	091	1.0	1		153.8589542119853	1.233445885574838
25.0	121.19172599153853	rating	1.0		407	trustworthiness	091	1.0	1		155.09240009756013	3.400421452098726
25.0	124.59214744363726	fix	2.0		60	trustworthiness	091	1.0	1	1.17	158.49282154965886	0.5167548490235276
26.0	125.10890229266079	face	0.0		147	trustworthiness	092	1.0	1		159.00957639868238	1.2334751656590015
26.0	126.34237745831979	rating	1.0		1214	trustworthiness	092	1.0	1		160.24305156434139	10.126209237293097
26.0	136.46858669561288	fix	2.0		60	trustworthiness	092	1.0	1	-0.31000000000000005	170.36926080163448	0.5167476044666728
27.0	136.98533430007956	face	0.0		147	trustworthiness	064	1.0	1		170.88600840610115	1.2334326038867403
27.0	138.2187669039663	rating	1.0		314	trustworthiness	064	1.0	1		172.1194410099879	2.625358303710982
27.0	140.84412520767728	fix	2.0		60	trustworthiness	064	1.0	1	1.8600000000000003	174.74479931369888	0.5167364357748738
28.0	141.36086164345215	face	0.0		147	trustworthiness	124	1.0	1		175.26153574947375	1.2334350187393284
28.0	142.59429666219148	rating	1.0		364	trustworthiness	124	1.0	1		176.49497076821308	3.0420519362282903
28.0	145.63634859841977	fix	2.0		60	trustworthiness	124	1.0	1	0.8799999999999999	179.53702270444137	0.516755452736561
29.0	146.15310405115633	face	0.0		147	trustworthiness	101	1.0	1		180.05377815717793	1.2334618839713585
29.0	147.3865659351277	rating	1.0		234	trustworthiness	101	1.0	1		181.2872400411493	1.9585397025866769
29.0	149.34510563771437	fix	2.0		60	trustworthiness	101	1.0	1	0.7699999999999996	183.24577974373597	0.5167786956899363
30.0	149.8618843334043	face	0.0		147	trustworthiness	087	1.0	1		183.7625584394259	1.233483617641923
30.0	151.09536795104623	rating	1.0		381	trustworthiness	087	1.0	1		184.99604205706783	3.183655555126279
30.0	154.2790235061725	fix	2.0		60	trustworthiness	087	1.0	1	1.6600000000000001	188.1796976121941	0.5167681307111707
31.0	154.79579163688368	face	0.0		147	trustworthiness	099	1.0	1		188.69646574290527	1.233456752409893
31.0	156.02924838929357	rating	1.0		163	trustworthiness	099	1.0	1		189.92992249531517	1.3668350824914342
31.0	157.396083471785	fix	2.0		60	trustworthiness	099	1.0	1	0.8399999999999999	191.2967575778066	0.5167593768715051
32.0	157.9128428486565	face	0.0		147	trustworthiness	030	1.0	1		191.8135169546781	1.2334582616927037
32.0	159.1463011103492	rating	1.0		294	trustworthiness	030	1.0	1		193.0469752163708	2.4586070165946694
32.0	161.60490812694388	fix	2.0		60	trustworthiness	030	1.0	1	-0.41999999999999993	195.50558223296548	0.5167660177157813
33.0	162.12167414465966	face	0.0		147	trustworthiness	043	1.0	1		196.02234825068126	1.233481504646079
33.0	163.35515564930574	rating	1.0		164	trustworthiness	043	1.0	1		197.25582975532734	1.3751343261596958
33.0	164.73028997546544	fix	2.0		60	trustworthiness	043	1.0	1	0.5800000000000001	198.63096408148704	0.5084142510090714
34.0	165.2387042264745	face	0.0		148	trustworthiness	141	1.0	1		199.1393783324961	1.24180248198536
34.0	166.48050670845987	rating	1.0		353	trustworthiness	141	1.0	1		200.38118081448147	2.9503681442342895
34.0	169.43087485269416	fix	2.0		60	trustworthiness	141	1.0	1	0.2599999999999998	203.33154895871576	0.5167479063229621
35.0	169.94762275901712	face	0.0		147	trustworthiness	137	1.0	1		203.84829686503872	1.2334338113132617
35.0	171.18105657033038	rating	1.0		298	trustworthiness	137	1.0	1		205.08173067635198	2.492005329579115
35.0	173.6730618999095	fix	2.0		60	trustworthiness	137	1.0	1	-0.3500000000000001	207.5737360059311	0.5167539434537503
36.0	174.18981584336325	face	0.0		147	trustworthiness	042	1.0	1		208.09048994938485	1.2334507152791048
36.0	175.42326655864235	rating	1.0		285	trustworthiness	042	1.0	1		209.32394066466395	2.3836210227382253
36.0	177.80688758138058	fix	2.0		60	trustworthiness	042	1.0	1	2.0199999999999996	211.70756168740218	0.5167491137494835
37.0	178.32363669513006	face	0.0		147	trustworthiness	012	1.0	1		212.22431080115166	1.2334422632961832
37.0	179.55707895842625	rating	1.0		323	trustworthiness	012	1.0	1		213.45775306444784	2.700340373432482
37.0	182.25741933185873	fix	2.0		60	trustworthiness	012	1.0	1	0.71	216.15809343788032	0.5167482081797061
38.0	182.77416754003843	face	0.0		147	trustworthiness	082	1.0	1		216.67484164606003	1.2334573561229263
38.0	184.00762489616136	rating	1.0		178	trustworthiness	082	1.0	1		217.90829900218296	1.4918142543901922
38.0	185.49943915055155	fix	2.0		60	trustworthiness	082	1.0	1	0.9299999999999997	219.40011325657315	0.5167708474200481
39.0	186.0162099979716	face	0.0		147	trustworthiness	005	1.0	1		219.9168841039932	1.2334603746885477
39.0	187.24967037266015	rating	1.0		255	trustworthiness	005	1.0	1		221.15034447868175	2.1419075884318772
39.0	189.39157796109203	fix	2.0		60	trustworthiness	005	1.0	1	-0.41999999999999993	223.29225206711362	0.500057050885971
40.0	189.891635011978	cue	0.0		480						223.7923091179996	4.000509835693265
40.0	193.89214484767126	fix	1.0		120						227.79281895369286	1.0168070702047771
40.0	194.90895191787604	face	0.0		147	dominance	039	1.0	1		228.80962602389764	1.233449507853038
40.0	196.14240142572908	rating	1.0		456	dominance	039	1.0	1		230.04307553175067	3.8088073889648513
40.0	199.95120881469393	fix	2.0		60	dominance	039	1.0	1	1.2699999999999996	233.85188292071552	0.5085205045111252
41.0	200.45972931920505	face	0.0		148	dominance	043	1.0	1		234.36040342522665	1.2416814375133072
41.0	201.70141075671836	rating	1.0		213	dominance	043	1.0	1		235.60208486273996	1.7835356577088533
41.0	203.4849464144272	fix	2.0		60	dominance	043	1.0	1	-1.3599999999999999	237.3856205204488	0.5167919773780341
42.0	204.00173839180525	face	0.0		147	dominance	124	1.0	1		237.90241249782684	1.2333987959545993
42.0	205.23513718775985	rating	1.0		162	dominance	124	1.0	1		239.13581129378144	1.3584959937597887
42.0	206.59363318151964	fix	2.0		60	dominance	124	1.0	1	1.3099999999999996	240.49430728754123	0.5167796012597137
43.0	207.11041278277935	face	0.0		147	dominance	137	1.0	1		241.01108688880095	1.2334534319879822
43.0	208.34386621476733	rating	1.0		436	dominance	137	1.0	1		242.24454032078893	3.6421152657303537
43.0	211.98598148049768	fix	2.0		60	dominance	137	1.0	1	-0.3999999999999999	245.88665558651928	0.516757263875661
44.0	212.50273874437335	face	0.0		147	dominance	100	1.0	1		246.40341285039494	1.2334470930009047
44.0	213.73618583737425	rating	1.0		314	dominance	100	1.0	1		247.63685994339585	2.6252991398296217
44.0	216.36148497720387	fix	2.0		60	dominance	100	1.0	1	-1.4	250.26215908322547	0.5167587731584717
45.0	216.87824375036234	face	0.0		147	dominance	062	1.0	1		250.77891785638394	1.2334573561229263
45.0	218.11170110648527	rating	1.0		381	dominance	062	1.0	1		252.01237521250687	3.1836911741979748
45.0	221.29539228068325	fix	2.0		60	dominance	062	1.0	1	-2.13	255.19606638670484	0.5167774882638696
46.0	221.81216976894711	face	0.0		147	dominance	005	1.0	1		255.7128438749687	1.23346852481518
46.0	223.0456382937623	rating	1.0		224	dominance	005	1.0	1		256.9463123997839	1.8752155255683647
46.0	224.92085381933066	fix	2.0		60	dominance	005	1.0	1	-3.26	258.82152792535226	0.5084036860303058
47.0	225.42925750536097	face	0.0		148	dominance	033	1.0	1		259.32993161138256	1.2418136506771589
47.0	226.67107115603812	rating	1.0		261	dominance	033	1.0	1		260.5717452620597	2.183564394451878
47.0	228.85463555049	fix	2.0		61	dominance	033	1.0	1	0.6100000000000003	262.7553096565116	0.5251011823115732
48.0	229.37973673280158	face	0.0		146	dominance	121	1.0	1		263.2804108388232	1.2251412084888216
48.0	230.6048779412904	rating	1.0		280	dominance	121	1.0	1		264.505552047312	2.341925277225073
48.0	232.94680321851547	fix	2.0		60	dominance	121	1.0	1	0.21999999999999975	266.84747732453707	0.5167744696982481
49.0	233.46357768821372	face	0.0		147	dominance	099	1.0	1		267.3642517942353	1.2334184166297746
49.0	234.6969961048435	rating	1.0		154	dominance	099	1.0	1		268.5976702108651	1.29185271091319
49.0	235.98884881575668	fix	2.0		61	dominance	099	1.0	1	-2.81	269.8895229217783	0.5167388506265524
50.0	236.50558766638324	face	0.0		147	dominance	172	1.0	1		270.40626177240483	1.2334857306377671
50.0	237.739073397021	rating	1.0		319	dominance	172	1.0	1		271.6397475030426	2.666975566524343
50.0	240.40604896354535	fix	2.0		60	dominance	172	1.0	1	-0.2799999999999998	274.30672306956694	0.5167590750152158
51.0	240.92280803856056	face	0.0		147	dominance	038	1.0	1		274.82348214458216	1.2334516208488822
51.0	242.15625965940944	rating	1.0		187	dominance	038	1.0	1		276.05693376543104	1.566849450862719
51.0	243.72310911027216	fix	2.0		60	dominance	038	1.0	1	1.08	277.62378321629376	0.5167602824408277
52.0	244.239869392713	face	0.0		147	dominance	018	1.0	1		278.1405434987346	1.2334464892878714
52.0	245.47331588200086	rating	1.0		158	dominance	018	1.0	1		279.37398998802246	1.3251538260919915
52.0	246.79846970809285	fix	2.0		60	dominance	018	1.0	1	-3.81	280.69914381411445	0.5167666214283599
53.0	247.3152363295212	face	0.0		147	dominance	091	1.0	1		281.2159104355428	1.2334398484440499
53.0	248.54867617796526	rating	1.0		286	dominance	091	1.0	1		282.44935028398686	2.39196584674346
53.0	250.94064202470872	fix	2.0		60	dominance	091	1.0	1	-0.2599999999999998	284.8413161307303	0.5167503211755502
54.0	251.45739234588427	face	0.0		147	dominance	117	1.0	1		285.35806645190587	1.233460978401581
54.0	252.69085332428585	rating	1.0		166	dominance	117	1.0	1		286.59152743030745	1.391839066997818
54.0	254.08269239128367	fix	2.0		61	dominance	117	1.0	1	1.67	287.98336649730527	0.5250845802020194
55.0	254.6077769714857	face	0.0		146	dominance	136	1.0	1		288.5084510775073	1.2250929114425162
55.0	255.8328698829282	rating	1.0		328	dominance	136	1.0	1		289.7335439889498	2.742014988988103
55.0	258.5748848719163	fix	2.0		61	dominance	136	1.0	1	1.9800000000000004	292.4755589779379	0.525081863493142
56.0	259.09996673540945	face	0.0		146	dominance	011	1.0	1		293.00064084143105	1.2251366806408441
56.0	260.3251034160503	rating	1.0		241	dominance	011	1.0	1		294.2257775220719	2.0168752897820923
56.0	262.3419787058324	fix	2.0		60	dominance	011	1.0	1	3.04	296.242652811854	0.5167488118927395
57.0	262.85872751772513	face	0.0		147	dominance	030	1.0	1		296.7594016237467	1.2334935789076553
57.0	264.0922210966328	rating	1.0		201	dominance	030	1.0	1		297.9928952026544	1.6835260586713048
57.0	265.7757471553041	fix	2.0		61	dominance	030	1.0	1	2.9000000000000004	299.6764212613257	0.5250788449279753
58.0	266.30082600023206	face	0.0		146	dominance	101	1.0	1		300.20150010625366	1.2251291342272452
58.0	267.5259551344593	rating	1.0		319	dominance	101	1.0	1		301.4266292404809	2.6669976020516515
58.0	270.19295273651096	fix	2.0		60	dominance	101	1.0	1	0.9000000000000004	304.09362684253256	0.516747604466218
59.0	270.7097003409772	face	0.0		147	dominance	042	1.0	1		304.6103744469988	1.2334579598364144
59.0	271.9431583008136	rating	1.0		417	dominance	042	1.0	1		305.8438324068352	3.483748949538949
59.0	275.42690725035254	fix	2.0		61	dominance	042	1.0	1	-1.2400000000000002	309.32758135637414	0.5250725059408978
60.0	275.95197975629344	face	0.0		146	dominance	102	1.0	1		309.85265386231504	1.225134265788256
60.0	277.1771140220817	rating	1.0		168	dominance	102	1.0	1		311.0777881281033	1.408514225894578
60.0	278.5856282479763	fix	2.0		60	dominance	102	1.0	1	0.5999999999999996	312.48630235399787	0.516732813496219
61.0	279.1023610614725	face	0.0		147	dominance	036	1.0	1		313.0030351674941	1.2334594691187704
61.0	280.33582053059126	rating	1.0		189	dominance	036	1.0	1		314.23649463661286	1.5835360803084768
61.0	281.91935661089974	fix	2.0		60	dominance	036	1.0	1	-2.84	315.82003071692134	0.5084393051020015
62.0	282.42779591600174	face	0.0		148	dominance	070	1.0	1		316.32847002202334	1.2417526756566986
62.0	283.66954859165844	rating	1.0		159	dominance	070	1.0	1		317.57022269768004	1.3335089132197027
62.0	285.00305750487814	fix	2.0		60	dominance	070	1.0	1	0.5800000000000001	318.90373161089974	0.5167850346774685
63.0	285.5198425395556	face	0.0		147	dominance	027	1.0	1		319.4205166455772	1.2333936643931338
63.0	286.75323620394875	rating	1.0		310	dominance	027	1.0	1		320.65391030997034	2.591995307941943
63.0	289.3452315118907	fix	2.0		60	dominance	027	1.0	1	1.6799999999999997	323.2459056179123	0.5167482081797061
64.0	289.8619797200704	face	0.0		147	dominance	126	1.0	1		323.762653826092	1.2334833157856337
64.0	291.095463035856	rating	1.0		306	dominance	126	1.0	1		324.9961371418776	2.558621445337394
64.0	293.6540844811934	fix	2.0		60	dominance	126	1.0	1	2.1500000000000004	327.554758587215	0.508637322991035
65.0	294.16272180418446	face	0.0		148	dominance	092	1.0	1		328.06339591020605	1.2415697505939534
65.0	295.4042915547784	rating	1.0		338	dominance	092	1.0	1		329.3049656608	2.8253518439814798
65.0	298.2296433987599	fix	2.0		60	dominance	092	1.0	1	-1.42	332.1303175047815	0.5167539434537503
66.0	298.74639734221364	face	0.0		147	dominance	006	1.0	1		332.64707144823524	1.2334492059967488
66.0	299.9798465482104	rating	1.0		121	dominance	006	1.0	1		333.880520654232	1.0584339924266715
66.0	301.03828054063706	fix	2.0		61	dominance	006	1.0	1	1.2999999999999998	334.93895464665866	0.5251183881346151
67.0	301.5633989287717	face	0.0		146	dominance	087	1.0	1		335.4640730347933	1.2251197766745463
67.0	302.7885187054462	rating	1.0		286	dominance	087	1.0	1		336.6891928114678	2.391956187334472
67.0	305.1804748927807	fix	2.0		60	dominance	087	1.0	1	2.09	339.0811489988023	0.5167488118927395
68.0	305.69722370467343	face	0.0		147	dominance	082	1.0	1		339.59789781069503	1.2334579598359596
68.0	306.9306816645094	rating	1.0		395	dominance	082	1.0	1		340.831355770531	3.300406721500167
68.0	310.23108838600956	fix	2.0		61	dominance	082	1.0	1	-0.2999999999999998	344.13176249203116	0.5250679780924656
69.0	310.756156364102	face	0.0		146	dominance	141	1.0	1		344.6568304701236	1.2251215878136463
69.0	311.9812779519157	rating	1.0		654	dominance	141	1.0	1		345.88195205793727	5.458999128238247
69.0	317.4402770801539	fix	2.0		60	dominance	141	1.0	1	0.7199999999999998	351.3409511861755	0.5167509248885835
70.0	317.9570280050425	face	0.0		147	dominance	009	1.0	1		351.8577021110641	1.233456450553149
70.0	319.19048445559565	rating	1.0		254	dominance	009	1.0	1		353.09115856161725	2.125239372235228
70.0	321.3157238278309	fix	2.0		61	dominance	009	1.0	1	-0.6200000000000001	355.2163979338525	0.5250957488938184
71.0	321.8408195767247	face	0.0		146	dominance	064	1.0	1		355.7414936827463	1.2250904965903828
71.0	323.0659100733151	rating	1.0		219	dominance	064	1.0	1		356.9665841793367	1.8335886033460156
71.0	324.8994986766611	fix	2.0		60	dominance	064	1.0	1	-1.23	358.8001727826827	0.5167162113866652
72.0	325.41621488804776	face	0.0		147	dominance	066	1.0	1		359.31688899406936	1.2335116903000198
72.0	326.6497265783478	rating	1.0		377	dominance	066	1.0	1		360.5504006843694	3.1503444786812906
72.0	329.8000710570291	fix	2.0		60	dominance	066	1.0	1	1.6900000000000004	363.70074516305067	0.5084205899970584
73.0	330.30849164702613	face	0.0		148	dominance	144	1.0	1		364.2091657530477	1.241791011436817
73.0	331.55028265846295	rating	1.0		182	dominance	144	1.0	1		365.45095676448454	1.525186003998897
73.0	333.07546866246184	fix	2.0		60	dominance	144	1.0	1	-2.58	366.97614276848344	0.5167551508798169
74.0	333.59222381334166	face	0.0		147	dominance	012	1.0	1		367.49289791936326	1.233445583718094
74.0	334.82566939705976	rating	1.0		428	dominance	012	1.0	1		368.72634350308135	3.5754568900565573
74.0	338.4011262871163	fix	2.0		60	dominance	012	1.0	1	0.34999999999999964	372.3018003931379	0.5167340209222857
75.0	338.9178603080386	face	0.0		147	dominance	044	1.0	1		372.8185344140602	1.233445885574838
75.0	340.15130619361344	rating	1.0		895	dominance	044	1.0	1		374.05198029963503	7.46755464810758
75.0	347.618860841721	fix	2.0		60	dominance	044	1.0	1	-0.2999999999999998	381.5195349477426	0.5167735641289255
76.0	348.13563440584994	face	0.0		147	dominance	024	1.0	1		382.03630851187154	1.233457054266637
76.0	349.3690914601166	rating	1.0		248	dominance	024	1.0	1		383.2697655661382	2.075253136893025
76.0	351.4443445970096	fix	2.0		60	dominance	024	1.0	1	-2.58	385.3450187030312	0.5167521323146502
77.0	351.96109672932425	face	0.0		147	dominance	034	1.0	1		385.86177083534585	1.2334440744352833
77.0	353.19454080375954	rating	1.0		239	dominance	034	1.0	1		387.09521490978113	2.0002414852306174
77.0	355.19478228899015	fix	2.0		60	dominance	034	1.0	1	2.58	389.09545639501175	0.5167433784749846
78.0	355.71152566746514	face	0.0		147	dominance	130	1.0	1		389.61219977348674	1.2334431688659606
78.0	356.9449688363311	rating	1.0		519	dominance	130	1.0	1		390.8456429423527	4.333881102331816
78.0	361.2788499386629	fix	2.0		60	dominance	130	1.0	1	-1.08	395.1795240446845	0.5167518304579062
79.0	361.7956017691208	face	0.0		147	dominance	061	1.0	1		395.6962758751424	1.2334630913974252
79.0	363.02906486051825	rating	1.0		303	dominance	061	1.0	1		396.92973896653984	2.533630440662364
79.0	365.5626953011806	fix	2.0		60	dominance	061	1.0	1	1.87	399.4633694072022	0.50007365299507
80.0	366.0627689541757	cue	0.0		480						399.9634430601973	4.000448256959771
80.0	370.06321721113545	fix	1.0		120						403.96389131715705	1.0168288038753417
80.0	371.0800460150108	face	0.0		147	attractiveness	039	1.0	1		404.9807201210324	1.233447998570682
80.0	372.3134940135815	rating	1.0		317	attractiveness	039	1.0	1		406.2141681196031	2.650337837837469
80.0	374.96383185141895	fix	2.0		61	attractiveness	039	1.0	1	-2.7800000000000002	408.86450595744054	0.5169429056468289
81.0	375.4807747570658	face	0.0		147	attractiveness	009	1.0	1		409.38144886308737	1.2332324730023174
81.0	376.7140072300681	rating	1.0		209	attractiveness	009	1.0	1		410.6146813360897	1.7502345425300518
81.0	378.46424177259814	fix	2.0		60	attractiveness	009	1.0	1	0.4500000000000002	412.36491587861974	0.5167343227790298
82.0	378.9809760953772	face	0.0		147	attractiveness	030	1.0	1		412.88165020139877	1.2334802972200123
82.0	380.2144563925972	rating	1.0		290	attractiveness	030	1.0	1		414.1151304986188	2.4252597173658614
82.0	382.63971610996305	fix	2.0		60	attractiveness	030	1.0	1	0.9199999999999999	416.54039021598464	0.5167629991497051
83.0	383.15647910911275	face	0.0		147	attractiveness	018	1.0	1		417.05715321513435	1.2334748638022575
83.0	384.389953972915	rating	1.0		299	attractiveness	018	1.0	1		418.2906280789366	2.500284348859168
83.0	386.8902383217742	fix	2.0		60	attractiveness	018	1.0	1	-2.4699999999999998	420.7909124277958	0.5167578675891491
84.0	387.4069961893633	face	0.0		147	attractiveness	172	1.0	1		421.3076702953849	1.2334615821146144
84.0	388.64045777147794	rating	1.0		332	attractiveness	172	1.0	1		422.54113187749954	2.775318820875782
84.0	391.4157765923537	fix	2.0		60	attractiveness	172	1.0	1	-2.6	425.3164506983753	0.516745793327118
85.0	391.93252238568084	face	0.0		147	attractiveness	102	1.0	1		425.83319649170244	1.2334709396673134
85.0	393.16599332534815	rating	1.0		282	attractiveness	102	1.0	1		427.06666743136975	2.3585947008482435
85.0	395.5245880261964	fix	2.0		60	attractiveness	102	1.0	1	-2.62	429.425262132218	0.5167518304579062
86.0	396.0413398566543	face	0.0		147	attractiveness	136	1.0	1		429.9420139626759	1.2334866362075445
86.0	397.27482649286185	rating	1.0		198	attractiveness	136	1.0	1		431.17550059888345	1.6585021516334564
86.0	398.9333286444953	fix	2.0		60	attractiveness	136	1.0	1	0.9000000000000004	432.8340027505169	0.5167780919769029
87.0	399.4501067364722	face	0.0		147	attractiveness	033	1.0	1		433.3507808424938	1.2334673173886586
87.0	400.68357405386087	rating	1.0		147	attractiveness	033	1.0	1		434.58424815988246	1.233483617641923
87.0	401.9170576715028	fix	2.0		60	attractiveness	033	1.0	1	0.9100000000000001	435.8177317775244	0.5167506230318395
88.0	402.43380829453463	face	0.0		147	attractiveness	006	1.0	1		436.3344824005562	1.2334504134228155
88.0	403.66725870795744	rating	1.0		189	attractiveness	006	1.0	1		437.56793281397904	1.5835131392113908
88.0	405.25077184716883	fix	2.0		60	attractiveness	006	1.0	1	0.21999999999999975	439.15144595319043	0.5167636028631932
89.0	405.767535450032	face	0.0		147	attractiveness	012	1.0	1		439.6682095560536	1.2334470930009047
89.0	407.00098254303293	rating	1.0		171	attractiveness	012	1.0	1		440.90165664905453	1.4335121732701737
89.0	408.4344947163031	fix	2.0		60	attractiveness	012	1.0	1	0.3600000000000003	442.3351688223247	0.5167457933275728
90.0	408.9512405096307	face	0.0		147	attractiveness	087	1.0	1		442.8519146156523	1.2334652043928145
90.0	410.1847057140235	rating	1.0		200	attractiveness	087	1.0	1		444.0853798200451	1.6751742919655044
90.0	411.859880005989	fix	2.0		60	attractiveness	087	1.0	1	0.45999999999999996	445.7605541120106	0.5167741678419588
91.0	412.37665417383096	face	0.0		147	attractiveness	082	1.0	1		446.27732827985255	1.233436226165395
91.0	413.61009039999635	rating	1.0		153	attractiveness	082	1.0	1		447.51076450601795	1.2835112073294113
91.0	414.89360160732576	fix	2.0		60	attractiveness	082	1.0	1	1.2300000000000004	448.79427571334736	0.5167482081797061
92.0	415.41034981550547	face	0.0		147	attractiveness	036	1.0	1		449.31102392152707	1.2334413577264058
92.0	416.6437911732319	rating	1.0		226	attractiveness	036	1.0	1		450.5444652792535	1.8919172478413202
92.0	418.5357084210732	fix	2.0		60	attractiveness	036	1.0	1	0.7599999999999998	452.4363825270948	0.516730700500375
93.0	419.05243912157357	face	0.0		147	attractiveness	117	1.0	1		452.95311322759517	1.233472448950124
93.0	420.2859115705237	rating	1.0		330	attractiveness	117	1.0	1		454.1865856765453	2.758677771767452
93.0	423.04458934229115	fix	2.0		61	attractiveness	117	1.0	1	1.1500000000000004	456.94526344831274	0.525070091087855
94.0	423.569659433379	face	0.0		146	attractiveness	043	1.0	1		457.4703335394006	1.2251046838478032
94.0	424.7947641172268	rating	1.0		506	attractiveness	043	1.0	1		458.6954382232484	4.225504341904525
94.0	429.02026845913133	fix	2.0		60	attractiveness	043	1.0	1	0.33000000000000007	462.9209425651529	0.5167593768715051
95.0	429.53702783600284	face	0.0		147	attractiveness	092	1.0	1		463.43770194202443	1.2334724489496693
95.0	430.7705002849525	rating	1.0		128	attractiveness	092	1.0	1		464.6711743909741	1.0751502038137914
95.0	431.8456504887663	fix	2.0		61	attractiveness	092	1.0	1	1.3099999999999996	465.7463245947879	0.5250722040841538
96.0	432.37072269285045	face	0.0		146	attractiveness	044	1.0	1		466.27139679887205	1.2250895910206054
96.0	433.59581228387106	rating	1.0		203	attractiveness	044	1.0	1		467.49648638989265	1.7002443830533593
96.0	435.2960566669244	fix	2.0		60	attractiveness	044	1.0	1	3.6799999999999997	469.196730772946	0.5167488118927395
97.0	435.81280547881715	face	0.0		147	attractiveness	011	1.0	1		469.71347958483875	1.2334449800050606
97.0	437.0462504588222	rating	1.0		253	attractiveness	011	1.0	1		470.9469245648438	2.116920206035047
97.0	439.16317066485726	fix	2.0		60	attractiveness	011	1.0	1	-0.71	473.06384477087886	0.5167871476728578
98.0	439.6799578125301	face	0.0		147	attractiveness	034	1.0	1		473.5806319185517	1.233409662790109
98.0	440.91336747532023	rating	1.0		108	attractiveness	034	1.0	1		474.8140415813418	0.908453854587151
98.0	441.8218213299074	fix	2.0		60	attractiveness	034	1.0	1	-0.8799999999999999	475.722495435929	0.5167587731584717
99.0	442.33858010306585	face	0.0		147	attractiveness	124	1.0	1		476.23925420908745	1.2334461874311273
99.0	443.572026290497	rating	1.0		202	attractiveness	124	1.0	1		477.4727003965186	1.69187963651666
99.0	445.26390592701364	fix	2.0		60	attractiveness	124	1.0	1	1.2300000000000004	479.16458003303524	0.5167581694454384
100.0	445.7806640964591	face	0.0		147	attractiveness	070	1.0	1		479.6813382024807	1.2334446781483166
100.0	447.0141087746074	rating	1.0		340	attractiveness	070	1.0	1		480.914782880629	2.841982629967333
100.0	449.8560914045747	fix	2.0		60	attractiveness	070	1.0	1	-0.10000000000000009	483.7567655105963	0.5167693381372374
101.0	450.37286074271196	face	0.0		147	attractiveness	137	1.0	1		484.27353484873356	1.2334615821146144
101.0	451.6063223248266	rating	1.0		161	attractiveness	137	1.0	1		485.5069964308482	1.3501701867166958
101.0	452.9564925115433	fix	2.0		61	attractiveness	137	1.0	1	1.3499999999999996	486.85716661756487	0.5250972581766291
102.0	453.4815897697199	face	0.0		146	attractiveness	101	1.0	1		487.3822638757415	1.2251028727082485
102.0	454.70669264242815	rating	1.0		408	attractiveness	101	1.0	1		488.60736674844975	3.4087415238682297
102.0	458.1154341662964	fix	2.0		60	attractiveness	101	1.0	1	1.2000000000000002	492.016108272318	0.5167738659856695
103.0	458.63220803228205	face	0.0		147	attractiveness	027	1.0	1		492.53288213830365	1.2334410558696618
103.0	459.8656490881517	rating	1.0		386	attractiveness	027	1.0	1		493.7663231941733	3.225400503255514
103.0	463.0910495914072	fix	2.0		60	attractiveness	027	1.0	1	0.2599999999999998	496.9917236974288	0.5167433784749846
104.0	463.6077929698822	face	0.0		147	attractiveness	100	1.0	1		497.5084670759038	1.2334534319879822
104.0	464.8412464018702	rating	1.0		338	attractiveness	100	1.0	1		498.7419205078918	2.825352145837769
104.0	467.66659854770796	fix	2.0		60	attractiveness	100	1.0	1	-0.2799999999999998	501.56727265372956	0.5167240596565534
105.0	468.1833226073645	face	0.0		147	attractiveness	061	1.0	1		502.0839967133861	1.2334812027897897
105.0	469.4168038101543	rating	1.0		529	attractiveness	061	1.0	1		503.3174779161759	4.417166641712811
105.0	473.8339704518671	fix	2.0		60	attractiveness	061	1.0	1	-0.8900000000000001	507.7346445578887	0.5167563583063384
106.0	474.35072681017346	face	0.0		147	attractiveness	024	1.0	1		508.25140091619505	1.2335089735911424
106.0	475.5842357837646	rating	1.0		225	attractiveness	024	1.0	1		509.4849098897862	1.883495450418195
106.0	477.4677312341828	fix	2.0		60	attractiveness	024	1.0	1	-1.1600000000000001	511.3684053402044	0.5167808086857804
107.0	477.9845120428686	face	0.0		147	attractiveness	066	1.0	1		511.88518614889017	1.2334555449838263
107.0	479.2179675878524	rating	1.0		207	attractiveness	066	1.0	1		513.118641693874	1.7335527427894704
107.0	480.95152033064187	fix	2.0		60	attractiveness	066	1.0	1	2.5999999999999996	514.8521944366635	0.5167222485169987
108.0	481.46824257915887	face	0.0		147	attractiveness	062	1.0	1		515.3689166851805	1.2334718452370907
108.0	482.70171442439596	rating	1.0		330	attractiveness	062	1.0	1		516.6023885304176	2.7586729420627307
108.0	485.4603873664587	fix	2.0		60	attractiveness	062	1.0	1	0.09999999999999964	519.3610614724803	0.5167343227790298
109.0	485.9771216892377	face	0.0		147	attractiveness	141	1.0	1		519.8777957952593	1.2334787879372016
109.0	487.2106004771749	rating	1.0		197	attractiveness	141	1.0	1		521.1112745831965	1.6502038135349721
109.0	488.8608042907099	fix	2.0		61	attractiveness	141	1.0	1	-3.35	522.7614783967315	0.5250565075439226
110.0	489.3858607982538	face	0.0		146	attractiveness	005	1.0	1		523.2865349042754	1.2251427177711776
110.0	490.611003516025	rating	1.0		280	attractiveness	005	1.0	1		524.5116776220466	2.3419135048202406
110.0	492.95291702084523	fix	2.0		60	attractiveness	005	1.0	1	-3.06	526.8535911268668	0.5167753752680255
111.0	493.46969239611326	face	0.0		147	attractiveness	121	1.0	1		527.3703665021349	1.2334775805111349
111.0	494.7031699766244	rating	1.0		427	attractiveness	121	1.0	1		528.603844082646	3.5670812766838935
111.0	498.2702512533083	fix	2.0		61	attractiveness	121	1.0	1	1.3899999999999997	532.1709253593299	0.5250827690629194
112.0	498.7953340223712	face	0.0		146	attractiveness	144	1.0	1		532.6960081283928	1.2251046838478032
112.0	500.020438706219	rating	1.0		289	attractiveness	144	1.0	1		533.9211128122406	2.4169894519250192
112.0	502.43742815814403	fix	2.0		60	attractiveness	144	1.0	1	0.8600000000000003	536.3381022641656	0.5167542453104943
113.0	502.9541824034545	face	0.0		147	attractiveness	091	1.0	1		536.8548565094761	1.2334268686126961
113.0	504.1876092720672	rating	1.0		212	attractiveness	091	1.0	1		538.0882833780888	1.775237621467113
113.0	505.96284689353433	fix	2.0		60	attractiveness	091	1.0	1	2.0700000000000003	539.8635209995559	0.5167370394874524
114.0	506.4795839330218	face	0.0		147	attractiveness	130	1.0	1		540.3802580390434	1.2334655062495585
114.0	507.71304943927134	rating	1.0		292	attractiveness	130	1.0	1		541.6137235452929	2.4419511765163406
114.0	510.1550006157877	fix	2.0		60	attractiveness	130	1.0	1	-3.5300000000000002	544.0556747218093	0.5167403599093632
115.0	510.67174097569705	face	0.0		147	attractiveness	042	1.0	1		544.5724150817186	1.2334845232117004
115.0	511.90522549890875	rating	1.0		176	attractiveness	042	1.0	1		545.8058996049303	1.4751735071381518
115.0	513.3803990060469	fix	2.0		61	attractiveness	042	1.0	1	2.84	547.2810731120685	0.5250788449279753
116.0	513.9054778509749	face	0.0		146	attractiveness	064	1.0	1		547.8061519569965	1.225134265788256
116.0	515.1306121167631	rating	1.0		197	attractiveness	064	1.0	1		549.0312862227847	1.650203511678228
116.0	516.7808156284414	fix	2.0		60	attractiveness	064	1.0	1	1.9699999999999998	550.681489734463	0.5167361339181298
117.0	517.2975517623595	face	0.0		147	attractiveness	099	1.0	1		551.1982258683811	1.2334365280216844
117.0	518.5309882903812	rating	1.0		154	attractiveness	099	1.0	1		552.4316623964028	1.2918454663563352
117.0	519.8228337567375	fix	2.0		60	attractiveness	099	1.0	1	0.16999999999999993	553.7235078627591	0.5167451896140847
118.0	520.3395789463516	face	0.0		147	attractiveness	038	1.0	1		554.2402530523732	1.2334739582329348
118.0	521.5730529045845	rating	1.0		150	attractiveness	038	1.0	1		555.4737270106061	1.2584483607984112
118.0	522.8315012653829	fix	2.0		60	attractiveness	038	1.0	1	-1.54	556.7321753714045	0.5167735641284708
119.0	523.3482748295114	face	0.0		147	attractiveness	126	1.0	1		557.248948935533	1.2334802972200123
119.0	524.5817551267314	rating	1.0		186	attractiveness	126	1.0	1		558.482429232753	1.5585317939458037
119.0	526.1402869206772	fix	2.0		60	attractiveness	126	1.0	1	-0.43999999999999995	560.0409610266988	0.5000069427001108
120.0	526.6402938633773	cue	0.0		3600						560.5409679693989	30.003608091204114
120.0	556.6439019545815	fix	1.0		120						590.544576060603	1.0001358354425065
120.0	557.644037790024	cue	0.0		480						591.5447118960456	4.000463953499548
120.0	561.6445017435235	fix	1.0		120						595.5451758495451	1.016816125900732
120.0	562.6613178694242	face	0.0		147	attractiveness	141	2.0	1		596.5619919754458	1.2334492059967488
120.0	563.894767075421	rating	1.0		534	attractiveness	141	2.0	1		597.7954411814426	4.458878687479228
120.0	568.3536457629002	fix	2.0		61	attractiveness	141	2.0	1	-3.52	602.2543198689218	0.5251198974169711
121.0	568.8787656603172	face	0.0		146	attractiveness	042	2.0	1		602.7794397663388	1.2250844594595947
121.0	570.1038501197768	rating	1.0		190	attractiveness	042	2.0	1		604.0045242257984	1.5918745653266342
121.0	571.6957246851034	fix	2.0		60	attractiveness	042	2.0	1	2.38	605.596398791125	0.516734624635319
122.0	572.2124593097387	face	0.0		147	attractiveness	092	2.0	1		606.1131334157603	1.233454941270793
122.0	573.4459142510095	rating	1.0		187	attractiveness	092	2.0	1		607.3465883570311	1.5668729956723837
122.0	575.0127872466819	fix	2.0		61	attractiveness	092	2.0	1	1.8200000000000003	608.9134613527035	0.5250664688101097
123.0	575.537853715492	face	0.0		146	attractiveness	137	2.0	1		609.4385278215136	1.2251270212314012
123.0	576.7629807367234	rating	1.0		141	attractiveness	137	2.0	1		610.663654842745	1.1834910433126424
123.0	577.9464717800361	fix	2.0		60	attractiveness	137	2.0	1	1.0899999999999999	611.8471458860577	0.516734624635319
124.0	578.4632064046714	face	0.0		147	attractiveness	044	2.0	1		612.363880510693	1.233459167262481
124.0	579.6966655719339	rating	1.0		139	attractiveness	044	2.0	1		613.5973396779555	1.1668089417148622
124.0	580.8634745136487	fix	2.0		60	attractiveness	044	2.0	1	3.5	614.7641486196703	0.516743982188018
125.0	581.3802184958367	face	0.0		147	attractiveness	039	2.0	1		615.2808926018583	1.2334579598364144
125.0	582.6136764556732	rating	1.0		200	attractiveness	039	2.0	1		616.5143505616948	1.6752201741592216
125.0	584.2888966298324	fix	2.0		60	attractiveness	039	2.0	1	-2.7	618.189570735854	0.5167367376311631
126.0	584.8056333674635	face	0.0		147	attractiveness	005	2.0	1		618.7063074734851	1.233460978401581
126.0	586.0390943458651	rating	1.0		232	attractiveness	005	2.0	1		619.9397684518867	1.941875712381261
126.0	587.9809700582464	fix	2.0		60	attractiveness	005	2.0	1	-2.96	621.881644164268	0.5167783938331922
127.0	588.4977484520796	face	0.0		147	attractiveness	006	2.0	1		622.3984225581012	1.2334567524103477
127.0	589.7312052044899	rating	1.0		168	attractiveness	006	2.0	1		623.6318793105115	1.408514829608066
127.0	591.139720034098	fix	2.0		60	attractiveness	006	2.0	1	0.3099999999999996	625.0403941401196	0.5167497174620621
128.0	591.65646975156	face	0.0		147	attractiveness	009	2.0	1		625.5571438575817	1.2334401503003392
128.0	592.8899099018604	rating	1.0		132	attractiveness	009	2.0	1		626.790584007882	1.1084712415240574
128.0	593.9983811433844	fix	2.0		60	attractiveness	009	2.0	1	0.7300000000000004	627.899055249406	0.5167702437070147
129.0	594.5151513870915	face	0.0		147	attractiveness	082	2.0	1		628.4158254931131	1.2334389428742725
129.0	595.7485903299657	rating	1.0		110	attractiveness	082	2.0	1		629.6492644359873	0.9251416914589754
129.0	596.6737320214247	fix	2.0		60	attractiveness	082	2.0	1	1.42	630.5744061274463	0.5167282856482416
130.0	597.190460307073	face	0.0		147	attractiveness	144	2.0	1		631.0911344130946	1.2334522245619155
130.0	598.4239125316349	rating	1.0		235	attractiveness	144	2.0	1		632.3245866376565	1.9668956952841654
130.0	600.390808226919	fix	2.0		60	attractiveness	144	2.0	1	0.6900000000000004	634.2914823329406	0.5167678288544266
131.0	600.9075760557735	face	0.0		147	attractiveness	064	2.0	1		634.8082501617951	1.2334603746885477
131.0	602.141036430462	rating	1.0		366	attractiveness	064	2.0	1		636.0417105364836	3.05866068668729
131.0	605.1996971171493	fix	2.0		60	attractiveness	064	2.0	1	1.3600000000000003	639.1003712231709	0.5168230686012976
132.0	605.7165201857506	face	0.0		147	attractiveness	066	2.0	1		639.6171942917722	1.2334199259121306
132.0	606.9499401116627	rating	1.0		267	attractiveness	066	2.0	1		640.8506142176843	2.233616736375552
132.0	609.1835568480383	fix	2.0		60	attractiveness	066	2.0	1	2.04	643.0842309540599	0.5167515286016169
133.0	609.7003083766399	face	0.0		147	attractiveness	121	2.0	1		643.6009824826615	1.233434415026295
133.0	610.9337427916662	rating	1.0		215	attractiveness	121	2.0	1		644.8344168976878	1.800213231458656
133.0	612.7339560231248	fix	2.0		60	attractiveness	121	2.0	1	1.2300000000000004	646.6346301291464	0.5167310023566642
134.0	613.2506870254815	face	0.0		147	attractiveness	062	2.0	1		647.1513611315031	1.2334676192454026
134.0	614.4841546447269	rating	1.0		94	attractiveness	062	2.0	1		648.3848287507485	0.7917829820530642
134.0	615.27593762678	fix	2.0		60	attractiveness	062	2.0	1	-0.31000000000000005	649.1766117328016	0.516757263875661
135.0	615.7926948906556	face	0.0		147	attractiveness	117	2.0	1		649.6933689966772	1.2334443762920273
135.0	617.0261392669477	rating	1.0		231	attractiveness	117	2.0	1		650.9268133729693	1.9335758649999661
135.0	618.9597151319476	fix	2.0		60	attractiveness	117	2.0	1	0.4299999999999997	652.8603892379692	0.5167509248885835
136.0	619.4764660568362	face	0.0		147	attractiveness	012	2.0	1		653.3771401628578	1.233456450553149
136.0	620.7099225073894	rating	1.0		238	attractiveness	012	2.0	1		654.610596613411	1.991910546626059
136.0	622.7018330540154	fix	2.0		60	attractiveness	012	2.0	1	-0.10999999999999988	656.602507160037	0.5167445859010513
137.0	623.2185776399165	face	0.0		147	attractiveness	091	2.0	1		657.1192517459381	1.2334597709755144
137.0	624.452037410892	rating	1.0		134	attractiveness	091	2.0	1		658.3527115169136	1.125132816876885
137.0	625.5771702277689	fix	2.0		60	attractiveness	091	2.0	1	1.92	659.4778443337905	0.5167409636228513
138.0	626.0939111913917	face	0.0		147	attractiveness	061	2.0	1		659.9945852974133	1.2334561486968596
138.0	627.3273673400886	rating	1.0		157	attractiveness	061	2.0	1		661.2280414461102	1.3168352636052987
138.0	628.6442026036939	fix	2.0		60	attractiveness	061	2.0	1	-1.42	662.5448767097155	0.5167611880106051
139.0	629.1609637917045	face	0.0		147	attractiveness	011	2.0	1		663.0616378977261	1.2334926733383327
139.0	630.3944564650428	rating	1.0		153	attractiveness	011	2.0	1		664.2951305710644	1.283442685895352
139.0	631.6778991509382	fix	2.0		60	attractiveness	011	2.0	1	-1.2599999999999998	665.5785732569598	0.5167442840443073
140.0	632.1946434349825	face	0.0		147	attractiveness	099	2.0	1		666.0953175410041	1.2334621858281025
140.0	633.4281056208106	rating	1.0		120	attractiveness	099	2.0	1		667.3287797268322	1.0084619443423435
140.0	634.4365675651529	fix	2.0		60	attractiveness	099	2.0	1	-0.1200000000000001	668.3372416711745	0.5167533397407169
141.0	634.9533209048936	face	0.0		147	attractiveness	102	2.0	1		668.8539950109152	1.2334467911441607
141.0	636.1867676960378	rating	1.0		127	attractiveness	102	2.0	1		670.0874418020594	1.0668102095128233
141.0	637.2535779055506	fix	2.0		60	attractiveness	102	2.0	1	-2.95	671.1542520115722	0.5167373413441965
142.0	637.7703152468948	face	0.0		147	attractiveness	043	2.0	1		671.6709893529164	1.2334914659118112
142.0	639.0038067128066	rating	1.0		208	attractiveness	043	2.0	1		672.9044808188282	1.7418486660353665
142.0	640.745655378842	fix	2.0		60	attractiveness	043	2.0	1	1.3600000000000003	674.6463294848636	0.5167403599098179
143.0	641.2623957387518	face	0.0		147	attractiveness	033	2.0	1		675.1630698447734	1.2334709396673134
143.0	642.4958666784191	rating	1.0		147	attractiveness	033	2.0	1		676.3965407844407	1.2335225571355295
143.0	643.7293892355547	fix	2.0		60	attractiveness	033	2.0	1	0.7199999999999998	677.6300633415763	0.5167008167027234
144.0	644.2460900522574	face	0.0		147	attractiveness	070	2.0	1		678.146764158279	1.2334489041400047
144.0	645.4795389563974	rating	1.0		177	attractiveness	070	2.0	1		679.380213062419	1.483531310975195
144.0	646.9630702673726	fix	2.0		60	attractiveness	070	2.0	1	-0.25	680.8637443733942	0.5167310023566642
145.0	647.4798012697293	face	0.0		147	attractiveness	087	2.0	1		681.3804753757508	1.2334606765452918
145.0	648.7132619462745	rating	1.0		120	attractiveness	087	2.0	1		682.6139360522961	1.0084746223169532
145.0	649.7217365685915	fix	2.0		60	attractiveness	087	2.0	1	0.09999999999999964	683.6224106746131	0.5167270782221749
146.0	650.2384636468137	face	0.0		147	attractiveness	038	2.0	1		684.1391377528353	1.233479693506979
146.0	651.4719433403206	rating	1.0		99	attractiveness	038	2.0	1		685.3726174463422	0.8334370713632779
146.0	652.3053804116839	fix	2.0		60	attractiveness	038	2.0	1	-0.94	686.2060545177055	0.5167391524837512
147.0	652.8221195641677	face	0.0		147	attractiveness	136	2.0	1		686.7227936701893	1.2334615821146144
147.0	654.0555811462823	rating	1.0		402	attractiveness	136	2.0	1		687.9562552523039	3.3587353659950168
147.0	657.4143165122773	fix	2.0		60	attractiveness	136	2.0	1	0.5599999999999996	691.3149906182989	0.5167536415970062
148.0	657.9310701538743	face	0.0		147	attractiveness	027	2.0	1		691.8317442598959	1.233445885574838
148.0	659.1645160394492	rating	1.0		257	attractiveness	027	2.0	1		693.0651901454708	2.1502741461081314
148.0	661.3147901855573	fix	2.0		60	attractiveness	027	2.0	1	0.21999999999999975	695.2154642915789	0.5167457933275728
149.0	661.8315359788849	face	0.0		147	attractiveness	124	2.0	1		695.7322100849065	1.233460676544837
149.0	663.0649966554297	rating	1.0		237	attractiveness	124	2.0	1		696.9656707614513	1.9835768913121683
149.0	665.0485735467419	fix	2.0		60	attractiveness	124	2.0	1	1.4000000000000004	698.9492476527635	0.5167433784749846
150.0	665.5653169252168	face	0.0		147	attractiveness	126	2.0	1		699.4659910312384	1.2334498097097821
150.0	666.7987667349266	rating	1.0		177	attractiveness	126	2.0	1		700.6994408409482	1.4835125958697972
150.0	668.2822793307964	fix	2.0		60	attractiveness	126	2.0	1	0.3700000000000001	702.182953436818	0.5167512267448728
151.0	668.7990305575413	face	0.0		147	attractiveness	018	2.0	1		702.6997046635629	1.2334513189921381
151.0	670.0324818765334	rating	1.0		106	attractiveness	018	2.0	1		703.933155982555	0.8917826198248804
151.0	670.9242644963583	fix	2.0		60	attractiveness	018	2.0	1	-1.37	704.8249386023799	0.5167466988968954
152.0	671.4410111952552	face	0.0		147	attractiveness	024	2.0	1		705.3416853012768	1.2334673173891133
152.0	672.6744785126443	rating	1.0		105	attractiveness	024	2.0	1		706.5751526186659	0.8834311549753693
152.0	673.5579096676197	fix	2.0		60	attractiveness	024	2.0	1	-1.83	707.4585837736413	0.5167581694454384
153.0	674.0746678370651	face	0.0		147	attractiveness	100	2.0	1		707.9753419430867	1.2334422632961832
153.0	675.3081101003613	rating	1.0		436	attractiveness	100	2.0	1		709.2087842063829	3.6421110397386656
153.0	678.9502211401	fix	2.0		60	attractiveness	100	2.0	1	0.08000000000000007	712.8508952461216	0.5167614898673492
154.0	679.4669826299673	face	0.0		147	attractiveness	130	2.0	1		713.3676567359889	1.2334576579796703
154.0	680.700440287947	rating	1.0		300	attractiveness	130	2.0	1		714.6011143939686	2.508639435987334
154.0	683.2090797239343	fix	2.0		60	attractiveness	130	2.0	1	-3.08	717.1097538299559	0.5167548490235276
155.0	683.7258345729579	face	0.0		147	attractiveness	034	2.0	1		717.6265086789795	1.233435622451907
155.0	684.9592701954098	rating	1.0		118	attractiveness	034	2.0	1		718.8599443014314	0.9917879928716502
155.0	685.9510581882814	fix	2.0		60	attractiveness	034	2.0	1	-0.31000000000000005	719.851732294303	0.5167473026099287
156.0	686.4678054908914	face	0.0		147	attractiveness	036	2.0	1		720.368479596913	1.2334736563761908
156.0	687.7012791472675	rating	1.0		86	attractiveness	036	2.0	1		721.6019532532891	0.7250877798815054
156.0	688.426366927149	fix	2.0		60	attractiveness	036	2.0	1	0.4500000000000002	722.3270410331706	0.5167355302046417
157.0	688.9431024573537	face	0.0		147	attractiveness	172	2.0	1		722.8437765633753	1.2334621858276478
157.0	690.1765646431813	rating	1.0		198	attractiveness	172	2.0	1		724.0772387492029	1.6585486375406617
157.0	691.835113280722	fix	2.0		60	attractiveness	172	2.0	1	-1.2400000000000002	725.7357873867436	0.5167303986436309
158.0	692.3518436793656	face	0.0		147	attractiveness	101	2.0	1		726.2525177853872	1.233458865405737
158.0	693.5853025447714	rating	1.0		97	attractiveness	101	2.0	1		727.485976650793	0.816786664702704
158.0	694.4020892094741	fix	2.0		60	attractiveness	101	2.0	1	1.2000000000000002	728.3027633154957	0.5167497174620621
159.0	694.9188389269361	face	0.0		147	attractiveness	030	2.0	1		728.8195130329577	1.2334398484440499
159.0	696.1522787753802	rating	1.0		227	attractiveness	030	2.0	1		730.0529528814018	1.900245167880712
159.0	698.0525239432609	fix	2.0		60	attractiveness	030	2.0	1	1.08	731.9531980492825	0.5000564471724829
160.0	698.5525803904334	cue	0.0		480						732.453254496455	4.000480555609101
160.0	702.5530609460425	fix	1.0		120						736.4537350520641	1.0168085794875878
160.0	703.5698695255301	face	0.0		147	dominance	137	2.0	1		737.4705436315517	1.2334537338447262
160.0	704.8033232593748	rating	1.0		300	dominance	137	2.0	1		738.7039973653964	2.508639134130135
160.0	707.3119623935049	fix	2.0		60	dominance	137	2.0	1	-0.73	741.2126364995265	0.5167445859015061
161.0	707.8287069794064	face	0.0		147	dominance	005	2.0	1		741.729381085428	1.2334476967134833
161.0	709.0621546761199	rating	1.0		103	dominance	005	2.0	1		742.9628287821415	0.8667895021544609
161.0	709.9289441782744	fix	2.0		60	dominance	005	2.0	1	-3.24	743.829618284296	0.5167482081792514
162.0	710.4456923864536	face	0.0		147	dominance	042	2.0	1		744.3463664924752	1.2334633932541692
162.0	711.6791557797078	rating	1.0		180	dominance	042	2.0	1		745.5798298857294	1.5085011856922392
162.0	713.1876569654	fix	2.0		60	dominance	042	2.0	1	-0.43999999999999995	747.0883310714216	0.5167379450572298
163.0	713.7043949104573	face	0.0		147	dominance	141	2.0	1		747.6050690164789	1.2334639969672025
163.0	714.9378589074245	rating	1.0		166	dominance	141	2.0	1		748.8385330134461	1.3918435948457955
163.0	716.3297025022703	fix	2.0		60	dominance	141	2.0	1	-2.94	750.2303766082919	0.516757263875661
164.0	716.8464597661459	face	0.0		147	dominance	126	2.0	1		750.7471338721675	1.233456752409893
164.0	718.0799165185558	rating	1.0		156	dominance	126	2.0	1		751.9805906245774	1.3084937600215198
164.0	719.3884102785773	fix	2.0		61	dominance	126	2.0	1	0.8899999999999997	753.2890843845989	0.5250848820587635
165.0	719.9134951606361	face	0.0		146	dominance	087	2.0	1		753.8141692666577	1.2250920058727388
165.0	721.1385871665088	rating	1.0		105	dominance	087	2.0	1		755.0392612725304	0.8834664721907757
165.0	722.0220536386996	fix	2.0		60	dominance	087	2.0	1	1.4100000000000001	755.9227277447212	0.5167412654791406
166.0	722.5387949041788	face	0.0		147	dominance	036	2.0	1		756.4394690102004	1.233464600680236
166.0	723.772259504859	rating	1.0		121	dominance	036	2.0	1		757.6729336108806	1.0167946940864567
166.0	724.7890541989455	fix	2.0		60	dominance	036	2.0	1	-1.6400000000000001	758.689728304967	0.5167587731584717
167.0	725.3058129721039	face	0.0		147	dominance	082	2.0	1		759.2064870781255	1.2334513189921381
167.0	726.5392642910961	rating	1.0		96	dominance	082	2.0	1		760.4399383971177	0.8084412369839811
167.0	727.34770552808	fix	2.0		60	dominance	082	2.0	1	-0.56	761.2483796341016	0.5167243615128427
168.0	727.8644298895929	face	0.0		147	dominance	099	2.0	1		761.7651039956145	1.233472448950124
168.0	729.097902338543	rating	1.0		213	dominance	099	2.0	1		762.9985764445646	1.7835465245448177
168.0	730.8814488630878	fix	2.0		60	dominance	099	2.0	1	-0.8300000000000001	764.7821229691094	0.5167512267448728
169.0	731.3982000898327	face	0.0		147	dominance	061	2.0	1		765.2988741958543	1.2334534319879822
169.0	732.6316535218207	rating	1.0		194	dominance	061	2.0	1		766.5323276278423	1.6251968104629668
169.0	734.2568503322836	fix	2.0		60	dominance	061	2.0	1	1.7000000000000002	768.1575244383052	0.5167542453104943
170.0	734.7736045775941	face	0.0		147	dominance	039	2.0	1		768.6742786836157	1.2334428670092166
170.0	736.0070474446034	rating	1.0		320	dominance	039	2.0	1		769.907721550625	2.675325220234754
170.0	738.6823726648381	fix	2.0		60	dominance	039	2.0	1	2.0599999999999996	772.5830467708597	0.5167551508798169
171.0	739.1991278157179	face	0.0		147	dominance	044	2.0	1		773.0998019217395	1.2334561486968596
171.0	740.4325839644148	rating	1.0		244	dominance	044	2.0	1		774.3332580704364	2.0419139877903945
171.0	742.4744979522052	fix	2.0		60	dominance	044	2.0	1	-0.8999999999999999	776.3751720582268	0.5167527360281383
172.0	742.9912506882333	face	0.0		147	dominance	038	2.0	1		776.8919247942549	1.233461883970449
172.0	744.2247125722038	rating	1.0		177	dominance	038	2.0	1		778.1253866782254	1.4835207459964295
172.0	745.7082333182002	fix	2.0		60	dominance	038	2.0	1	-0.3900000000000001	779.6089074242218	0.5167527360281383
173.0	746.2249860542283	face	0.0		147	dominance	012	2.0	1		780.1256601602499	1.2334476967134833
173.0	747.4584337509418	rating	1.0		99	dominance	012	2.0	1		781.3591078569634	0.8334240915328337
173.0	748.2918578424747	fix	2.0		60	dominance	012	2.0	1	0.40000000000000036	782.1925319484963	0.5167560564495943
174.0	748.8086138989242	face	0.0		147	dominance	011	2.0	1		782.7092880049458	1.2334522245619155
174.0	750.0420661234862	rating	1.0		75	dominance	011	2.0	1		783.9427402295078	0.6334296456925586
174.0	750.6754957691787	fix	2.0		60	dominance	011	2.0	1	1.5700000000000003	784.5761698752003	0.5167258707961082
175.0	751.1922216399748	face	0.0		147	dominance	024	2.0	1		785.0928957459964	1.2334691285277586
175.0	752.4256907685026	rating	1.0		106	dominance	024	2.0	1		786.3263648745242	0.891789562525446
175.0	753.317480331028	fix	2.0		60	dominance	024	2.0	1	-2.79	787.2181544370496	0.5167642065762266
176.0	753.8342445376043	face	0.0		147	dominance	130	2.0	1		787.7349186436259	1.2334374335914617
176.0	755.0676819711957	rating	1.0		317	dominance	130	2.0	1		788.9683560772173	2.650303426192295
176.0	757.717985397388	fix	2.0		60	dominance	130	2.0	1	-1.56	791.6186595034096	0.5167587731584717
177.0	758.2347441705465	face	0.0		147	dominance	121	2.0	1		792.1354182765681	1.2334630913974252
177.0	759.4682072619439	rating	1.0		405	dominance	121	2.0	1		793.3688813679655	3.3837644045943307
177.0	762.8519716665382	fix	2.0		60	dominance	121	2.0	1	-0.08000000000000007	796.7526457725598	0.516730700500375
178.0	763.3687023670386	face	0.0		147	dominance	091	2.0	1		797.2693764730602	1.233485126924279
178.0	764.6021874939629	rating	1.0		311	dominance	091	2.0	1		798.5028615999845	2.6002667808088518
178.0	767.2024542747718	fix	2.0		60	dominance	091	2.0	1	-1.19	801.1031283807934	0.5167623954366718
179.0	767.7192166702084	face	0.0		147	dominance	009	2.0	1		801.61989077623	1.2334621858281025
179.0	768.9526788560365	rating	1.0		214	dominance	009	2.0	1		802.8533529620581	1.7918874244151084
179.0	770.7445662804516	fix	2.0		60	dominance	009	2.0	1	-0.8799999999999999	804.6452403864732	0.5167285875040761
180.0	771.2612948679557	face	0.0		147	dominance	172	2.0	1		805.1619689739773	1.2334570542670917
180.0	772.4947519222228	rating	1.0		406	dominance	172	2.0	1		806.3954260282444	3.39208085408427
180.0	775.8868327763071	fix	2.0		60	dominance	172	2.0	1	0.7000000000000002	809.7875068823287	0.5167620935808372
181.0	776.4035948698879	face	0.0		147	dominance	102	2.0	1		810.3042689759095	1.2334437725785392
181.0	777.6370386424665	rating	1.0		148	dominance	102	2.0	1		811.537712748488	1.2418284416480674
181.0	778.8788670841145	fix	2.0		60	dominance	102	2.0	1	1.42	812.7795411901361	0.5167599805845384
182.0	779.395627064699	face	0.0		147	dominance	006	2.0	1		813.2963011707207	1.2334510171358488
182.0	780.6290780818349	rating	1.0		192	dominance	006	2.0	1		814.5297521878565	1.6085135014391199
182.0	782.237591583274	fix	2.0		60	dominance	006	2.0	1	0.6600000000000001	816.1382656892956	0.5167608861538611
183.0	782.7543524694279	face	0.0		147	dominance	030	2.0	1		816.6550265754495	1.2334597709759691
183.0	783.9878122404039	rating	1.0		102	dominance	030	2.0	1		817.8884863464255	0.8584407540129178
183.0	784.8462529944168	fix	2.0		60	dominance	030	2.0	1	1.5599999999999996	818.7469271004384	0.5167530378839729
184.0	785.3630060323007	face	0.0		147	dominance	043	2.0	1		819.2636801383223	1.2334431688659606
184.0	786.5964492011667	rating	1.0		165	dominance	043	2.0	1		820.4971233071883	1.3834912244274165
184.0	787.9799404255941	fix	2.0		60	dominance	043	2.0	1	-1.44	821.8806145316157	0.5167566601621729
185.0	788.4966970857563	face	0.0		147	dominance	070	2.0	1		822.3973711917779	1.2334528282754036
185.0	789.7301499140317	rating	1.0		288	dominance	070	2.0	1		823.6308240200533	2.4086388926452855
185.0	792.138788806677	fix	2.0		60	dominance	070	2.0	1	0.2400000000000002	826.0394629126986	0.5167397561963298
186.0	792.6555285628733	face	0.0		147	dominance	136	2.0	1		826.5562026688949	1.233458261692249
186.0	793.8889868245656	rating	1.0		95	dominance	136	2.0	1		827.7896609305872	0.8001136188013334
186.0	794.6891004433669	fix	2.0		60	dominance	136	2.0	1	0.5099999999999998	828.5897745493885	0.5167294930743083
187.0	795.2058299364412	face	0.0		147	dominance	092	2.0	1		829.1065040424628	1.2334567524103477
187.0	796.4392866888516	rating	1.0		175	dominance	092	2.0	1		830.3399607948732	1.4668603780692138
187.0	797.9061470669208	fix	2.0		60	dominance	092	2.0	1	-0.6200000000000001	831.8068211729424	0.5167506230318395
188.0	798.4228976899526	face	0.0		147	dominance	117	2.0	1		832.3235717959742	1.2334486022837154
188.0	799.6563462922363	rating	1.0		72	dominance	117	2.0	1		833.5570203982579	0.6084178129158317
188.0	800.2647641051522	fix	2.0		60	dominance	117	2.0	1	0.8499999999999996	834.1654382111738	0.5167494156057728
189.0	800.7815135207579	face	0.0		147	dominance	124	2.0	1		834.6821876267795	1.2334585635499025
189.0	802.0149720843078	rating	1.0		190	dominance	124	2.0	1		835.9156461903294	1.5918483038076374
189.0	803.6068203881155	fix	2.0		60	dominance	124	2.0	1	1.1799999999999997	837.5074944941371	0.5167614898673492
190.0	804.1235818779828	face	0.0		147	dominance	066	2.0	1		838.0242559840044	1.233452828274494
190.0	805.3570347062573	rating	1.0		114	dominance	066	2.0	1		839.2577088122789	0.9584530697602531
190.0	806.3154877760176	fix	2.0		60	dominance	066	2.0	1	2.0700000000000003	840.2161618820392	0.5167349264920631
191.0	806.8322227025096	face	0.0		147	dominance	062	2.0	1		840.7328968085312	1.233471845236636
191.0	808.0656945477463	rating	1.0		124	dominance	062	2.0	1		841.9663686537679	1.0417947544583512
191.0	809.1074893022046	fix	2.0		60	dominance	062	2.0	1	0.3099999999999996	843.0081634082262	0.516734322778575
192.0	809.6242236249832	face	0.0		147	dominance	018	2.0	1		843.5248977310048	1.2334715433808014
192.0	810.857695168364	rating	1.0		239	dominance	018	2.0	1		844.7583692743856	2.000238466664996
192.0	812.857933635029	fix	2.0		60	dominance	018	2.0	1	-3.26	846.7586077410506	0.5167497174625169
193.0	813.3746833524915	face	0.0		147	dominance	100	2.0	1		847.2753574585131	1.2334597709750597
193.0	814.6081431234666	rating	1.0		104	dominance	100	2.0	1		848.5088172294882	0.8751017256536215
193.0	815.4832448491202	fix	2.0		60	dominance	100	2.0	1	-0.7200000000000002	849.3839189551418	0.5167448877573406
194.0	815.9999897368775	face	0.0		147	dominance	101	2.0	1		849.9006638428991	1.2334504134232702
194.0	817.2334401503008	rating	1.0		135	dominance	101	2.0	1		851.1341142563224	1.1334879040041415
194.0	818.3669280543049	fix	2.0		60	dominance	101	2.0	1	1.4400000000000004	852.2676021603265	0.5167521323146502
195.0	818.8836801866196	face	0.0		147	dominance	033	2.0	1		852.7843542926412	1.2334434707227047
195.0	820.1171236573423	rating	1.0		151	dominance	033	2.0	1		854.0177977633639	1.2668366521456846
195.0	821.383960309488	fix	2.0		60	dominance	033	2.0	1	1.21	855.2846344155096	0.5167331153525083
196.0	821.9006934248405	face	0.0		147	dominance	027	2.0	1		855.8013675308621	1.23347214709338
196.0	823.1341655719339	rating	1.0		170	dominance	027	2.0	1		857.0348396779555	1.4251625195602173
196.0	824.5593280914941	fix	2.0		60	dominance	027	2.0	1	0.5199999999999996	858.4600021975157	0.5167620935799278
197.0	825.076090185074	face	0.0		147	dominance	034	2.0	1		858.9767642910956	1.233451620849337
197.0	826.3095418059233	rating	1.0		193	dominance	034	2.0	1		860.2102159119449	1.6168501753181772
197.0	827.9263919812415	fix	2.0		59	dominance	034	2.0	1	1.71	861.8270660872631	0.5167545471667836
198.0	828.4431465284083	face	0.0		147	dominance	144	2.0	1		862.3438206344299	1.2334558468401156
198.0	829.6766023752484	rating	1.0		190	dominance	144	2.0	1		863.57727648127	1.5918724523316996
198.0	831.2684748275801	fix	2.0		60	dominance	144	2.0	1	-0.3999999999999999	865.1691489336017	0.5167587731575622
199.0	831.7852336007377	face	0.0		147	dominance	064	2.0	1		865.6859077067593	1.233445885574838
199.0	833.0186794863125	rating	1.0		155	dominance	064	2.0	1		866.9193535923341	1.3001673492653936
199.0	834.3188468355779	fix	2.0		60	dominance	064	2.0	1	-1.67	868.2195209415995	0.5000546360333828
200.0	834.8189014716113	cue	0.0		480						868.7195755776329	4.000477838900224
200.0	838.8193793105115	fix	1.0		120						872.7200534165331	1.0168076739173557
200.0	839.8361869844289	face	0.0		147	trustworthiness	034	2.0	1		873.7368610904505	1.2334561486968596
200.0	841.0696431331257	rating	1.0		171	trustworthiness	034	2.0	1		874.9703172391473	1.4335100602747843
200.0	842.5031531934005	fix	2.0		60	trustworthiness	034	2.0	1	-0.2599999999999998	876.4038272994221	0.516753943454205
201.0	843.0199071368547	face	0.0		147	trustworthiness	082	2.0	1		876.9205812428763	1.2334389428742725
201.0	844.253346079729	rating	1.0		159	trustworthiness	082	2.0	1		878.1540201857506	1.3335025742326252
201.0	845.5868486539616	fix	2.0		60	trustworthiness	082	2.0	1	0.8600000000000003	879.4875227599832	0.5167560564495943
202.0	846.1036047104112	face	0.0		147	trustworthiness	042	2.0	1		880.0042788164328	1.23344890413955
202.0	847.3370536145508	rating	1.0		141	trustworthiness	042	2.0	1		881.2377277205724	1.1834786671952315
202.0	848.520532281746	fix	2.0		60	trustworthiness	042	2.0	1	0.6200000000000001	882.4212063877676	0.5167639047194825
203.0	849.0372961864655	face	0.0		147	trustworthiness	121	2.0	1		882.9379702924871	1.2334350187393284
203.0	850.2707312052048	rating	1.0		197	trustworthiness	121	2.0	1		884.1714053112264	1.650180268724398
203.0	851.9209114739292	fix	2.0		60	trustworthiness	121	2.0	1	1.8499999999999996	885.8215855799508	0.5167723567028588
204.0	852.4376838306321	face	0.0		147	trustworthiness	137	2.0	1		886.3383579366537	1.233455544984281
204.0	853.6711393756163	rating	1.0		1030	trustworthiness	137	2.0	1		887.571813481638	8.592697728106941
204.0	862.2638371037233	fix	2.0		60	trustworthiness	137	2.0	1	0.9500000000000002	896.1645112097449	0.516750924887674
205.0	862.780588028611	face	0.0		147	trustworthiness	043	2.0	1		896.6812621346326	1.233474561946423
205.0	864.0140625905574	rating	1.0		188	trustworthiness	043	2.0	1		897.914736696579	1.5751900488767205
205.0	865.5892526394341	fix	2.0		60	trustworthiness	043	2.0	1	0.8899999999999997	899.4899267454557	0.5167451896140847
206.0	866.1059978290482	face	0.0		147	trustworthiness	126	2.0	1		900.0066719350698	1.2334652043928145
206.0	867.339463033441	rating	1.0		253	trustworthiness	126	2.0	1		901.2401371394626	2.1169485805494332
206.0	869.4564116139904	fix	2.0		60	trustworthiness	126	2.0	1	0.5999999999999996	903.357085720012	0.5167098723995878
207.0	869.97312148639	face	0.0		147	trustworthiness	117	2.0	1		903.8737955924116	1.2334479985702274
207.0	871.2065694849603	rating	1.0		261	trustworthiness	117	2.0	1		905.1072435909819	2.183661290400778
207.0	873.390230775361	fix	2.0		60	trustworthiness	117	2.0	1	1.5999999999999996	907.2909048813826	0.5167065519772223
208.0	873.9069373273383	face	0.0		147	trustworthiness	091	2.0	1		907.8076114333599	1.2334461874306726
208.0	875.1403835147689	rating	1.0		110	trustworthiness	091	2.0	1		909.0410576207905	0.9251205615018989
208.0	876.0655040762708	fix	2.0		60	trustworthiness	091	2.0	1	2.51	909.9661781822924	0.5167479063229621
209.0	876.5822519825938	face	0.0		147	trustworthiness	070	2.0	1		910.4829260886154	1.2334519227051715
209.0	877.815703905299	rating	1.0		184	trustworthiness	070	2.0	1		911.7163780113206	1.5418605591830783
209.0	879.357564464482	fix	2.0		60	trustworthiness	070	2.0	1	-0.3500000000000001	913.2582385705036	0.5167436803321834
210.0	879.8743081448142	face	0.0		147	trustworthiness	136	2.0	1		913.7749822508358	1.2334676192449479
210.0	881.1077757640592	rating	1.0		829	trustworthiness	136	2.0	1		915.0084498700808	6.917480874370085
210.0	888.0252566384293	fix	2.0		60	trustworthiness	136	2.0	1	0.5099999999999998	921.9259307444509	0.516757263875661
211.0	888.5420139023049	face	0.0		147	trustworthiness	038	2.0	1		922.4426880083265	1.233468826671924
211.0	889.7754827289768	rating	1.0		320	trustworthiness	038	2.0	1		923.6761568349984	2.675320390529123
211.0	892.450803119506	fix	2.0		60	trustworthiness	038	2.0	1	0.1299999999999999	926.3514772255276	0.5167518304588157
212.0	892.9675549499648	face	0.0		147	trustworthiness	130	2.0	1		926.8682290559864	1.2334561486968596
212.0	894.2010110986616	rating	1.0		263	trustworthiness	130	2.0	1		928.1016852046832	2.2002655130108906
212.0	896.4012766116725	fix	2.0		60	trustworthiness	130	2.0	1	-1.31	930.3019507176941	0.516721342947676
213.0	896.9179979546202	face	0.0		147	trustworthiness	101	2.0	1		930.8186720606418	1.233481806502823
213.0	898.151479761123	rating	1.0		189	trustworthiness	101	2.0	1		932.0521538671446	1.583530345033978
213.0	899.735010106157	fix	2.0		60	trustworthiness	101	2.0	1	0.6299999999999999	933.6356842121786	0.5167382469135191
214.0	900.2517483530705	face	0.0		147	trustworthiness	027	2.0	1		934.1524224590921	1.2334404521570832
214.0	901.4851888052276	rating	1.0		247	trustworthiness	027	2.0	1		935.3858629112492	2.066943931959031
214.0	903.5521327371866	fix	2.0		60	trustworthiness	027	2.0	1	2.1900000000000004	937.4528068432082	0.5167527360281383
215.0	904.0688854732148	face	0.0		147	trustworthiness	011	2.0	1		937.9695595792364	1.2334534319879822
215.0	905.3023389052028	rating	1.0		344	trustworthiness	011	2.0	1		939.2030130112244	2.8753480405885057
215.0	908.1776869457913	fix	2.0		60	trustworthiness	011	2.0	1	1.0999999999999996	942.0783610518129	0.5167376432009405
216.0	908.6944245889922	face	0.0		147	trustworthiness	018	2.0	1		942.5950986950138	1.2334525264186595
216.0	909.9278771154109	rating	1.0		873	trustworthiness	018	2.0	1		943.8285512214325	7.284223286903398
216.0	917.2121004023143	fix	2.0		60	trustworthiness	018	2.0	1	0.3099999999999996	951.1127745083359	0.516740963623306
217.0	917.7288413659376	face	0.0		147	trustworthiness	144	2.0	1		951.6295154719592	1.233462185827193
217.0	918.9623035517648	rating	1.0		142	trustworthiness	144	2.0	1		952.8629776577864	1.1917969278247256
217.0	920.1541004795895	fix	2.0		60	trustworthiness	144	2.0	1	1.9000000000000004	954.0547745856111	0.5167726585596029
218.0	920.6708731381491	face	0.0		147	trustworthiness	044	2.0	1		954.5715472441707	1.2334479985702274
218.0	921.9043211367193	rating	1.0		363	trustworthiness	044	2.0	1		955.8049952427409	3.033704999227666
218.0	924.938026135947	fix	2.0		60	trustworthiness	044	2.0	1	-0.8500000000000001	958.8387002419686	0.5167349264911536
219.0	925.4547610624381	face	0.0		147	trustworthiness	092	2.0	1		959.3554351684597	1.2334736563761908
219.0	926.6882347188143	rating	1.0		172	trustworthiness	092	2.0	1		960.5889088248359	1.4418382821713749
219.0	928.1300730009857	fix	2.0		60	trustworthiness	092	2.0	1	-0.45999999999999996	962.0307471070073	0.5167856383895923
220.0	928.6468586393753	face	0.0		147	trustworthiness	005	2.0	1		962.5475327453969	1.2334105683603411
220.0	929.8802692077356	rating	1.0		283	trustworthiness	005	2.0	1		963.7809433137572	2.3669624659505644
220.0	932.2472316736862	fix	2.0		60	trustworthiness	005	2.0	1	0.08000000000000007	966.1479057797078	0.5167370394874524
221.0	932.7639687131737	face	0.0		147	trustworthiness	102	2.0	1		966.6646428191953	1.2334763730850682
221.0	933.9974450862587	rating	1.0		919	trustworthiness	102	2.0	1		967.8981191922803	7.6675687146225755
221.0	941.6650138008813	fix	2.0		60	trustworthiness	102	2.0	1	0.54	975.5656879069029	0.5167457933266633
222.0	942.181759594208	face	0.0		147	trustworthiness	039	2.0	1		976.0824337002296	1.2334715433808014
222.0	943.4152311375888	rating	1.0		314	trustworthiness	039	2.0	1		977.3159052436104	2.6252858581419787
222.0	946.0405169957307	fix	2.0		60	trustworthiness	039	2.0	1	-0.5099999999999998	979.9411911017523	0.5167617917240932
223.0	946.5572787874548	face	0.0		147	trustworthiness	124	2.0	1		980.4579528934764	1.2334685248142705
223.0	947.7907473122691	rating	1.0		196	trustworthiness	124	2.0	1		981.6914214182907	1.6418635173777147
223.0	949.4326108296468	fix	2.0		60	trustworthiness	124	2.0	1	1.3099999999999996	983.3332849356684	0.5167479063229621
224.0	949.9493587359698	face	0.0		147	trustworthiness	024	2.0	1		983.8500328419914	1.233459167262481
224.0	951.1828179032323	rating	1.0		804	trustworthiness	024	2.0	1		985.0834920092539	6.709154584355929
224.0	957.8919724875882	fix	2.0		60	trustworthiness	024	2.0	1	2.84	991.7926465936098	0.5167678288544266
225.0	958.4087403164426	face	0.0		147	trustworthiness	066	2.0	1		992.3094144224642	1.233426264899208
225.0	959.6421665813418	rating	1.0		128	trustworthiness	066	2.0	1		993.5428406873634	1.0751414499736711
225.0	960.7173080313155	fix	2.0		60	trustworthiness	066	2.0	1	1.4400000000000004	994.6179821373371	0.5167759789819684
226.0	961.2340840102975	face	0.0		147	trustworthiness	033	2.0	1		995.1347581163191	1.233426566755952
226.0	962.4675105770534	rating	1.0		108	trustworthiness	033	2.0	1		996.368184683075	0.908452345304795
226.0	963.3759629223582	fix	2.0		60	trustworthiness	033	2.0	1	-1.7000000000000002	997.2766370283798	0.516734020921831
227.0	963.89269694328	face	0.0		147	trustworthiness	036	2.0	1		997.7933710493016	1.233455544984281
227.0	965.1261524882643	rating	1.0		101	trustworthiness	036	2.0	1		999.0268265942859	0.850120984100613
227.0	965.9762734723649	fix	2.0		60	trustworthiness	036	2.0	1	0.41999999999999993	999.8769475783865	0.516721041090932
228.0	966.4929945134559	face	0.0		147	trustworthiness	087	2.0	1		1000.3936686194775	1.2334676192449479
228.0	967.7264621327008	rating	1.0		69	trustworthiness	087	2.0	1		1001.6271362387224	0.5834150358368788
228.0	968.3098771685377	fix	2.0		60	trustworthiness	087	2.0	1	1.1900000000000004	1002.2105512745593	0.516747302609474
229.0	968.8266244711472	face	0.0		147	trustworthiness	062	2.0	1		1002.7272985771688	1.2334443762920273
229.0	970.0600688474392	rating	1.0		164	trustworthiness	062	2.0	1		1003.9607429534608	1.375186245484656
229.0	971.4352550929239	fix	2.0		60	trustworthiness	062	2.0	1	0.15000000000000036	1005.3359291989455	0.5167252670826201
230.0	971.9519803600065	face	0.0		147	trustworthiness	030	2.0	1		1005.8526544660281	1.2334799953632682
230.0	973.1854603553697	rating	1.0		139	trustworthiness	030	2.0	1		1007.0861344613913	1.166808941715317
230.0	974.3522692970851	fix	2.0		60	trustworthiness	030	2.0	1	-0.2400000000000002	1008.2529434031067	0.5167545471667836
231.0	974.8690238442518	face	0.0		146	trustworthiness	012	2.0	1		1008.7696979502734	1.2334446781487713
231.0	976.1024685224006	rating	1.0		159	trustworthiness	012	2.0	1		1010.0031426284222	1.3335068002234038
231.0	977.435975322624	fix	2.0		59	trustworthiness	012	2.0	1	0.5300000000000002	1011.3366494286456	0.531233397890901
232.0	977.9672087205149	face	0.0		145	trustworthiness	006	2.0	1		1011.8678828265365	1.2189673367074647
232.0	979.1861760572224	rating	1.0		95	trustworthiness	006	2.0	1		1013.086850163244	0.8001139206580774
232.0	979.9862899778805	fix	2.0		60	trustworthiness	006	2.0	1	0.25	1013.8869640839021	0.5167177206685665
233.0	980.503007698549	face	0.0		147	trustworthiness	009	2.0	1		1014.4036818045706	1.2334667136756252
233.0	981.7364744122247	rating	1.0		117	trustworthiness	009	2.0	1		1015.6371485182462	0.983468826671924
233.0	982.7199432388966	fix	2.0		60	trustworthiness	009	2.0	1	2.37	1016.6206173449182	0.5167509248885835
234.0	983.2366941637852	face	0.0		147	trustworthiness	172	2.0	1		1017.1373682698068	1.2334703359538253
234.0	984.470164499739	rating	1.0		112	trustworthiness	172	2.0	1		1018.3708386057606	0.9417540641970845
234.0	985.4119185639361	fix	2.0		60	trustworthiness	172	2.0	1	-0.33000000000000007	1019.3125926699577	0.5167436803312739
235.0	985.9286622442673	face	0.0		147	trustworthiness	100	2.0	1		1019.8293363502889	1.2334667136756252
235.0	987.162128957943	rating	1.0		115	trustworthiness	100	2.0	1		1021.0628030639646	0.9667900454960545
235.0	988.128919003439	fix	2.0		61	trustworthiness	100	2.0	1	2.7699999999999996	1022.0295931094606	0.5250716003711204
236.0	988.6539906038101	face	0.0		146	trustworthiness	141	2.0	1		1022.5546647098317	1.225111022834426
236.0	989.8791016266446	rating	1.0		393	trustworthiness	141	2.0	1		1023.7797757326662	3.28371979019812
236.0	993.1628214168427	fix	2.0		60	trustworthiness	141	2.0	1	-0.48	1027.0634955228643	0.5167696399930719
237.0	993.6795910568358	face	0.0		147	trustworthiness	099	2.0	1		1027.5802651628574	1.2334483004269714
237.0	994.9130393572627	rating	1.0		125	trustworthiness	099	2.0	1		1028.8137134632843	1.0501353524723527
237.0	995.9631747097351	fix	2.0		60	trustworthiness	099	2.0	1	1.0700000000000003	1029.8638488157567	0.5167596787277944
238.0	996.4799343884629	face	0.0		147	trustworthiness	061	2.0	1		1030.3806084944845	1.2334425651524725
238.0	997.7133769536154	rating	1.0		261	trustworthiness	061	2.0	1		1031.614051059637	2.183621143481105
238.0	999.8969980970965	fix	2.0		60	trustworthiness	061	2.0	1	0.7300000000000004	1033.797672203118	0.5167282856482416
239.0	1000.4137263827447	face	0.0		147	trustworthiness	064	2.0	1		1034.3144004887663	1.2334579598364144
239.0	1001.6471843425811	rating	1.0		143	trustworthiness	064	2.0	1		1035.5478584486027	1.200150203812882
239.0	1002.847334546394	fix	2.0		60	trustworthiness	064	2.0	1	2.59	1036.7480086524156	0.5000546360333828
