trial_nr	onset	event_type	phase	response	nr_frames	face_age	face_sex	face_eth	attractiveness	expression	face_id	sub_id	ses	run	trial_type	catch	rating_type	onset_abs	duration
-1.0	0.05389708865402554	fix	0.0		714													151.3602449505438	5.965161529470947
-1.0	0.7026166735892048	pulse	0.0	t														152.00896453547898	
-1.0	1.4025933098931773	pulse	0.0	t														152.70894117178295	
-1.0	2.102578398180185	pulse	0.0	t														153.40892626006996	
-1.0	2.802572542163375	pulse	0.0	t														154.10892040405315	
-1.0	3.5025588378764496	pulse	0.0	t														154.80890669976623	
-1.0	4.20255298185964	pulse	0.0	t														155.50890084374942	
-1.0	4.9025513518342905	pulse	0.0	t														156.20889921372407	
-1.0	5.6025222528639915	pulse	0.0	t														156.90887011475377	
0.0	6.019058618124973	face	0.0		144	40.0	male	white	1.868682849184242	smiling	172	sub-06	2.0	1.0	172_smiling	0.0		157.32540648001475	1.2333332930857068
0.0	6.302496172459087	pulse	0.0	t		40.0	male	white	1.868682849184242	smiling	172	sub-06	2.0	1.0	172_smiling	0.0		157.60884403434886	
0.0	7.002514766821832	pulse	0.0	t		40.0	male	white	1.868682849184242	smiling	172	sub-06	2.0	1.0	172_smiling	0.0		158.3088626287116	
0.0	7.25239191121068	fix	1.0		444	40.0	male	white	1.868682849184242	smiling	172	sub-06	2.0	1.0	172_smiling	0.0		158.55873977310046	3.7582615116009492
0.0	7.702505590383112	pulse	1.0	t		40.0	male	white	1.868682849184242	smiling	172	sub-06	2.0	1.0	172_smiling	0.0		159.0088534522729	
0.0	8.402485245252365	pulse	1.0	t		40.0	male	white	1.868682849184242	smiling	172	sub-06	2.0	1.0	172_smiling	0.0		159.70883310714214	
0.0	9.102486633792523	pulse	1.0	t		40.0	male	white	1.868682849184242	smiling	172	sub-06	2.0	1.0	172_smiling	0.0		160.4088344956823	
0.0	9.802468703514137	pulse	1.0	t		40.0	male	white	1.868682849184242	smiling	172	sub-06	2.0	1.0	172_smiling	0.0		161.1088165654039	
0.0	10.50246224378418	pulse	1.0	t		40.0	male	white	1.868682849184242	smiling	172	sub-06	2.0	1.0	172_smiling	0.0		161.80881010567396	
1.0	11.010653422811629	face	0.0		146	19.0	male	white	3.2522881018702745	smiling	018	sub-06	2.0	1.0	018_smiling	0.0		162.3170012847014	1.24166513726027
1.0	11.202450954349615	pulse	0.0	t		19.0	male	white	3.2522881018702745	smiling	018	sub-06	2.0	1.0	018_smiling	0.0		162.5087988162394	
1.0	11.902438457488984	pulse	0.0	t		19.0	male	white	3.2522881018702745	smiling	018	sub-06	2.0	1.0	018_smiling	0.0		163.20878631937876	
1.0	12.252318560071899	fix	1.0		445	19.0	male	white	3.2522881018702745	smiling	018	sub-06	2.0	1.0	018_smiling	0.0		163.55866642196168	3.7582388723604936
1.0	12.602427771767452	pulse	1.0	t		19.0	male	white	3.2522881018702745	smiling	018	sub-06	2.0	1.0	018_smiling	0.0		163.90877563365723	
1.0	13.302392031953332	pulse	1.0	t		19.0	male	white	3.2522881018702745	smiling	018	sub-06	2.0	1.0	018_smiling	0.0		164.6087398938431	
1.0	14.002406098467986	pulse	1.0	t		19.0	male	white	3.2522881018702745	smiling	018	sub-06	2.0	1.0	018_smiling	0.0		165.30875396035776	
1.0	14.702389979328814	pulse	1.0	t		19.0	male	white	3.2522881018702745	smiling	018	sub-06	2.0	1.0	018_smiling	0.0		166.0087378412186	
1.0	15.402386236307734	pulse	1.0	t		19.0	male	white	3.2522881018702745	smiling	018	sub-06	2.0	1.0	018_smiling	0.0		166.7087340981975	
2.0	16.010557432432392	face	0.0		146	27.0	female	white	3.504576203740549	neutral	144	sub-06	2.0	1.0	144_neutral	0.0		167.31690529432217	1.2416826449394875
2.0	16.102374946873283	pulse	0.0	t		27.0	female	white	3.504576203740549	neutral	144	sub-06	2.0	1.0	144_neutral	0.0		167.40872280876306	
2.0	16.802356111025233	pulse	0.0	t		27.0	female	white	3.504576203740549	neutral	144	sub-06	2.0	1.0	144_neutral	0.0		168.108703972915	
2.0	17.25224007737188	fix	1.0		444	27.0	female	white	3.504576203740549	neutral	144	sub-06	2.0	1.0	144_neutral	0.0		168.55858793926166	3.7665936576319154
2.0	17.50235266986067	pulse	1.0	t		27.0	female	white	3.504576203740549	neutral	144	sub-06	2.0	1.0	144_neutral	0.0		168.80870053175045	
2.0	18.202356473253076	pulse	1.0	t		27.0	female	white	3.504576203740549	neutral	144	sub-06	2.0	1.0	144_neutral	0.0		169.50870433514285	
2.0	18.902335826265812	pulse	1.0	t		27.0	female	white	3.504576203740549	neutral	144	sub-06	2.0	1.0	144_neutral	0.0		170.2086836881556	
2.0	19.602322725692147	pulse	1.0	t		27.0	female	white	3.504576203740549	neutral	144	sub-06	2.0	1.0	144_neutral	0.0		170.90867058758192	
2.0	20.30231415296646	pulse	1.0	t		27.0	female	white	3.504576203740549	neutral	144	sub-06	2.0	1.0	144_neutral	0.0		171.60866201485624	
3.0	21.018833735003795	face	0.0		145	28.0	male	east_asian	1.5563072025467568	neutral	005	sub-06	2.0	1.0	005_neutral	1.0	attractiveness	172.32518159689357	1.2333390283599783
3.0	21.005172915499543	pulse	0.0	t		28.0	male	east_asian	1.5563072025467568	neutral	005	sub-06	2.0	1.0	005_neutral	1.0	attractiveness	172.31152077738932	
3.0	21.70229278152351	pulse	0.0	t		28.0	male	east_asian	1.5563072025467568	neutral	005	sub-06	2.0	1.0	005_neutral	1.0	attractiveness	173.0086406434133	
3.0	22.252172763363774	fix	1.0		177	28.0	male	east_asian	1.5563072025467568	neutral	005	sub-06	2.0	1.0	005_neutral	1.0	attractiveness	173.55852062525355	1.5083318441744495
3.0	22.40228330322816	pulse	1.0	t		28.0	male	east_asian	1.5563072025467568	neutral	005	sub-06	2.0	1.0	005_neutral	1.0	attractiveness	173.70863116511794	
3.0	23.10227744721135	pulse	1.0	t		28.0	male	east_asian	1.5563072025467568	neutral	005	sub-06	2.0	1.0	005_neutral	1.0	attractiveness	174.40862530910113	
3.0	23.760504607538223	rating	2.0		294	28.0	male	east_asian	1.5563072025467568	neutral	005	sub-06	2.0	1.0	005_neutral	1.0	attractiveness	175.066852469428	2.4916083882309294
3.0	23.802266157776785	pulse	2.0	t		28.0	male	east_asian	1.5563072025467568	neutral	005	sub-06	2.0	1.0	005_neutral	1.0	attractiveness	175.10861401966656	
3.0	24.502249736781096	pulse	2.0	t		28.0	male	east_asian	1.5563072025467568	neutral	005	sub-06	2.0	1.0	005_neutral	1.0	attractiveness	175.80859759867087	
3.0	25.202237843633498	pulse	2.0	t		28.0	male	east_asian	1.5563072025467568	neutral	005	sub-06	2.0	1.0	005_neutral	1.0	attractiveness	176.50858570552327	
3.0	25.90223259132972	pulse	2.0	t		28.0	male	east_asian	1.5563072025467568	neutral	005	sub-06	2.0	1.0	005_neutral	1.0	attractiveness	177.2085804532195	
3.0	26.252112995769153	fix	3.0		443	28.0	male	east_asian	1.5563072025467568	neutral	005	sub-06	2.0	1.0	005_neutral	1.0	attractiveness	177.55846085765893	3.7665927520623654
3.0	26.552232651701047	response	3.0	n		28.0	male	east_asian	1.5563072025467568	neutral	005	sub-06	2.0	1.0	005_neutral	1.0	attractiveness	177.85858051359082	
3.0	26.602214661051335	pulse	3.0	t		28.0	male	east_asian	1.5563072025467568	neutral	005	sub-06	2.0	1.0	005_neutral	1.0	attractiveness	177.9085625229411	
3.0	27.302216955161043	pulse	3.0	t		28.0	male	east_asian	1.5563072025467568	neutral	005	sub-06	2.0	1.0	005_neutral	1.0	attractiveness	178.60856481705082	
3.0	28.002223173405696	pulse	3.0	t		28.0	male	east_asian	1.5563072025467568	neutral	005	sub-06	2.0	1.0	005_neutral	1.0	attractiveness	179.30857103529547	
3.0	28.702182603886968	pulse	3.0	t		28.0	male	east_asian	1.5563072025467568	neutral	005	sub-06	2.0	1.0	005_neutral	1.0	attractiveness	180.00853046577674	
3.0	29.402181577574765	pulse	3.0	t		28.0	male	east_asian	1.5563072025467568	neutral	005	sub-06	2.0	1.0	005_neutral	1.0	attractiveness	180.70852943946454	
4.0	30.01870574783152	face	0.0		145	22.0	male	black	2.767608436132113	neutral	044	sub-06	2.0	1.0	044_neutral	0.0		181.3250536097213	1.2333221243937942
4.0	30.102168477000987	pulse	0.0	t		22.0	male	black	2.767608436132113	neutral	044	sub-06	2.0	1.0	044_neutral	0.0		181.40851633889076	
4.0	30.802150848579117	pulse	0.0	t		22.0	male	black	2.767608436132113	neutral	044	sub-06	2.0	1.0	044_neutral	0.0		182.1084987104689	
4.0	31.252027872225312	fix	1.0		444	22.0	male	black	2.767608436132113	neutral	044	sub-06	2.0	1.0	044_neutral	0.0		182.5583757341151	3.7582657375925237
4.0	31.502149822266915	pulse	1.0	t		22.0	male	black	2.767608436132113	neutral	044	sub-06	2.0	1.0	044_neutral	0.0		182.8084976841567	
4.0	32.2021379291192	pulse	1.0	t		22.0	male	black	2.767608436132113	neutral	044	sub-06	2.0	1.0	044_neutral	0.0		183.50848579100898	
4.0	32.90214746778588	pulse	1.0	t		22.0	male	black	2.767608436132113	neutral	044	sub-06	2.0	1.0	044_neutral	0.0		184.20849532967566	
4.0	33.60212410408974	pulse	1.0	t		22.0	male	black	2.767608436132113	neutral	044	sub-06	2.0	1.0	044_neutral	0.0		184.90847196597952	
4.0	34.3021082868072	pulse	1.0	t		22.0	male	black	2.767608436132113	neutral	044	sub-06	2.0	1.0	044_neutral	0.0		185.60845614869697	
5.0	35.010293609817836	face	0.0		147	26.0	male	white	2.7966573816155993	smiling	117	sub-06	2.0	1.0	117_smiling	0.0		186.3166414717076	1.2416687595386975
5.0	35.0040850245349	pulse	0.0	t		26.0	male	white	2.7966573816155993	smiling	117	sub-06	2.0	1.0	117_smiling	0.0		186.31043288642468	
5.0	35.70220403570113	pulse	0.0	t		26.0	male	white	2.7966573816155993	smiling	117	sub-06	2.0	1.0	117_smiling	0.0		187.0085518975909	
5.0	36.251962369356534	fix	1.0		443	26.0	male	white	2.7966573816155993	smiling	117	sub-06	2.0	1.0	117_smiling	0.0		187.5583102312463	3.766610561597986
5.0	36.40208045563429	pulse	1.0	t		26.0	male	white	2.7966573816155993	smiling	117	sub-06	2.0	1.0	117_smiling	0.0		187.70842831752407	
5.0	37.10206946805636	pulse	1.0	t		26.0	male	white	2.7966573816155993	smiling	117	sub-06	2.0	1.0	117_smiling	0.0		188.40841732994613	
5.0	37.80216986554103	pulse	1.0	t		26.0	male	white	2.7966573816155993	smiling	117	sub-06	2.0	1.0	117_smiling	0.0		189.1085177274308	
5.0	38.502065604292625	pulse	1.0	t		26.0	male	white	2.7966573816155993	smiling	117	sub-06	2.0	1.0	117_smiling	0.0		189.8084134661824	
5.0	39.2020422405966	pulse	1.0	t		26.0	male	white	2.7966573816155993	smiling	117	sub-06	2.0	1.0	117_smiling	0.0		190.50839010248637	
5.0	39.90202431031821	pulse	1.0	t		26.0	male	white	2.7966573816155993	smiling	117	sub-06	2.0	1.0	117_smiling	0.0		191.208372172208	
6.0	40.01857293095452	face	0.0		146	27.0	female	white	3.504576203740549	smiling	144	sub-06	2.0	1.0	144_smiling	0.0		191.3249207928443	1.2333432543515528
6.0	40.60201815244477	pulse	0.0	t		27.0	female	white	3.504576203740549	smiling	144	sub-06	2.0	1.0	144_smiling	0.0		191.90836601433455	
6.0	41.25191618530607	fix	1.0		443	27.0	female	white	3.504576203740549	smiling	144	sub-06	2.0	1.0	144_smiling	0.0		192.55826404719585	3.7665867149315773
6.0	41.3020270873983	pulse	1.0	t		27.0	female	white	3.504576203740549	smiling	144	sub-06	2.0	1.0	144_smiling	0.0		192.60837494928808	
6.0	42.00200523298497	pulse	1.0	t		27.0	female	white	3.504576203740549	smiling	144	sub-06	2.0	1.0	144_smiling	0.0		193.30835309487475	
6.0	42.70211076203077	pulse	1.0	t		27.0	female	white	3.504576203740549	smiling	144	sub-06	2.0	1.0	144_smiling	0.0		194.00845862392055	
6.0	43.40197782441123	pulse	1.0	t		27.0	female	white	3.504576203740549	smiling	144	sub-06	2.0	1.0	144_smiling	0.0		194.708325686301	
6.0	44.102020265440615	pulse	1.0	t		27.0	female	white	3.504576203740549	smiling	144	sub-06	2.0	1.0	144_smiling	0.0		195.4083681273304	
6.0	44.801955547398734	pulse	1.0	t		27.0	female	white	3.504576203740549	smiling	144	sub-06	2.0	1.0	144_smiling	0.0		196.1083034092885	
7.0	45.01850290023765	face	0.0		145	27.0	male	black	3.5523278949462798	smiling	042	sub-06	2.0	1.0	042_smiling	0.0		196.32485076212743	1.2333130686977256
7.0	45.501942446824955	pulse	0.0	t		27.0	male	black	3.5523278949462798	smiling	042	sub-06	2.0	1.0	042_smiling	0.0		196.80829030871473	
7.0	46.20195590962658	pulse	0.0	t		27.0	male	black	3.5523278949462798	smiling	042	sub-06	2.0	1.0	042_smiling	0.0		197.50830377151635	
7.0	46.251815968935375	fix	1.0		444	27.0	male	black	3.5523278949462798	smiling	042	sub-06	2.0	1.0	042_smiling	0.0		197.55816383082515	3.7666036188976477
7.0	46.901916547533915	pulse	1.0	t		27.0	male	black	3.5523278949462798	smiling	042	sub-06	2.0	1.0	042_smiling	0.0		198.2082644094237	
7.0	47.6019137100825	pulse	1.0	t		27.0	male	black	3.5523278949462798	smiling	042	sub-06	2.0	1.0	042_smiling	0.0		198.90826157197228	
7.0	48.30191358933985	pulse	1.0	t		27.0	male	black	3.5523278949462798	smiling	042	sub-06	2.0	1.0	042_smiling	0.0		199.60826145122962	
7.0	49.00188630150876	pulse	1.0	t		27.0	male	black	3.5523278949462798	smiling	042	sub-06	2.0	1.0	042_smiling	0.0		200.30823416339854	
7.0	49.70187923806577	pulse	1.0	t		27.0	male	black	3.5523278949462798	smiling	042	sub-06	2.0	1.0	042_smiling	0.0		201.00822709995555	
8.0	50.01841958783302	face	0.0		145	31.0	female	white	2.1822522881018704	neutral	102	sub-06	2.0	1.0	102_neutral	1.0	trustworthiness	201.3247674497228	1.2333320856596401
8.0	50.40186613749199	pulse	0.0	t		31.0	female	white	2.1822522881018704	neutral	102	sub-06	2.0	1.0	102_neutral	1.0	trustworthiness	201.70821399938177	
8.0	51.10185726290979	pulse	0.0	t		31.0	female	white	2.1822522881018704	neutral	102	sub-06	2.0	1.0	102_neutral	1.0	trustworthiness	202.40820512479957	
8.0	51.25175167349266	fix	1.0		177	31.0	female	white	2.1822522881018704	neutral	102	sub-06	2.0	1.0	102_neutral	1.0	trustworthiness	202.55809953538244	1.4999646827849347
8.0	51.80184536976219	pulse	1.0	t		31.0	female	white	2.1822522881018704	neutral	102	sub-06	2.0	1.0	102_neutral	1.0	trustworthiness	203.10819323165197	
8.0	52.50183649517999	pulse	1.0	t		31.0	female	white	2.1822522881018704	neutral	102	sub-06	2.0	1.0	102_neutral	1.0	trustworthiness	203.80818435706976	
8.0	52.7517163562776	rating	2.0		295	31.0	female	white	2.1822522881018704	neutral	102	sub-06	2.0	1.0	102_neutral	1.0	trustworthiness	204.05806421816737	2.4999677013504424
8.0	53.20183335587194	pulse	2.0	t		31.0	female	white	2.1822522881018704	neutral	102	sub-06	2.0	1.0	102_neutral	1.0	trustworthiness	204.50818121776172	
8.0	53.901827197998614	pulse	2.0	t		31.0	female	white	2.1822522881018704	neutral	102	sub-06	2.0	1.0	102_neutral	1.0	trustworthiness	205.2081750598884	
8.0	54.0299263590789	response	2.0	g		31.0	female	white	2.1822522881018704	neutral	102	sub-06	2.0	1.0	102_neutral	1.0	trustworthiness	205.33627422096868	
8.0	54.60181198442899	pulse	2.0	t		31.0	female	white	2.1822522881018704	neutral	102	sub-06	2.0	1.0	102_neutral	1.0	trustworthiness	205.90815984631877	
8.0	55.25168405762804	fix	3.0		443	31.0	female	white	2.1822522881018704	neutral	102	sub-06	2.0	1.0	102_neutral	1.0	trustworthiness	206.55803191951782	3.758253059617914
8.0	55.301803411703304	pulse	3.0	t		31.0	female	white	2.1822522881018704	neutral	102	sub-06	2.0	1.0	102_neutral	1.0	trustworthiness	206.60815127359308	
8.0	56.00178578328155	pulse	3.0	t		31.0	female	white	2.1822522881018704	neutral	102	sub-06	2.0	1.0	102_neutral	1.0	trustworthiness	207.30813364517132	
8.0	56.701784455112715	pulse	3.0	t		31.0	female	white	2.1822522881018704	neutral	102	sub-06	2.0	1.0	102_neutral	1.0	trustworthiness	208.0081323170025	
8.0	57.40175233757702	pulse	3.0	t		31.0	female	white	2.1822522881018704	neutral	102	sub-06	2.0	1.0	102_neutral	1.0	trustworthiness	208.7081001994668	
8.0	58.101755537256395	pulse	3.0	t		31.0	female	white	2.1822522881018704	neutral	102	sub-06	2.0	1.0	102_neutral	1.0	trustworthiness	209.40810339914617	
8.0	58.80176930191453	pulse	3.0	t		31.0	female	white	2.1822522881018704	neutral	102	sub-06	2.0	1.0	102_neutral	1.0	trustworthiness	210.1081171638043	
9.0	59.009937117245954	face	0.0		146	27.0	female	white	4.181058495821727	smiling	039	sub-06	2.0	1.0	039_smiling	0.0		210.31628497913573	1.2416684576820671
9.0	59.50173446766996	pulse	0.0	t		27.0	female	white	4.181058495821727	smiling	039	sub-06	2.0	1.0	039_smiling	0.0		210.80808232955974	
9.0	60.20171351882618	pulse	0.0	t		27.0	female	white	4.181058495821727	smiling	039	sub-06	2.0	1.0	039_smiling	0.0		211.50806138071596	
9.0	60.25160557492802	fix	1.0		445	27.0	female	white	4.181058495821727	smiling	039	sub-06	2.0	1.0	039_smiling	0.0		211.5579534368178	3.7582720765798285
9.0	60.90172879276702	pulse	1.0	t		27.0	female	white	4.181058495821727	smiling	039	sub-06	2.0	1.0	039_smiling	0.0		212.2080766546568	
9.0	61.60171991818481	pulse	1.0	t		27.0	female	white	4.181058495821727	smiling	039	sub-06	2.0	1.0	039_smiling	0.0		212.9080677800746	
9.0	62.30171436402452	pulse	1.0	t		27.0	female	white	4.181058495821727	smiling	039	sub-06	2.0	1.0	039_smiling	0.0		213.6080622259143	
9.0	63.00167952977995	pulse	1.0	t		27.0	female	white	4.181058495821727	smiling	039	sub-06	2.0	1.0	039_smiling	0.0		214.30802739166973	
9.0	63.70167488118932	pulse	1.0	t		27.0	female	white	4.181058495821727	smiling	039	sub-06	2.0	1.0	039_smiling	0.0		215.0080227430791	
10.0	64.00987765150785	face	0.0		146	40.0	male	black	2.408674890569041	neutral	061	sub-06	2.0	1.0	061_neutral	0.0		215.31622551339763	1.2416563834206045
10.0	64.401658158337	pulse	0.0	t		40.0	male	black	2.408674890569041	neutral	061	sub-06	2.0	1.0	061_neutral	0.0		215.70800602022678	
10.0	65.10164837818525	pulse	0.0	t		40.0	male	black	2.408674890569041	neutral	061	sub-06	2.0	1.0	061_neutral	0.0		216.40799624007502	
10.0	65.25153403492845	fix	1.0		444	40.0	male	black	2.408674890569041	neutral	061	sub-06	2.0	1.0	061_neutral	0.0		216.55788189681823	3.758269661727468
10.0	65.80164916301214	pulse	1.0	t		40.0	male	black	2.408674890569041	neutral	061	sub-06	2.0	1.0	061_neutral	0.0		217.10799702490192	
10.0	66.50162278075072	pulse	1.0	t		40.0	male	black	2.408674890569041	neutral	061	sub-06	2.0	1.0	061_neutral	0.0		217.8079706426405	
10.0	67.20161813216009	pulse	1.0	t		40.0	male	black	2.408674890569041	neutral	061	sub-06	2.0	1.0	061_neutral	0.0		218.50796599404987	
10.0	67.90160865386474	pulse	1.0	t		40.0	male	black	2.408674890569041	neutral	061	sub-06	2.0	1.0	061_neutral	0.0		219.20795651575452	
10.0	68.60160702383939	pulse	1.0	t		40.0	male	black	2.408674890569041	neutral	061	sub-06	2.0	1.0	061_neutral	0.0		219.90795488572917	
11.0	69.00980369665592	face	0.0		146	37.0	male	white	3.898925586947871	smiling	101	sub-06	2.0	1.0	101_smiling	0.0		220.3161515585457	1.241655175994424
11.0	69.30159694183101	pulse	0.0	t		37.0	male	white	3.898925586947871	smiling	101	sub-06	2.0	1.0	101_smiling	0.0		220.60794480372078	
11.0	70.00159983965386	pulse	0.0	t		37.0	male	white	3.898925586947871	smiling	101	sub-06	2.0	1.0	101_smiling	0.0		221.30794770154364	
11.0	70.25145887265035	fix	1.0		444	37.0	male	white	3.898925586947871	smiling	101	sub-06	2.0	1.0	101_smiling	0.0		221.55780673454012	3.758260907887916
11.0	70.7015963984893	pulse	1.0	t		37.0	male	white	3.898925586947871	smiling	101	sub-06	2.0	1.0	101_smiling	0.0		222.00794426037908	
11.0	71.40156699766237	pulse	1.0	t		37.0	male	white	3.898925586947871	smiling	101	sub-06	2.0	1.0	101_smiling	0.0		222.70791485955215	
11.0	72.10156385835444	pulse	1.0	t		37.0	male	white	3.898925586947871	smiling	101	sub-06	2.0	1.0	101_smiling	0.0		223.40791172024421	
11.0	72.80154502250639	pulse	1.0	t		37.0	male	white	3.898925586947871	smiling	101	sub-06	2.0	1.0	101_smiling	0.0		224.10789288439616	
11.0	73.50155033518149	pulse	1.0	t		37.0	male	white	3.898925586947871	smiling	101	sub-06	2.0	1.0	101_smiling	0.0		224.80789819707127	
12.0	74.00971978053826	face	0.0		146	31.0	female	west_asian	2.364902506963788	neutral	006	sub-06	2.0	1.0	006_neutral	0.0		225.31606764242804	1.2416633261209427
12.0	74.20152787705501	pulse	0.0	t		31.0	female	west_asian	2.364902506963788	neutral	006	sub-06	2.0	1.0	006_neutral	0.0		225.5078757389448	
12.0	74.90149243909741	pulse	0.0	t		31.0	female	west_asian	2.364902506963788	neutral	006	sub-06	2.0	1.0	006_neutral	0.0		226.2078403009872	
12.0	75.2513831066592	fix	1.0		444	31.0	female	west_asian	2.364902506963788	neutral	006	sub-06	2.0	1.0	006_neutral	0.0		226.55773096854898	3.7582793211366834
12.0	75.60149835548555	pulse	1.0	t		31.0	female	west_asian	2.364902506963788	neutral	006	sub-06	2.0	1.0	006_neutral	0.0		226.90784621737532	
12.0	76.30149400875143	pulse	1.0	t		31.0	female	west_asian	2.364902506963788	neutral	006	sub-06	2.0	1.0	006_neutral	0.0		227.6078418706412	
12.0	77.00148513416923	pulse	1.0	t		31.0	female	west_asian	2.364902506963788	neutral	006	sub-06	2.0	1.0	006_neutral	0.0		228.307832996059	
12.0	77.70145090363769	pulse	1.0	t		31.0	female	west_asian	2.364902506963788	neutral	006	sub-06	2.0	1.0	006_neutral	0.0		229.00779876552747	
12.0	78.40145349960392	pulse	1.0	t		31.0	female	west_asian	2.364902506963788	neutral	006	sub-06	2.0	1.0	006_neutral	0.0		229.7078013614937	
13.0	79.00966242779589	face	0.0		146	25.0	female	black	3.858336649423	smiling	126	sub-06	2.0	1.0	126_smiling	0.0		230.31601028968566	1.2416494407202663
13.0	79.10144009717362	pulse	0.0	t		25.0	female	black	3.858336649423	smiling	126	sub-06	2.0	1.0	126_smiling	0.0		230.4077879590634	
13.0	79.80144088200063	pulse	0.0	t		25.0	female	black	3.858336649423	smiling	126	sub-06	2.0	1.0	126_smiling	0.0		231.1077887438904	
13.0	80.25131186851615	fix	1.0		444	25.0	female	black	3.858336649423	smiling	126	sub-06	2.0	1.0	126_smiling	0.0		231.55765973040593	3.7582714728666815
13.0	80.50142053687	pulse	1.0	t		25.0	female	black	3.858336649423	smiling	126	sub-06	2.0	1.0	126_smiling	0.0		231.80776839875978	
13.0	81.2014101530051	pulse	1.0	t		25.0	female	black	3.858336649423	smiling	126	sub-06	2.0	1.0	126_smiling	0.0		232.50775801489488	
13.0	81.90140640998402	pulse	1.0	t		25.0	female	black	3.858336649423	smiling	126	sub-06	2.0	1.0	126_smiling	0.0		233.2077542718738	
13.0	82.60138757413597	pulse	1.0	t		25.0	female	black	3.858336649423	smiling	126	sub-06	2.0	1.0	126_smiling	0.0		233.90773543602575	
13.0	83.30139560351984	pulse	1.0	t		25.0	female	black	3.858336649423	smiling	126	sub-06	2.0	1.0	126_smiling	0.0		234.6077434654096	
14.0	84.00958334138284	face	0.0		147	40.0	female	west_asian	1.5777954635893354	neutral	038	sub-06	2.0	1.0	038_neutral	0.0		235.3159312032726	1.2416458184417252
14.0	84.00269980487997	pulse	0.0	t		40.0	female	west_asian	1.5777954635893354	neutral	038	sub-06	2.0	1.0	038_neutral	0.0		235.30904766676974	
14.0	84.70135913925003	pulse	0.0	t		40.0	female	west_asian	1.5777954635893354	neutral	038	sub-06	2.0	1.0	038_neutral	0.0		236.0077070011398	
14.0	85.25122915982456	fix	1.0		443	40.0	female	west_asian	1.5777954635893354	neutral	038	sub-06	2.0	1.0	038_neutral	0.0		236.55757702171434	3.758285056410955
14.0	85.40135237766356	pulse	1.0	t		40.0	female	west_asian	1.5777954635893354	neutral	038	sub-06	2.0	1.0	038_neutral	0.0		236.70770023955333	
14.0	86.10133867337674	pulse	1.0	t		40.0	female	west_asian	1.5777954635893354	neutral	038	sub-06	2.0	1.0	038_neutral	0.0		237.40768653526652	
14.0	86.80134911761297	pulse	1.0	t		40.0	female	west_asian	1.5777954635893354	neutral	038	sub-06	2.0	1.0	038_neutral	0.0		238.10769697950275	
14.0	87.50133511146953	pulse	1.0	t		40.0	female	west_asian	1.5777954635893354	neutral	038	sub-06	2.0	1.0	038_neutral	0.0		238.8076829733593	
14.0	88.20133016102238	pulse	1.0	t		40.0	female	west_asian	1.5777954635893354	neutral	038	sub-06	2.0	1.0	038_neutral	0.0		239.50767802291216	
14.0	88.90130891032209	pulse	1.0	t		40.0	female	west_asian	1.5777954635893354	neutral	038	sub-06	2.0	1.0	038_neutral	0.0		240.20765677221186	
15.0	89.00951421623552	face	0.0		147	20.0	female	white	3.9502586549940313	neutral	091	sub-06	2.0	1.0	091_neutral	1.0	dominance	240.3158620781253	1.2416530629986937
15.0	89.60129490417864	pulse	0.0	t		20.0	female	white	3.9502586549940313	neutral	091	sub-06	2.0	1.0	091_neutral	1.0	dominance	240.90764276606842	
15.0	90.25116727923421	fix	1.0		176	20.0	female	white	3.9502586549940313	neutral	091	sub-06	2.0	1.0	091_neutral	1.0	dominance	241.557515141124	1.4999580419411132
15.0	90.30127969060914	pulse	1.0	t		20.0	female	white	3.9502586549940313	neutral	091	sub-06	2.0	1.0	091_neutral	1.0	dominance	241.6076275524989	
15.0	91.00128077729266	pulse	1.0	t		20.0	female	white	3.9502586549940313	neutral	091	sub-06	2.0	1.0	091_neutral	1.0	dominance	242.30762863918244	
15.0	91.70126737486237	pulse	1.0	t		20.0	female	white	3.9502586549940313	neutral	091	sub-06	2.0	1.0	091_neutral	1.0	dominance	243.00761523675214	
15.0	91.75112532117532	rating	2.0		295	20.0	female	white	3.9502586549940313	neutral	091	sub-06	2.0	1.0	091_neutral	1.0	dominance	243.0574731830651	2.499987623881907
15.0	92.40126302812826	pulse	2.0	t		20.0	female	white	3.9502586549940313	neutral	091	sub-06	2.0	1.0	091_neutral	1.0	dominance	243.70761089001803	
15.0	93.101250229411	pulse	2.0	t		20.0	female	white	3.9502586549940313	neutral	091	sub-06	2.0	1.0	091_neutral	1.0	dominance	244.40759809130077	
15.0	93.17930429312446	response	2.0	b		20.0	female	white	3.9502586549940313	neutral	091	sub-06	2.0	1.0	091_neutral	1.0	dominance	244.48565215501424	
15.0	93.80122294157991	pulse	2.0	t		20.0	female	white	3.9502586549940313	neutral	091	sub-06	2.0	1.0	091_neutral	1.0	dominance	245.10757080346968	
15.0	94.25111294505723	fix	3.0		444	20.0	female	white	3.9502586549940313	neutral	091	sub-06	2.0	1.0	091_neutral	1.0	dominance	245.557460806947	3.7666002984758506
15.0	94.50122463197647	pulse	3.0	t		20.0	female	white	3.9502586549940313	neutral	091	sub-06	2.0	1.0	091_neutral	1.0	dominance	245.80757249386625	
15.0	95.20121454996809	pulse	3.0	t		20.0	female	white	3.9502586549940313	neutral	091	sub-06	2.0	1.0	091_neutral	1.0	dominance	246.50756241185786	
15.0	95.90121171251667	pulse	3.0	t		20.0	female	white	3.9502586549940313	neutral	091	sub-06	2.0	1.0	091_neutral	1.0	dominance	247.20755957440645	
15.0	96.60118593396828	pulse	3.0	t		20.0	female	white	3.9502586549940313	neutral	091	sub-06	2.0	1.0	091_neutral	1.0	dominance	247.90753379585806	
15.0	97.30118098352102	pulse	3.0	t		20.0	female	white	3.9502586549940313	neutral	091	sub-06	2.0	1.0	091_neutral	1.0	dominance	248.6075288454108	
16.0	98.01771324353308	face	0.0		146	54.0	female	white	2.286908077994429	smiling	136	sub-06	2.0	1.0	136_smiling	0.0		249.32406110542286	1.2333142761237923
16.0	98.00398511002072	pulse	0.0	t		54.0	female	white	2.286908077994429	smiling	136	sub-06	2.0	1.0	136_smiling	0.0		249.3103329719105	
16.0	98.70116051764774	pulse	0.0	t		54.0	female	white	2.286908077994429	smiling	136	sub-06	2.0	1.0	136_smiling	0.0		250.0075083795375	
16.0	99.25102751965687	fix	1.0		443	54.0	female	white	2.286908077994429	smiling	136	sub-06	2.0	1.0	136_smiling	0.0		250.55737538154665	3.7582660394490404
16.0	99.40114168179969	pulse	1.0	t		54.0	female	white	2.286908077994429	smiling	136	sub-06	2.0	1.0	136_smiling	0.0		250.70748954368946	
16.0	100.10113039236523	pulse	1.0	t		54.0	female	white	2.286908077994429	smiling	136	sub-06	2.0	1.0	136_smiling	0.0		251.407478254255	
16.0	100.80112000850033	pulse	1.0	t		54.0	female	white	2.286908077994429	smiling	136	sub-06	2.0	1.0	136_smiling	0.0		252.1074678703901	
16.0	101.5011201896142	pulse	1.0	t		54.0	female	white	2.286908077994429	smiling	136	sub-06	2.0	1.0	136_smiling	0.0		252.80746805150397	
16.0	102.2011004481966	pulse	1.0	t		54.0	female	white	2.286908077994429	smiling	136	sub-06	2.0	1.0	136_smiling	0.0		253.50744831008637	
16.0	102.90110153488013	pulse	1.0	t		54.0	female	white	2.286908077994429	smiling	136	sub-06	2.0	1.0	136_smiling	0.0		254.2074493967699	
17.0	103.00929355910591	face	0.0		147	22.0	female	west_asian	3.8205332272184642	smiling	066	sub-06	2.0	1.0	066_smiling	0.0		254.3156414209957	1.2416681558255505
17.0	103.60109024544556	pulse	0.0	t		22.0	female	west_asian	3.8205332272184642	smiling	066	sub-06	2.0	1.0	066_smiling	0.0		254.90743810733534	
17.0	104.25096171493146	fix	1.0		443	22.0	female	west_asian	3.8205332272184642	smiling	066	sub-06	2.0	1.0	066_smiling	0.0		255.55730957682124	3.758257587466005
17.0	104.30105903347953	pulse	1.0	t		22.0	female	west_asian	3.8205332272184642	smiling	066	sub-06	2.0	1.0	066_smiling	0.0		255.6074068953693	
17.0	105.00106313872845	pulse	1.0	t		22.0	female	west_asian	3.8205332272184642	smiling	066	sub-06	2.0	1.0	066_smiling	0.0		256.30741100061823	
17.0	105.70104339731085	pulse	1.0	t		22.0	female	west_asian	3.8205332272184642	smiling	066	sub-06	2.0	1.0	066_smiling	0.0		257.00739125920063	
17.0	106.40103905057663	pulse	1.0	t		22.0	female	west_asian	3.8205332272184642	smiling	066	sub-06	2.0	1.0	066_smiling	0.0		257.7073869124664	
17.0	107.10102776114218	pulse	1.0	t		22.0	female	west_asian	3.8205332272184642	smiling	066	sub-06	2.0	1.0	066_smiling	0.0		258.40737562303195	
17.0	107.80102160326874	pulse	1.0	t		22.0	female	west_asian	3.8205332272184642	smiling	066	sub-06	2.0	1.0	066_smiling	0.0		259.1073694651585	
18.0	108.00921930239747	face	0.0		146	32.0	male	white	2.389176283326701	neutral	092	sub-06	2.0	1.0	092_neutral	0.0		259.31556716428724	1.241638875741387
18.0	108.50102359552193	pulse	0.0	t		32.0	male	white	2.389176283326701	neutral	092	sub-06	2.0	1.0	092_neutral	0.0		259.8073714574117	
18.0	109.20099842068657	pulse	0.0	t		32.0	male	white	2.389176283326701	neutral	092	sub-06	2.0	1.0	092_neutral	0.0		260.50734628257635	
18.0	109.25085817813886	fix	1.0		444	32.0	male	white	2.389176283326701	neutral	092	sub-06	2.0	1.0	092_neutral	0.0		260.55720604002863	3.766618409867988
18.0	109.90097475513403	pulse	1.0	t		32.0	male	white	2.389176283326701	neutral	092	sub-06	2.0	1.0	092_neutral	0.0		261.2073226170238	
18.0	110.60097886038295	pulse	1.0	t		32.0	male	white	2.389176283326701	neutral	092	sub-06	2.0	1.0	092_neutral	0.0		261.9073267222727	
18.0	111.30096545795254	pulse	1.0	t		32.0	male	white	2.389176283326701	neutral	092	sub-06	2.0	1.0	092_neutral	0.0		262.6073133198423	
18.0	112.00096080936191	pulse	1.0	t		32.0	male	white	2.389176283326701	neutral	092	sub-06	2.0	1.0	092_neutral	0.0		263.3073086712517	
18.0	112.70094921807083	pulse	1.0	t		32.0	male	white	2.389176283326701	neutral	092	sub-06	2.0	1.0	092_neutral	0.0		264.0072970799606	
19.0	113.01747658800684	face	0.0		143	31.0	female	east_asian	3.395941106247513	neutral	087	sub-06	2.0	1.0	087_neutral	0.0		264.3238244498966	1.2333852124104396
19.0	113.40101127977516	pulse	0.0	t		31.0	female	east_asian	3.395941106247513	neutral	087	sub-06	2.0	1.0	087_neutral	0.0		264.70735914166494	
19.0	114.10110684755523	pulse	0.0	t		31.0	female	east_asian	3.395941106247513	neutral	087	sub-06	2.0	1.0	087_neutral	0.0		265.407454709445	
19.0	114.25086180041728	fix	1.0		443	31.0	female	east_asian	3.395941106247513	neutral	087	sub-06	2.0	1.0	087_neutral	0.0		265.55720966230706	3.7665393234549356
19.0	114.80099383246716	pulse	1.0	t		31.0	female	east_asian	3.395941106247513	neutral	087	sub-06	2.0	1.0	087_neutral	0.0		266.10734169435693	
19.0	115.50091704016381	pulse	1.0	t		31.0	female	east_asian	3.395941106247513	neutral	087	sub-06	2.0	1.0	087_neutral	0.0		266.8072649020536	
19.0	116.20094016237465	pulse	1.0	t		31.0	female	east_asian	3.395941106247513	neutral	087	sub-06	2.0	1.0	087_neutral	0.0		267.5072880242644	
19.0	116.90087001091513	pulse	1.0	t		31.0	female	east_asian	3.395941106247513	neutral	087	sub-06	2.0	1.0	087_neutral	0.0		268.2072178728049	
19.0	117.60091486679676	pulse	1.0	t		31.0	female	east_asian	3.395941106247513	neutral	087	sub-06	2.0	1.0	087_neutral	0.0		268.90726272868653	
20.0	118.01740112387222	face	0.0		145	32.0	male	white	2.389176283326701	smiling	092	sub-06	2.0	1.0	092_smiling	0.0		269.323748985762	1.2333378209339116
20.0	118.30088939010489	pulse	0.0	t		32.0	male	white	2.389176283326701	smiling	092	sub-06	2.0	1.0	092_smiling	0.0		269.60723725199466	
20.0	119.00085515957346	pulse	0.0	t		32.0	male	white	2.389176283326701	smiling	092	sub-06	2.0	1.0	092_smiling	0.0		270.30720302146324	
20.0	119.25073894480613	fix	1.0		1185	32.0	male	white	2.389176283326701	smiling	092	sub-06	2.0	1.0	092_smiling	0.0		270.5570868066959	10.008260606031286
20.0	119.70084749241732	pulse	1.0	t		32.0	male	white	2.389176283326701	smiling	092	sub-06	2.0	1.0	092_smiling	0.0		271.0071953543071	
20.0	120.40083559926973	pulse	1.0	t		32.0	male	white	2.389176283326701	smiling	092	sub-06	2.0	1.0	092_smiling	0.0		271.7071834611595	
20.0	121.10084121380135	pulse	1.0	t		32.0	male	white	2.389176283326701	smiling	092	sub-06	2.0	1.0	092_smiling	0.0		272.4071890756911	
20.0	121.80084984689836	pulse	1.0	t		32.0	male	white	2.389176283326701	smiling	092	sub-06	2.0	1.0	092_smiling	0.0		273.10719770878814	
20.0	122.5008557632865	pulse	1.0	t		32.0	male	white	2.389176283326701	smiling	092	sub-06	2.0	1.0	092_smiling	0.0		273.80720362517627	
20.0	123.20078802667933	pulse	1.0	t		32.0	male	white	2.389176283326701	smiling	092	sub-06	2.0	1.0	092_smiling	0.0		274.5071358885691	
20.0	123.90078156694938	pulse	1.0	t		32.0	male	white	2.389176283326701	smiling	092	sub-06	2.0	1.0	092_smiling	0.0		275.20712942883915	
20.0	124.60076574966672	pulse	1.0	t		32.0	male	white	2.389176283326701	smiling	092	sub-06	2.0	1.0	092_smiling	0.0		275.9071136115565	
20.0	125.30075415837564	pulse	1.0	t		32.0	male	white	2.389176283326701	smiling	092	sub-06	2.0	1.0	092_smiling	0.0		276.6071020202654	
20.0	126.00072143712691	pulse	1.0	t		32.0	male	white	2.389176283326701	smiling	092	sub-06	2.0	1.0	092_smiling	0.0		277.3070692990167	
20.0	126.70073399435887	pulse	1.0	t		32.0	male	white	2.389176283326701	smiling	092	sub-06	2.0	1.0	092_smiling	0.0		278.00708185624865	
20.0	127.40073477918588	pulse	1.0	t		32.0	male	white	2.389176283326701	smiling	092	sub-06	2.0	1.0	092_smiling	0.0		278.70708264107566	
20.0	128.10076333481447	pulse	1.0	t		32.0	male	white	2.389176283326701	smiling	092	sub-06	2.0	1.0	092_smiling	0.0		279.40711119670425	
20.0	128.80070555947293	pulse	1.0	t		32.0	male	white	2.389176283326701	smiling	092	sub-06	2.0	1.0	092_smiling	0.0		280.1070534213627	
21.0	129.25899955083742	face	0.0		146	27.0	male	black	3.5523278949462798	neutral	042	sub-06	2.0	1.0	042_neutral	0.0		280.5653474127272	1.2415706561637307
21.0	129.50072807797073	pulse	0.0	t		27.0	male	black	3.5523278949462798	neutral	042	sub-06	2.0	1.0	042_neutral	0.0		280.8070759398605	
21.0	130.20068962144774	pulse	0.0	t		27.0	male	black	3.5523278949462798	neutral	042	sub-06	2.0	1.0	042_neutral	0.0		281.5070374833375	
21.0	130.50057020700115	fix	1.0		444	27.0	male	black	3.5523278949462798	neutral	042	sub-06	2.0	1.0	042_neutral	0.0		281.8069180688909	3.766607241176075
21.0	130.90069070813126	pulse	1.0	t		27.0	male	black	3.5523278949462798	neutral	042	sub-06	2.0	1.0	042_neutral	0.0		282.20703857002104	
21.0	131.60073526215638	pulse	1.0	t		27.0	male	black	3.5523278949462798	neutral	042	sub-06	2.0	1.0	042_neutral	0.0		282.90708312404615	
21.0	132.3006563568572	pulse	1.0	t		27.0	male	black	3.5523278949462798	neutral	042	sub-06	2.0	1.0	042_neutral	0.0		283.60700421874697	
21.0	133.00064808598802	pulse	1.0	t		27.0	male	black	3.5523278949462798	neutral	042	sub-06	2.0	1.0	042_neutral	0.0		284.3069959478778	
21.0	133.7006703026293	pulse	1.0	t		27.0	male	black	3.5523278949462798	neutral	042	sub-06	2.0	1.0	042_neutral	0.0		285.0070181645191	
22.0	134.26717744817722	face	0.0		145	19.0	male	white	3.2522881018702745	neutral	018	sub-06	2.0	1.0	018_neutral	0.0		285.573525310067	1.2333185021154804
22.0	134.4006158477098	pulse	0.0	t		19.0	male	white	3.2522881018702745	neutral	018	sub-06	2.0	1.0	018_neutral	0.0		285.70696370959956	
22.0	135.10061783996287	pulse	0.0	t		19.0	male	white	3.2522881018702745	neutral	018	sub-06	2.0	1.0	018_neutral	0.0		286.40696570185264	
22.0	135.5004959502927	fix	1.0		444	19.0	male	white	3.2522881018702745	neutral	018	sub-06	2.0	1.0	018_neutral	0.0		286.8068438121825	3.766602713327984
22.0	135.80060926723718	pulse	1.0	t		19.0	male	white	3.2522881018702745	neutral	018	sub-06	2.0	1.0	018_neutral	0.0		287.10695712912695	
22.0	136.50059073324576	pulse	1.0	t		19.0	male	white	3.2522881018702745	neutral	018	sub-06	2.0	1.0	018_neutral	0.0		287.80693859513553	
22.0	137.20060661089963	pulse	1.0	t		19.0	male	white	3.2522881018702745	neutral	018	sub-06	2.0	1.0	018_neutral	0.0		288.5069544727894	
22.0	137.90057509707708	pulse	1.0	t		19.0	male	white	3.2522881018702745	neutral	018	sub-06	2.0	1.0	018_neutral	0.0		289.20692295896686	
22.0	138.60061089726253	pulse	1.0	t		19.0	male	white	3.2522881018702745	neutral	018	sub-06	2.0	1.0	018_neutral	0.0		289.9069587591523	
23.0	139.2670986636207	face	0.0		145	26.0	female	white	4.854755272582572	neutral	027	sub-06	2.0	1.0	027_neutral	0.0		290.57344652551046	1.2333335949423372
23.0	139.3005546312038	pulse	0.0	t		26.0	female	white	4.854755272582572	neutral	027	sub-06	2.0	1.0	027_neutral	0.0		290.60690249309357	
23.0	140.00053307864687	pulse	0.0	t		26.0	female	white	4.854755272582572	neutral	027	sub-06	2.0	1.0	027_neutral	0.0		291.30688094053664	
23.0	140.50043225856302	fix	1.0		443	26.0	female	white	4.854755272582572	neutral	027	sub-06	2.0	1.0	027_neutral	0.0		291.8067801204528	3.7665858093619136
23.0	140.7005872920812	pulse	1.0	t		26.0	female	white	4.854755272582572	neutral	027	sub-06	2.0	1.0	027_neutral	0.0		292.00693515397097	
23.0	141.40053404458786	pulse	1.0	t		26.0	female	white	4.854755272582572	neutral	027	sub-06	2.0	1.0	027_neutral	0.0		292.70688190647763	
23.0	142.1005230570098	pulse	1.0	t		26.0	female	white	4.854755272582572	neutral	027	sub-06	2.0	1.0	027_neutral	0.0		293.4068709188996	
23.0	142.8005078434403	pulse	1.0	t		26.0	female	white	4.854755272582572	neutral	027	sub-06	2.0	1.0	027_neutral	0.0		294.1068557053301	
23.0	143.5005318712208	pulse	1.0	t		26.0	female	white	4.854755272582572	neutral	027	sub-06	2.0	1.0	027_neutral	0.0		294.8068797331106	
23.0	144.2004762088751	pulse	1.0	t		26.0	female	white	4.854755272582572	neutral	027	sub-06	2.0	1.0	027_neutral	0.0		295.5068240707649	
24.0	144.26701806792494	face	0.0		146	31.0	female	east_asian	3.395941106247513	smiling	087	sub-06	2.0	1.0	087_smiling	0.0		295.5733659298147	1.2333308782335735
24.0	144.9005424965709	pulse	0.0	t		31.0	female	east_asian	3.395941106247513	smiling	087	sub-06	2.0	1.0	087_smiling	0.0		296.20689035846067	
24.0	145.5003489461585	fix	1.0		443	31.0	female	east_asian	3.395941106247513	smiling	087	sub-06	2.0	1.0	087_smiling	0.0		296.8066968080483	3.7666048263237144
24.0	145.60048623051216	pulse	1.0	t		31.0	female	east_asian	3.395941106247513	smiling	087	sub-06	2.0	1.0	087_smiling	0.0		296.90683409240194	
24.0	146.30047312993838	pulse	1.0	t		31.0	female	east_asian	3.395941106247513	smiling	087	sub-06	2.0	1.0	087_smiling	0.0		297.60682099182816	
24.0	147.00044523839426	pulse	1.0	t		31.0	female	east_asian	3.395941106247513	smiling	087	sub-06	2.0	1.0	087_smiling	0.0		298.30679310028404	
24.0	147.7004541733478	pulse	1.0	t		31.0	female	east_asian	3.395941106247513	smiling	087	sub-06	2.0	1.0	087_smiling	0.0		299.00680203523757	
24.0	148.40041481125513	pulse	1.0	t		31.0	female	east_asian	3.395941106247513	smiling	087	sub-06	2.0	1.0	087_smiling	0.0		299.7067626731449	
24.0	149.10041287937327	pulse	1.0	t		31.0	female	east_asian	3.395941106247513	smiling	087	sub-06	2.0	1.0	087_smiling	0.0		300.40676074126304	
25.0	149.26695377248222	face	0.0		146	20.0	male	black	2.609629924393156	smiling	043	sub-06	2.0	1.0	043_smiling	1.0	trustworthiness	300.573301634372	1.2333275578116627
25.0	149.80040189179533	pulse	0.0	t		20.0	male	black	2.609629924393156	smiling	043	sub-06	2.0	1.0	043_smiling	1.0	trustworthiness	301.1067497536851	
25.0	150.5002813302939	fix	1.0		177	20.0	male	black	2.609629924393156	smiling	043	sub-06	2.0	1.0	043_smiling	1.0	trustworthiness	301.80662919218366	1.499962871645721
25.0	150.50803723219292	pulse	1.0	t		20.0	male	black	2.609629924393156	smiling	043	sub-06	2.0	1.0	043_smiling	1.0	trustworthiness	301.8143850940827	
25.0	151.2003823314916	pulse	1.0	t		20.0	male	black	2.609629924393156	smiling	043	sub-06	2.0	1.0	043_smiling	1.0	trustworthiness	302.5067301933814	
25.0	151.90035443994748	pulse	1.0	t		20.0	male	black	2.609629924393156	smiling	043	sub-06	2.0	1.0	043_smiling	1.0	trustworthiness	303.20670230183725	
25.0	152.0002442019396	rating	2.0		295	20.0	male	black	2.609629924393156	smiling	043	sub-06	2.0	1.0	043_smiling	1.0	trustworthiness	303.3065920638294	2.499961362363024
25.0	152.60035130063943	pulse	2.0	t		20.0	male	black	2.609629924393156	smiling	043	sub-06	2.0	1.0	043_smiling	1.0	trustworthiness	303.9066991625292	
25.0	153.12535769999806	response	2.0	b		20.0	male	black	2.609629924393156	smiling	043	sub-06	2.0	1.0	043_smiling	1.0	trustworthiness	304.43170556188784	
25.0	153.30033216293486	pulse	2.0	t		20.0	male	black	2.609629924393156	smiling	043	sub-06	2.0	1.0	043_smiling	1.0	trustworthiness	304.60668002482464	
25.0	154.00032932548345	pulse	2.0	t		20.0	male	black	2.609629924393156	smiling	043	sub-06	2.0	1.0	043_smiling	1.0	trustworthiness	305.3066771873732	
25.0	154.50020556430263	fix	3.0		443	20.0	male	black	2.609629924393156	smiling	043	sub-06	2.0	1.0	043_smiling	1.0	trustworthiness	305.8065534261924	3.7582612097444326
25.0	154.7003165267662	pulse	3.0	t		20.0	male	black	2.609629924393156	smiling	043	sub-06	2.0	1.0	043_smiling	1.0	trustworthiness	306.00666438865596	
25.0	155.40031972644556	pulse	3.0	t		20.0	male	black	2.609629924393156	smiling	043	sub-06	2.0	1.0	043_smiling	1.0	trustworthiness	306.70666758833534	
25.0	156.10030119245403	pulse	3.0	t		20.0	male	black	2.609629924393156	smiling	043	sub-06	2.0	1.0	043_smiling	1.0	trustworthiness	307.4066490543438	
25.0	156.8002886955934	pulse	3.0	t		20.0	male	black	2.609629924393156	smiling	043	sub-06	2.0	1.0	043_smiling	1.0	trustworthiness	308.10663655748317	
25.0	157.5002846507158	pulse	3.0	t		20.0	male	black	2.609629924393156	smiling	043	sub-06	2.0	1.0	043_smiling	1.0	trustworthiness	308.8066325126056	
25.0	158.20026460744157	pulse	3.0	t		20.0	male	black	2.609629924393156	smiling	043	sub-06	2.0	1.0	043_smiling	1.0	trustworthiness	309.50661246933134	
26.0	158.25846677404706	face	0.0		147	25.0	female	west_asian	2.6756864305610826	smiling	064	sub-06	2.0	1.0	064_smiling	0.0		309.56481463593684	1.2416826449394875
26.0	158.90026931640364	pulse	0.0	t		25.0	female	west_asian	2.6756864305610826	smiling	064	sub-06	2.0	1.0	064_smiling	0.0		310.2066171782934	
26.0	159.50014941898655	fix	1.0		443	25.0	female	west_asian	2.6756864305610826	smiling	064	sub-06	2.0	1.0	064_smiling	0.0		310.80649728087633	3.766574036956854
26.0	159.6002553102602	pulse	1.0	t		25.0	female	west_asian	2.6756864305610826	smiling	064	sub-06	2.0	1.0	064_smiling	0.0		310.90660317214997	
26.0	160.30022892799877	pulse	1.0	t		25.0	female	west_asian	2.6756864305610826	smiling	064	sub-06	2.0	1.0	064_smiling	0.0		311.60657678988855	
26.0	161.0002203552731	pulse	1.0	t		25.0	female	west_asian	2.6756864305610826	smiling	064	sub-06	2.0	1.0	064_smiling	0.0		312.30656821716286	
26.0	161.70020906583852	pulse	1.0	t		25.0	female	west_asian	2.6756864305610826	smiling	064	sub-06	2.0	1.0	064_smiling	0.0		313.0065569277283	
26.0	162.4002062283871	pulse	1.0	t		25.0	female	west_asian	2.6756864305610826	smiling	064	sub-06	2.0	1.0	064_smiling	0.0		313.7065540902769	
26.0	163.10020097608333	pulse	1.0	t		25.0	female	west_asian	2.6756864305610826	smiling	064	sub-06	2.0	1.0	064_smiling	0.0		314.4065488379731	
27.0	163.2667234559434	face	0.0		146	28.0	male	east_asian	1.5563072025467568	smiling	005	sub-06	2.0	1.0	005_smiling	0.0		314.5730713178332	1.2333480840561606
27.0	163.80023768183833	pulse	0.0	t		28.0	male	east_asian	1.5563072025467568	smiling	005	sub-06	2.0	1.0	005_smiling	0.0		315.1065855437281	
27.0	164.50007153999957	fix	1.0		444	28.0	male	east_asian	1.5563072025467568	smiling	005	sub-06	2.0	1.0	005_smiling	0.0		315.80641940188934	3.7665876205011273
27.0	164.5074908718583	pulse	1.0	t		28.0	male	east_asian	1.5563072025467568	smiling	005	sub-06	2.0	1.0	005_smiling	0.0		315.81383873374807	
27.0	165.20017163562773	pulse	1.0	t		28.0	male	east_asian	1.5563072025467568	smiling	005	sub-06	2.0	1.0	005_smiling	0.0		316.5065194975175	
27.0	165.9001561202017	pulse	1.0	t		28.0	male	east_asian	1.5563072025467568	smiling	005	sub-06	2.0	1.0	005_smiling	0.0		317.2065039820915	
27.0	166.60013728435365	pulse	1.0	t		28.0	male	east_asian	1.5563072025467568	smiling	005	sub-06	2.0	1.0	005_smiling	0.0		317.9064851462434	
27.0	167.30014108774606	pulse	1.0	t		28.0	male	east_asian	1.5563072025467568	smiling	005	sub-06	2.0	1.0	005_smiling	0.0		318.60648894963583	
27.0	168.00012798717228	pulse	1.0	t		28.0	male	east_asian	1.5563072025467568	smiling	005	sub-06	2.0	1.0	005_smiling	0.0		319.30647584906205	
28.0	168.2666591605007	face	0.0		145	19.0	male	white	2.243931555909272	neutral	130	sub-06	2.0	1.0	130_neutral	0.0		319.57300702239047	1.2333393302166087
28.0	168.7001209237293	pulse	0.0	t		19.0	male	white	2.243931555909272	neutral	130	sub-06	2.0	1.0	130_neutral	0.0		320.00646878561906	
28.0	169.4001093324382	pulse	0.0	t		19.0	male	white	2.243931555909272	neutral	130	sub-06	2.0	1.0	130_neutral	0.0		320.706457194328	
28.0	169.4999984907173	fix	1.0		444	19.0	male	white	2.243931555909272	neutral	130	sub-06	2.0	1.0	130_neutral	0.0		320.8063463526071	3.7665981854800066
28.0	170.1000877798814	pulse	1.0	t		19.0	male	white	2.243931555909272	neutral	130	sub-06	2.0	1.0	130_neutral	0.0		321.40643564177117	
28.0	170.80007015145952	pulse	1.0	t		19.0	male	white	2.243931555909272	neutral	130	sub-06	2.0	1.0	130_neutral	0.0		322.1064180133493	
28.0	171.50008089755227	pulse	1.0	t		19.0	male	white	2.243931555909272	neutral	130	sub-06	2.0	1.0	130_neutral	0.0		322.80642875944204	
28.0	172.20006538212624	pulse	1.0	t		19.0	male	white	2.243931555909272	neutral	130	sub-06	2.0	1.0	130_neutral	0.0		323.506413244016	
28.0	172.90005680940055	pulse	1.0	t		19.0	male	white	2.243931555909272	neutral	130	sub-06	2.0	1.0	130_neutral	0.0		324.20640467129033	
29.0	173.2665966761973	face	0.0		145	21.0	male	black	2.969757262236371	neutral	137	sub-06	2.0	1.0	137_neutral	0.0		324.5729445380871	1.2333109557018815
29.0	173.60004853853138	pulse	0.0	t		21.0	male	black	2.969757262236371	neutral	137	sub-06	2.0	1.0	137_neutral	0.0		324.90639640042116	
29.0	174.30002336369603	pulse	0.0	t		21.0	male	black	2.969757262236371	neutral	137	sub-06	2.0	1.0	137_neutral	0.0		325.6063712255858	
29.0	174.4999076318992	fix	1.0		444	21.0	male	black	2.969757262236371	neutral	137	sub-06	2.0	1.0	137_neutral	0.0		325.80625549378897	3.766595468771129
29.0	175.00002082810113	pulse	1.0	t		21.0	male	black	2.969757262236371	neutral	137	sub-06	2.0	1.0	137_neutral	0.0		326.3063686899909	
29.0	175.70001104794926	pulse	1.0	t		21.0	male	black	2.969757262236371	neutral	137	sub-06	2.0	1.0	137_neutral	0.0		327.00635890983904	
29.0	176.3999964380929	pulse	1.0	t		21.0	male	black	2.969757262236371	neutral	137	sub-06	2.0	1.0	137_neutral	0.0		327.7063442999827	
29.0	177.09998213009294	pulse	1.0	t		21.0	male	black	2.969757262236371	neutral	137	sub-06	2.0	1.0	137_neutral	0.0		328.4063299919827	
29.0	177.79998563162872	pulse	1.0	t		21.0	male	black	2.969757262236371	neutral	137	sub-06	2.0	1.0	137_neutral	0.0		329.1063334935185	
30.0	178.26650310067032	face	0.0		145	19.0	female	white	4.298846000795861	neutral	100	sub-06	2.0	1.0	100_neutral	0.0		329.5728509625601	1.2333293689508764
30.0	178.49998369974696	pulse	0.0	t		19.0	female	white	4.298846000795861	neutral	100	sub-06	2.0	1.0	100_neutral	0.0		329.80633156163674	
30.0	179.199953695207	pulse	0.0	t		19.0	female	white	4.298846000795861	neutral	100	sub-06	2.0	1.0	100_neutral	0.0		330.5063015570968	
30.0	179.4998324696212	fix	1.0		444	19.0	female	white	4.298846000795861	neutral	100	sub-06	2.0	1.0	100_neutral	0.0		330.806180331511	3.7666147875895604
30.0	179.89994150020289	pulse	1.0	t		19.0	female	white	4.298846000795861	neutral	100	sub-06	2.0	1.0	100_neutral	0.0		331.20628936209266	
30.0	180.59996009456563	pulse	1.0	t		19.0	female	white	4.298846000795861	neutral	100	sub-06	2.0	1.0	100_neutral	0.0		331.9063079564554	
30.0	181.29993431601724	pulse	1.0	t		19.0	female	white	4.298846000795861	neutral	100	sub-06	2.0	1.0	100_neutral	0.0		332.606282177907	
30.0	181.99991668759537	pulse	1.0	t		19.0	female	white	4.298846000795861	neutral	100	sub-06	2.0	1.0	100_neutral	0.0		333.30626454948515	
30.0	182.69991354828744	pulse	1.0	t		19.0	female	white	4.298846000795861	neutral	100	sub-06	2.0	1.0	100_neutral	0.0		334.0062614101772	
31.0	183.26644725721076	face	0.0		145	24.0	male	white	3.1153999204138483	neutral	012	sub-06	2.0	1.0	012_neutral	1.0	dominance	334.57279511910053	1.2333284633812127
31.0	183.40002330332482	pulse	0.0	t		24.0	male	white	3.1153999204138483	neutral	012	sub-06	2.0	1.0	012_neutral	1.0	dominance	334.7063711652146	
31.0	184.09989278055752	pulse	0.0	t		24.0	male	white	3.1153999204138483	neutral	012	sub-06	2.0	1.0	012_neutral	1.0	dominance	335.4062406424473	
31.0	184.49977572059197	fix	1.0		177	24.0	male	white	3.1153999204138483	neutral	012	sub-06	2.0	1.0	012_neutral	1.0	dominance	335.80612358248175	1.4999788700422414
31.0	184.79987998184026	pulse	1.0	t		24.0	male	white	3.1153999204138483	neutral	012	sub-06	2.0	1.0	012_neutral	1.0	dominance	336.10622784373004	
31.0	185.49986778683615	pulse	1.0	t		24.0	male	white	3.1153999204138483	neutral	012	sub-06	2.0	1.0	012_neutral	1.0	dominance	336.8062156487259	
31.0	185.9997545906342	rating	2.0		294	24.0	male	white	3.1153999204138483	neutral	012	sub-06	2.0	1.0	012_neutral	1.0	dominance	337.306102452524	2.4999622679326876
31.0	186.19985528997552	pulse	2.0	t		24.0	male	white	3.1153999204138483	neutral	012	sub-06	2.0	1.0	012_neutral	1.0	dominance	337.5062031518653	
31.0	186.89985184881095	pulse	2.0	t		24.0	male	white	3.1153999204138483	neutral	012	sub-06	2.0	1.0	012_neutral	1.0	dominance	338.20619971070073	
31.0	187.2248405593764	response	2.0	y		24.0	male	white	3.1153999204138483	neutral	012	sub-06	2.0	1.0	012_neutral	1.0	dominance	338.53118842126617	
31.0	187.59982274984065	pulse	2.0	t		24.0	male	white	3.1153999204138483	neutral	012	sub-06	2.0	1.0	012_neutral	1.0	dominance	338.90617061173043	
31.0	188.29983108108104	pulse	2.0	t		24.0	male	white	3.1153999204138483	neutral	012	sub-06	2.0	1.0	012_neutral	1.0	dominance	339.6061789429708	
31.0	188.4997168585669	fix	3.0		444	24.0	male	white	3.1153999204138483	neutral	012	sub-06	2.0	1.0	012_neutral	1.0	dominance	339.8060647204567	3.7665797722311254
31.0	188.99981737679423	pulse	3.0	t		24.0	male	white	3.1153999204138483	neutral	012	sub-06	2.0	1.0	012_neutral	1.0	dominance	340.306165238684	
31.0	189.69979190010235	pulse	3.0	t		24.0	male	white	3.1153999204138483	neutral	012	sub-06	2.0	1.0	012_neutral	1.0	dominance	341.00613976199213	
31.0	190.39978423294633	pulse	3.0	t		24.0	male	white	3.1153999204138483	neutral	012	sub-06	2.0	1.0	012_neutral	1.0	dominance	341.7061320948361	
31.0	191.0997765657902	pulse	3.0	t		24.0	male	white	3.1153999204138483	neutral	012	sub-06	2.0	1.0	012_neutral	1.0	dominance	342.40612442767997	
31.0	191.79976829492114	pulse	3.0	t		24.0	male	white	3.1153999204138483	neutral	012	sub-06	2.0	1.0	012_neutral	1.0	dominance	343.1061161568109	
32.0	192.26629663079802	face	0.0		145	36.0	female	white	2.7548746518105847	smiling	011	sub-06	2.0	1.0	011_smiling	0.0		343.5726444926878	1.2333284633812127
32.0	192.49975791105612	pulse	0.0	t		36.0	female	white	2.7548746518105847	smiling	011	sub-06	2.0	1.0	011_smiling	0.0		343.8061057729459	
32.0	193.1997472253347	pulse	0.0	t		36.0	female	white	2.7548746518105847	smiling	011	sub-06	2.0	1.0	011_smiling	0.0		344.5060950872245	
32.0	193.49962509417924	fix	1.0		444	36.0	female	white	2.7548746518105847	smiling	011	sub-06	2.0	1.0	011_smiling	0.0		344.805972956069	3.766596978053826
32.0	193.8997522361533	pulse	1.0	t		36.0	female	white	2.7548746518105847	smiling	011	sub-06	2.0	1.0	011_smiling	0.0		345.20610009804307	
32.0	194.59972283532636	pulse	1.0	t		36.0	female	white	2.7548746518105847	smiling	011	sub-06	2.0	1.0	011_smiling	0.0		345.90607069721614	
32.0	195.29972362015337	pulse	1.0	t		36.0	female	white	2.7548746518105847	smiling	011	sub-06	2.0	1.0	011_smiling	0.0		346.60607148204315	
32.0	195.99970810472735	pulse	1.0	t		36.0	female	white	2.7548746518105847	smiling	011	sub-06	2.0	1.0	011_smiling	0.0		347.3060559666171	
32.0	196.69970073942773	pulse	1.0	t		36.0	female	white	2.7548746518105847	smiling	011	sub-06	2.0	1.0	011_smiling	0.0		348.0060486013175	
33.0	197.26622207223306	face	0.0		145	24.0	female	east_asian	4.409868682849185	neutral	030	sub-06	2.0	1.0	030_neutral	0.0		348.57256993412284	1.2333320856596401
33.0	197.39970001497204	pulse	0.0	t		24.0	female	east_asian	4.409868682849185	neutral	030	sub-06	2.0	1.0	030_neutral	0.0		348.7060478768618	
33.0	198.09968691439826	pulse	0.0	t		24.0	female	east_asian	4.409868682849185	neutral	030	sub-06	2.0	1.0	030_neutral	0.0		349.40603477628804	
33.0	198.4995541578927	fix	1.0		444	24.0	female	east_asian	4.409868682849185	neutral	030	sub-06	2.0	1.0	030_neutral	0.0		349.8059020197825	3.7666099578849526
33.0	198.79966324884572	pulse	1.0	t		24.0	female	east_asian	4.409868682849185	neutral	030	sub-06	2.0	1.0	030_neutral	0.0		350.1060111107355	
33.0	199.49966282624655	pulse	1.0	t		24.0	female	east_asian	4.409868682849185	neutral	030	sub-06	2.0	1.0	030_neutral	0.0		350.8060106881363	
33.0	200.19964912195974	pulse	1.0	t		24.0	female	east_asian	4.409868682849185	neutral	030	sub-06	2.0	1.0	030_neutral	0.0		351.5059969838495	
33.0	200.89963421024675	pulse	1.0	t		24.0	female	east_asian	4.409868682849185	neutral	030	sub-06	2.0	1.0	030_neutral	0.0		352.2059820721365	
33.0	201.59962986351252	pulse	1.0	t		24.0	female	east_asian	4.409868682849185	neutral	030	sub-06	2.0	1.0	030_neutral	0.0		352.9059777254023	
34.0	202.26616411577766	face	0.0		145	23.0	male	white	2.6275368085953046	neutral	141	sub-06	2.0	1.0	141_neutral	0.0		353.57251197766743	1.233327557811549
34.0	202.29962280006953	pulse	0.0	t		23.0	male	white	2.6275368085953046	neutral	141	sub-06	2.0	1.0	141_neutral	0.0		353.6059706619593	
34.0	202.9995979270908	pulse	0.0	t		23.0	male	white	2.6275368085953046	neutral	141	sub-06	2.0	1.0	141_neutral	0.0		354.3059457889806	
34.0	203.4994916735892	fix	1.0		443	23.0	male	white	2.6275368085953046	neutral	141	sub-06	2.0	1.0	141_neutral	0.0		354.805839535479	3.7665818852269695
34.0	203.6996002212005	pulse	1.0	t		23.0	male	white	2.6275368085953046	neutral	141	sub-06	2.0	1.0	141_neutral	0.0		355.0059480830903	
34.0	204.39958621505707	pulse	1.0	t		23.0	male	white	2.6275368085953046	neutral	141	sub-06	2.0	1.0	141_neutral	0.0		355.70593407694685	
34.0	205.09957552933565	pulse	1.0	t		23.0	male	white	2.6275368085953046	neutral	141	sub-06	2.0	1.0	141_neutral	0.0		356.40592339122543	
34.0	205.79956544732727	pulse	1.0	t		23.0	male	white	2.6275368085953046	neutral	141	sub-06	2.0	1.0	141_neutral	0.0		357.10591330921704	
34.0	206.49954661147922	pulse	1.0	t		23.0	male	white	2.6275368085953046	neutral	141	sub-06	2.0	1.0	141_neutral	0.0		357.805894473369	
34.0	207.19954317031466	pulse	1.0	t		23.0	male	white	2.6275368085953046	neutral	141	sub-06	2.0	1.0	141_neutral	0.0		358.50589103220443	
35.0	207.26607355881617	face	0.0		146	24.0	female	black	3.0955033824114606	neutral	099	sub-06	2.0	1.0	099_neutral	0.0		358.57242142070595	1.233328463381099
35.0	207.8995412384329	pulse	0.0	t		24.0	female	black	3.0955033824114606	neutral	099	sub-06	2.0	1.0	099_neutral	0.0		359.2058891003227	
35.0	208.49940202219727	fix	1.0		443	24.0	female	black	3.0955033824114606	neutral	099	sub-06	2.0	1.0	099_neutral	0.0		359.80574988408705	3.7665984873365232
35.0	208.59951485617137	pulse	1.0	t		24.0	female	black	3.0955033824114606	neutral	099	sub-06	2.0	1.0	099_neutral	0.0		359.90586271806114	
35.0	209.29950145374107	pulse	1.0	t		24.0	female	black	3.0955033824114606	neutral	099	sub-06	2.0	1.0	099_neutral	0.0		360.60584931563085	
35.0	209.99950435156381	pulse	1.0	t		24.0	female	black	3.0955033824114606	neutral	099	sub-06	2.0	1.0	099_neutral	0.0		361.3058522134536	
35.0	210.69948310086352	pulse	1.0	t		24.0	female	black	3.0955033824114606	neutral	099	sub-06	2.0	1.0	099_neutral	0.0		362.0058309627533	
35.0	211.39945792602828	pulse	1.0	t		24.0	female	black	3.0955033824114606	neutral	099	sub-06	2.0	1.0	099_neutral	0.0		362.70580578791805	
35.0	212.0994716906864	pulse	1.0	t		24.0	female	black	3.0955033824114606	neutral	099	sub-06	2.0	1.0	099_neutral	0.0		363.4058195525762	
36.0	212.2660005095338	face	0.0		146	47.0	male	east_asian	2.171110226820533	smiling	024	sub-06	2.0	1.0	024_smiling	0.0		363.5723483714236	1.2333308782335735
36.0	212.79946915509151	pulse	0.0	t		47.0	male	east_asian	2.171110226820533	smiling	024	sub-06	2.0	1.0	024_smiling	0.0		364.1058170169813	
36.0	213.49933138776737	fix	1.0		444	47.0	male	east_asian	2.171110226820533	smiling	024	sub-06	2.0	1.0	024_smiling	0.0		364.80567924965715	3.7665915446360714
36.0	213.50683433388713	pulse	1.0	t		47.0	male	east_asian	2.171110226820533	smiling	024	sub-06	2.0	1.0	024_smiling	0.0		364.8131821957769	
36.0	214.19942695554744	pulse	1.0	t		47.0	male	east_asian	2.171110226820533	smiling	024	sub-06	2.0	1.0	024_smiling	0.0		365.5057748174372	
36.0	214.89945551117592	pulse	1.0	t		47.0	male	east_asian	2.171110226820533	smiling	024	sub-06	2.0	1.0	024_smiling	0.0		366.2058033730657	
36.0	215.599421582501	pulse	1.0	t		47.0	male	east_asian	2.171110226820533	smiling	024	sub-06	2.0	1.0	024_smiling	0.0		366.9057694443908	
36.0	216.29941451905802	pulse	1.0	t		47.0	male	east_asian	2.171110226820533	smiling	024	sub-06	2.0	1.0	024_smiling	0.0		367.6057623809478	
36.0	216.99940473890615	pulse	1.0	t		47.0	male	east_asian	2.171110226820533	smiling	024	sub-06	2.0	1.0	024_smiling	0.0		368.3057526007959	
37.0	217.26592293240344	face	0.0		145	20.0	male	black	3.1070433744528456	smiling	082	sub-06	2.0	1.0	082_smiling	0.0		368.5722707942932	1.2333302745204264
37.0	217.69942001284699	pulse	0.0	t		20.0	male	black	3.1070433744528456	smiling	082	sub-06	2.0	1.0	082_smiling	0.0		369.00576787473676	
37.0	218.39936948206253	pulse	0.0	t		20.0	male	black	3.1070433744528456	smiling	082	sub-06	2.0	1.0	082_smiling	0.0		369.7057173439523	
37.0	218.49925320692387	fix	1.0		444	20.0	male	black	3.1070433744528456	smiling	082	sub-06	2.0	1.0	082_smiling	0.0		369.80560106881364	3.7666012040454007
37.0	219.09937207802875	pulse	1.0	t		20.0	male	black	3.1070433744528456	smiling	082	sub-06	2.0	1.0	082_smiling	0.0		370.4057199399185	
37.0	219.79935203475452	pulse	1.0	t		20.0	male	black	3.1070433744528456	smiling	082	sub-06	2.0	1.0	082_smiling	0.0		371.1056998966443	
37.0	220.4993365193285	pulse	1.0	t		20.0	male	black	3.1070433744528456	smiling	082	sub-06	2.0	1.0	082_smiling	0.0		371.80568438121827	
37.0	221.19932975774202	pulse	1.0	t		20.0	male	black	3.1070433744528456	smiling	082	sub-06	2.0	1.0	082_smiling	0.0		372.5056776196318	
37.0	221.89932510915128	pulse	1.0	t		20.0	male	black	3.1070433744528456	smiling	082	sub-06	2.0	1.0	082_smiling	0.0		373.20567297104105	
38.0	222.26585441096927	face	0.0		145	22.0	female	white	4.614007162753682	smiling	009	sub-06	2.0	1.0	009_smiling	0.0		373.57220227285904	1.233341443212339
38.0	222.59932498840874	pulse	0.0	t		22.0	female	white	4.614007162753682	smiling	009	sub-06	2.0	1.0	009_smiling	0.0		373.9056728502985	
38.0	223.29930041728653	pulse	0.0	t		22.0	female	white	4.614007162753682	smiling	009	sub-06	2.0	1.0	009_smiling	0.0		374.6056482791763	
38.0	223.4991958541816	fix	1.0		445	22.0	female	white	4.614007162753682	smiling	009	sub-06	2.0	1.0	009_smiling	0.0		374.8055437160714	3.7749137294013053
38.0	223.99929848540467	pulse	1.0	t		22.0	female	white	4.614007162753682	smiling	009	sub-06	2.0	1.0	009_smiling	0.0		375.30564634729444	
38.0	224.69926757529515	pulse	1.0	t		22.0	female	white	4.614007162753682	smiling	009	sub-06	2.0	1.0	009_smiling	0.0		376.00561543718493	
38.0	225.39927892510093	pulse	1.0	t		22.0	female	white	4.614007162753682	smiling	009	sub-06	2.0	1.0	009_smiling	0.0		376.7056267869907	
38.0	226.09926763566637	pulse	1.0	t		22.0	female	white	4.614007162753682	smiling	009	sub-06	2.0	1.0	009_smiling	0.0		377.40561549755614	
38.0	226.79925242209686	pulse	1.0	t		22.0	female	white	4.614007162753682	smiling	009	sub-06	2.0	1.0	009_smiling	0.0		378.10560028398663	
39.0	227.2741095835829	face	0.0		145	31.0	female	white	2.1822522881018704	smiling	102	sub-06	2.0	1.0	102_smiling	0.0		378.5804574454727	1.2333462729169469
39.0	227.49923690667083	pulse	0.0	t		31.0	female	white	2.1822522881018704	smiling	102	sub-06	2.0	1.0	102_smiling	0.0		378.8055847685606	
39.0	228.1992322580801	pulse	0.0	t		31.0	female	white	2.1822522881018704	smiling	102	sub-06	2.0	1.0	102_smiling	0.0		379.50558011996986	
39.0	228.50745585649986	fix	1.0		444	31.0	female	white	2.1822522881018704	smiling	102	sub-06	2.0	1.0	102_smiling	0.0		379.81380371838964	3.749921517299981
39.0	228.89921402594518	pulse	1.0	t		31.0	female	white	2.1822522881018704	smiling	102	sub-06	2.0	1.0	102_smiling	0.0		380.20556188783496	
39.0	229.5991991142322	pulse	1.0	t		31.0	female	white	2.1822522881018704	smiling	102	sub-06	2.0	1.0	102_smiling	0.0		380.90554697612197	
39.0	230.29920412505066	pulse	1.0	t		31.0	female	white	2.1822522881018704	smiling	102	sub-06	2.0	1.0	102_smiling	0.0		381.60555198694044	
39.0	230.9991973634643	pulse	1.0	t		31.0	female	white	2.1822522881018704	smiling	102	sub-06	2.0	1.0	102_smiling	0.0		382.3055452253541	
39.0	231.69917430162468	pulse	1.0	t		31.0	female	white	2.1822522881018704	smiling	102	sub-06	2.0	1.0	102_smiling	0.0		383.00552216351446	
40.0	232.25737737379984	fix	0.0		720													383.5637252356896	5.999913970886496
40.0	232.3991768975909	pulse	0.0	t														383.7055247594807	
40.0	233.09916409887376	pulse	0.0	t														384.40551196076353	
40.0	233.79914435745604	pulse	0.0	t														385.1054922193458	
40.0	234.49913699215654	pulse	0.0	t														385.8054848540463	
40.0	235.199121174874	pulse	0.0	t														386.50546903676377	
40.0	235.89912105413134	pulse	0.0	t														387.2054689160211	
40.0	236.5991100665533	pulse	0.0	t														387.90545792844307	
40.0	237.29909756969266	pulse	0.0	t														388.60544543158244	
40.0	237.99908054498383	pulse	0.0	t														389.3054284068736	
