trial_nr	onset	event_type	phase	response	nr_frames	face_age	face_sex	face_eth	attractiveness	expression	face_id	sub_id	ses	run	trial_type	catch	rating_type	onset_abs	duration
-1.0	0.06105805220795446	fix	0.0		713													33.03475435270593	5.957846647026599
-1.0	0.7025249933576561	pulse	0.0	t														33.67622129385563	
-1.0	1.4024996377775096	pulse	0.0	t														34.37619593827549	
-1.0	2.1024839414640155	pulse	0.0	t														35.07618024196199	
-1.0	2.802457378475083	pulse	0.0	t														35.77615367897306	
-1.0	3.502433834004478	pulse	0.0	t														36.476130134502455	
-1.0	4.202422665475751	pulse	0.0	t														37.17611896597373	
-1.0	4.902395498778787	pulse	0.0	t														37.876091799276765	
-1.0	5.60237648209295	pulse	0.0	t														38.57607278259093	
0.0	6.018904699234554	face	0.0		144	27.0	male	black	3.5523278949462798	smiling	042	sub-10	1.0	3.0	042_smiling	0.0		38.99260099973253	1.2333063678706822
0.0	6.302364106155437	pulse	0.0	t		27.0	male	black	3.5523278949462798	smiling	042	sub-10	1.0	3.0	042_smiling	0.0		39.276060406653414	
0.0	7.002341467243241	pulse	0.0	t		27.0	male	black	3.5523278949462798	smiling	042	sub-10	1.0	3.0	042_smiling	0.0		39.97603776774122	
0.0	7.252211067105236	fix	1.0		445	27.0	male	black	3.5523278949462798	smiling	042	sub-10	1.0	3.0	042_smiling	0.0		40.22590736760321	3.7582070585121983
0.0	7.702327582042926	pulse	1.0	t		27.0	male	black	3.5523278949462798	smiling	042	sub-10	1.0	3.0	042_smiling	0.0		40.6760238825409	
0.0	8.402307357948303	pulse	1.0	t		27.0	male	black	3.5523278949462798	smiling	042	sub-10	1.0	3.0	042_smiling	0.0		41.37600365844628	
0.0	9.102288944966858	pulse	1.0	t		27.0	male	black	3.5523278949462798	smiling	042	sub-10	1.0	3.0	042_smiling	0.0		42.075985245464835	
0.0	9.8022542319668	pulse	1.0	t		27.0	male	black	3.5523278949462798	smiling	042	sub-10	1.0	3.0	042_smiling	0.0		42.775950532464776	
0.0	10.502242157879664	pulse	1.0	t		27.0	male	black	3.5523278949462798	smiling	042	sub-10	1.0	3.0	042_smiling	0.0		43.47593845837764	
1.0	11.010418125617434	face	0.0		146	34.0	male	white	2.651014723438122	neutral	121	sub-10	1.0	3.0	121_neutral	0.0		43.98411442611541	1.241663145057828
1.0	11.202214689332322	pulse	0.0	t		34.0	male	white	2.651014723438122	neutral	121	sub-10	1.0	3.0	121_neutral	0.0		44.1759109898303	
1.0	11.902190239306947	pulse	0.0	t		34.0	male	white	2.651014723438122	neutral	121	sub-10	1.0	3.0	121_neutral	0.0		44.875886539804924	
1.0	12.252081270675262	fix	1.0		444	34.0	male	white	2.651014723438122	neutral	121	sub-10	1.0	3.0	121_neutral	0.0		45.22577757117324	3.7582076622165914
1.0	12.60218540967253	pulse	1.0	t		34.0	male	white	2.651014723438122	neutral	121	sub-10	1.0	3.0	121_neutral	0.0		45.575881710170506	
1.0	13.30215250778565	pulse	1.0	t		34.0	male	white	2.651014723438122	neutral	121	sub-10	1.0	3.0	121_neutral	0.0		46.27584880828363	
1.0	14.002129567023076	pulse	1.0	t		34.0	male	white	2.651014723438122	neutral	121	sub-10	1.0	3.0	121_neutral	0.0		46.97582586752105	
1.0	14.70208217623076	pulse	1.0	t		34.0	male	white	2.651014723438122	neutral	121	sub-10	1.0	3.0	121_neutral	0.0		47.67577847672874	
1.0	15.402090024388599	pulse	1.0	t		34.0	male	white	2.651014723438122	neutral	121	sub-10	1.0	3.0	121_neutral	0.0		48.375786324886576	
2.0	16.010288932891854	face	0.0		146	36.0	female	white	2.7548746518105847	neutral	011	sub-10	1.0	3.0	011_neutral	0.0		48.98398523338983	1.241627828352648
2.0	16.10207312066632	pulse	0.0	t		36.0	female	white	2.7548746518105847	neutral	011	sub-10	1.0	3.0	011_neutral	0.0		49.075769421164296	
2.0	16.802041426191863	pulse	0.0	t		36.0	female	white	2.7548746518105847	neutral	011	sub-10	1.0	3.0	011_neutral	0.0		49.77573772668984	
2.0	17.2519167612445	fix	1.0		444	36.0	female	white	2.7548746518105847	neutral	011	sub-10	1.0	3.0	011_neutral	0.0		50.22561306174248	3.758194682573958
2.0	17.50203901137138	pulse	1.0	t		36.0	female	white	2.7548746518105847	neutral	011	sub-10	1.0	3.0	011_neutral	0.0		50.47573531186936	
2.0	18.202003694670566	pulse	1.0	t		36.0	female	white	2.7548746518105847	neutral	011	sub-10	1.0	3.0	011_neutral	0.0		51.17569999516854	
2.0	18.901980753904354	pulse	1.0	t		36.0	female	white	2.7548746518105847	neutral	011	sub-10	1.0	3.0	011_neutral	0.0		51.87567705440233	
2.0	19.60198075390508	pulse	1.0	t		36.0	female	white	2.7548746518105847	neutral	011	sub-10	1.0	3.0	011_neutral	0.0		52.57567705440306	
2.0	20.301951776098576	pulse	1.0	t		36.0	female	white	2.7548746518105847	neutral	011	sub-10	1.0	3.0	011_neutral	0.0		53.27564807659655	
3.0	21.01011144381846	face	0.0		147	22.0	female	west_asian	3.8205332272184642	neutral	066	sub-10	1.0	3.0	066_neutral	0.0		53.98380774431644	1.2416703895105456
3.0	21.004240117359586	pulse	0.0	t		22.0	female	west_asian	3.8205332272184642	neutral	066	sub-10	1.0	3.0	066_neutral	0.0		53.97793641785756	
3.0	21.701904989011382	pulse	0.0	t		22.0	female	west_asian	3.8205332272184642	neutral	066	sub-10	1.0	3.0	066_neutral	0.0		54.67560128950936	
3.0	22.251781833329005	fix	1.0		443	22.0	female	west_asian	3.8205332272184642	neutral	066	sub-10	1.0	3.0	066_neutral	0.0		55.22547813382698	3.7665206708370533
3.0	22.401886576029938	pulse	1.0	t		22.0	female	west_asian	3.8205332272184642	neutral	066	sub-10	1.0	3.0	066_neutral	0.0		55.375582876527915	
3.0	23.101860918595776	pulse	1.0	t		22.0	female	west_asian	3.8205332272184642	neutral	066	sub-10	1.0	3.0	066_neutral	0.0		56.07555721909375	
3.0	23.80182831856291	pulse	1.0	t		22.0	female	west_asian	3.8205332272184642	neutral	066	sub-10	1.0	3.0	066_neutral	0.0		56.77552461906089	
3.0	24.501818961143726	pulse	1.0	t		22.0	female	west_asian	3.8205332272184642	neutral	066	sub-10	1.0	3.0	066_neutral	0.0		57.4755152616417	
3.0	25.201796925935923	pulse	1.0	t		22.0	female	west_asian	3.8205332272184642	neutral	066	sub-10	1.0	3.0	066_neutral	0.0		58.1754932264339	
3.0	25.901761307381094	pulse	1.0	t		22.0	female	west_asian	3.8205332272184642	neutral	066	sub-10	1.0	3.0	066_neutral	0.0		58.87545760787907	
4.0	26.01830250416606	face	0.0		146	28.0	male	east_asian	1.5563072025467568	smiling	005	sub-10	1.0	3.0	005_smiling	0.0		58.991998804664036	1.2333199512177089
4.0	26.601760401823412	pulse	0.0	t		28.0	male	east_asian	1.5563072025467568	smiling	005	sub-10	1.0	3.0	005_smiling	0.0		59.57545670232139	
4.0	27.251622455383767	fix	1.0		443	28.0	male	east_asian	1.5563072025467568	smiling	005	sub-10	1.0	3.0	005_smiling	0.0		60.225318755881744	3.7582224529724044
4.0	27.301772174057987	pulse	1.0	t		28.0	male	east_asian	1.5563072025467568	smiling	005	sub-10	1.0	3.0	005_smiling	0.0		60.275468474555964	
4.0	28.001720557338558	pulse	1.0	t		28.0	male	east_asian	1.5563072025467568	smiling	005	sub-10	1.0	3.0	005_smiling	0.0		60.975416857836535	
4.0	28.701705464729457	pulse	1.0	t		28.0	male	east_asian	1.5563072025467568	smiling	005	sub-10	1.0	3.0	005_smiling	0.0		61.675401765227434	
4.0	29.401674675809772	pulse	1.0	t		28.0	male	east_asian	1.5563072025467568	smiling	005	sub-10	1.0	3.0	005_smiling	0.0		62.37537097630775	
4.0	30.101652942452347	pulse	1.0	t		28.0	male	east_asian	1.5563072025467568	smiling	005	sub-10	1.0	3.0	005_smiling	0.0		63.075349242950324	
4.0	30.801633322062116	pulse	1.0	t		28.0	male	east_asian	1.5563072025467568	smiling	005	sub-10	1.0	3.0	005_smiling	0.0		63.77532962256009	
5.0	31.009844908356172	face	0.0		146	25.0	female	black	3.858336649423	smiling	126	sub-10	1.0	3.0	126_smiling	1.0	attractiveness	63.98354120885415	1.2416465431888355
5.0	31.501596194248123	pulse	0.0	t		25.0	female	black	3.858336649423	smiling	126	sub-10	1.0	3.0	126_smiling	1.0	attractiveness	64.4752924947461	
5.0	32.20160162758475	pulse	0.0	t		25.0	female	black	3.858336649423	smiling	126	sub-10	1.0	3.0	126_smiling	1.0	attractiveness	65.17529792808273	
5.0	32.25149145154501	fix	1.0		177	25.0	female	black	3.858336649423	smiling	126	sub-10	1.0	3.0	126_smiling	1.0	attractiveness	65.22518775204298	1.5083154234380345
5.0	32.90157295162862	pulse	1.0	t		25.0	female	black	3.858336649423	smiling	126	sub-10	1.0	3.0	126_smiling	1.0	attractiveness	65.8752692521266	
5.0	33.60154427567613	pulse	1.0	t		25.0	female	black	3.858336649423	smiling	126	sub-10	1.0	3.0	126_smiling	1.0	attractiveness	66.57524057617411	
5.0	33.75980687498304	rating	2.0		294	25.0	female	black	3.858336649423	smiling	126	sub-10	1.0	3.0	126_smiling	1.0	attractiveness	66.73350317548102	2.491567156070232
5.0	34.30153401270218	pulse	2.0	t		25.0	female	black	3.858336649423	smiling	126	sub-10	1.0	3.0	126_smiling	1.0	attractiveness	67.27523031320015	
5.0	35.00151227934475	pulse	2.0	t		25.0	female	black	3.858336649423	smiling	126	sub-10	1.0	3.0	126_smiling	1.0	attractiveness	67.97520857984273	
5.0	35.54315852068248	response	2.0	b		25.0	female	black	3.858336649423	smiling	126	sub-10	1.0	3.0	126_smiling	1.0	attractiveness	68.51685482118046	
5.0	35.70148058486666	pulse	2.0	t		25.0	female	black	3.858336649423	smiling	126	sub-10	1.0	3.0	126_smiling	1.0	attractiveness	68.67517688536464	
5.0	36.251374031053274	fix	3.0		443	25.0	female	black	3.858336649423	smiling	126	sub-10	1.0	3.0	126_smiling	1.0	attractiveness	69.22507033155125	3.766520972687431
5.0	36.40147152930149	pulse	3.0	t		25.0	female	black	3.858336649423	smiling	126	sub-10	1.0	3.0	126_smiling	1.0	attractiveness	69.37516782979947	
5.0	37.101444966312556	pulse	3.0	t		25.0	female	black	3.858336649423	smiling	126	sub-10	1.0	3.0	126_smiling	1.0	attractiveness	70.07514126681053	
5.0	37.80141085701689	pulse	3.0	t		25.0	female	black	3.858336649423	smiling	126	sub-10	1.0	3.0	126_smiling	1.0	attractiveness	70.77510715751487	
5.0	38.50140089589695	pulse	3.0	t		25.0	female	black	3.858336649423	smiling	126	sub-10	1.0	3.0	126_smiling	1.0	attractiveness	71.47509719639493	
5.0	39.201387916251406	pulse	3.0	t		25.0	female	black	3.858336649423	smiling	126	sub-10	1.0	3.0	126_smiling	1.0	attractiveness	72.17508421674938	
5.0	39.90136437178444	pulse	3.0	t		25.0	female	black	3.858336649423	smiling	126	sub-10	1.0	3.0	126_smiling	1.0	attractiveness	72.87506067228242	
6.0	40.017895003740705	face	0.0		146	30.0	female	black	2.7345801830481498	smiling	062	sub-10	1.0	3.0	062_smiling	0.0		72.99159130423868	1.2333154234402173
6.0	40.601345958802995	pulse	0.0	t		30.0	female	black	2.7345801830481498	smiling	062	sub-10	1.0	3.0	062_smiling	0.0		73.57504225930097	
6.0	41.25121042718092	fix	1.0		443	30.0	female	black	2.7345801830481498	smiling	062	sub-10	1.0	3.0	062_smiling	0.0		74.2249067276789	3.7582218492680113
6.0	41.3013212069236	pulse	1.0	t		30.0	female	black	2.7345801830481498	smiling	062	sub-10	1.0	3.0	062_smiling	0.0		74.27501750742158	
6.0	42.00130098282898	pulse	1.0	t		30.0	female	black	2.7345801830481498	smiling	062	sub-10	1.0	3.0	062_smiling	0.0		74.97499728332696	
6.0	42.701277136508	pulse	1.0	t		30.0	female	black	2.7345801830481498	smiling	062	sub-10	1.0	3.0	062_smiling	0.0		75.67497343700597	
6.0	43.4012560068586	pulse	1.0	t		30.0	female	black	2.7345801830481498	smiling	062	sub-10	1.0	3.0	062_smiling	0.0		76.37495230735658	
6.0	44.101241517953895	pulse	1.0	t		30.0	female	black	2.7345801830481498	smiling	062	sub-10	1.0	3.0	062_smiling	0.0		77.07493781845187	
6.0	44.80122219941404	pulse	1.0	t		30.0	female	black	2.7345801830481498	smiling	062	sub-10	1.0	3.0	062_smiling	0.0		77.77491849991202	
7.0	45.00943227644893	face	0.0		146	20.0	male	black	2.609629924393156	neutral	043	sub-10	1.0	3.0	043_neutral	0.0		77.98312857694691	1.2416302431702206
7.0	45.50119805124268	pulse	0.0	t		20.0	male	black	2.609629924393156	neutral	043	sub-10	1.0	3.0	043_neutral	0.0		78.47489435174066	
7.0	46.20117480862609	pulse	0.0	t		20.0	male	black	2.609629924393156	neutral	043	sub-10	1.0	3.0	043_neutral	0.0		79.17487110912407	
7.0	46.251062519619154	fix	1.0		445	20.0	male	black	2.609629924393156	neutral	043	sub-10	1.0	3.0	043_neutral	0.0		79.22475882011713	3.7665276134357555
7.0	46.901154886381846	pulse	1.0	t		20.0	male	black	2.609629924393156	neutral	043	sub-10	1.0	3.0	043_neutral	0.0		79.87485118687982	
7.0	47.601140699331154	pulse	1.0	t		20.0	male	black	2.609629924393156	neutral	043	sub-10	1.0	3.0	043_neutral	0.0		80.57483699982913	
7.0	48.30112379560887	pulse	1.0	t		20.0	male	black	2.609629924393156	neutral	043	sub-10	1.0	3.0	043_neutral	0.0		81.27482009610685	
7.0	49.00109149742639	pulse	1.0	t		20.0	male	black	2.609629924393156	neutral	043	sub-10	1.0	3.0	043_neutral	0.0		81.97478779792436	
7.0	49.7010697640726	pulse	1.0	t		20.0	male	black	2.609629924393156	neutral	043	sub-10	1.0	3.0	043_neutral	0.0		82.67476606457058	
8.0	50.01759013305491	face	0.0		145	24.0	female	black	3.0955033824114606	smiling	099	sub-10	1.0	3.0	099_smiling	1.0	trustworthiness	82.99128643355289	1.2333223660389194
8.0	50.40105527516789	pulse	0.0	t		24.0	female	black	3.0955033824114606	smiling	099	sub-10	1.0	3.0	099_smiling	1.0	trustworthiness	83.37475157566587	
8.0	51.101032636255695	pulse	0.0	t		24.0	female	black	3.0955033824114606	smiling	099	sub-10	1.0	3.0	099_smiling	1.0	trustworthiness	84.07472893675367	
8.0	51.25091249909383	fix	1.0		177	24.0	female	black	3.0955033824114606	smiling	099	sub-10	1.0	3.0	099_smiling	1.0	trustworthiness	84.2246087995918	1.4999716258971603
8.0	51.801013015865465	pulse	1.0	t		24.0	female	black	3.0955033824114606	smiling	099	sub-10	1.0	3.0	099_smiling	1.0	trustworthiness	84.77470931636344	
8.0	52.50099973436954	pulse	1.0	t		24.0	female	black	3.0955033824114606	smiling	099	sub-10	1.0	3.0	099_smiling	1.0	trustworthiness	85.47469603486752	
8.0	52.75088412499099	rating	2.0		295	24.0	female	black	3.0955033824114606	smiling	099	sub-10	1.0	3.0	099_smiling	1.0	trustworthiness	85.72458042548897	2.4999257443669194
8.0	53.20097618989894	pulse	2.0	t		24.0	female	black	3.0955033824114606	smiling	099	sub-10	1.0	3.0	099_smiling	1.0	trustworthiness	86.17467249039692	
8.0	53.9009571732131	pulse	2.0	t		24.0	female	black	3.0955033824114606	smiling	099	sub-10	1.0	3.0	099_smiling	1.0	trustworthiness	86.87465347371108	
8.0	54.60094389171718	pulse	2.0	t		24.0	female	black	3.0955033824114606	smiling	099	sub-10	1.0	3.0	099_smiling	1.0	trustworthiness	87.57464019221516	
8.0	54.73425569293249	response	2.0	y		24.0	female	black	3.0955033824114606	smiling	099	sub-10	1.0	3.0	099_smiling	1.0	trustworthiness	87.70795199343047	
8.0	55.25080986935791	fix	3.0		443	24.0	female	black	3.0955033824114606	smiling	099	sub-10	1.0	3.0	099_smiling	1.0	trustworthiness	88.22450616985589	3.758206454807805
8.0	55.30092064910059	pulse	3.0	t		24.0	female	black	3.0955033824114606	smiling	099	sub-10	1.0	3.0	099_smiling	1.0	trustworthiness	88.27461694959857	
8.0	56.00088653980856	pulse	3.0	t		24.0	female	black	3.0955033824114606	smiling	099	sub-10	1.0	3.0	099_smiling	1.0	trustworthiness	88.97458284030654	
8.0	56.70087235275423	pulse	3.0	t		24.0	female	black	3.0955033824114606	smiling	099	sub-10	1.0	3.0	099_smiling	1.0	trustworthiness	89.67456865325221	
8.0	57.4008442805025	pulse	3.0	t		24.0	female	black	3.0955033824114606	smiling	099	sub-10	1.0	3.0	099_smiling	1.0	trustworthiness	90.37454058100047	
8.0	58.1008231508531	pulse	3.0	t		24.0	female	black	3.0955033824114606	smiling	099	sub-10	1.0	3.0	099_smiling	1.0	trustworthiness	91.07451945135108	
8.0	58.80079568230576	pulse	3.0	t		24.0	female	black	3.0955033824114606	smiling	099	sub-10	1.0	3.0	099_smiling	1.0	trustworthiness	91.77449198280374	
9.0	59.009016324165714	face	0.0		146	23.0	male	white	2.6275368085953046	neutral	141	sub-10	1.0	3.0	141_neutral	0.0		91.98271262466369	1.2416287339110568
9.0	59.5007929656349	pulse	0.0	t		23.0	male	white	2.6275368085953046	neutral	141	sub-10	1.0	3.0	141_neutral	0.0		92.47448926613288	
9.0	60.200763384124	pulse	0.0	t		23.0	male	white	2.6275368085953046	neutral	141	sub-10	1.0	3.0	141_neutral	0.0		93.17445968462198	
9.0	60.25064505807677	fix	1.0		445	23.0	male	white	2.6275368085953046	neutral	141	sub-10	1.0	3.0	141_neutral	0.0		93.22434135857475	3.7665538745714002
9.0	60.90074497114256	pulse	1.0	t		23.0	male	white	2.6275368085953046	neutral	141	sub-10	1.0	3.0	141_neutral	0.0		93.87444127164053	
9.0	61.60071206925568	pulse	1.0	t		23.0	male	white	2.6275368085953046	neutral	141	sub-10	1.0	3.0	141_neutral	0.0		94.57440836975366	
9.0	62.300701504431345	pulse	1.0	t		23.0	male	white	2.6275368085953046	neutral	141	sub-10	1.0	3.0	141_neutral	0.0		95.27439780492932	
9.0	63.00068037477831	pulse	1.0	t		23.0	male	white	2.6275368085953046	neutral	141	sub-10	1.0	3.0	141_neutral	0.0		95.97437667527629	
9.0	63.70064928400461	pulse	1.0	t		23.0	male	white	2.6275368085953046	neutral	141	sub-10	1.0	3.0	141_neutral	0.0		96.67434558450259	
10.0	64.01719893264817	face	0.0		145	24.0	male	white	3.1153999204138483	neutral	012	sub-10	1.0	3.0	012_neutral	0.0		96.99089523314615	1.2332985197172093
10.0	64.40063962473505	pulse	0.0	t		24.0	male	white	3.1153999204138483	neutral	012	sub-10	1.0	3.0	012_neutral	0.0		97.37433592523303	
10.0	65.10060823211097	pulse	0.0	t		24.0	male	white	3.1153999204138483	neutral	012	sub-10	1.0	3.0	012_neutral	0.0		98.07430453260895	
10.0	65.25049745236538	fix	1.0		445	24.0	male	white	3.1153999204138483	neutral	012	sub-10	1.0	3.0	012_neutral	0.0		98.22419375286336	3.7665381782644545
10.0	65.80058981912953	pulse	1.0	t		24.0	male	white	3.1153999204138483	neutral	012	sub-10	1.0	3.0	012_neutral	0.0		98.7742861196275	
10.0	66.50057925430156	pulse	1.0	t		24.0	male	white	3.1153999204138483	neutral	012	sub-10	1.0	3.0	012_neutral	0.0		99.47427555479953	
10.0	67.20055601168497	pulse	1.0	t		24.0	male	white	3.1153999204138483	neutral	012	sub-10	1.0	3.0	012_neutral	0.0		100.17425231218294	
10.0	67.90053035425444	pulse	1.0	t		24.0	male	white	3.1153999204138483	neutral	012	sub-10	1.0	3.0	012_neutral	0.0		100.87422665475242	
10.0	68.60051345053216	pulse	1.0	t		24.0	male	white	3.1153999204138483	neutral	012	sub-10	1.0	3.0	012_neutral	0.0		101.57420975103014	
11.0	69.01703563062983	face	0.0		145	25.0	female	black	3.858336649423	neutral	126	sub-10	1.0	3.0	126_neutral	0.0		101.99073193112781	1.2333169326993811
11.0	69.30049564125511	pulse	0.0	t		25.0	female	black	3.858336649423	neutral	126	sub-10	1.0	3.0	126_neutral	0.0		102.27419194175309	
11.0	70.00047903938321	pulse	0.0	t		25.0	female	black	3.858336649423	neutral	126	sub-10	1.0	3.0	126_neutral	0.0		102.97417533988119	
11.0	70.25035256332922	fix	1.0		444	25.0	female	black	3.858336649423	neutral	126	sub-10	1.0	3.0	126_neutral	0.0		103.22404886382719	3.766535159738851
11.0	70.70045730602942	pulse	1.0	t		25.0	female	black	3.858336649423	neutral	126	sub-10	1.0	3.0	126_neutral	0.0		103.6741536065274	
11.0	71.40042289488338	pulse	1.0	t		25.0	female	black	3.858336649423	neutral	126	sub-10	1.0	3.0	126_neutral	0.0		104.37411919538135	
11.0	72.10041172635101	pulse	1.0	t		25.0	female	black	3.858336649423	neutral	126	sub-10	1.0	3.0	126_neutral	0.0		105.07410802684899	
11.0	72.80038637077087	pulse	1.0	t		25.0	female	black	3.858336649423	neutral	126	sub-10	1.0	3.0	126_neutral	0.0		105.77408267126884	
11.0	73.50036524111783	pulse	1.0	t		25.0	female	black	3.858336649423	neutral	126	sub-10	1.0	3.0	126_neutral	0.0		106.47406154161581	
12.0	74.01688772306807	face	0.0		145	28.0	male	east_asian	1.5563072025467568	neutral	005	sub-10	1.0	3.0	005_neutral	0.0		106.99058402356604	1.2333190456629382
12.0	74.20035195962191	pulse	0.0	t		28.0	male	east_asian	1.5563072025467568	neutral	005	sub-10	1.0	3.0	005_neutral	0.0		107.17404826011989	
12.0	74.90033505590327	pulse	0.0	t		28.0	male	east_asian	1.5563072025467568	neutral	005	sub-10	1.0	3.0	005_neutral	0.0		107.87403135640125	
12.0	75.250206768731	fix	1.0		444	28.0	male	east_asian	1.5563072025467568	neutral	005	sub-10	1.0	3.0	005_neutral	0.0		108.22390306922898	3.758220641859225
12.0	75.60030970031949	pulse	1.0	t		28.0	male	east_asian	1.5563072025467568	neutral	005	sub-10	1.0	3.0	005_neutral	0.0		108.57400600081746	
12.0	76.30028162806775	pulse	1.0	t		28.0	male	east_asian	1.5563072025467568	neutral	005	sub-10	1.0	3.0	005_neutral	0.0		109.27397792856573	
12.0	77.0002659317579	pulse	1.0	t		28.0	male	east_asian	1.5563072025467568	neutral	005	sub-10	1.0	3.0	005_neutral	0.0		109.97396223225587	
12.0	77.70024993359038	pulse	1.0	t		28.0	male	east_asian	1.5563072025467568	neutral	005	sub-10	1.0	3.0	005_neutral	0.0		110.67394623408836	
12.0	78.40022487986062	pulse	1.0	t		28.0	male	east_asian	1.5563072025467568	neutral	005	sub-10	1.0	3.0	005_neutral	0.0		111.3739211803586	
13.0	79.00842741059023	face	0.0		146	28.0	female	white	5.676880222841227	neutral	124	sub-10	1.0	3.0	124_neutral	0.0		111.9821237110882	1.2416429209624766
13.0	79.10020495762001	pulse	0.0	t		28.0	female	white	5.676880222841227	neutral	124	sub-10	1.0	3.0	124_neutral	0.0		112.07390125811798	
13.0	79.8001904687153	pulse	0.0	t		28.0	female	white	5.676880222841227	neutral	124	sub-10	1.0	3.0	124_neutral	0.0		112.77388676921328	
13.0	80.2500703315527	fix	1.0		444	28.0	female	white	5.676880222841227	neutral	124	sub-10	1.0	3.0	124_neutral	0.0		113.22376663205068	3.7665176523150876
13.0	80.50016481128114	pulse	1.0	t		28.0	female	white	5.676880222841227	neutral	124	sub-10	1.0	3.0	124_neutral	0.0		113.47386111177912	
13.0	81.20014307792371	pulse	1.0	t		28.0	female	white	5.676880222841227	neutral	124	sub-10	1.0	3.0	124_neutral	0.0		114.17383937842169	
13.0	81.90012043901152	pulse	1.0	t		28.0	female	white	5.676880222841227	neutral	124	sub-10	1.0	3.0	124_neutral	0.0		114.8738167395095	
13.0	82.60010353529287	pulse	1.0	t		28.0	female	white	5.676880222841227	neutral	124	sub-10	1.0	3.0	124_neutral	0.0		115.57379983579085	
13.0	83.30007787785871	pulse	1.0	t		28.0	female	white	5.676880222841227	neutral	124	sub-10	1.0	3.0	124_neutral	0.0		116.27377417835669	
14.0	84.0165879838678	face	0.0		146	22.0	female	white	4.614007162753682	smiling	009	sub-10	1.0	3.0	009_smiling	0.0		116.99028428436577	1.2333178382541519
14.0	84.00310062543576	pulse	0.0	t		22.0	female	white	4.614007162753682	smiling	009	sub-10	1.0	3.0	009_smiling	0.0		116.97679692593374	
14.0	84.70003742966583	pulse	0.0	t		22.0	female	white	4.614007162753682	smiling	009	sub-10	1.0	3.0	009_smiling	0.0		117.6737337301638	
14.0	85.24990582212195	fix	1.0		443	22.0	female	white	4.614007162753682	smiling	009	sub-10	1.0	3.0	009_smiling	0.0		118.22360212261992	3.766536970855668
14.0	85.40002173335597	pulse	1.0	t		22.0	female	white	4.614007162753682	smiling	009	sub-10	1.0	3.0	009_smiling	0.0		118.37371803385395	
14.0	86.09999788703499	pulse	1.0	t		22.0	female	white	4.614007162753682	smiling	009	sub-10	1.0	3.0	009_smiling	0.0		119.07369418753296	
14.0	86.79996981478325	pulse	1.0	t		22.0	female	white	4.614007162753682	smiling	009	sub-10	1.0	3.0	009_smiling	0.0		119.77366611528123	
14.0	87.4999658907036	pulse	1.0	t		22.0	female	white	4.614007162753682	smiling	009	sub-10	1.0	3.0	009_smiling	0.0		120.47366219120158	
14.0	88.19994415734982	pulse	1.0	t		22.0	female	white	4.614007162753682	smiling	009	sub-10	1.0	3.0	009_smiling	0.0		121.1736404578478	
14.0	88.89990944434976	pulse	1.0	t		22.0	female	white	4.614007162753682	smiling	009	sub-10	1.0	3.0	009_smiling	0.0		121.87360574484774	
15.0	89.01644279297761	face	0.0		146	20.0	male	black	3.1070433744528456	neutral	082	sub-10	1.0	3.0	082_neutral	0.0		121.99013909347559	1.233309990097041
15.0	89.59992544251509	pulse	0.0	t		20.0	male	black	3.1070433744528456	neutral	082	sub-10	1.0	3.0	082_neutral	0.0		122.57362174301306	
15.0	90.24975278307465	fix	1.0		443	20.0	male	black	3.1070433744528456	neutral	082	sub-10	1.0	3.0	082_neutral	0.0		123.22344908357263	3.7665493467939086
15.0	90.2998846924711	pulse	1.0	t		20.0	male	black	3.1070433744528456	neutral	082	sub-10	1.0	3.0	082_neutral	0.0		123.27358099296907	
15.0	90.99985329984702	pulse	1.0	t		20.0	male	black	3.1070433744528456	neutral	082	sub-10	1.0	3.0	082_neutral	0.0		123.973549600345	
15.0	91.69982039796014	pulse	1.0	t		20.0	male	black	3.1070433744528456	neutral	082	sub-10	1.0	3.0	082_neutral	0.0		124.67351669845812	
15.0	92.39982764241358	pulse	1.0	t		20.0	male	black	3.1070433744528456	neutral	082	sub-10	1.0	3.0	082_neutral	0.0		125.37352394291156	
15.0	93.09978508125641	pulse	1.0	t		20.0	male	black	3.1070433744528456	neutral	082	sub-10	1.0	3.0	082_neutral	0.0		126.07348138175439	
15.0	93.79977572384087	pulse	1.0	t		20.0	male	black	3.1070433744528456	neutral	082	sub-10	1.0	3.0	082_neutral	0.0		126.77347202433884	
16.0	94.01630212986856	face	0.0		145	28.0	male	white	3.9076800636689217	neutral	033	sub-10	1.0	3.0	033_neutral	0.0		126.98999843036654	1.2333075752794684
16.0	94.49975097196148	pulse	0.0	t		28.0	male	white	3.9076800636689217	neutral	033	sub-10	1.0	3.0	033_neutral	0.0		127.47344727245945	
16.0	95.19974131269191	pulse	0.0	t		28.0	male	white	3.9076800636689217	neutral	033	sub-10	1.0	3.0	033_neutral	0.0		128.1734376131899	
16.0	95.24960970514803	fix	1.0		445	28.0	male	white	3.9076800636689217	neutral	033	sub-10	1.0	3.0	033_neutral	0.0		128.223306005646	3.766537876410439
16.0	95.8997053922867	pulse	1.0	t		28.0	male	white	3.9076800636689217	neutral	033	sub-10	1.0	3.0	033_neutral	0.0		128.87340169278468	
16.0	96.59969573301714	pulse	1.0	t		28.0	male	white	3.9076800636689217	neutral	033	sub-10	1.0	3.0	033_neutral	0.0		129.57339203351512	
16.0	97.29966524594784	pulse	1.0	t		28.0	male	white	3.9076800636689217	neutral	033	sub-10	1.0	3.0	033_neutral	0.0		130.2733615464458	
16.0	97.99964954963434	pulse	1.0	t		28.0	male	white	3.9076800636689217	neutral	033	sub-10	1.0	3.0	033_neutral	0.0		130.97334585013232	
16.0	98.69961815701026	pulse	1.0	t		28.0	male	white	3.9076800636689217	neutral	033	sub-10	1.0	3.0	033_neutral	0.0		131.67331445750824	
17.0	99.01614758155847	face	0.0		145	20.0	female	white	3.9502586549940313	smiling	091	sub-10	1.0	3.0	091_smiling	0.0		131.98984388205645	1.2333293086376216
17.0	99.39961815701099	pulse	0.0	t		20.0	female	white	3.9502586549940313	smiling	091	sub-10	1.0	3.0	091_smiling	0.0		132.37331445750897	
17.0	100.09958102919336	pulse	0.0	t		20.0	female	white	3.9502586549940313	smiling	091	sub-10	1.0	3.0	091_smiling	0.0		133.07327732969134	
17.0	100.24947689019609	fix	1.0		444	20.0	female	white	3.9502586549940313	smiling	091	sub-10	1.0	3.0	091_smiling	0.0		133.22317319069407	3.758230602979893
17.0	100.79957589770856	pulse	1.0	t		20.0	female	white	3.9502586549940313	smiling	091	sub-10	1.0	3.0	091_smiling	0.0		133.77327219820654	
17.0	101.49954903286562	pulse	1.0	t		20.0	female	white	3.9502586549940313	smiling	091	sub-10	1.0	3.0	091_smiling	0.0		134.4732453333636	
17.0	102.19952277172706	pulse	1.0	t		20.0	female	white	3.9502586549940313	smiling	091	sub-10	1.0	3.0	091_smiling	0.0		135.17321907222504	
17.0	102.89949771799729	pulse	1.0	t		20.0	female	white	3.9502586549940313	smiling	091	sub-10	1.0	3.0	091_smiling	0.0		135.87319401849527	
17.0	103.59947779575305	pulse	1.0	t		20.0	female	white	3.9502586549940313	smiling	091	sub-10	1.0	3.0	091_smiling	0.0		136.57317409625102	
18.0	104.00770749317599	face	0.0		146	24.0	female	east_asian	4.409868682849185	smiling	030	sub-10	1.0	3.0	030_smiling	0.0		136.98140379367396	1.2416100190785073
18.0	104.29946360870235	pulse	0.0	t		24.0	female	east_asian	4.409868682849185	smiling	030	sub-10	1.0	3.0	030_smiling	0.0		137.27315990920033	
18.0	104.9994464031297	pulse	0.0	t		24.0	female	east_asian	4.409868682849185	smiling	030	sub-10	1.0	3.0	030_smiling	0.0		137.97314270362767	
18.0	105.24931751225449	fix	1.0		444	24.0	female	east_asian	4.409868682849185	smiling	030	sub-10	1.0	3.0	030_smiling	0.0		138.22301381275247	3.7665354615928663
18.0	105.69942527347666	pulse	1.0	t		24.0	female	east_asian	4.409868682849185	smiling	030	sub-10	1.0	3.0	030_smiling	0.0		138.67312157397464	
18.0	106.39939689937455	pulse	1.0	t		24.0	female	east_asian	4.409868682849185	smiling	030	sub-10	1.0	3.0	030_smiling	0.0		139.37309319987253	
18.0	107.09937939194788	pulse	1.0	t		24.0	female	east_asian	4.409868682849185	smiling	030	sub-10	1.0	3.0	030_smiling	0.0		140.07307569244585	
18.0	107.79934981043698	pulse	1.0	t		24.0	female	east_asian	4.409868682849185	smiling	030	sub-10	1.0	3.0	030_smiling	0.0		140.77304611093496	
18.0	108.49932868078395	pulse	1.0	t		24.0	female	east_asian	4.409868682849185	smiling	030	sub-10	1.0	3.0	030_smiling	0.0		141.47302498128192	
19.0	109.01585297384736	face	0.0		145	21.0	male	east_asian/white	3.501790688420215	neutral	036	sub-10	1.0	3.0	036_neutral	0.0		141.98954927434534	1.2333130086190067
19.0	109.19933109560225	pulse	0.0	t		21.0	male	east_asian/white	3.501790688420215	neutral	036	sub-10	1.0	3.0	036_neutral	0.0		142.17302739610022	
19.0	109.89929155296704	pulse	0.0	t		21.0	male	east_asian/white	3.501790688420215	neutral	036	sub-10	1.0	3.0	036_neutral	0.0		142.87298785346502	
19.0	110.24916598246637	fix	1.0		445	21.0	male	east_asian/white	3.501790688420215	neutral	036	sub-10	1.0	3.0	036_neutral	0.0		143.22286228296434	3.7748883146996377
19.0	110.599274045544	pulse	1.0	t		21.0	male	east_asian/white	3.501790688420215	neutral	036	sub-10	1.0	3.0	036_neutral	0.0		143.57297034604198	
19.0	111.29925019922302	pulse	1.0	t		21.0	male	east_asian/white	3.501790688420215	neutral	036	sub-10	1.0	3.0	036_neutral	0.0		144.272946499721	
19.0	111.99923450290953	pulse	1.0	t		21.0	male	east_asian/white	3.501790688420215	neutral	036	sub-10	1.0	3.0	036_neutral	0.0		144.9729308034075	
19.0	112.69920311028545	pulse	1.0	t		21.0	male	east_asian/white	3.501790688420215	neutral	036	sub-10	1.0	3.0	036_neutral	0.0		145.67289941078343	
19.0	113.39919405472028	pulse	1.0	t		21.0	male	east_asian/white	3.501790688420215	neutral	036	sub-10	1.0	3.0	036_neutral	0.0		146.37289035521826	
20.0	114.024054297166	face	0.0		145	21.0	male	black	2.969757262236371	neutral	137	sub-10	1.0	3.0	137_neutral	1.0	dominance	146.99775059766398	1.2333009345347818
20.0	114.09918137692875	pulse	0.0	t		21.0	male	black	2.969757262236371	neutral	137	sub-10	1.0	3.0	137_neutral	1.0	dominance	147.07287767742673	
20.0	114.79914243799794	pulse	0.0	t		21.0	male	black	2.969757262236371	neutral	137	sub-10	1.0	3.0	137_neutral	1.0	dominance	147.77283873849592	
20.0	115.25735523170079	fix	1.0		177	21.0	male	black	2.969757262236371	neutral	137	sub-10	1.0	3.0	137_neutral	1.0	dominance	148.23105153219876	1.4999592499589198
20.0	115.49912976020642	pulse	1.0	t		21.0	male	black	2.969757262236371	neutral	137	sub-10	1.0	3.0	137_neutral	1.0	dominance	148.4728260607044	
20.0	116.19910591388543	pulse	1.0	t		21.0	male	black	2.969757262236371	neutral	137	sub-10	1.0	3.0	137_neutral	1.0	dominance	149.1728022143834	
20.0	116.7573144816597	rating	2.0		295	21.0	male	black	2.969757262236371	neutral	137	sub-10	1.0	3.0	137_neutral	1.0	dominance	149.73101078215768	2.4999178962098085
20.0	116.89908991572156	pulse	2.0	t		21.0	male	black	2.969757262236371	neutral	137	sub-10	1.0	3.0	137_neutral	1.0	dominance	149.87278621621954	
20.0	117.5990718045905	pulse	2.0	t		21.0	male	black	2.969757262236371	neutral	137	sub-10	1.0	3.0	137_neutral	1.0	dominance	150.57276810508847	
20.0	118.29904493974755	pulse	2.0	t		21.0	male	black	2.969757262236371	neutral	137	sub-10	1.0	3.0	137_neutral	1.0	dominance	151.27274124024552	
20.0	118.99903316751443	pulse	2.0	t		21.0	male	black	2.969757262236371	neutral	137	sub-10	1.0	3.0	137_neutral	1.0	dominance	151.9727294680124	
20.0	119.25723237786951	fix	3.0		1184	21.0	male	black	2.969757262236371	neutral	137	sub-10	1.0	3.0	137_neutral	1.0	dominance	152.2309286783675	10.016372763275285
20.0	119.62400901934234	response	3.0	y		21.0	male	black	2.969757262236371	neutral	137	sub-10	1.0	3.0	137_neutral	1.0	dominance	152.59770531984032	
20.0	119.69900358600353	pulse	3.0	t		21.0	male	black	2.969757262236371	neutral	137	sub-10	1.0	3.0	137_neutral	1.0	dominance	152.6726998865015	
20.0	120.39898366375928	pulse	3.0	t		21.0	male	black	2.969757262236371	neutral	137	sub-10	1.0	3.0	137_neutral	1.0	dominance	153.37267996425726	
20.0	121.09896072299671	pulse	3.0	t		21.0	male	black	2.969757262236371	neutral	137	sub-10	1.0	3.0	137_neutral	1.0	dominance	154.07265702349468	
20.0	121.79894381927443	pulse	3.0	t		21.0	male	black	2.969757262236371	neutral	137	sub-10	1.0	3.0	137_neutral	1.0	dominance	154.7726401197724	
20.0	122.49893446185524	pulse	3.0	t		21.0	male	black	2.969757262236371	neutral	137	sub-10	1.0	3.0	137_neutral	1.0	dominance	155.47263076235322	
20.0	123.19889673033686	pulse	3.0	t		21.0	male	black	2.969757262236371	neutral	137	sub-10	1.0	3.0	137_neutral	1.0	dominance	156.17259303083483	
20.0	123.89886956363989	pulse	3.0	t		21.0	male	black	2.969757262236371	neutral	137	sub-10	1.0	3.0	137_neutral	1.0	dominance	156.87256586413787	
20.0	124.59886684697267	pulse	3.0	t		21.0	male	black	2.969757262236371	neutral	137	sub-10	1.0	3.0	137_neutral	1.0	dominance	157.57256314747065	
20.0	125.29885175436357	pulse	3.0	t		21.0	male	black	2.969757262236371	neutral	137	sub-10	1.0	3.0	137_neutral	1.0	dominance	158.27254805486155	
20.0	125.99881221172836	pulse	3.0	t		21.0	male	black	2.969757262236371	neutral	137	sub-10	1.0	3.0	137_neutral	1.0	dominance	158.97250851222634	
20.0	126.69879259133813	pulse	3.0	t		21.0	male	black	2.969757262236371	neutral	137	sub-10	1.0	3.0	137_neutral	1.0	dominance	159.6724888918361	
20.0	127.39877327280192	pulse	3.0	t		21.0	male	black	2.969757262236371	neutral	137	sub-10	1.0	3.0	137_neutral	1.0	dominance	160.3724695732999	
20.0	128.0987521431489	pulse	3.0	t		21.0	male	black	2.969757262236371	neutral	137	sub-10	1.0	3.0	137_neutral	1.0	dominance	161.07244844364686	
20.0	128.7987364468354	pulse	3.0	t		21.0	male	black	2.969757262236371	neutral	137	sub-10	1.0	3.0	137_neutral	1.0	dominance	161.77243274733337	
21.0	129.2736051411448	face	0.0		145	36.0	female	white	2.7548746518105847	smiling	011	sub-10	1.0	3.0	011_smiling	0.0		162.24730144164278	1.2332942937864573
21.0	129.4987159208904	pulse	0.0	t		36.0	female	white	2.7548746518105847	smiling	011	sub-10	1.0	3.0	011_smiling	0.0		162.47241222138837	
21.0	130.198691169011	pulse	0.0	t		36.0	female	white	2.7548746518105847	smiling	011	sub-10	1.0	3.0	011_smiling	0.0		163.17238746950898	
21.0	130.50689943493126	fix	1.0		444	36.0	female	white	2.7548746518105847	smiling	011	sub-10	1.0	3.0	011_smiling	0.0		163.48059573542923	3.758206454807805
21.0	130.89867335973395	pulse	1.0	t		36.0	female	white	2.7548746518105847	smiling	011	sub-10	1.0	3.0	011_smiling	0.0		163.87236966023193	
21.0	131.5986458911866	pulse	1.0	t		36.0	female	white	2.7548746518105847	smiling	011	sub-10	1.0	3.0	011_smiling	0.0		164.57234219168458	
21.0	132.29862838375993	pulse	1.0	t		36.0	female	white	2.7548746518105847	smiling	011	sub-10	1.0	3.0	011_smiling	0.0		165.2723246842579	
21.0	132.99858884112837	pulse	1.0	t		36.0	female	white	2.7548746518105847	smiling	011	sub-10	1.0	3.0	011_smiling	0.0		165.97228514162634	
21.0	133.69856740962496	pulse	1.0	t		36.0	female	white	2.7548746518105847	smiling	011	sub-10	1.0	3.0	011_smiling	0.0		166.67226371012293	
22.0	134.26510588973906	face	0.0		146	24.0	female	east_asian	4.409868682849185	neutral	030	sub-10	1.0	3.0	030_neutral	0.0		167.23880219023704	1.2416438265172474
22.0	134.3985719374068	pulse	0.0	t		24.0	female	east_asian	4.409868682849185	neutral	030	sub-10	1.0	3.0	030_neutral	0.0		167.3722682379048	
22.0	135.0985502040494	pulse	0.0	t		24.0	female	east_asian	4.409868682849185	neutral	030	sub-10	1.0	3.0	030_neutral	0.0		168.07224650454737	
22.0	135.5067497162563	fix	1.0		444	24.0	female	east_asian	4.409868682849185	neutral	030	sub-10	1.0	3.0	030_neutral	0.0		168.48044601675429	3.7665424041952065
22.0	135.79852877254598	pulse	1.0	t		24.0	female	east_asian	4.409868682849185	neutral	030	sub-10	1.0	3.0	030_neutral	0.0		168.77222507304396	
22.0	136.49852424476558	pulse	1.0	t		24.0	female	east_asian	4.409868682849185	neutral	030	sub-10	1.0	3.0	030_neutral	0.0		169.47222054526355	
22.0	137.19849375769627	pulse	1.0	t		24.0	female	east_asian	4.409868682849185	neutral	030	sub-10	1.0	3.0	030_neutral	0.0		170.17219005819425	
22.0	137.8984533095063	pulse	1.0	t		24.0	female	east_asian	4.409868682849185	neutral	030	sub-10	1.0	3.0	030_neutral	0.0		170.87214961000427	
22.0	138.59844063171477	pulse	1.0	t		24.0	female	east_asian	4.409868682849185	neutral	030	sub-10	1.0	3.0	030_neutral	0.0		171.57213693221274	
23.0	139.27329212045152	face	0.0		145	20.0	male	black	3.1070433744528456	smiling	082	sub-10	1.0	3.0	082_smiling	1.0	attractiveness	172.2469884209495	1.2333114993598429
23.0	139.29842614281006	pulse	0.0	t		20.0	male	black	3.1070433744528456	smiling	082	sub-10	1.0	3.0	082_smiling	1.0	attractiveness	172.27212244330804	
23.0	139.99840622056945	pulse	0.0	t		20.0	male	black	3.1070433744528456	smiling	082	sub-10	1.0	3.0	082_smiling	1.0	attractiveness	172.97210252106743	
23.0	140.50660361981136	fix	1.0		177	20.0	male	black	3.1070433744528456	smiling	082	sub-10	1.0	3.0	082_smiling	1.0	attractiveness	173.48029992030933	1.4999565332873317
23.0	140.69838599647483	pulse	1.0	t		20.0	male	black	3.1070433744528456	smiling	082	sub-10	1.0	3.0	082_smiling	1.0	attractiveness	173.6720822969728	
23.0	141.39835943348226	pulse	1.0	t		20.0	male	black	3.1070433744528456	smiling	082	sub-10	1.0	3.0	082_smiling	1.0	attractiveness	174.37205573398023	
23.0	142.0065601530987	rating	2.0		294	20.0	male	black	3.1070433744528456	smiling	082	sub-10	1.0	3.0	082_smiling	1.0	attractiveness	174.98025645359667	2.499930272148049
23.0	142.09834947236232	pulse	2.0	t		20.0	male	black	3.1070433744528456	smiling	082	sub-10	1.0	3.0	082_smiling	1.0	attractiveness	175.0720457728603	
23.0	142.79832109825657	pulse	2.0	t		20.0	male	black	3.1070433744528456	smiling	082	sub-10	1.0	3.0	082_smiling	1.0	attractiveness	175.77201739875454	
23.0	143.4983072130599	pulse	2.0	t		20.0	male	black	3.1070433744528456	smiling	082	sub-10	1.0	3.0	082_smiling	1.0	attractiveness	176.47200351355787	
23.0	143.51500235444473	response	2.0	b		20.0	male	black	3.1070433744528456	smiling	082	sub-10	1.0	3.0	082_smiling	1.0	attractiveness	176.4886986549427	
23.0	144.19828155562573	pulse	2.0	t		20.0	male	black	3.1070433744528456	smiling	082	sub-10	1.0	3.0	082_smiling	1.0	attractiveness	177.1719778561237	
23.0	144.50649042524674	fix	3.0		444	20.0	male	black	3.1070433744528456	smiling	082	sub-10	1.0	3.0	082_smiling	1.0	attractiveness	177.48018672574472	3.7665351597424888
23.0	144.89825318151998	pulse	3.0	t		20.0	male	black	3.1070433744528456	smiling	082	sub-10	1.0	3.0	082_smiling	1.0	attractiveness	177.87194948201795	
23.0	145.59823476853853	pulse	3.0	t		20.0	male	black	3.1070433744528456	smiling	082	sub-10	1.0	3.0	082_smiling	1.0	attractiveness	178.5719310690365	
23.0	146.29821031851316	pulse	3.0	t		20.0	male	black	3.1070433744528456	smiling	082	sub-10	1.0	3.0	082_smiling	1.0	attractiveness	179.27190661901113	
23.0	146.99819673516686	pulse	3.0	t		20.0	male	black	3.1070433744528456	smiling	082	sub-10	1.0	3.0	082_smiling	1.0	attractiveness	179.97189303566483	
23.0	147.698177416627	pulse	3.0	t		20.0	male	black	3.1070433744528456	smiling	082	sub-10	1.0	3.0	082_smiling	1.0	attractiveness	180.67187371712498	
24.0	148.27302558498923	face	0.0		145	27.0	female	white	3.504576203740549	smiling	144	sub-10	1.0	3.0	144_smiling	0.0		181.2467218854872	1.2333111975058273
24.0	148.39815749438276	pulse	0.0	t		27.0	female	white	3.504576203740549	smiling	144	sub-10	1.0	3.0	144_smiling	0.0		181.37185379488074	
24.0	149.09813576102897	pulse	0.0	t		27.0	female	white	3.504576203740549	smiling	144	sub-10	1.0	3.0	144_smiling	0.0		182.07183206152695	
24.0	149.50633678249505	fix	1.0		444	27.0	female	white	3.504576203740549	smiling	144	sub-10	1.0	3.0	144_smiling	0.0		182.48003308299303	3.76655810050579
24.0	149.79812821472296	pulse	1.0	t		27.0	female	white	3.504576203740549	smiling	144	sub-10	1.0	3.0	144_smiling	0.0		182.77182451522094	
24.0	150.49809018135056	pulse	1.0	t		27.0	female	white	3.504576203740549	smiling	144	sub-10	1.0	3.0	144_smiling	0.0		183.47178648184854	
24.0	151.19807207022313	pulse	1.0	t		27.0	female	white	3.504576203740549	smiling	144	sub-10	1.0	3.0	144_smiling	0.0		184.1717683707211	
24.0	151.89803826277785	pulse	1.0	t		27.0	female	white	3.504576203740549	smiling	144	sub-10	1.0	3.0	144_smiling	0.0		184.87173456327582	
24.0	152.59803071647548	pulse	1.0	t		27.0	female	white	3.504576203740549	smiling	144	sub-10	1.0	3.0	144_smiling	0.0		185.57172701697345	
25.0	153.27289488300084	face	0.0		145	40.0	female	west_asian	1.5777954635893354	neutral	038	sub-10	1.0	3.0	038_neutral	0.0		186.24659118349882	1.2332948974908504
25.0	153.2980228683191	pulse	0.0	t		40.0	female	west_asian	1.5777954635893354	neutral	038	sub-10	1.0	3.0	038_neutral	0.0		186.27171916881707	
25.0	153.99798815531904	pulse	0.0	t		40.0	female	west_asian	1.5777954635893354	neutral	038	sub-10	1.0	3.0	038_neutral	0.0		186.971684455817	
25.0	154.5061897804917	fix	1.0		443	40.0	female	west_asian	1.5777954635893354	neutral	038	sub-10	1.0	3.0	038_neutral	0.0		187.47988608098967	3.7583386660553515
25.0	154.69798121272106	pulse	1.0	t		40.0	female	west_asian	1.5777954635893354	neutral	038	sub-10	1.0	3.0	038_neutral	0.0		187.67167751321904	
25.0	155.39794982009334	pulse	1.0	t		40.0	female	west_asian	1.5777954635893354	neutral	038	sub-10	1.0	3.0	038_neutral	0.0		188.37164612059132	
25.0	156.09794438675453	pulse	1.0	t		40.0	female	west_asian	1.5777954635893354	neutral	038	sub-10	1.0	3.0	038_neutral	0.0		189.0716406872525	
25.0	156.797901825601	pulse	1.0	t		40.0	female	west_asian	1.5777954635893354	neutral	038	sub-10	1.0	3.0	038_neutral	0.0		189.77159812609898	
25.0	157.49789246818546	pulse	1.0	t		40.0	female	west_asian	1.5777954635893354	neutral	038	sub-10	1.0	3.0	038_neutral	0.0		190.47158876868343	
25.0	158.1978646977841	pulse	1.0	t		40.0	female	west_asian	1.5777954635893354	neutral	038	sub-10	1.0	3.0	038_neutral	0.0		191.17156099828208	
26.0	158.26452844654705	face	0.0		147	31.0	female	east_asian	3.395941106247513	smiling	087	sub-10	1.0	3.0	087_smiling	0.0		191.23822474704502	1.2415131245325028
26.0	158.89784568109826	pulse	0.0	t		31.0	female	east_asian	3.395941106247513	smiling	087	sub-10	1.0	3.0	087_smiling	0.0		191.87154198159624	
26.0	159.50604157107955	fix	1.0		443	31.0	female	east_asian	3.395941106247513	smiling	087	sub-10	1.0	3.0	087_smiling	0.0		192.47973787157753	3.76653697085203
26.0	159.59782485329924	pulse	1.0	t		31.0	female	east_asian	3.395941106247513	smiling	087	sub-10	1.0	3.0	087_smiling	0.0		192.57152115379722	
26.0	160.29780070512425	pulse	1.0	t		31.0	female	east_asian	3.395941106247513	smiling	087	sub-10	1.0	3.0	087_smiling	0.0		193.27149700562222	
26.0	160.99778440511	pulse	1.0	t		31.0	female	east_asian	3.395941106247513	smiling	087	sub-10	1.0	3.0	087_smiling	0.0		193.97148070560797	
26.0	161.69776267175257	pulse	1.0	t		31.0	female	east_asian	3.395941106247513	smiling	087	sub-10	1.0	3.0	087_smiling	0.0		194.67145897225055	
26.0	162.39774124024916	pulse	1.0	t		31.0	female	east_asian	3.395941106247513	smiling	087	sub-10	1.0	3.0	087_smiling	0.0		195.37143754074714	
26.0	163.0977143754062	pulse	1.0	t		31.0	female	east_asian	3.395941106247513	smiling	087	sub-10	1.0	3.0	087_smiling	0.0		196.0714106759042	
27.0	163.27257854193158	face	0.0		146	24.0	male	white	3.1153999204138483	smiling	012	sub-10	1.0	3.0	012_smiling	1.0	trustworthiness	196.24627484242956	1.2416519765283738
27.0	163.79770350872786	pulse	0.0	t		24.0	male	white	3.1153999204138483	smiling	012	sub-10	1.0	3.0	012_smiling	1.0	trustworthiness	196.77139980922584	
27.0	164.49767422906734	pulse	0.0	t		24.0	male	white	3.1153999204138483	smiling	012	sub-10	1.0	3.0	012_smiling	1.0	trustworthiness	197.47137052956532	
27.0	164.51423051845995	fix	1.0		176	24.0	male	white	3.1153999204138483	smiling	012	sub-10	1.0	3.0	012_smiling	1.0	trustworthiness	197.48792681895793	1.4916202820495528
27.0	165.1976579290531	pulse	1.0	t		24.0	male	white	3.1153999204138483	smiling	012	sub-10	1.0	3.0	012_smiling	1.0	trustworthiness	198.17135422955107	
27.0	165.89762381975743	pulse	1.0	t		24.0	male	white	3.1153999204138483	smiling	012	sub-10	1.0	3.0	012_smiling	1.0	trustworthiness	198.8713201202554	
27.0	166.0058508005095	rating	2.0		295	24.0	male	white	3.1153999204138483	smiling	012	sub-10	1.0	3.0	012_smiling	1.0	trustworthiness	198.97954710100748	2.4999206128813967
27.0	166.59763257347004	pulse	2.0	t		24.0	male	white	3.1153999204138483	smiling	012	sub-10	1.0	3.0	012_smiling	1.0	trustworthiness	199.571328873968	
27.0	167.297598162324	pulse	2.0	t		24.0	male	white	3.1153999204138483	smiling	012	sub-10	1.0	3.0	012_smiling	1.0	trustworthiness	200.27129446282197	
27.0	167.65590392649028	response	2.0	y		24.0	male	white	3.1153999204138483	smiling	012	sub-10	1.0	3.0	012_smiling	1.0	trustworthiness	200.62960022698826	
27.0	167.99756073265598	pulse	2.0	t		24.0	male	white	3.1153999204138483	smiling	012	sub-10	1.0	3.0	012_smiling	1.0	trustworthiness	200.97125703315396	
27.0	168.5057714133909	fix	3.0		443	24.0	male	white	3.1153999204138483	smiling	012	sub-10	1.0	3.0	012_smiling	1.0	trustworthiness	201.47946771388888	3.7665451208631566
27.0	168.69756586414223	pulse	3.0	t		24.0	male	white	3.1153999204138483	smiling	012	sub-10	1.0	3.0	012_smiling	1.0	trustworthiness	201.6712621646402	
27.0	169.39754231967163	pulse	3.0	t		24.0	male	white	3.1153999204138483	smiling	012	sub-10	1.0	3.0	012_smiling	1.0	trustworthiness	202.3712386201696	
27.0	170.0975151529783	pulse	3.0	t		24.0	male	white	3.1153999204138483	smiling	012	sub-10	1.0	3.0	012_smiling	1.0	trustworthiness	203.07121145347628	
27.0	170.79750217333276	pulse	3.0	t		24.0	male	white	3.1153999204138483	smiling	012	sub-10	1.0	3.0	012_smiling	1.0	trustworthiness	203.77119847383074	
27.0	171.4974698751539	pulse	3.0	t		24.0	male	white	3.1153999204138483	smiling	012	sub-10	1.0	3.0	012_smiling	1.0	trustworthiness	204.4711661756519	
27.0	172.19744995290966	pulse	3.0	t		24.0	male	white	3.1153999204138483	smiling	012	sub-10	1.0	3.0	012_smiling	1.0	trustworthiness	205.17114625340764	
28.0	172.27231653425406	face	0.0		146	54.0	female	white	2.286908077994429	neutral	136	sub-10	1.0	3.0	136_neutral	0.0		205.24601283475204	1.2333130086190067
28.0	172.89743153992822	pulse	0.0	t		54.0	female	white	2.286908077994429	neutral	136	sub-10	1.0	3.0	136_neutral	0.0		205.8711278404262	
28.0	173.50562954287307	fix	1.0		443	54.0	female	white	2.286908077994429	neutral	136	sub-10	1.0	3.0	136_neutral	0.0		206.47932584337104	3.766536970855668
28.0	173.59741373065117	pulse	1.0	t		54.0	female	white	2.286908077994429	neutral	136	sub-10	1.0	3.0	136_neutral	0.0		206.57111003114915	
28.0	174.2973886769214	pulse	1.0	t		54.0	female	white	2.286908077994429	neutral	136	sub-10	1.0	3.0	136_neutral	0.0		207.27108497741938	
28.0	174.9973666417136	pulse	1.0	t		54.0	female	white	2.286908077994429	neutral	136	sub-10	1.0	3.0	136_neutral	0.0		207.97106294221157	
28.0	175.69734581391458	pulse	1.0	t		54.0	female	white	2.286908077994429	neutral	136	sub-10	1.0	3.0	136_neutral	0.0		208.67104211441256	
28.0	176.397322571298	pulse	1.0	t		54.0	female	white	2.286908077994429	neutral	136	sub-10	1.0	3.0	136_neutral	0.0		209.37101887179597	
28.0	177.09730355460852	pulse	1.0	t		54.0	female	white	2.286908077994429	neutral	136	sub-10	1.0	3.0	136_neutral	0.0		210.0709998551065	
29.0	177.27216651372873	face	0.0		146	26.0	female	white	4.854755272582572	neutral	027	sub-10	1.0	3.0	027_neutral	0.0		210.2458628142267	1.2416598246818467
29.0	177.79728634903586	pulse	0.0	t		26.0	female	white	4.854755272582572	neutral	027	sub-10	1.0	3.0	027_neutral	0.0		210.77098264953383	
29.0	178.4972697471676	pulse	0.0	t		26.0	female	white	4.854755272582572	neutral	027	sub-10	1.0	3.0	027_neutral	0.0		211.47096604766557	
29.0	178.51382633841058	fix	1.0		443	26.0	female	white	4.854755272582572	neutral	027	sub-10	1.0	3.0	027_neutral	0.0		211.48752263890856	3.749913368428679
29.0	179.19724469343782	pulse	1.0	t		26.0	female	white	4.854755272582572	neutral	027	sub-10	1.0	3.0	027_neutral	0.0		212.1709409939358	
29.0	179.89721239525534	pulse	1.0	t		26.0	female	white	4.854755272582572	neutral	027	sub-10	1.0	3.0	027_neutral	0.0		212.87090869575331	
29.0	180.59721179155167	pulse	1.0	t		26.0	female	white	4.854755272582572	neutral	027	sub-10	1.0	3.0	027_neutral	0.0		213.57090809204965	
29.0	181.2971879452307	pulse	1.0	t		26.0	female	white	4.854755272582572	neutral	027	sub-10	1.0	3.0	027_neutral	0.0		214.27088424572867	
29.0	181.99716258965054	pulse	1.0	t		26.0	female	white	4.854755272582572	neutral	027	sub-10	1.0	3.0	027_neutral	0.0		214.97085889014852	
30.0	182.26373970683926	face	0.0		146	40.0	male	white	1.868682849184242	smiling	172	sub-10	1.0	3.0	172_smiling	0.0		215.23743600733724	1.241610320928885
30.0	182.69713844147554	pulse	0.0	t		40.0	male	white	1.868682849184242	smiling	172	sub-10	1.0	3.0	172_smiling	0.0		215.67083474197352	
30.0	183.39712666924243	pulse	0.0	t		40.0	male	white	1.868682849184242	smiling	172	sub-10	1.0	3.0	172_smiling	0.0		216.3708229697404	
30.0	183.50535002776815	fix	1.0		444	40.0	male	white	1.868682849184242	smiling	172	sub-10	1.0	3.0	172_smiling	0.0		216.47904632826612	3.766521576395462
30.0	184.09710885996537	pulse	1.0	t		40.0	male	white	1.868682849184242	smiling	172	sub-10	1.0	3.0	172_smiling	0.0		217.07080516046335	
30.0	184.79707143029373	pulse	1.0	t		40.0	male	white	1.868682849184242	smiling	172	sub-10	1.0	3.0	172_smiling	0.0		217.7707677307917	
30.0	185.4970527154619	pulse	1.0	t		40.0	male	white	1.868682849184242	smiling	172	sub-10	1.0	3.0	172_smiling	0.0		218.47074901595988	
30.0	186.19702886914092	pulse	1.0	t		40.0	male	white	1.868682849184242	smiling	172	sub-10	1.0	3.0	172_smiling	0.0		219.1707251696389	
30.0	186.89701105986387	pulse	1.0	t		40.0	male	white	1.868682849184242	smiling	172	sub-10	1.0	3.0	172_smiling	0.0		219.87070736036185	
31.0	187.2718716041636	face	0.0		145	31.0	male	west_asian	1.9538400318344609	smiling	070	sub-10	1.0	3.0	070_smiling	0.0		220.24556790466158	1.2333118012102204
31.0	187.59699536355038	pulse	0.0	t		31.0	male	west_asian	1.9538400318344609	smiling	070	sub-10	1.0	3.0	070_smiling	0.0		220.57069166404835	
31.0	188.2969700079666	pulse	0.0	t		31.0	male	west_asian	1.9538400318344609	smiling	070	sub-10	1.0	3.0	070_smiling	0.0		221.27066630846457	
31.0	188.50518340537383	fix	1.0		444	31.0	male	west_asian	1.9538400318344609	smiling	070	sub-10	1.0	3.0	070_smiling	0.0		221.4788797058718	3.766539385669603
31.0	188.9969570283247	pulse	1.0	t		31.0	male	west_asian	1.9538400318344609	smiling	070	sub-10	1.0	3.0	070_smiling	0.0		221.97065332882266	
31.0	189.6969256357006	pulse	1.0	t		31.0	male	west_asian	1.9538400318344609	smiling	070	sub-10	1.0	3.0	070_smiling	0.0		222.6706219361986	
31.0	190.3969102412375	pulse	1.0	t		31.0	male	west_asian	1.9538400318344609	smiling	070	sub-10	1.0	3.0	070_smiling	0.0		223.37060654173547	
31.0	191.09689062084726	pulse	1.0	t		31.0	male	west_asian	1.9538400318344609	smiling	070	sub-10	1.0	3.0	070_smiling	0.0		224.07058692134524	
31.0	191.79687371712862	pulse	1.0	t		31.0	male	west_asian	1.9538400318344609	smiling	070	sub-10	1.0	3.0	070_smiling	0.0		224.7705700176266	
32.0	192.27172279104343	face	0.0		145	19.0	male	white	3.2522881018702745	smiling	018	sub-10	1.0	3.0	018_smiling	0.0		225.2454190915414	1.2333314216048166
32.0	192.49685017265801	pulse	0.0	t		19.0	male	white	3.2522881018702745	smiling	018	sub-10	1.0	3.0	018_smiling	0.0		225.470546473156	
32.0	193.19684232450163	pulse	0.0	t		19.0	male	white	3.2522881018702745	smiling	018	sub-10	1.0	3.0	018_smiling	0.0		226.1705386249996	
32.0	193.50505421264825	fix	1.0		444	19.0	male	white	3.2522881018702745	smiling	018	sub-10	1.0	3.0	018_smiling	0.0		226.47875051314622	3.7583054623173666
32.0	193.8968079133556	pulse	1.0	t		19.0	male	white	3.2522881018702745	smiling	018	sub-10	1.0	3.0	018_smiling	0.0		226.87050421385356	
32.0	194.5967852744434	pulse	1.0	t		19.0	male	white	3.2522881018702745	smiling	018	sub-10	1.0	3.0	018_smiling	0.0		227.57048157494137	
32.0	195.29676444664437	pulse	1.0	t		19.0	male	white	3.2522881018702745	smiling	018	sub-10	1.0	3.0	018_smiling	0.0		228.27046074714235	
32.0	195.9967406003234	pulse	1.0	t		19.0	male	white	3.2522881018702745	smiling	018	sub-10	1.0	3.0	018_smiling	0.0		228.97043690082137	
32.0	196.6967170558528	pulse	1.0	t		19.0	male	white	3.2522881018702745	smiling	018	sub-10	1.0	3.0	018_smiling	0.0		229.67041335635076	
33.0	197.2633596749656	face	0.0		146	31.0	female	west_asian	2.364902506963788	smiling	006	sub-10	1.0	3.0	006_smiling	0.0		230.2370559754636	1.2415233875035483
33.0	197.39670649102845	pulse	0.0	t		31.0	female	west_asian	2.364902506963788	smiling	006	sub-10	1.0	3.0	006_smiling	0.0		230.37040279152643	
33.0	198.09667781507233	pulse	0.0	t		31.0	female	west_asian	2.364902506963788	smiling	006	sub-10	1.0	3.0	006_smiling	0.0		231.0703741155703	
33.0	198.50488306246916	fix	1.0		444	31.0	female	west_asian	2.364902506963788	smiling	006	sub-10	1.0	3.0	006_smiling	0.0		231.47857936296714	3.7583619086726685
33.0	198.79667660766427	pulse	1.0	t		31.0	female	west_asian	2.364902506963788	smiling	006	sub-10	1.0	3.0	006_smiling	0.0		231.77037290816224	
33.0	199.49664430948178	pulse	1.0	t		31.0	female	west_asian	2.364902506963788	smiling	006	sub-10	1.0	3.0	006_smiling	0.0		232.47034060997976	
33.0	200.1966204631608	pulse	1.0	t		31.0	female	west_asian	2.364902506963788	smiling	006	sub-10	1.0	3.0	006_smiling	0.0		233.17031676365878	
33.0	200.89660506870132	pulse	1.0	t		31.0	female	west_asian	2.364902506963788	smiling	006	sub-10	1.0	3.0	006_smiling	0.0		233.8703013691993	
33.0	201.5965585834674	pulse	1.0	t		31.0	female	west_asian	2.364902506963788	smiling	006	sub-10	1.0	3.0	006_smiling	0.0		234.5702548839654	
34.0	202.26324497114183	face	0.0		146	20.0	male	black	2.609629924393156	smiling	043	sub-10	1.0	3.0	043_smiling	0.0		235.2369412716398	1.2414950134007086
34.0	202.29656552606684	pulse	0.0	t		20.0	male	black	2.609629924393156	smiling	043	sub-10	1.0	3.0	043_smiling	0.0		235.27026182656482	
34.0	202.99654167974586	pulse	0.0	t		20.0	male	black	2.609629924393156	smiling	043	sub-10	1.0	3.0	043_smiling	0.0		235.97023798024384	
34.0	203.50473998454254	fix	1.0		443	20.0	male	black	2.609629924393156	smiling	043	sub-10	1.0	3.0	043_smiling	0.0		236.47843628504052	3.766555987542233
34.0	203.69657488348457	pulse	1.0	t		20.0	male	black	2.609629924393156	smiling	043	sub-10	1.0	3.0	043_smiling	0.0		236.67027118398255	
34.0	204.3965102871225	pulse	1.0	t		20.0	male	black	2.609629924393156	smiling	043	sub-10	1.0	3.0	043_smiling	0.0		237.3702065876205	
34.0	205.09647647967722	pulse	1.0	t		20.0	male	black	2.609629924393156	smiling	043	sub-10	1.0	3.0	043_smiling	0.0		238.0701727801752	
34.0	205.79644508705314	pulse	1.0	t		20.0	male	black	2.609629924393156	smiling	043	sub-10	1.0	3.0	043_smiling	0.0		238.77014138755112	
34.0	206.4964348240792	pulse	1.0	t		20.0	male	black	2.609629924393156	smiling	043	sub-10	1.0	3.0	043_smiling	0.0		239.47013112457716	
34.0	207.19641369442616	pulse	1.0	t		20.0	male	black	2.609629924393156	smiling	043	sub-10	1.0	3.0	043_smiling	0.0		240.17010999492413	
35.0	207.27129597208477	face	0.0		146	47.0	male	east_asian	2.171110226820533	smiling	024	sub-10	1.0	3.0	024_smiling	0.0		240.24499227258275	1.2333027456479613
35.0	207.89640312960182	pulse	0.0	t		47.0	male	east_asian	2.171110226820533	smiling	024	sub-10	1.0	3.0	024_smiling	0.0		240.8700994300998	
35.0	208.50459871773273	fix	1.0		443	47.0	male	east_asian	2.171110226820533	smiling	024	sub-10	1.0	3.0	024_smiling	0.0		241.4782950182307	3.758193777015549
35.0	208.59637747216766	pulse	1.0	t		47.0	male	east_asian	2.171110226820533	smiling	024	sub-10	1.0	3.0	024_smiling	0.0		241.57007377266564	
35.0	209.29634939991593	pulse	1.0	t		47.0	male	east_asian	2.171110226820533	smiling	024	sub-10	1.0	3.0	024_smiling	0.0		242.2700457004139	
35.0	209.9963303832301	pulse	1.0	t		47.0	male	east_asian	2.171110226820533	smiling	024	sub-10	1.0	3.0	024_smiling	0.0		242.97002668372807	
35.0	210.69630683876312	pulse	1.0	t		47.0	male	east_asian	2.171110226820533	smiling	024	sub-10	1.0	3.0	024_smiling	0.0		243.6700031392611	
35.0	211.3962857091101	pulse	1.0	t		47.0	male	east_asian	2.171110226820533	smiling	024	sub-10	1.0	3.0	024_smiling	0.0		244.36998200960807	
35.0	212.0962790683625	pulse	1.0	t		47.0	male	east_asian	2.171110226820533	smiling	024	sub-10	1.0	3.0	024_smiling	0.0		245.06997536886047	
36.0	212.26279249474828	face	0.0		147	34.0	male	white	2.651014723438122	smiling	121	sub-10	1.0	3.0	121_smiling	0.0		245.23648879524626	1.2499882277625147
36.0	212.79625824056347	pulse	0.0	t		34.0	male	white	2.651014723438122	smiling	121	sub-10	1.0	3.0	121_smiling	0.0		245.76995454106145	
36.0	213.49622232015463	pulse	0.0	t		34.0	male	white	2.651014723438122	smiling	121	sub-10	1.0	3.0	121_smiling	0.0		246.4699186206526	
36.0	213.5127807225108	fix	1.0		443	34.0	male	white	2.651014723438122	smiling	121	sub-10	1.0	3.0	121_smiling	0.0		246.48647702300877	3.7582209437132406
36.0	214.196218999783	pulse	1.0	t		34.0	male	white	2.651014723438122	smiling	121	sub-10	1.0	3.0	121_smiling	0.0		247.169915300281	
36.0	214.89619213494007	pulse	1.0	t		34.0	male	white	2.651014723438122	smiling	121	sub-10	1.0	3.0	121_smiling	0.0		247.86988843543804	
36.0	215.59617613677256	pulse	1.0	t		34.0	male	white	2.651014723438122	smiling	121	sub-10	1.0	3.0	121_smiling	0.0		248.56987243727053	
36.0	216.29614202748053	pulse	1.0	t		34.0	male	white	2.651014723438122	smiling	121	sub-10	1.0	3.0	121_smiling	0.0		249.2698383279785	
36.0	216.99612693487143	pulse	1.0	t		34.0	male	white	2.651014723438122	smiling	121	sub-10	1.0	3.0	121_smiling	0.0		249.9698232353694	
37.0	217.27100166622404	face	0.0		145	31.0	female	white	2.1822522881018704	neutral	102	sub-10	1.0	3.0	102_neutral	0.0		250.24469796672201	1.2333006326807663
37.0	217.69610369225484	pulse	0.0	t		31.0	female	white	2.1822522881018704	neutral	102	sub-10	1.0	3.0	102_neutral	0.0		250.66979999275281	
37.0	218.39609041075892	pulse	0.0	t		31.0	female	white	2.1822522881018704	neutral	102	sub-10	1.0	3.0	102_neutral	0.0		251.3697867112569	
37.0	218.5043022989048	fix	1.0		444	31.0	female	white	2.1822522881018704	neutral	102	sub-10	1.0	3.0	102_neutral	0.0		251.47799859940278	3.7665354615928663
37.0	219.09605871628082	pulse	1.0	t		31.0	female	white	2.1822522881018704	neutral	102	sub-10	1.0	3.0	102_neutral	0.0		252.0697550167788	
37.0	219.79603396440507	pulse	1.0	t		31.0	female	white	2.1822522881018704	neutral	102	sub-10	1.0	3.0	102_neutral	0.0		252.76973026490305	
37.0	220.4960185699456	pulse	1.0	t		31.0	female	white	2.1822522881018704	neutral	102	sub-10	1.0	3.0	102_neutral	0.0		253.46971487044357	
37.0	221.19599955325612	pulse	1.0	t		31.0	female	white	2.1822522881018704	neutral	102	sub-10	1.0	3.0	102_neutral	0.0		254.1696958537541	
37.0	221.89598234768346	pulse	1.0	t		31.0	female	white	2.1822522881018704	neutral	102	sub-10	1.0	3.0	102_neutral	0.0		254.86967864818143	
38.0	222.27083776049767	face	0.0		145	31.0	male	west_asian	1.9538400318344609	neutral	070	sub-10	1.0	3.0	070_neutral	0.0		255.24453406099565	1.233309990100679
38.0	222.59597540508548	pulse	0.0	t		31.0	male	west_asian	1.9538400318344609	neutral	070	sub-10	1.0	3.0	070_neutral	0.0		255.56967170558346	
38.0	223.29594220134823	pulse	0.0	t		31.0	male	west_asian	1.9538400318344609	neutral	070	sub-10	1.0	3.0	070_neutral	0.0		256.2696385018462	
38.0	223.50414775059835	fix	1.0		444	31.0	male	west_asian	1.9538400318344609	neutral	070	sub-10	1.0	3.0	070_neutral	0.0		256.4778440510963	3.7582420733597246
38.0	223.99592016613678	pulse	1.0	t		31.0	male	west_asian	1.9538400318344609	neutral	070	sub-10	1.0	3.0	070_neutral	0.0		256.96961646663476	
38.0	224.69589994204216	pulse	1.0	t		31.0	male	west_asian	1.9538400318344609	neutral	070	sub-10	1.0	3.0	070_neutral	0.0		257.66959624254014	
38.0	225.3958839438783	pulse	1.0	t		31.0	male	west_asian	1.9538400318344609	neutral	070	sub-10	1.0	3.0	070_neutral	0.0		258.36958024437627	
38.0	226.09585798459375	pulse	1.0	t		31.0	male	west_asian	1.9538400318344609	neutral	070	sub-10	1.0	3.0	070_neutral	0.0		259.0695542850917	
38.0	226.7958284030792	pulse	1.0	t		31.0	male	west_asian	1.9538400318344609	neutral	070	sub-10	1.0	3.0	070_neutral	0.0		259.7695247035772	
39.0	227.26238982395807	face	0.0		146	19.0	female	white	4.298846000795861	neutral	100	sub-10	1.0	3.0	100_neutral	0.0		260.23608612445605	1.2416136413048662
39.0	227.49582719567115	pulse	0.0	t		19.0	female	white	4.298846000795861	neutral	100	sub-10	1.0	3.0	100_neutral	0.0		260.46952349616913	
39.0	228.19579218082072	pulse	0.0	t		19.0	female	white	4.298846000795861	neutral	100	sub-10	1.0	3.0	100_neutral	0.0		261.1694884813187	
39.0	228.50400346526294	fix	1.0		444	19.0	female	white	4.298846000795861	neutral	100	sub-10	1.0	3.0	100_neutral	0.0		261.4776997657609	3.7498898239573464
39.0	228.89577286228086	pulse	1.0	t		19.0	female	white	4.298846000795861	neutral	100	sub-10	1.0	3.0	100_neutral	0.0		261.86946916277884	
39.0	229.59575897708055	pulse	1.0	t		19.0	female	white	4.298846000795861	neutral	100	sub-10	1.0	3.0	100_neutral	0.0		262.5694552775785	
39.0	230.29590658279267	pulse	1.0	t		19.0	female	white	4.298846000795861	neutral	100	sub-10	1.0	3.0	100_neutral	0.0		263.26960288329064	
39.0	230.995712189997	pulse	1.0	t		19.0	female	white	4.298846000795861	neutral	100	sub-10	1.0	3.0	100_neutral	0.0		263.96940849049497	
39.0	231.69568019366852	pulse	1.0	t		19.0	female	white	4.298846000795861	neutral	100	sub-10	1.0	3.0	100_neutral	0.0		264.6693764941665	
40.0	232.2538932892203	fix	0.0		720													265.22758958971826	5.999823114630999
40.0	232.39567204365812	pulse	0.0	t														265.3693683441561	
40.0	233.09564668807798	pulse	0.0	t														266.06934298857595	
40.0	233.79562525657457	pulse	0.0	t														266.76932155707254	
40.0	234.49560110839957	pulse	0.0	t														267.46929740889755	
40.0	235.19558782690365	pulse	0.0	t														268.1692841274016	
40.0	235.8955437564873	pulse	0.0	t														268.8692400569853	
40.0	236.59554345463766	pulse	0.0	t														269.56923975513564	
40.0	237.29552323054304	pulse	0.0	t														270.269219531041	
40.0	237.9955096471931	pulse	0.0	t														270.9692059476911	
