trial_nr	onset	event_type	phase	response	nr_frames	trial_type	stim_name	task_probe	onset_abs	duration
0.0	0.056598340231175825	baseline	0.0		41.0		baseline	0.0	94.81369452659055	0.34975886474330764
0.0	0.40635720497448347	ISI	1.0		11.0		baseline	0.0	95.16345339133386	0.09999000866628194
1.0	0.5063472136407654	baseline	0.0		48.0		baseline	0.0	95.26344340000014	0.39998840884527453
1.0	0.7064564240499749	pulse	0.0	t			baseline	0.0	95.46355261040935	
1.0	0.9063356224860399	ISI	1.0		11.0		baseline	0.0	95.66343180884542	0.10000570502143091
2.0	1.0063413275074709	baseline	0.0		48.0		baseline	0.0	95.76343751386685	0.3999678828422475
2.0	1.4063092103497183	ISI	1.0		11.0		baseline	0.0	96.1634053967091	0.09999664943188691
2.0	1.4108213087683907	pulse	1.0	t			baseline	0.0	96.16791749512777	
3.0	1.5063058597816052	baseline	0.0		48.0		baseline	0.0	96.26340204614098	0.39998116437345743
3.0	1.9062870241550627	ISI	1.0		11.0		baseline	0.0	96.66338321051444	0.10000661058074911
4.0	2.006293634735812	baseline	0.0		48.0		baseline	0.0	96.76338982109519	0.39998659772754763
4.0	2.106399554948439	pulse	0.0	t			baseline	0.0	96.86349574130782	
4.0	2.4062802324633594	ISI	1.0		11.0		baseline	0.0	97.16337641882274	0.09999091422469064
5.0	2.50627114668805	baseline	0.0		48.0		baseline	0.0	97.26336733304743	0.39998810699216847
5.0	2.806375195412329	pulse	0.0	t			baseline	0.0	97.5634713817717	
5.0	2.9062592536802185	ISI	1.0		11.0		baseline	0.0	97.6633554400396	0.10004554961597023
6.0	3.0063048032961888	baseline	0.0		48.0		baseline	0.0	97.76340098965557	0.3999494698100534
6.0	3.406254273106242	ISI	1.0		11.0		baseline	0.0	98.16335045946562	0.0999894049600698
7.0	3.506243678066312	baseline	0.0		47.0		baseline	0.0	98.26333986442569	0.39998901255148667
7.0	3.5104439623519283	pulse	0.0	t			baseline	0.0	98.2675401487113	
7.0	3.9062326906177987	ISI	1.0		11.0		baseline	0.0	98.66332887697718	0.0999957438734782
8.0	4.006228434491277	baseline	0.0		48.0		baseline	0.0	98.76332462085065	0.39999112552141014
8.0	4.2063476060493485	pulse	0.0	t			baseline	0.0	98.96344379240873	
8.0	4.406219560012687	ISI	1.0		11.0		baseline	0.0	99.16331574637206	0.10000510131612828
9.0	4.506224661328815	baseline	0.0		48.0		baseline	0.0	99.26332084768819	0.39998267363807827
9.0	4.9062073349668935	ISI	1.0		11.0		baseline	0.0	99.66330352132627	0.10000329019749188
9.0	4.910745392742683	pulse	1.0	t			baseline	0.0	99.66784157910206	
10.0	5.006210625164385	baseline	0.0		48.0		baseline	0.0	99.76330681152376	0.39999172922853177
10.0	5.406202354392917	ISI	1.0		11.0		baseline	0.0	100.1632985407523	0.09998638643082813
11.0	5.506188740823745	baseline	0.0		48.0		baseline	0.0	100.26328492718312	0.3999980681401212
11.0	5.606313074067657	pulse	0.0	t			baseline	0.0	100.36340926042703	
11.0	5.9061868089638665	ISI	1.0		7.0		baseline	0.0	100.66328299532324	0.13333872644034273
12.0	6.039525535404209	adult	0.0		44.0	face	adult-64.jpg	0.0	100.79662172176359	0.3666245984222769
12.0	6.306278149677382	pulse	0.0	t		face	adult-64.jpg	0.0	101.06337433603676	
12.0	6.406150133826486	ISI	1.0		8.0	face	adult-64.jpg	0.0	101.16324632018586	0.11667674352520407
13.0	6.52282687735169	adult	0.0		46.0	face	adult-31.jpg	0.0	101.27992306371107	0.3832886943082485
13.0	6.906115571659939	ISI	1.0		7.0	face	adult-31.jpg	0.0	101.66321175801932	0.11667221573043207
14.0	7.022787787390371	adult	0.0		45.0	face	adult-92.jpg	0.0	101.77988397374975	0.3833119369874112
14.0	7.014907613366631	pulse	0.0	t		face	adult-92.jpg	0.0	101.77200379972601	
14.0	7.406099724377782	ISI	1.0		8.0	face	adult-92.jpg	0.0	102.16319591073716	0.11667432870217453
15.0	7.5227740530799565	adult	0.0		46.0	face	adult-63.jpg	0.0	102.27987023943933	0.38331586107597104
15.0	7.706194717512517	pulse	0.0	t		face	adult-63.jpg	0.0	102.4632909038719	
15.0	7.9060899141559275	ISI	1.0		7.0	face	adult-63.jpg	0.0	102.6631861005153	0.11668881764489925
16.0	8.022778731800827	adult	0.0		46.0	face	adult-130.jpg	0.0	102.7798749181602	0.3832932221030205
16.0	8.406071953903847	ISI	1.0		7.0	face	adult-130.jpg	0.0	103.16316814026322	0.11667342314194684
16.0	8.438407954912691	pulse	1.0	t		face	adult-130.jpg	0.0	103.19550414127207	
17.0	8.522745377045794	adult	0.0		46.0	face	adult-10.jpg	0.0	103.27984156340517	0.38331284254672937
17.0	8.906058219592524	ISI	1.0		8.0	face	adult-10.jpg	0.0	103.6631544059519	0.11669576026361028
18.0	9.022753979856134	adult	0.0		46.0	face	adult-119.jpg	0.0	103.77985016621551	0.38328205354173406
18.0	9.106177693003701	pulse	0.0	t		face	adult-119.jpg	0.0	103.86327387936308	
18.0	9.406036033397868	ISI	1.0		7.0	face	adult-119.jpg	0.0	104.16313221975724	0.11669998620527622
19.0	9.522736019603144	adult	0.0		46.0	face	adult-89.jpg	0.0	104.27983220596252	0.38329654248536826
19.0	9.806138240818655	pulse	0.0	t		face	adult-89.jpg	0.0	104.56323442717803	
19.0	9.906032562088512	ISI	1.0		7.0	face	adult-89.jpg	0.0	104.66312874844789	0.11669032691042958
20.0	10.022722888998942	adult	0.0		46.0	face	adult-89.jpg	1.0	104.77981907535832	0.3832944295145353
20.0	10.406017318513477	ISI	1.0		7.0	face	adult-89.jpg	1.0	105.16311350487285	0.11668549726164201
20.0	10.447859877429437	response	1.0	b		face	adult-89.jpg	1.0	105.20495606378881	
21.0	10.52270281577512	adult	0.0		45.0	face	adult-53.jpg	0.0	105.2797990021345	0.3832950332207474
21.0	10.514730274737303	pulse	0.0	t		face	adult-53.jpg	0.0	105.27182646109668	
21.0	10.905997848995867	ISI	1.0		7.0	face	adult-53.jpg	0.0	105.66309403535524	0.11669968435217015
22.0	11.022697533348037	adult	0.0		46.0	face	adult-57.jpg	0.0	105.77979371970741	0.3832877887489303
22.0	11.206094653248329	pulse	0.0	t		face	adult-57.jpg	0.0	105.9631908396077	
22.0	11.405985322096967	ISI	1.0		7.0	face	adult-57.jpg	0.0	106.16308150845634	0.11668066761376394
23.0	11.522665989710731	adult	0.0		46.0	face	adult-79.jpg	0.0	106.27976217607011	0.38329382580923266
23.0	11.905959815519964	ISI	1.0		7.0	face	adult-79.jpg	0.0	106.66305600187934	0.11669455285118602
23.0	11.938481757967565	pulse	1.0	t		face	adult-79.jpg	0.0	106.69557794432694	
24.0	12.02265436837115	word	0.0		46.0	character	word-12.jpg	0.0	106.77975055473053	0.38331314439983544
24.0	12.405967512770985	ISI	1.0		4.0	character	word-12.jpg	0.0	107.16306369913036	0.11669153432103485
25.0	12.52265904709202	word	0.0		46.0	character	word-35.jpg	0.0	107.2797552334514	0.3833161629299866
25.0	12.606412081846429	pulse	0.0	t		character	word-35.jpg	0.0	107.3635082682058	
25.0	12.905975210022007	ISI	1.0		7.0	character	word-35.jpg	0.0	107.66307139638138	0.11670028805838228
26.0	13.022675498080389	word	0.0		46.0	character	word-57.jpg	0.0	107.77977168443977	0.3832627349511313
26.0	13.306080134118929	pulse	0.0	t		character	word-57.jpg	0.0	108.0631763204783	
26.0	13.40593823303152	ISI	1.0		7.0	character	word-57.jpg	0.0	108.1630344193909	0.11669062876262615
27.0	13.522628861794146	word	0.0		46.0	character	word-57.jpg	1.0	108.27972504815352	0.38328658133650606
27.0	13.905915443130652	ISI	1.0		7.0	character	word-57.jpg	1.0	108.66301162949003	0.11669394914588338
28.0	14.022609392276536	word	0.0		45.0	character	word-34.jpg	0.0	108.77970557863591	0.38330137213324633
28.0	14.010862783367884	pulse	0.0	t		character	word-34.jpg	0.0	108.76795896972726	
28.0	14.056044440003461	response	0.0	b		character	word-34.jpg	0.0	108.81314062636284	
28.0	14.405910764409782	ISI	1.0		4.0	character	word-34.jpg	0.0	109.16300695076916	0.10833805481706804
29.0	14.51424881922685	word	0.0		47.0	character	word-24.jpg	0.0	109.27134500558623	0.3916352311935043
29.0	14.706007568661335	pulse	0.0	t		character	word-24.jpg	0.0	109.46310375502071	
29.0	14.905884050420354	ISI	1.0		6.0	character	word-24.jpg	0.0	109.66298023677973	0.1083766919991831
30.0	15.014260742419538	word	0.0		47.0	character	word-40.jpg	0.0	109.77135692877891	0.3916168181613102
30.0	15.405877560580848	ISI	1.0		6.0	character	word-40.jpg	0.0	110.16297374694022	0.10836461788039742
30.0	15.447615678364855	pulse	1.0	t		character	word-40.jpg	0.0	110.20471186472423	
31.0	15.514242178461245	word	0.0		47.0	character	word-79.jpg	0.0	110.27133836482062	0.391620440396764
31.0	15.90586261885801	ISI	1.0		3.0	character	word-79.jpg	0.0	110.66295880521739	0.10834258261184004
32.0	16.01420520146985	word	0.0		47.0	character	word-46.jpg	0.0	110.77130138782923	0.39164307937153353
32.0	16.106061781458266	pulse	0.0	t		character	word-46.jpg	0.0	110.86315796781764	
32.0	16.405848280841383	ISI	1.0		6.0	character	word-46.jpg	0.0	111.16294446720076	0.10836582529191219
33.0	16.514214106133295	word	0.0		47.0	character	word-64.jpg	0.0	111.27131029249267	0.3916153088966894
33.0	16.805949280850655	pulse	0.0	t		character	word-64.jpg	0.0	111.56304546721003	
33.0	16.905829415029984	ISI	1.0		6.0	character	word-64.jpg	0.0	111.66292560138936	0.11668610096785414
34.0	17.02251551599784	word	0.0		46.0	character	word-29.jpg	0.0	111.77961170235722	0.38331374810604757
34.0	17.405829264103886	ISI	1.0		6.0	character	word-29.jpg	0.0	112.16292545046326	0.11668670467406628
35.0	17.522515968777952	word	0.0		45.0	character	word-56.jpg	0.0	112.27961215513733	0.38329292024900496
35.0	17.511517351566	pulse	0.0	t		character	word-56.jpg	0.0	112.26861353792538	
35.0	17.905808889026957	ISI	1.0		7.0	character	word-56.jpg	0.0	112.66290507538633	0.11669757138133718
36.0	18.022506460408295	adult	0.0		46.0	face	adult-56.jpg	0.0	112.77960264676767	0.38330227769256453
36.0	18.205913239604342	pulse	0.0	t		face	adult-56.jpg	0.0	112.96300942596372	
36.0	18.40580873810086	ISI	1.0		7.0	face	adult-56.jpg	0.0	113.16290492446024	0.11668730837936891
37.0	18.522496046480228	adult	0.0		46.0	face	adult-42.jpg	0.0	113.2795922328396	0.38328658133741556
37.0	18.905782627817644	ISI	1.0		7.0	face	adult-42.jpg	0.0	113.66287881417702	0.11669787323444325
37.0	18.94059774739162	pulse	1.0	t		face	adult-42.jpg	0.0	113.697693933751	
38.0	19.022480501052087	adult	0.0		46.0	face	adult-1.jpg	0.0	113.77957668741146	0.383315559222865
38.0	19.40579606027495	ISI	1.0		7.0	face	adult-1.jpg	0.0	114.16289224663433	0.11668851579179318
39.0	19.522484576066745	adult	0.0		46.0	face	adult-114.jpg	0.0	114.27958076242612	0.38327752574787155
39.0	19.60597801725453	pulse	0.0	t		face	adult-114.jpg	0.0	114.3630742036139	
39.0	19.905762101814616	ISI	1.0		7.0	face	adult-114.jpg	0.0	114.662858288174	0.11669394914588338
40.0	20.0224560509605	adult	0.0		46.0	face	adult-14.jpg	0.0	114.77955223731988	0.3832917128374902
40.0	20.30589902232805	pulse	0.0	t		face	adult-14.jpg	0.0	115.06299520868743	
40.0	20.40574776379799	ISI	1.0		7.0	face	adult-14.jpg	0.0	115.16284395015737	0.11669093061573221
41.0	20.522438694413722	adult	0.0		46.0	face	adult-23.jpg	0.0	115.2795348807731	0.3832962406322622
41.0	20.905734935045984	ISI	1.0		7.0	face	adult-23.jpg	0.0	115.66283112140536	0.11668610096785414
42.0	21.02242103601384	adult	0.0		45.0	face	adult-129.jpg	0.0	115.77951722237322	0.3833016739863524
42.0	21.014325037105664	pulse	0.0	t		face	adult-129.jpg	0.0	115.77142122346504	
42.0	21.40572271000019	ISI	1.0		5.0	face	adult-129.jpg	0.0	116.16281889635957	0.11668730837936891
43.0	21.52241001837956	adult	0.0		46.0	face	adult-83.jpg	0.0	116.27950620473894	0.38329925916241336
43.0	21.70588773302643	pulse	0.0	t		face	adult-83.jpg	0.0	116.4629839193858	
43.0	21.905709277541973	ISI	1.0		7.0	face	adult-83.jpg	0.0	116.66280546390135	0.11669243988035305
44.0	22.022401717422326	adult	0.0		46.0	face	adult-102.jpg	0.0	116.7794979037817	0.3832853739249913
44.0	22.405687091347318	ISI	1.0		7.0	face	adult-102.jpg	0.0	117.1627832777067	0.11669726952914061
44.0	22.43875146361006	pulse	1.0	t		face	adult-102.jpg	0.0	117.19584764996944	
45.0	22.52238436087646	adult	0.0		46.0	face	adult-102.jpg	1.0	117.27948054723583	0.3832889961604451
45.0	22.905673357036903	ISI	1.0		7.0	face	adult-102.jpg	1.0	117.66276954339628	0.11668247873240034
45.0	22.981013447249097	response	1.0	b		face	adult-102.jpg	1.0	117.73810963360847	
46.0	23.022355835769304	adult	0.0		46.0	face	adult-49.jpg	0.0	117.77945202212868	0.3833034851040793
46.0	23.105849276956178	pulse	0.0	t		face	adult-49.jpg	0.0	117.86294546331555	
46.0	23.405659320873383	ISI	1.0		7.0	face	adult-49.jpg	0.0	118.16275550723276	0.11668036576065788
47.0	23.52233968663404	adult	0.0		46.0	face	adult-68.jpg	0.0	118.27943587299342	0.3833146536644563
47.0	23.805829747067946	pulse	0.0	t		face	adult-68.jpg	0.0	118.56292593342732	
47.0	23.905654340298497	ISI	1.0		4.0	face	adult-68.jpg	0.0	118.66275052665787	0.11669304358656518
48.0	24.022347383885062	house	0.0		46.0	place	house-94.jpg	0.0	118.77944357024444	0.38328477021968865
48.0	24.40563215410475	ISI	1.0		8.0	place	house-94.jpg	0.0	119.16272834046413	0.11668700652626285
49.0	24.522319160631014	house	0.0		45.0	place	house-110.jpg	0.0	119.27941534699039	0.38330016472173156
49.0	24.514073744495363	pulse	0.0	t		place	house-110.jpg	0.0	119.27116993085474	
49.0	24.905619325352745	ISI	1.0		5.0	place	house-110.jpg	0.0	119.66271551171212	0.11669877879285195
50.0	25.022318104145597	house	0.0		46.0	place	house-123.jpg	0.0	119.77941429050497	0.38329684433847433
50.0	25.205721562958388	pulse	0.0	t		place	house-123.jpg	0.0	119.96281774931776	
50.0	25.40561494848407	ISI	1.0		6.0	place	house-123.jpg	0.0	120.16271113484345	0.11669425099898945
51.0	25.52230919948306	house	0.0		46.0	place	house-84.jpg	0.0	120.27940538584244	0.383322501841576
51.0	25.905631701324637	ISI	1.0		7.0	place	house-84.jpg	0.0	120.66272788768401	0.11669606211671635
51.0	25.938302155441306	pulse	1.0	t		place	house-84.jpg	0.0	120.69539834180068	
52.0	26.022327763441353	house	0.0		46.0	place	house-69.jpg	0.0	120.77942394980073	0.3832582071563593
52.0	26.405585970597713	ISI	1.0		8.0	place	house-69.jpg	0.0	121.16268215695709	0.11667432870126504
53.0	26.522260299298978	house	0.0		46.0	place	house-137.jpg	0.0	121.27935648565835	0.38332401110710634
53.0	26.605690351359954	pulse	0.0	t		place	house-137.jpg	0.0	121.36278653771933	
53.0	26.905584310406084	ISI	1.0		8.0	place	house-137.jpg	0.0	121.66268049676546	0.1166601416116464
54.0	27.02224445201773	house	0.0		46.0	place	house-137.jpg	1.0	121.7793406383771	0.38330740919263917
54.0	27.305709760506943	pulse	0.0	t		place	house-137.jpg	1.0	122.06280594686632	
54.0	27.40555186121037	ISI	1.0		5.0	place	house-137.jpg	1.0	122.16264804756975	0.11668187502618821
54.0	27.49734112798251	response	1.0	b		place	house-137.jpg	1.0	122.25443731434189	
55.0	27.522233736236558	house	0.0		46.0	place	house-78.jpg	0.0	122.27932992259593	0.3832989573093073
55.0	27.905532693545865	ISI	1.0		7.0	place	house-78.jpg	0.0	122.66262887990524	0.11668761023338448
56.0	28.02222030377925	house	0.0		45.0	place	house-30.jpg	0.0	122.77931649013863	0.3833128425458199
56.0	28.013280625777043	pulse	0.0	t		place	house-30.jpg	0.0	122.77037681213642	
56.0	28.40553314632507	ISI	1.0		6.0	place	house-30.jpg	0.0	123.16262933268445	0.11667402684906847
57.0	28.522207173174138	house	0.0		46.0	place	house-33.jpg	0.0	123.27930335953351	0.3833182758999101
57.0	28.705626630195184	pulse	0.0	t		place	house-33.jpg	0.0	123.46272281655456	
57.0	28.905525449074048	ISI	1.0		7.0	place	house-33.jpg	0.0	123.66262163543342	0.11668761023338448
58.0	29.022213059307433	house	0.0		46.0	place	house-79.jpg	0.0	123.77930924566681	0.38329744804377697
58.0	29.40551050735121	ISI	1.0		6.0	place	house-79.jpg	0.0	124.16260669371059	0.1083320177576752
58.0	29.447099509760847	pulse	1.0	t		place	house-79.jpg	0.0	124.20419569612022	
59.0	29.513842525108885	house	0.0		47.0	place	house-35.jpg	0.0	124.27093871146826	0.39163734416433726
59.0	29.905479869273222	ISI	1.0		6.0	place	house-35.jpg	0.0	124.6625760556326	0.10837005123357812
60.0	30.0138499205068	house	0.0		47.0	place	house-39.jpg	0.0	124.77094610686618	0.3916279867225967
60.0	30.105595116742734	pulse	0.0	t		place	house-39.jpg	0.0	124.86269130310211	
60.0	30.405477907229397	ISI	1.0		4.0	place	house-39.jpg	0.0	125.16257409358877	0.10835858082009509
61.0	30.513836488049492	house	0.0		47.0	place	house-114.jpg	0.0	125.27093267440887	0.3916297978394141
61.0	30.80557015350132	pulse	0.0	t		place	house-114.jpg	0.0	125.5626663398607	
61.0	30.905466285888906	ISI	1.0		6.0	place	house-114.jpg	0.0	125.66256247224828	0.1083329233169934
62.0	31.0137992092059	house	0.0		47.0	place	house-91.jpg	0.0	125.77089539556528	0.39164549419456307
62.0	31.405444703400462	ISI	1.0		6.0	place	house-91.jpg	0.0	126.16254088975984	0.10833443258161424
63.0	31.513779135982077	house	0.0		46.0	place	house-46.jpg	0.0	126.27087532234145	0.39165847387357644
63.0	31.509516669982077	pulse	0.0	t		place	house-46.jpg	0.0	126.26661285634145	
63.0	31.905437609855653	ISI	1.0		4.0	place	house-46.jpg	0.0	126.66253379621503	0.11669394914588338
64.0	32.02213155900154	house	0.0		46.0	place	house-143.jpg	0.0	126.77922774536091	0.38331586107597104
64.0	32.20557606981947	pulse	0.0	t		place	house-143.jpg	0.0	126.96267225617885	
64.0	32.40544742007751	ISI	1.0		7.0	place	house-143.jpg	0.0	127.16254360643688	0.11670300473542738
65.0	32.522150424812935	house	0.0		46.0	place	house-143.jpg	1.0	127.27924661117231	0.38329684433847433
65.0	32.90544726915141	ISI	1.0		7.0	place	house-143.jpg	1.0	127.66254345551079	0.11668821393868711
65.0	32.945002688001296	pulse	1.0	t		place	house-143.jpg	1.0	127.70209887436067	
66.0	33.022135483090096	house	0.0		46.0	place	house-54.jpg	0.0	127.77923166944947	0.3832651497750703
66.0	33.03895503326294	response	0.0	b		place	house-54.jpg	0.0	127.79605121962231	
66.0	33.40540063286517	ISI	1.0		7.0	place	house-54.jpg	0.0	128.16249681922454	0.11668821393868711
67.0	33.522088846803854	house	0.0		46.0	place	house-12.jpg	0.0	128.27918503316323	0.3832835628072644
67.0	33.60550773030445	pulse	0.0	t		place	house-12.jpg	0.0	128.36260391666383	
67.0	33.90537240961112	ISI	1.0		7.0	place	house-12.jpg	0.0	128.6624685959705	0.11669243988035305
68.0	34.02206484949147	house	0.0		46.0	place	house-28.jpg	0.0	128.77916103585085	0.38330589992801833
68.0	34.3054930300641	pulse	0.0	t		place	house-28.jpg	0.0	129.06258921642348	
68.0	34.40537074941949	ISI	1.0		7.0	place	house-28.jpg	0.0	129.16246693577887	0.11669002505641402
69.0	34.522060774475904	house	0.0		46.0	place	house-128.jpg	0.0	129.27915696083528	0.3832895998666572
69.0	34.90535037434256	ISI	1.0		8.0	place	house-128.jpg	0.0	129.66244656070194	0.11669515655830764
70.0	35.02204553090087	house	0.0		45.0	place	house-107.jpg	0.0	129.77914171726025	0.383299862867716
70.0	35.015133701252125	pulse	0.0	t		place	house-107.jpg	0.0	129.7722298876115	
70.0	35.405345393768584	ISI	1.0		7.0	place	house-107.jpg	0.0	130.16244158012796	0.11668972320421744
71.0	35.5220351169728	house	0.0		46.0	place	house-2.jpg	0.0	130.27913130333218	0.3832868831896121
71.0	35.70547992964384	pulse	0.0	t		place	house-2.jpg	0.0	130.46257611600322	
71.0	35.905322000162414	ISI	1.0		5.0	place	house-2.jpg	0.0	130.6624181865218	0.11669787323444325
72.0	36.02201987339686	word	0.0		46.0	character	word-17.jpg	0.0	130.77911605975623	0.38329654248536826
72.0	36.405316415882226	ISI	1.0		6.0	character	word-17.jpg	0.0	131.1624126022416	0.11669153432194435
72.0	36.447997522390324	pulse	1.0	t		character	word-17.jpg	0.0	131.2050937087497	
73.0	36.52200795020417	word	0.0		46.0	character	word-47.jpg	0.0	131.27910413656355	0.38329503321983793
73.0	36.90530298342401	ISI	1.0		7.0	character	word-47.jpg	0.0	131.66239916978338	0.11669123246883828
74.0	37.021994215892846	word	0.0		46.0	character	word-23.jpg	0.0	131.77909040225222	0.38329473136764136
74.0	37.1054040438039	pulse	0.0	t		character	word-23.jpg	0.0	131.86250023016328	
74.0	37.40528894726049	ISI	1.0		6.0	character	word-23.jpg	0.0	132.16238513361986	0.11669394914588338
75.0	37.52198289640637	word	0.0		46.0	character	word-88.jpg	0.0	132.27907908276575	0.3832935239552171
75.0	37.80539387135832	pulse	0.0	t		character	word-88.jpg	0.0	132.5624900577177	
75.0	37.90527642036159	ISI	1.0		7.0	character	word-88.jpg	0.0	132.66237260672096	0.11669123246883828
76.0	38.021967652830426	word	0.0		46.0	character	word-53.jpg	0.0	132.7790638391898	0.3832853739249913
76.0	38.40525302675542	ISI	1.0		5.0	character	word-53.jpg	0.0	133.1623492131148	0.11669576026361028
77.0	38.52194878701903	word	0.0		45.0	character	word-85.jpg	0.0	133.2790449733784	0.38330107028014027
77.0	38.51185391764466	pulse	0.0	t		character	word-85.jpg	0.0	133.26895010400403	
77.0	38.90524985729917	ISI	1.0		6.0	character	word-85.jpg	0.0	133.66234604365854	0.11669062876262615
78.0	39.021940486061794	word	0.0		46.0	character	word-100.jpg	0.0	133.77903667242117	0.3833282370487723
78.0	39.20539405247018	pulse	0.0	t		character	word-100.jpg	0.0	133.96249023882956	
78.0	39.40526872311057	ISI	1.0		7.0	character	word-100.jpg	0.0	134.16236490946994	0.11669183617505041
79.0	39.52196055928562	word	0.0		46.0	character	word-118.jpg	0.0	134.279056745645	0.38328567577718786
79.0	39.905246235062805	ISI	1.0		7.0	character	word-118.jpg	0.0	134.66234242142218	0.11670421214785165
79.0	39.941812101949836	pulse	1.0	t		character	word-118.jpg	0.0	134.6989082883092	
80.0	40.021950447210656	word	0.0		46.0	character	word-118.jpg	1.0	134.77904663357003	0.3832895998666572
80.0	40.405240047077314	ISI	1.0		4.0	character	word-118.jpg	1.0	135.1623362334367	0.125026298940611
80.0	40.49702961570165	response	1.0	b		character	word-118.jpg	1.0	135.25412580206103	
81.0	40.530266346017925	word	0.0		45.0	character	word-66.jpg	0.0	135.2873625323773	0.37496026860117126
81.0	40.6053477482219	pulse	0.0	t		character	word-66.jpg	0.0	135.36244393458128	
81.0	40.905226614619096	ISI	1.0		6.0	character	word-66.jpg	0.0	135.66232280097847	0.11668640282096021
82.0	41.021913017440056	word	0.0		46.0	character	word-50.jpg	0.0	135.77900920379943	0.38330046657392813
82.0	41.30533365168776	pulse	0.0	t		character	word-50.jpg	0.0	136.06242983804714	
82.0	41.405213484013984	ISI	1.0		6.0	character	word-50.jpg	0.0	136.16230967037336	0.11669425099898945
83.0	41.521907735012974	word	0.0		46.0	character	word-111.jpg	0.0	136.27900392137235	0.383284166512567
83.0	41.90519190152554	ISI	1.0		11.0	character	word-111.jpg	0.0	136.66228808788492	0.1000440403504399
84.0	42.00523594187598	baseline	0.0		47.0		baseline	0.0	136.76233212823536	0.39997995696194266
84.0	42.00952949873408	pulse	0.0	t			baseline	0.0	136.76662568509346	
84.0	42.40521589883792	ISI	1.0		11.0		baseline	0.0	137.1623120851973	0.09999664943188691
85.0	42.50521254826981	baseline	0.0		48.0		baseline	0.0	137.2623087346292	0.3999896162576988
85.0	42.70532175867993	pulse	0.0	t			baseline	0.0	137.4624179450393	
85.0	42.90520216452751	ISI	1.0		11.0		baseline	0.0	137.66229835088689	0.10000087537355284
86.0	43.00520303990106	baseline	0.0		48.0		baseline	0.0	137.76229922626044	0.39999655887640984
86.0	43.40519959877747	ISI	1.0		11.0		baseline	0.0	138.16229578513685	0.0999857827237065
86.0	43.409797423443706	pulse	1.0	t			baseline	0.0	138.16689360980308	
87.0	43.50518538150118	baseline	0.0		48.0		baseline	0.0	138.26228156786055	0.3999968607295159
87.0	43.905182242230694	ISI	1.0		11.0		baseline	0.0	138.66227842859007	0.10000027166734071
88.0	44.005182513898035	baseline	0.0		48.0		baseline	0.0	138.7622787002574	0.3999796551088366
88.0	44.10529235819922	pulse	0.0	t			baseline	0.0	138.8623885445586	
88.0	44.40516216900687	ISI	1.0		11.0		baseline	0.0	139.16225835536625	0.10001144022771769
89.0	44.50517360923459	baseline	0.0		48.0		baseline	0.0	139.26226979559397	0.3999687884015657
89.0	44.80526286716304	pulse	0.0	t			baseline	0.0	139.5623590535224	
89.0	44.905142397636155	ISI	1.0		11.0		baseline	0.0	139.66223858399553	0.09999815869741724
90.0	45.00514055633357	baseline	0.0		48.0		baseline	0.0	139.76223674269295	0.3999878051390624
90.0	45.405128361472634	ISI	1.0		11.0		baseline	0.0	140.162224547832	0.09999393275484181
91.0	45.505122294227476	baseline	0.0		47.0		baseline	0.0	140.26221848058685	0.4000016903764845
91.0	45.50942641593974	pulse	0.0	t			baseline	0.0	140.26652260229912	
91.0	45.90512398460396	ISI	1.0		11.0		baseline	0.0	140.66222017096334	0.10000932725779421
92.0	46.005133311861755	baseline	0.0		48.0		baseline	0.0	140.76222949822113	0.39996818469535356
92.0	46.205214449943924	pulse	0.0	t			baseline	0.0	140.9623106363033	
92.0	46.40510149655711	ISI	1.0		11.0		baseline	0.0	141.16219768291649	0.09999664943188691
93.0	46.505098145988995	baseline	0.0		48.0		baseline	0.0	141.26219433234837	0.4000053126119383
93.0	46.905103458600934	ISI	1.0		11.0		baseline	0.0	141.6621996449603	0.10000630872764305
93.0	46.90972995930133	pulse	1.0	t			baseline	0.0	141.6668261456607	
94.0	47.00510976732858	baseline	0.0		48.0		baseline	0.0	141.76220595368795	0.3999702976661865
94.0	47.40508006499476	ISI	1.0		11.0		baseline	0.0	142.16217625135414	0.10000479946302221
95.0	47.505084864457785	baseline	0.0		48.0		baseline	0.0	142.26218105081716	0.39998931440368324
95.0	47.60520346249541	pulse	0.0	t			baseline	0.0	142.3622996488548	
95.0	47.90507417886147	ISI	1.0		7.0		baseline	0.0	142.66217036522085	0.11665893420013163
96.0	48.0217331130616	word	0.0		46.0	character	word-42.jpg	0.0	142.77882929942098	0.383290807278172
96.0	48.30517668813536	pulse	0.0	t		character	word-42.jpg	0.0	143.06227287449474	
96.0	48.40502392033977	ISI	1.0		4.0	character	word-42.jpg	0.0	143.16212010669915	0.11669394914588338
97.0	48.521717869485656	word	0.0		46.0	character	word-28.jpg	0.0	143.27881405584503	0.38328567577809736
97.0	48.90500354526375	ISI	1.0		7.0	character	word-28.jpg	0.0	143.66209973162313	0.11669545841050422
98.0	49.02169900367426	word	0.0		45.0	character	word-65.jpg	0.0	143.77879519003363	0.38327843130628025
98.0	49.01164458259882	pulse	0.0	t		character	word-65.jpg	0.0	143.7687407689582	
98.0	49.40497743498054	ISI	1.0		7.0	character	word-65.jpg	0.0	144.1620736213399	0.11674496229989018
99.0	49.52172239728043	word	0.0		46.0	character	word-71.jpg	0.0	144.2788185836398	0.3832536793615873
99.0	49.705105028237085	pulse	0.0	t		character	word-71.jpg	0.0	144.46220121459646	
99.0	49.904976076642015	ISI	1.0		7.0	character	word-71.jpg	0.0	144.6620722630014	0.11670209917610919
100.0	50.021678175818124	word	0.0		46.0	character	word-18.jpg	0.0	144.7787743621775	0.3832877887489303
100.0	50.404965964567054	ISI	1.0		7.0	character	word-18.jpg	0.0	145.16206215092643	0.11670119361679099
100.0	50.44151130545106	pulse	1.0	t		character	word-18.jpg	0.0	145.19860749181044	
101.0	50.521667158183845	word	0.0		46.0	character	word-44.jpg	0.0	145.27876334454322	0.3832509626845422
101.0	50.90491812086839	ISI	1.0		7.0	character	word-44.jpg	0.0	145.66201430722776	0.11669787323444325
102.0	51.02161599410283	word	0.0		46.0	character	word-49.jpg	0.0	145.7787121804622	0.3832832609541583
102.0	51.105028236837825	pulse	0.0	t		character	word-49.jpg	0.0	145.8621244231972	
102.0	51.40489925505699	ISI	1.0		7.0	character	word-49.jpg	0.0	146.16199544141637	0.11668640282096021
103.0	51.52158565787795	word	0.0		46.0	character	word-102.jpg	0.0	146.27868184423733	0.3832998628686255
103.0	51.805002368037094	pulse	0.0	t		character	word-102.jpg	0.0	146.56209855439647	
103.0	51.904885520746575	ISI	1.0		7.0	character	word-102.jpg	0.0	146.66198170710595	0.11668127131997608
104.0	52.02156679206655	word	0.0		46.0	character	word-2.jpg	0.0	146.77866297842593	0.38331948331233434
104.0	52.404886275378885	ISI	1.0		4.0	character	word-2.jpg	0.0	147.16198246173826	0.11668519540853595
105.0	52.52157147078742	word	0.0		45.0	character	word-128.jpg	0.0	147.2786676571468	0.3832923165437023
105.0	52.511404458549805	pulse	0.0	t		character	word-128.jpg	0.0	147.26850064490918	
105.0	52.904863787331124	ISI	1.0		7.0	character	word-128.jpg	0.0	147.6619599736905	0.11673500115193747
106.0	53.02159878848306	word	0.0		46.0	character	word-73.jpg	0.0	147.77869497484244	0.3832470385959823
106.0	53.204968439761615	pulse	0.0	t		character	word-73.jpg	0.0	147.962064626121	
106.0	53.40484582707904	ISI	1.0		7.0	character	word-73.jpg	0.0	148.16194201343842	0.11668036576065788
107.0	53.5215261928397	word	0.0		46.0	character	word-133.jpg	0.0	148.27862237919908	0.3833173703415014
107.0	53.9048435631812	ISI	1.0		4.0	character	word-133.jpg	0.0	148.66193974954058	0.11669304358656518
107.0	53.96406651511643	pulse	1.0	t		character	word-133.jpg	0.0	148.7211627014758	
108.0	54.02153660676777	house	0.0		46.0	place	house-56.jpg	0.0	148.77863279312714	0.3832932221030205
108.0	54.40482982887079	ISI	1.0		7.0	place	house-56.jpg	0.0	149.16192601523016	0.11669062876262615
109.0	54.521520457633414	house	0.0		46.0	place	house-95.jpg	0.0	149.2786166439928	0.38328929801355116
109.0	54.604949302281966	pulse	0.0	t		place	house-95.jpg	0.0	149.36204548864134	
109.0	54.904809755646966	ISI	1.0		7.0	place	house-95.jpg	0.0	149.66190594200634	0.11669787323444325
110.0	55.02150762888141	house	0.0		46.0	place	house-57.jpg	0.0	149.77860381524079	0.3832971461915804
110.0	55.30490290747821	pulse	0.0	t		place	house-57.jpg	0.0	150.06199909383758	
110.0	55.40480477507299	ISI	1.0		7.0	place	house-57.jpg	0.0	150.16190096143237	0.11668911949800531
111.0	55.521493894570995	house	0.0		46.0	place	house-14.jpg	0.0	150.27859008093037	0.3832868831896121
111.0	55.90478077776061	ISI	1.0		5.0	place	house-14.jpg	0.0	150.66187696411998	0.11669455285118602
112.0	56.02147533061179	house	0.0		45.0	place	house-67.jpg	0.0	150.77857151697117	0.38330197583945846
112.0	56.01130258316698	pulse	0.0	t		place	house-67.jpg	0.0	150.76839876952636	
112.0	56.40477730645125	ISI	1.0		6.0	place	house-67.jpg	0.0	151.16187349281063	0.11667855464293098
113.0	56.52145586109418	house	0.0		46.0	place	house-104.jpg	0.0	151.27855204745356	0.3833400093153614
113.0	56.70491908679833	pulse	0.0	t		place	house-104.jpg	0.0	151.4620152731577	
113.0	56.904795870409544	ISI	1.0		7.0	place	house-104.jpg	0.0	151.66189205676892	0.11668881764489925
114.0	57.02148468805444	house	0.0		46.0	place	house-111.jpg	0.0	151.77858087441382	0.38329744804468646
114.0	57.40478213609913	ISI	1.0		5.0	place	house-111.jpg	0.0	152.1618783224585	0.1166728194366442
114.0	57.46056426585892	pulse	1.0	t		place	house-111.jpg	0.0	152.2176604522183	
115.0	57.52145495553577	house	0.0		46.0	place	house-127.jpg	0.0	152.27855114189515	0.38331314439892594
115.0	57.9047680999347	ISI	1.0		7.0	place	house-127.jpg	0.0	152.66186428629408	0.11668610096876364
116.0	58.02145420090346	house	0.0		46.0	place	house-13.jpg	0.0	152.77855038726284	0.38329956101460994
116.0	58.10486916031459	pulse	0.0	t		place	house-13.jpg	0.0	152.86196534667397	
116.0	58.40475376191807	ISI	1.0		7.0	place	house-13.jpg	0.0	153.16184994827745	0.11669515655739815
117.0	58.52144891847547	house	0.0		46.0	place	house-13.jpg	1.0	153.27854510483485	0.3832745072177204
117.0	58.80484842301394	pulse	0.0	t		place	house-13.jpg	1.0	153.5619446093733	
117.0	58.90472342569319	ISI	1.0		6.0	place	house-13.jpg	1.0	153.66181961205257	0.11674858453625347
117.0	58.9798763670542	response	1.0	b		place	house-13.jpg	1.0	153.73697255341358	
118.0	59.021472010229445	house	0.0		46.0	place	house-29.jpg	0.0	153.77856819658882	0.38324854786060314
118.0	59.40472055809005	ISI	1.0		7.0	place	house-29.jpg	0.0	154.16181674444942	0.11669455285118602
119.0	59.521415110941234	house	0.0		45.0	place	house-40.jpg	0.0	154.2785112973006	0.38329925916241336
119.0	59.51140385484359	pulse	0.0	t		place	house-40.jpg	0.0	154.26850004120297	
119.0	59.90471437010365	ISI	1.0		7.0	place	house-40.jpg	0.0	154.66181055646302	0.11669726952823112
120.0	60.02141163963188	body	0.0		46.0	body	body-57.jpg	0.0	154.77850782599126	0.3832814498364314
120.0	60.20481600400399	pulse	0.0	t		body	body-57.jpg	0.0	154.96191219036336	
120.0	60.40469308946831	ISI	1.0		7.0	body	body-57.jpg	0.0	155.1617892758277	0.11670149546989705
121.0	60.52139458493821	body	0.0		46.0	body	body-99.jpg	0.0	155.27849077129758	0.3832932221030205
121.0	60.90468780704123	ISI	1.0		7.0	body	body-99.jpg	0.0	155.6617839934006	0.11669666582201899
121.0	60.94112266973298	pulse	1.0	t		body	body-99.jpg	0.0	155.69821885609235	
122.0	61.02138447286325	body	0.0		46.0	body	body-105.jpg	0.0	155.77848065922262	0.3832908072790815
122.0	61.40467528014233	ISI	1.0		7.0	body	body-105.jpg	0.0	156.1617714665017	0.11669153432194435
123.0	61.52136681446427	body	0.0		46.0	body	body-108.jpg	0.0	156.27846300082365	0.38329322210211103
123.0	61.604783886846235	pulse	0.0	t		body	body-108.jpg	0.0	156.3618800732056	
123.0	61.90466003656638	ISI	1.0		7.0	body	body-108.jpg	0.0	156.66175622292576	0.11669394914588338
124.0	62.02135398571227	body	0.0		46.0	body	body-108.jpg	1.0	156.77845017207164	0.38329322210211103
124.0	62.30477311069444	pulse	0.0	t		body	body-108.jpg	1.0	157.06186929705382	
124.0	62.40464720781438	ISI	1.0		7.0	body	body-108.jpg	1.0	157.16174339417375	0.11670873994171416
125.0	62.52135594775609	body	0.0		46.0	body	body-79.jpg	0.0	157.27845213411547	0.3832787331593863
125.0	62.54642363074163	response	0.0	b		body	body-79.jpg	0.0	157.303519817101	
125.0	62.90463468091548	ISI	1.0		7.0	body	body-79.jpg	0.0	157.66173086727485	0.11668610096785414
126.0	63.02132078188333	body	0.0		45.0	body	body-92.jpg	0.0	157.7784169682427	0.38330046657483763
126.0	63.01127783122229	pulse	0.0	t		body	body-92.jpg	0.0	157.76837401758166	
126.0	63.40462124845817	ISI	1.0		7.0	body	body-92.jpg	0.0	158.16171743481755	0.11669485470429208
127.0	63.52131610316246	body	0.0		46.0	body	body-19.jpg	0.0	158.27841228952184	0.38325126453764824
127.0	63.704702960060786	pulse	0.0	t		body	body-19.jpg	0.0	158.46179914642016	
127.0	63.90456736770011	ISI	1.0		7.0	body	body-19.jpg	0.0	158.6616635540595	0.11669787323444325
128.0	64.02126524093455	body	0.0		46.0	body	body-104.jpg	0.0	158.77836142729393	0.3832868831896121
128.0	64.40455212412417	ISI	1.0		7.0	body	body-104.jpg	0.0	159.16164831048354	0.11670028805838228
128.0	64.44047564785978	pulse	1.0	t		body	body-104.jpg	0.0	159.19757183421916	
129.0	64.52125241218255	body	0.0		46.0	body	body-4.jpg	0.0	159.27834859854192	0.3832944295145353
129.0	64.90454684169708	ISI	1.0		7.0	body	body-4.jpg	0.0	159.66164302805646	0.11669153432194435
130.0	65.02123837601903	body	0.0		46.0	body	body-116.jpg	0.0	159.7783345623784	0.38329744804377697
130.0	65.1046560521072	pulse	0.0	t		body	body-116.jpg	0.0	159.86175223846658	
130.0	65.4045358240628	ISI	1.0		7.0	body	body-116.jpg	0.0	160.16163201042218	0.11668911949800531
131.0	65.52122494356081	body	0.0		46.0	body	body-18.jpg	0.0	160.2783211299202	0.3832889961613546
131.0	65.80462837218874	pulse	0.0	t		body	body-18.jpg	0.0	160.56172455854812	
131.0	65.90451393972216	ISI	1.0		7.0	body	body-18.jpg	0.0	160.66161012608154	0.11671598441353126
132.0	66.0212299241357	car	0.0		46.0	object	car-91.jpg	0.0	160.77832611049507	0.38326364050954
132.0	66.40449356464524	ISI	1.0		7.0	object	car-91.jpg	0.0	161.1615897510046	0.11668821393868711
133.0	66.52118177858392	car	0.0		45.0	object	car-95.jpg	0.0	161.2782779649433	0.3833134462529415
133.0	66.51112132045	pulse	0.0	t		object	car-95.jpg	0.0	161.26821750680938	
133.0	66.90449522483686	ISI	1.0		7.0	object	car-95.jpg	0.0	161.66159141119624	0.11669062876262615
134.0	67.02118585359949	car	0.0		46.0	object	car-83.jpg	0.0	161.77828203995887	0.38329412766142923
134.0	67.20461979956326	pulse	0.0	t		object	car-83.jpg	0.0	161.96171598592264	
134.0	67.40447998126092	ISI	1.0		7.0	object	car-83.jpg	0.0	162.1615761676203	0.11668791208558105
135.0	67.5211678933465	car	0.0		46.0	object	car-103.jpg	0.0	162.27826407970588	0.38329774989779253
135.0	67.9044656432443	ISI	1.0		7.0	object	car-103.jpg	0.0	162.66156182960367	0.11669062876262615
135.0	67.93995419682778	pulse	1.0	t		object	car-103.jpg	0.0	162.69705038318716	
136.0	68.02115627200692	car	0.0		46.0	object	car-58.jpg	0.0	162.7782524583663	0.3832971461915804
136.0	68.4044534181985	ISI	1.0		7.0	object	car-58.jpg	0.0	163.16154960455788	0.11669274173345912
137.0	68.52114615993196	car	0.0		46.0	object	car-42.jpg	0.0	163.27824234629134	0.3832935239552171
137.0	68.60459583243664	pulse	0.0	t		object	car-42.jpg	0.0	163.36169201879602	
137.0	68.90443968388718	ISI	1.0		7.0	object	car-42.jpg	0.0	163.66153587024655	0.11669032691042958
138.0	69.0211300107976	car	0.0		46.0	object	car-50.jpg	0.0	163.77822619715698	0.38329503321983793
138.0	69.3045760006953	pulse	0.0	t		object	car-50.jpg	0.0	164.06167218705468	
138.0	69.40442504401744	ISI	1.0		7.0	object	car-50.jpg	0.0	164.16152123037682	0.1166782527907344
139.0	69.52110329680818	car	0.0		46.0	object	car-141.jpg	0.0	164.27819948316755	0.38334121672687616
139.0	69.90444451353505	ISI	1.0		7.0	object	car-141.jpg	0.0	164.66154069989443	0.11668881764489925
140.0	70.02113333117995	car	0.0		45.0	object	car-85.jpg	0.0	164.77822951753933	0.3832989573093073
140.0	70.01106834525126	pulse	0.0	t		object	car-85.jpg	0.0	164.76816453161064	
140.0	70.40443228848926	ISI	1.0		7.0	object	car-85.jpg	0.0	165.16152847484864	0.11669213802815648
141.0	70.52112442651742	car	0.0		46.0	object	car-13.jpg	0.0	165.2782206128768	0.38329201469059626
141.0	70.70454237427293	pulse	0.0	t		object	car-13.jpg	0.0	165.4616385606323	
141.0	70.90441644120801	ISI	1.0		7.0	object	car-13.jpg	0.0	165.6615126275674	0.11669274173345912
142.0	71.02110918294147	car	0.0		46.0	object	car-121.jpg	0.0	165.77820536930085	0.38329563692605007
142.0	71.40440481986752	ISI	1.0		7.0	object	car-121.jpg	0.0	166.1615010062269	0.11669153432194435
142.0	71.4411496855746	pulse	1.0	t		object	car-121.jpg	0.0	166.19824587193398	
143.0	71.52109635418947	car	0.0		46.0	object	car-28.jpg	0.0	166.27819254054884	0.38329473136764136
143.0	71.90439108555711	ISI	1.0		7.0	object	car-28.jpg	0.0	166.66148727191649	0.11672443629686313
144.0	72.02111552185397	house	0.0		46.0	place	house-103.jpg	0.0	166.77821170821335	0.38326122568651044
144.0	72.10450210708495	pulse	0.0	t		place	house-103.jpg	0.0	166.86159829344433	
144.0	72.40437674754048	ISI	1.0		4.0	place	house-103.jpg	0.0	167.16147293389986	0.11669243988035305
145.0	72.52106918742084	house	0.0		46.0	place	house-126.jpg	0.0	167.2781653737802	0.38328477021877916
145.0	72.80447020122392	pulse	0.0	t		place	house-126.jpg	0.0	167.5615663875833	
145.0	72.90435395763961	ISI	1.0		7.0	place	house-126.jpg	0.0	167.661450143999	0.11670451400004822
146.0	73.02105847163966	house	0.0		46.0	place	house-121.jpg	0.0	167.77815465799904	0.3832600182740862
146.0	73.40431848991375	ISI	1.0		7.0	place	house-121.jpg	0.0	168.16141467627313	0.11668610096876364
147.0	73.52100459088251	house	0.0		45.0	place	house-121.jpg	1.0	168.2781007772419	0.38329865545620123
147.0	73.51092964380405	pulse	0.0	t		place	house-121.jpg	1.0	168.26802583016342	
147.0	73.90430324633871	ISI	1.0		6.0	place	house-121.jpg	1.0	168.6613994326981	0.10834801596502075
147.0	73.98778099117044	response	1.0	b		place	house-121.jpg	1.0	168.74487717752982	
148.0	74.01265126230373	house	0.0		47.0	place	house-26.jpg	0.0	168.7697474486631	0.3916394571360797
148.0	74.20442178400572	pulse	0.0	t		place	house-26.jpg	0.0	168.9615179703651	
148.0	74.40429071943981	ISI	1.0		7.0	place	house-26.jpg	0.0	169.1613869057992	0.11667372499505291
149.0	74.52096444443487	house	0.0		46.0	place	house-80.jpg	0.0	169.27806063079424	0.38331374810604757
149.0	74.90427819254091	ISI	1.0		7.0	place	house-80.jpg	0.0	169.6613743789003	0.11668278058459691
149.0	74.94130136669992	pulse	1.0	t		place	house-80.jpg	0.0	169.6983975530593	
150.0	75.02096097312551	house	0.0		46.0	place	house-61.jpg	0.0	169.7780571594849	0.38329412766142923
150.0	75.40425510078694	ISI	1.0		5.0	place	house-61.jpg	0.0	170.16135128714632	0.11669183617505041
151.0	75.52094693696199	house	0.0		46.0	place	house-125.jpg	0.0	170.27804312332137	0.38329412766142923
151.0	75.60436974455115	pulse	0.0	t		place	house-125.jpg	0.0	170.36146593091053	
151.0	75.90424106462342	ISI	1.0		7.0	place	house-125.jpg	0.0	170.6613372509828	0.11670179732300312
152.0	76.02094286194642	house	0.0		46.0	place	house-142.jpg	0.0	170.7780390483058	0.38329382580832316
152.0	76.30435685542852	pulse	0.0	t		place	house-142.jpg	0.0	171.0614530417879	
152.0	76.40423668775475	ISI	1.0		7.0	place	house-142.jpg	0.0	171.16133287411412	0.11669123246883828
153.0	76.52092792022358	house	0.0		46.0	place	house-73.jpg	0.0	171.27802410658296	0.3832778276009776
153.0	76.90420574782456	ISI	1.0		7.0	place	house-73.jpg	0.0	171.66130193418394	0.11670421214694215
154.0	77.0209099599715	house	0.0		45.0	place	house-106.jpg	0.0	171.77800614633088	0.3832926183958989
154.0	77.01095333926332	pulse	0.0	t		place	house-106.jpg	0.0	171.7680495256227	
154.0	77.4042025783674	ISI	1.0		7.0	place	house-106.jpg	0.0	172.16129876472678	0.11669606211671635
155.0	77.52089864048412	house	0.0		46.0	place	house-62.jpg	0.0	172.2779948268435	0.38329412766142923
155.0	77.70434345315607	pulse	0.0	t		place	house-62.jpg	0.0	172.46143963951545	
155.0	77.90419276814555	ISI	1.0		7.0	place	house-62.jpg	0.0	172.66128895450493	0.11669455285209551
156.0	78.02088732099764	car	0.0		46.0	object	car-74.jpg	0.0	172.77798350735702	0.38329563692605007
156.0	78.4041829579237	ISI	1.0		7.0	object	car-74.jpg	0.0	173.16127914428307	0.11668942135111138
156.0	78.44100570170122	pulse	1.0	t		object	car-74.jpg	0.0	173.1981018880606	
157.0	78.5208723792748	car	0.0		46.0	object	car-55.jpg	0.0	173.27796856563418	0.38329654248536826
157.0	78.90416892176017	ISI	1.0		7.0	object	car-55.jpg	0.0	173.66126510811955	0.11669515655739815
158.0	79.02086407831757	car	0.0		46.0	object	car-37.jpg	0.0	173.77796026467695	0.38332853890187835
158.0	79.10430197855567	pulse	0.0	t		object	car-37.jpg	0.0	173.86139816491504	
158.0	79.40419261721945	ISI	1.0		7.0	object	car-37.jpg	0.0	174.16128880357883	0.11668881764489925
159.0	79.52088143486435	car	0.0		46.0	object	car-16.jpg	0.0	174.27797762122373	0.38329201469059626
159.0	79.8042739967841	pulse	0.0	t		object	car-16.jpg	0.0	174.56137018314348	
159.0	79.90417344955495	ISI	1.0		7.0	object	car-16.jpg	0.0	174.66126963591432	0.11669364729277731
160.0	80.02086709684772	car	0.0		46.0	object	car-118.jpg	0.0	174.7779632832071	0.3832877887489303
160.0	80.40415488559665	ISI	1.0		7.0	object	car-118.jpg	0.0	175.16125107195603	0.11669364729186782
161.0	80.52084853288852	car	0.0		45.0	object	car-118.jpg	1.0	175.2779447192479	0.38330680548733653
161.0	80.51098971254851	pulse	0.0	t		object	car-118.jpg	1.0	175.26808589890788	
161.0	80.90415533837586	ISI	1.0		7.0	object	car-118.jpg	1.0	175.66125152473523	0.11668519540853595
162.0	81.0208405337844	car	0.0		45.0	object	car-1.jpg	0.0	175.77793672014377	0.38329412766142923
162.0	81.20424580371491	response	0.0	b		object	car-1.jpg	0.0	175.9613419900743	
162.0	81.20437409123406	pulse	0.0	t		object	car-1.jpg	0.0	175.96147027759343	
162.0	81.40413466144582	ISI	1.0		7.0	object	car-1.jpg	0.0	176.1612308478052	0.11669787323444325
163.0	81.52083253468027	car	0.0		46.0	object	car-114.jpg	0.0	176.27792872103964	0.3832832609541583
163.0	81.90411579563443	ISI	1.0		7.0	object	car-114.jpg	0.0	176.6612119819938	0.11669787323444325
163.0	81.94064876054654	pulse	1.0	t		object	car-114.jpg	0.0	176.6977449469059	
164.0	82.02081366886887	car	0.0		46.0	object	car-25.jpg	0.0	176.77790985522824	0.38329473136764136
164.0	82.40410840023651	ISI	1.0		7.0	object	car-25.jpg	0.0	177.1612045865959	0.11669213802815648
165.0	82.52080053826467	car	0.0		46.0	object	car-19.jpg	0.0	177.27789672462404	0.3832600182740862
165.0	82.60424779594541	pulse	0.0	t		object	car-19.jpg	0.0	177.3613439823048	
165.0	82.90406055653875	ISI	1.0		7.0	object	car-19.jpg	0.0	177.66115674289813	0.11669093061573221
166.0	83.02075148715448	car	0.0		46.0	object	car-101.jpg	0.0	177.77784767351386	0.38328386465946096
166.0	83.30415944357628	pulse	0.0	t		object	car-101.jpg	0.0	178.06125562993566	
166.0	83.40403535181395	ISI	1.0		7.0	object	car-101.jpg	0.0	178.16113153817332	0.11668610096785414
167.0	83.5207214527818	car	0.0		46.0	object	car-122.jpg	0.0	178.27781763914118	0.3833052962227157
167.0	83.90402674900452	ISI	1.0		7.0	object	car-122.jpg	0.0	178.6611229353639	0.11669243988035305
168.0	84.02071918888487	car	0.0		45.0	object	car-24.jpg	0.0	178.77781537524424	0.38330016472082207
168.0	84.01093945402681	pulse	0.0	t		object	car-24.jpg	0.0	178.7680356403862	
168.0	84.40401935360569	ISI	1.0		7.0	object	car-24.jpg	0.0	179.16111553996507	0.11669123246883828
169.0	84.52071058607453	car	0.0		46.0	object	car-120.jpg	0.0	179.2778067724339	0.3832899017197633
169.0	84.7041315523602	pulse	0.0	t		object	car-120.jpg	0.0	179.46122773871957	
169.0	84.90400048779429	ISI	1.0		7.0	object	car-120.jpg	0.0	179.66109667415367	0.11671598441353126
170.0	85.02071647220782	car	0.0		46.0	object	car-120.jpg	1.0	179.7778126585672	0.3832609238334044
170.0	85.40397739604123	ISI	1.0		7.0	object	car-120.jpg	1.0	180.1610735824006	0.11668881764489925
170.0	85.43987133818337	pulse	1.0	t		object	car-120.jpg	1.0	180.19696752454274	
171.0	85.52066621368613	car	0.0		46.0	object	car-31.jpg	0.0	180.2777624000455	0.3833146536644563
171.0	85.90398086735058	ISI	1.0		7.0	object	car-31.jpg	0.0	180.66107705370996	0.11669183617414092
172.0	86.02067270352472	car	0.0		46.0	object	car-84.jpg	0.0	180.7777688898841	0.3832950332207474
172.0	86.10428205625885	pulse	0.0	t		object	car-84.jpg	0.0	180.86137824261823	
172.0	86.40396773674547	ISI	1.0		7.0	object	car-84.jpg	0.0	181.16106392310485	0.11669002505732351
173.0	86.5206577618028	car	0.0		46.0	object	car-51.jpg	0.0	181.27775394816217	0.38328869430733903
173.0	86.80415325558988	pulse	0.0	t		object	car-51.jpg	0.0	181.56124944194926	
173.0	86.90394645611013	ISI	1.0		7.0	object	car-51.jpg	0.0	181.6610426424695	0.11669757138133718
174.0	87.02064402749147	car	0.0		46.0	object	car-33.jpg	0.0	181.77774021385085	0.3832962406322622
174.0	87.40394026812373	ISI	1.0		7.0	object	car-33.jpg	0.0	182.1610364544831	0.11668791208649054
175.0	87.52062818021022	car	0.0		45.0	object	car-46.jpg	0.0	182.2777243665696	0.383284166512567
175.0	87.51078083028278	pulse	0.0	t		object	car-46.jpg	0.0	182.26787701664216	
175.0	87.90391234672279	ISI	1.0		4.0	object	car-46.jpg	0.0	182.66100853308217	0.11670330658853345
176.0	88.02061565331132	car	0.0		46.0	object	car-106.jpg	0.0	182.7777118396707	0.3832844683656731
176.0	88.20406439007093	pulse	0.0	t		object	car-106.jpg	0.0	182.9611605764303	
176.0	88.403900121677	ISI	1.0		7.0	object	car-106.jpg	0.0	183.16099630803637	0.11670662697088119
177.0	88.52060674864788	car	0.0		46.0	object	car-143.jpg	0.0	183.27770293500726	0.3833282370487723
177.0	88.90393498569665	ISI	1.0		5.0	object	car-143.jpg	0.0	183.66103117205603	0.11668942135111138
177.0	88.95655429988074	pulse	1.0	t		object	car-143.jpg	0.0	183.7136504862401	
178.0	89.02062440704776	car	0.0		46.0	object	car-116.jpg	0.0	183.77772059340714	0.38328658133650606
178.0	89.40391098838427	ISI	1.0		7.0	object	car-116.jpg	0.0	184.16100717474365	0.11670240102921525
179.0	89.52061338941348	car	0.0		46.0	object	car-17.jpg	0.0	184.27770957577286	0.3832908072790815
179.0	89.6041282621627	pulse	0.0	t		object	car-17.jpg	0.0	184.36122444852208	
179.0	89.90390419669257	ISI	1.0		7.0	object	car-17.jpg	0.0	184.66100038305194	0.11669183617414092
180.0	90.0205960328667	adult	0.0		46.0	face	adult-124.jpg	0.0	184.77769221922608	0.38329382580832316
180.0	90.30401153561343	pulse	0.0	t		face	adult-124.jpg	0.0	185.0611077219728	
180.0	90.40388985867503	ISI	1.0		7.0	face	adult-124.jpg	0.0	185.1609860450344	0.11669304358747468
181.0	90.5205829022625	adult	0.0		46.0	face	adult-36.jpg	0.0	185.27767908862188	0.38329865545620123
181.0	90.9038815577187	ISI	1.0		7.0	face	adult-36.jpg	0.0	185.66097774407808	0.11670904179482022
182.0	91.02059059951353	adult	0.0		45.0	face	adult-41.jpg	0.0	185.7776867858729	0.38327480906991696
182.0	91.0108766686053	pulse	0.0	t		face	adult-41.jpg	0.0	185.76797285496468	
182.0	91.40386540858344	ISI	1.0		7.0	face	adult-41.jpg	0.0	186.16096159494282	0.11667704537831014
183.0	91.52054245396175	adult	0.0		46.0	face	adult-121.jpg	0.0	186.27763864032113	0.38330016472173156
183.0	91.70396462765984	pulse	0.0	t		face	adult-121.jpg	0.0	186.46106081401922	
183.0	91.90384261868348	ISI	1.0		7.0	face	adult-121.jpg	0.0	186.66093880504286	0.11670360844073002
184.0	92.02054622712421	adult	0.0		46.0	face	adult-24.jpg	0.0	186.7776424134836	0.3832509626845422
184.0	92.40379718980876	ISI	1.0		7.0	face	adult-24.jpg	0.0	187.16089337616813	0.11669817508754932
184.0	92.44021846911619	pulse	1.0	t		face	adult-24.jpg	0.0	187.19731465547557	
185.0	92.5204953648963	adult	0.0		46.0	face	adult-100.jpg	0.0	187.27759155125568	0.3832868831896121
185.0	92.90378224808592	ISI	1.0		7.0	face	adult-100.jpg	0.0	187.6608784344453	0.11670028805838228
186.0	93.0204825361443	adult	0.0		46.0	face	adult-52.jpg	0.0	187.77757872250368	0.38328748689582426
186.0	93.103901721498	pulse	0.0	t		face	adult-52.jpg	0.0	187.86099790785738	
186.0	93.40377002304012	ISI	1.0		7.0	face	adult-52.jpg	0.0	188.1608662093995	0.11669787323444325
187.0	93.52046789627457	adult	0.0		46.0	face	adult-52.jpg	1.0	188.27756408263394	0.38330016472173156
187.0	93.80387524899106	pulse	0.0	t		face	adult-52.jpg	1.0	188.56097143535044	
187.0	93.9037680609963	ISI	1.0		7.0	face	adult-52.jpg	1.0	188.66086424735568	0.11668670467406628
187.0	93.94561424214862	response	1.0	b		face	adult-52.jpg	1.0	188.702710428508	
188.0	94.02045476567037	adult	0.0		46.0	face	adult-78.jpg	0.0	188.77755095202974	0.3832899017197633
188.0	94.40374466739013	ISI	1.0		7.0	face	adult-78.jpg	0.0	189.1608408537495	0.11669062876262615
189.0	94.52043529615275	adult	0.0		45.0	face	adult-85.jpg	0.0	189.27753148251213	0.38329473136764136
189.0	94.510750644984	pulse	0.0	t		face	adult-85.jpg	0.0	189.26784683134338	
189.0	94.9037300275204	ISI	1.0		7.0	face	adult-85.jpg	0.0	189.66082621387977	0.11669817508663982
190.0	95.02042820260704	adult	0.0		46.0	face	adult-72.jpg	0.0	189.7775243889664	0.38329563692695956
190.0	95.20383467994998	pulse	0.0	t		face	adult-72.jpg	0.0	189.96093086630935	
190.0	95.403723839534	ISI	1.0		4.0	face	adult-72.jpg	0.0	190.16082002589337	0.11669093061573221
191.0	95.52041477014973	adult	0.0		46.0	face	adult-113.jpg	0.0	190.2775109565091	0.38328869430733903
191.0	95.90370346445707	ISI	1.0		6.0	face	adult-113.jpg	0.0	190.66079965081644	0.11669787323444325
191.0	95.9443371021689	pulse	1.0	t		face	adult-113.jpg	0.0	190.70143328852828	
192.0	96.02040133769151	body	0.0		46.0	body	body-119.jpg	0.0	190.7774975240509	0.3832899017197633
192.0	96.40369123941127	ISI	1.0		7.0	body	body-119.jpg	0.0	191.16078742577065	0.11669485470429208
193.0	96.52038609411557	body	0.0		46.0	body	body-91.jpg	0.0	191.27748228047494	0.3832696775698423
193.0	96.60385810374191	pulse	0.0	t		body	body-91.jpg	0.0	191.3609542901013	
193.0	96.90365577168541	ISI	1.0		7.0	body	body-91.jpg	0.0	191.66075195804478	0.11671719182595552
194.0	97.02037296351136	body	0.0		46.0	body	body-65.jpg	0.0	191.77746914987074	0.38329050542506593
194.0	97.30382468861626	pulse	0.0	t		body	body-65.jpg	0.0	192.06092087497564	
194.0	97.40366346893643	ISI	1.0		7.0	body	body-65.jpg	0.0	192.1607596552958	0.11669606211671635
195.0	97.52035953105315	body	0.0		46.0	body	body-1.jpg	0.0	192.27745571741252	0.3832971461915804
195.0	97.90365667724473	ISI	1.0		7.0	body	body-1.jpg	0.0	192.6607528636041	0.11669515655739815
196.0	98.02035183380212	body	0.0		45.0	body	body-125.jpg	0.0	192.7774480201615	0.38331857775301614
196.0	98.01068227528322	pulse	0.0	t		body	body-125.jpg	0.0	192.7677784616426	
196.0	98.40367041155514	ISI	1.0		7.0	body	body-125.jpg	0.0	193.16076659791452	0.1166773472314162
197.0	98.52034775878656	body	0.0		46.0	body	body-101.jpg	0.0	193.27744394514593	0.3833125406936233
197.0	98.70377113989616	pulse	0.0	t		body	body-101.jpg	0.0	193.46086732625554	
197.0	98.90366029948018	ISI	1.0		7.0	body	body-101.jpg	0.0	193.66075648583956	0.11669485470520158
198.0	99.02035515418538	body	0.0		46.0	body	body-117.jpg	0.0	193.77745134054476	0.38329292024900496
198.0	99.40364807443439	ISI	1.0		7.0	body	body-117.jpg	0.0	194.16074426079376	0.11669213802815648
198.0	99.44019522643612	pulse	1.0	t		body	body-117.jpg	0.0	194.1972914127955	
199.0	99.52034021246254	body	0.0		46.0	body	body-15.jpg	0.0	194.27743639882192	0.38329382580832316
199.0	99.90363403827087	ISI	1.0		7.0	body	body-15.jpg	0.0	194.66073022463024	0.11669334543967125
200.0	100.02032738371054	body	0.0		46.0	body	body-102.jpg	0.0	194.7774235700699	0.38327209239378135
200.0	100.10374687091644	pulse	0.0	t		body	body-102.jpg	0.0	194.86084305727582	
200.0	100.40359947610432	ISI	1.0		7.0	body	body-102.jpg	0.0	195.1606956624637	0.11675703641958535
201.0	100.5203565125239	body	0.0		46.0	body	body-56.jpg	0.0	195.27745269888328	0.38323677559401403
201.0	100.80371707802715	pulse	0.0	t		body	body-56.jpg	0.0	195.56081326438652	
201.0	100.90359328811792	ISI	1.0		7.0	body	body-56.jpg	0.0	195.6606894744773	0.11668911949800531
202.0	101.02028240761592	body	0.0		46.0	body	body-123.jpg	0.0	195.7773785939753	0.38329774989688303
202.0	101.4035801575128	ISI	1.0		7.0	body	body-123.jpg	0.0	196.16067634387218	0.11670028805838228
203.0	101.52028044557119	body	0.0		45.0	body	body-126.jpg	0.0	196.27737663193057	0.3832917128374902
203.0	101.51177241733876	pulse	0.0	t		body	body-126.jpg	0.0	196.26886860369814	
203.0	101.90357215840868	ISI	1.0		4.0	body	body-126.jpg	0.0	196.66066834476806	0.11670421214694215
204.0	102.02027637055562	body	0.0		46.0	body	body-55.jpg	0.0	196.777372556915	0.3832832609541583
204.0	102.20369371460583	pulse	0.0	t		body	body-55.jpg	0.0	196.9607899009652	
204.0	102.40355963150978	ISI	1.0		7.0	body	body-55.jpg	0.0	197.16065581786916	0.11669938249997358
205.0	102.52025901400975	body	0.0		46.0	body	body-45.jpg	0.0	197.27735520036913	0.38328839245423296
205.0	102.90354740646399	ISI	1.0		7.0	body	body-45.jpg	0.0	197.66064359282336	0.11669726952823112
205.0	102.93969490511427	pulse	1.0	t		body	body-45.jpg	0.0	197.69679109147364	
206.0	103.02024467599222	body	0.0		46.0	body	body-118.jpg	0.0	197.7773408623516	0.3832814498364314
206.0	103.40352612582865	ISI	1.0		7.0	body	body-118.jpg	0.0	198.16062231218802	0.11668881764489925
207.0	103.52021494347355	body	0.0		46.0	body	body-28.jpg	0.0	198.27731112983292	0.3833098240165782
207.0	103.60364529738672	pulse	0.0	t		body	body-28.jpg	0.0	198.3607414837461	
207.0	103.90352476749013	ISI	1.0		7.0	body	body-28.jpg	0.0	198.6606209538495	0.11670632511777512
208.0	104.0202310926079	body	0.0		46.0	body	body-107.jpg	0.0	198.77732727896728	0.38327118683537265
208.0	104.30362184340993	pulse	0.0	t		body	body-107.jpg	0.0	199.0607180297693	
208.0	104.40350227944327	ISI	1.0		7.0	body	body-107.jpg	0.0	199.16059846580265	0.11670330658762396
209.0	104.5202055860309	body	0.0		46.0	body	body-35.jpg	0.0	199.27730177239027	0.3832527738022691
209.0	104.90345835983317	ISI	1.0		7.0	body	body-35.jpg	0.0	199.66055454619254	0.11669545841050422
210.0	105.02015381824367	body	0.0		45.0	body	body-138.jpg	0.0	199.77725000460305	0.38329201469059626
210.0	105.0107501922048	pulse	0.0	t		body	body-138.jpg	0.0	199.76784637856417	
210.0	105.40344583293427	ISI	1.0		7.0	body	body-138.jpg	0.0	200.16054201929364	0.11669998620527622
211.0	105.52014581913954	body	0.0		46.0	body	body-106.jpg	0.0	200.27724200549892	0.3832859776312034
211.0	105.70355169277627	pulse	0.0	t		body	body-106.jpg	0.0	200.46064787913565	
211.0	105.90343179677075	ISI	1.0		7.0	body	body-106.jpg	0.0	200.66052798313012	0.11669938249906409
212.0	106.02013117926981	body	0.0		46.0	body	body-87.jpg	0.0	200.7772273656292	0.38329925916241336
212.0	106.40343043843222	ISI	1.0		7.0	body	body-87.jpg	0.0	201.1605266247916	0.1166701027595991
212.0	106.43945478106434	pulse	1.0	t		body	body-87.jpg	0.0	201.19655096742372	
213.0	106.52010054119182	body	0.0		46.0	body	body-96.jpg	0.0	201.2771967275512	0.38330469251650356
213.0	106.90340523370833	ISI	1.0		7.0	body	body-96.jpg	0.0	201.6605014200677	0.11667946020224917
214.0	107.02008469391058	body	0.0		46.0	body	body-103.jpg	0.0	201.77718088026995	0.38331495551756234
214.0	107.10355489241829	pulse	0.0	t		body	body-103.jpg	0.0	201.86065107877766	
214.0	107.40339964942814	ISI	1.0		7.0	body	body-103.jpg	0.0	202.16049583578751	0.11669153432194435
215.0	107.52009118375008	body	0.0		46.0	body	body-110.jpg	0.0	202.27718737010946	0.38328658133650606
215.0	107.80349249940627	pulse	0.0	t		body	body-110.jpg	0.0	202.56058868576565	
215.0	107.90337776508659	ISI	1.0		4.0	body	body-110.jpg	0.0	202.66047395144597	0.11667885649603704
216.0	108.02005662158263	word	0.0		46.0	character	word-26.jpg	0.0	202.777152807942	0.3833146536644563
216.0	108.40337127524708	ISI	1.0		6.0	character	word-26.jpg	0.0	203.16046746160646	0.11667432870217453
217.0	108.52004560394926	word	0.0		45.0	character	word-114.jpg	0.0	203.27714179030863	0.3833116351343051
217.0	108.51059519069713	pulse	0.0	t		character	word-114.jpg	0.0	203.2676913770565	
217.0	108.90335723908356	ISI	1.0		6.0	character	word-114.jpg	0.0	203.66045342544294	0.11668761023338448
218.0	109.02004484931695	word	0.0		46.0	character	word-140.jpg	0.0	203.77714103567632	0.38329201469059626
218.0	109.20344740257042	pulse	0.0	t		character	word-140.jpg	0.0	203.9605435889298	
218.0	109.40333686400754	ISI	1.0		7.0	character	word-140.jpg	0.0	204.16043305036692	0.11668821393868711
219.0	109.52002507794623	word	0.0		46.0	character	word-110.jpg	0.0	204.2771212643056	0.383299862867716
219.0	109.90332494081395	ISI	1.0		7.0	character	word-110.jpg	0.0	204.66042112717332	0.11670692882398725
219.0	109.9403888651268	pulse	1.0	t		character	word-110.jpg	0.0	204.69748505148618	
220.0	110.02003186963793	word	0.0		46.0	character	word-13.jpg	0.0	204.7771280559973	0.38327752574787155
220.0	110.4033093953858	ISI	1.0		4.0	character	word-13.jpg	0.0	205.16040558174518	0.11669908064595802
221.0	110.52000847603176	word	0.0		46.0	character	word-62.jpg	0.0	205.27710466239114	0.3833191814592283
221.0	110.60346388374273	pulse	0.0	t		character	word-62.jpg	0.0	205.3605600701021	
221.0	110.90332765749099	ISI	1.0		7.0	character	word-62.jpg	0.0	205.66042384385037	0.11670421214694215
222.0	111.02003186963793	word	0.0		46.0	character	word-117.jpg	0.0	205.7771280559973	0.38325126453764824
222.0	111.30339877405459	pulse	0.0	t		character	word-117.jpg	0.0	206.06049496041396	
222.0	111.40328313417558	ISI	1.0		7.0	character	word-117.jpg	0.0	206.16037932053496	0.11667976205535524
223.0	111.51996289623094	word	0.0		46.0	character	word-121.jpg	0.0	206.2770590825903	0.38331314439983544
223.0	111.90327604063077	ISI	1.0		7.0	character	word-121.jpg	0.0	206.66037222699015	0.11668610096785414
224.0	112.01996214159863	word	0.0		45.0	character	word-139.jpg	0.0	206.777058327958	0.3832980517499891
224.0	112.0104860708434	pulse	0.0	t		character	word-139.jpg	0.0	206.76758225720278	
224.0	112.40326019334861	ISI	1.0		7.0	character	word-139.jpg	0.0	207.160356379708	0.11669364729277731
225.0	112.51995384064139	word	0.0		46.0	character	word-27.jpg	0.0	207.27705002700077	0.38329141098438413
225.0	112.70336001613123	pulse	0.0	t		character	word-27.jpg	0.0	207.4604562024906	
225.0	112.90324525162578	ISI	1.0		4.0	character	word-27.jpg	0.0	207.66034143798515	0.1166782527907344
226.0	113.01992350441651	word	0.0		46.0	character	word-90.jpg	0.0	207.7770196907759	0.3833043906633975
226.0	113.40322789507991	ISI	1.0		7.0	character	word-90.jpg	0.0	208.16032408143928	0.11669757138133718
226.0	113.43905784438903	pulse	1.0	t		character	word-90.jpg	0.0	208.1961540307484	
227.0	113.51992546646125	word	0.0		46.0	character	word-76.jpg	0.0	208.27702165282062	0.3832687720105241
227.0	113.90319423847177	ISI	1.0		7.0	character	word-76.jpg	0.0	208.66029042483115	0.11670692882398725
228.0	114.01990116729576	word	0.0		46.0	character	word-136.jpg	0.0	208.77699735365513	0.38331103142900247
228.0	114.10333514344529	pulse	0.0	t		character	word-136.jpg	0.0	208.86043132980467	
228.0	114.40321219872476	ISI	1.0		6.0	character	word-136.jpg	0.0	209.16030838508414	0.11668881764489925
229.0	114.51990101636966	word	0.0		46.0	character	word-3.jpg	0.0	209.27699720272904	0.38328658133650606
229.0	114.80332497099971	pulse	0.0	t		character	word-3.jpg	0.0	209.5604211573591	
229.0	114.90318759770616	ISI	1.0		7.0	character	word-3.jpg	0.0	209.66028378406554	0.11670089176459442
230.0	115.01988848947076	word	0.0		46.0	character	word-3.jpg	1.0	209.77698467583014	0.3832944295136258
230.0	115.40318291898438	ISI	1.0		7.0	character	word-3.jpg	1.0	210.16027910534376	0.11667523426058324
231.0	115.51985815324497	word	0.0		45.0	character	word-8.jpg	0.0	210.27695433960434	0.3833098240174877
231.0	115.51036729169391	pulse	0.0	t		character	word-8.jpg	0.0	210.2674634780533	
231.0	115.61160425504022	response	0.0	b		character	word-8.jpg	0.0	210.3687004413996	
231.0	115.90316797726246	ISI	1.0		7.0	character	word-8.jpg	0.0	210.66026416362183	0.11673500115102797
232.0	116.01990297841348	word	0.0		46.0	character	word-59.jpg	0.0	210.77699916477286	0.38325217009696644
232.0	116.20332243543453	pulse	0.0	t		character	word-59.jpg	0.0	210.9604186217939	
232.0	116.40315514851045	ISI	1.0		7.0	character	word-59.jpg	0.0	211.16025133486983	0.11669153432103485
233.0	116.51984668283148	word	0.0		46.0	character	word-74.jpg	0.0	211.27694286919086	0.3832859776312034
233.0	116.90313266046269	ISI	1.0		7.0	character	word-74.jpg	0.0	211.66022884682206	0.11670451400004822
233.0	116.93976131277032	pulse	1.0	t		character	word-74.jpg	0.0	211.6968574991297	
234.0	117.01983717446274	word	0.0		46.0	character	word-67.jpg	0.0	211.7769333608221	0.3833243129602124
234.0	117.40316148742295	ISI	1.0		7.0	character	word-67.jpg	0.0	212.16025767378233	0.11669213802724698
235.0	117.5198536254502	word	0.0		46.0	character	word-25.jpg	0.0	212.27694981180957	0.3832926183968084
235.0	117.6032725089508	pulse	0.0	t		character	word-25.jpg	0.0	212.36036869531017	
235.0	117.903146243847	ISI	1.0		7.0	character	word-25.jpg	0.0	212.66024243020638	0.11669304358656518
236.0	118.01983928743357	word	0.0		46.0	character	word-20.jpg	0.0	212.77693547379295	0.3832950332207474
236.0	118.30325961982817	pulse	0.0	t		character	word-20.jpg	0.0	213.06035580618754	
236.0	118.40313432065432	ISI	1.0		4.0	character	word-20.jpg	0.0	213.1602305070137	0.11669334543967125
237.0	118.51982766609399	word	0.0		46.0	character	word-108.jpg	0.0	213.27692385245336	0.38328114798332535
237.0	118.90310881407731	ISI	1.0		6.0	character	word-108.jpg	0.0	213.6602050004367	0.11668761023247498
238.0	119.01979642430979	word	0.0		45.0	character	word-55.jpg	0.0	213.77689261066917	0.38329684433847433
238.0	119.01032639061395	pulse	0.0	t		character	word-55.jpg	0.0	213.76742257697333	
238.0	119.40309326864826	ISI	1.0		7.0	character	word-55.jpg	0.0	214.16018945500764	0.11671960664898506
239.0	119.51981287529725	word	0.0		46.0	character	word-91.jpg	0.0	214.27690906165662	0.3832705831291605
239.0	119.70320697666739	pulse	0.0	t		character	word-91.jpg	0.0	214.46030316302677	
239.0	119.90308345842641	ISI	1.0		7.0	character	word-91.jpg	0.0	214.66017964478579	0.11670300473542738
240.0	120.01978646316184	body	0.0		46.0	body	body-135.jpg	0.0	214.7768826495212	0.3832935239552171
240.0	120.40307998711705	ISI	1.0		7.0	body	body-135.jpg	0.0	215.16017617347643	0.11669485470429208
240.0	120.43987496041973	pulse	1.0	t		body	body-135.jpg	0.0	215.1969711467791	
241.0	120.51977484182135	body	0.0		46.0	body	body-64.jpg	0.0	215.27687102818072	0.3832615275396165
241.0	120.90303636936096	ISI	1.0		7.0	body	body-64.jpg	0.0	215.66013255572034	0.11668640282096021
242.0	121.01972277218192	body	0.0		46.0	body	body-36.jpg	0.0	215.7768189585413	0.3832889961604451
242.0	121.10313682603373	pulse	0.0	t		body	body-36.jpg	0.0	215.8602330123931	
242.0	121.40301176834237	ISI	1.0		7.0	body	body-36.jpg	0.0	216.16010795470174	0.11669847694065538
243.0	121.51971024528302	body	0.0		46.0	body	body-144.jpg	0.0	216.2768064316424	0.3832871850427182
243.0	121.803154424063	pulse	0.0	t		body	body-144.jpg	0.0	216.56025061042237	
243.0	121.90299743032574	ISI	1.0		7.0	body	body-144.jpg	0.0	216.66009361668512	0.11670119361679099
244.0	122.01969862394253	body	0.0		46.0	body	body-52.jpg	0.0	216.7767948103019	0.38329412766142923
244.0	122.40299275160396	ISI	1.0		7.0	body	body-52.jpg	0.0	217.16008893796334	0.11668549726255151
245.0	122.51967824886651	body	0.0		45.0	body	body-61.jpg	0.0	217.2767744352259	0.38330107028014027
245.0	122.5102224022612	pulse	0.0	t		body	body-61.jpg	0.0	217.26731858862058	
245.0	122.90297931914665	ISI	1.0		5.0	body	body-61.jpg	0.0	217.66007550550603	0.11668761023247498
246.0	123.01966692937913	body	0.0		46.0	body	body-134.jpg	0.0	217.7767631157385	0.3832859776312034
246.0	123.20307853822305	pulse	0.0	t		body	body-134.jpg	0.0	217.96017472458243	
246.0	123.40295290701033	ISI	1.0		7.0	body	body-134.jpg	0.0	218.1600490933697	0.11668278058550641
247.0	123.51963568759584	body	0.0		46.0	body	body-42.jpg	0.0	218.2767318739552	0.3833071073395331
247.0	123.90294279493537	ISI	1.0		7.0	body	body-42.jpg	0.0	218.66003898129475	0.11670179732300312
247.0	123.939476967259	pulse	1.0	t		body	body-42.jpg	0.0	218.69657315361837	
248.0	124.01964459225837	body	0.0		46.0	body	body-141.jpg	0.0	218.77674077861775	0.3832805442771132
248.0	124.40292513653549	ISI	1.0		7.0	body	body-141.jpg	0.0	219.16002132289486	0.11668066761467344
249.0	124.51960580415016	body	0.0		46.0	body	body-22.jpg	0.0	219.27670199050954	0.3833188796061222
249.0	124.60304249697583	pulse	0.0	t		body	body-22.jpg	0.0	219.3601386833352	
249.0	124.90292468375628	ISI	1.0		7.0	body	body-22.jpg	0.0	219.66002087011566	0.11669243988035305
250.0	125.01961712363664	body	0.0		46.0	body	body-72.jpg	0.0	219.776713309996	0.3832935239561266
250.0	125.3030102892626	pulse	0.0	t		body	body-72.jpg	0.0	220.06010647562198	
250.0	125.40291064759276	ISI	1.0		7.0	body	body-72.jpg	0.0	220.16000683395214	0.11667855464293098
251.0	125.5195892022357	body	0.0		46.0	body	body-143.jpg	0.0	220.27668538859507	0.3833098240165782
251.0	125.90289902625227	ISI	1.0		4.0	body	body-143.jpg	0.0	220.65999521261165	0.11668519540944544
252.0	126.01958422166172	house	0.0		45.0	place	house-66.jpg	0.0	220.7766804080211	0.38330197583854897
252.0	126.01016459741459	pulse	0.0	t		place	house-66.jpg	0.0	220.76726078377396	
252.0	126.40288619750027	ISI	1.0		7.0	place	house-66.jpg	0.0	221.15998238385964	0.11669455285209551
253.0	126.51958075035236	house	0.0		46.0	place	house-31.jpg	0.0	221.27667693671174	0.3833218981362734
253.0	126.70301590372856	pulse	0.0	t		place	house-31.jpg	0.0	221.46011209008793	
253.0	126.90290264848863	ISI	1.0		5.0	place	house-31.jpg	0.0	221.659998834848	0.11669485470429208
254.0	127.01959750319293	house	0.0		46.0	place	house-38.jpg	0.0	221.7766936895523	0.38326122568651044
254.0	127.31963122017169	response	0.0	b		place	house-38.jpg	0.0	222.07672740653106	
254.0	127.40285872887944	ISI	1.0		6.0	place	house-38.jpg	0.0	222.1599549152388	0.11669304358656518
254.0	127.44874008073384	pulse	1.0	t		place	house-38.jpg	0.0	222.20583626709322	
255.0	127.519551772466	house	0.0		46.0	place	house-20.jpg	0.0	222.27664795882538	0.3832917128374902
255.0	127.90284348530349	ISI	1.0		6.0	place	house-20.jpg	0.0	222.65993967166287	0.11669274173345912
256.0	128.01953622703695	house	0.0		46.0	place	house-50.jpg	0.0	222.77663241339633	0.3832935239552171
256.0	128.10298801251247	pulse	0.0	t		place	house-50.jpg	0.0	222.86008419887185	
256.0	128.40282975099217	ISI	1.0		7.0	place	house-50.jpg	0.0	223.15992593735155	0.11669062876262615
257.0	128.5195203797548	house	0.0		46.0	place	house-70.jpg	0.0	223.27661656611417	0.3832886943082485
257.0	128.80292682691197	pulse	0.0	t		place	house-70.jpg	0.0	223.56002301327135	
257.0	128.90280907406304	ISI	1.0		7.0	place	house-70.jpg	0.0	223.65990526042242	0.11671175847186532
258.0	129.0195208325349	house	0.0		46.0	place	house-15.jpg	0.0	223.77661701889429	0.38328024242400716
258.0	129.40280107495892	ISI	1.0		4.0	place	house-15.jpg	0.0	224.1598972613183	0.11668821393868711
259.0	129.5194892888976	house	0.0		45.0	place	house-133.jpg	0.0	224.27658547525698	0.3833043906633975
259.0	129.50997910875503	pulse	0.0	t		place	house-133.jpg	0.0	224.2670752951144	
259.0	129.902793679561	ISI	1.0		7.0	place	house-133.jpg	0.0	224.65988986592038	0.11669002505641402
260.0	130.01948370461741	house	0.0		46.0	place	house-133.jpg	1.0	224.7765798909768	0.3832871850427182
260.0	130.20292308393527	pulse	0.0	t		place	house-133.jpg	1.0	224.96001927029465	
260.0	130.40277088966013	ISI	1.0		7.0	place	house-133.jpg	1.0	225.1598670760195	0.11669576026361028
261.0	130.51946664992374	house	0.0		46.0	place	house-109.jpg	0.0	225.27656283628312	0.38330559807491227
261.0	130.56955311571164	response	0.0	b		place	house-109.jpg	0.0	225.32664930207102	
261.0	130.90277224799866	ISI	1.0		7.0	place	house-109.jpg	0.0	225.65986843435803	0.11668187502618821
261.0	130.9433497410555	pulse	1.0	t		place	house-109.jpg	0.0	225.70044592741488	
262.0	131.01945412302484	house	0.0		46.0	place	house-52.jpg	0.0	225.77655030938422	0.3832980517508986
262.0	131.40275217477574	ISI	1.0		7.0	place	house-52.jpg	0.0	226.15984836113512	0.11668881764489925
263.0	131.51944099242064	house	0.0		46.0	place	house-85.jpg	0.0	226.27653717878002	0.38328597763029393
263.0	131.60287195004003	pulse	0.0	t		place	house-85.jpg	0.0	226.3599681363994	
263.0	131.90272697005094	ISI	1.0		11.0	place	house-85.jpg	0.0	226.6598231564103	0.10000691243385518
264.0	132.0027338824848	baseline	0.0		48.0		baseline	0.0	226.75983006884417	0.3999977662879246
264.0	132.3028340071196	pulse	0.0	t			baseline	0.0	227.05993019347898	
264.0	132.40273164877271	ISI	1.0		11.0		baseline	0.0	227.1598278351321	0.0999803493705258
265.0	132.50271199814324	baseline	0.0		48.0		baseline	0.0	227.25980818450262	0.39998991810989537
265.0	132.90270191625314	ISI	1.0		11.0		baseline	0.0	227.6597981026125	0.10000238463908317
266.0	133.00270430089222	baseline	0.0		47.0		baseline	0.0	227.7598004872516	0.40005542020753637
266.0	133.00713972865196	pulse	0.0	t			baseline	0.0	227.76423591501134	
266.0	133.40275972109976	ISI	1.0		11.0		baseline	0.0	228.15985590745913	0.10002834399529092
267.0	133.50278806509505	baseline	0.0		48.0		baseline	0.0	228.25988425145442	0.3999624494890668
267.0	133.70287071244275	pulse	0.0	t			baseline	0.0	228.45996689880212	
267.0	133.9027505145841	ISI	1.0		11.0		baseline	0.0	228.6598467009435	0.09999906425582594
268.0	134.00274957883994	baseline	0.0		48.0		baseline	0.0	228.75984576519932	0.3999878051390624
268.0	134.402737383979	ISI	1.0		11.0		baseline	0.0	229.15983357033838	0.0999866882830247
268.0	134.40749730369862	pulse	1.0	t			baseline	0.0	229.164593490058	
269.0	134.50272407226203	baseline	0.0		48.0		baseline	0.0	229.2598202586214	0.3999986718472428
269.0	134.90272274410927	ISI	1.0		11.0		baseline	0.0	229.65981893046865	0.10000057352044678
270.0	135.00272331762972	baseline	0.0		48.0		baseline	0.0	229.7598195039891	0.39997754213800363
270.0	135.102833463784	pulse	0.0	t			baseline	0.0	229.85992965014339	
270.0	135.40270085976772	ISI	1.0		11.0		baseline	0.0	230.1597970461271	0.0999975549912051
271.0	135.50269841475892	baseline	0.0		48.0		baseline	0.0	230.2597946011183	0.39998901255148667
271.0	135.80281333019047	pulse	0.0	t			baseline	0.0	230.55990951654985	
271.0	135.9026874273104	ISI	1.0		11.0		baseline	0.0	230.6597836136698	0.10004071996718267
272.0	136.0027281472776	baseline	0.0		48.0		baseline	0.0	230.75982433363697	0.39995369575262885
272.0	136.40268184303022	ISI	1.0		11.0		baseline	0.0	231.1597780293896	0.09999785684340168
273.0	136.50267969987362	baseline	0.0		47.0		baseline	0.0	231.259775886233	0.39997935325573053
273.0	136.50713927587276	pulse	0.0	t			baseline	0.0	231.26423546223214	
273.0	136.90265905312936	ISI	1.0		11.0		baseline	0.0	231.65975523948873	0.10001566617029312
274.0	137.00267471929965	baseline	0.0		48.0		baseline	0.0	231.75977090565902	0.3999678828422475
274.0	137.20275766849954	pulse	0.0	t			baseline	0.0	231.95985385485892	
274.0	137.4026426021419	ISI	1.0		11.0		baseline	0.0	232.15973878850127	0.09999725313809904
275.0	137.50263985528	baseline	0.0		48.0		baseline	0.0	232.25973604163937	0.39999203108072834
275.0	137.90263188636072	ISI	1.0		11.0		baseline	0.0	232.6597280727201	0.0999884994016611
275.0	137.9074020690814	pulse	1.0	t			baseline	0.0	232.66449825544078	
276.0	138.00262038576238	baseline	0.0		48.0		baseline	0.0	232.75971657212176	0.3999986718463333
276.0	138.40261905760872	ISI	1.0		11.0		baseline	0.0	233.1597152439681	0.10000570502143091
277.0	138.50262476263015	baseline	0.0		48.0		baseline	0.0	233.25972094898952	0.39998901255148667
277.0	138.60274668105103	pulse	0.0	t			baseline	0.0	233.3598428674104	
277.0	138.90261377518163	ISI	1.0		11.0		baseline	0.0	233.659709961541	0.09998910310696374
278.0	139.0026028782886	baseline	0.0		48.0		baseline	0.0	233.75969906464798	0.3999977662879246
278.0	139.30272201966181	pulse	0.0	t			baseline	0.0	234.0598182060212	
278.0	139.40260064457652	ISI	1.0		11.0		baseline	0.0	234.1596968309359	0.10003045696612389
279.0	139.50263110154265	baseline	0.0		48.0		baseline	0.0	234.25972728790202	0.39995731798808265
279.0	139.90258841953073	ISI	1.0		11.0		baseline	0.0	234.6596846058901	0.0999975549912051
280.0	140.00258597452193	baseline	0.0		47.0		baseline	0.0	234.7596821608813	0.39998750328595634
280.0	140.00701838375244	pulse	0.0	t			baseline	0.0	234.76411457011181	
280.0	140.4025734778079	ISI	1.0		11.0		baseline	0.0	235.15966966416727	0.1000002716682502
281.0	140.50257374947614	baseline	0.0		48.0		baseline	0.0	235.25966993583552	0.3999796551088366
281.0	140.70268205432694	pulse	0.0	t			baseline	0.0	235.45977824068632	
281.0	140.90255340458498	ISI	1.0		11.0		baseline	0.0	235.65964959094435	0.10000389390370401
282.0	141.00255729848868	baseline	0.0		48.0		baseline	0.0	235.75965348484806	0.3999814662265635
282.0	141.40253876471525	ISI	1.0		11.0		baseline	0.0	236.15963495107462	0.10000419575590058
282.0	141.40729053440373	pulse	1.0	t			baseline	0.0	236.1643867207631	
283.0	141.50254296047115	baseline	0.0		48.0		baseline	0.0	236.25963914683052	0.39998901255148667
283.0	141.90253197302263	ISI	1.0		11.0		baseline	0.0	236.659628159382	0.1000002716682502
284.0	142.00253224469088	baseline	0.0		48.0		baseline	0.0	236.75962843105026	0.39997724028489756
284.0	142.1026435982567	pulse	0.0	t			baseline	0.0	236.85973978461607	
284.0	142.40250948497578	ISI	1.0		11.0		baseline	0.0	237.15960567133516	0.09999996981423465
285.0	142.50250945479002	baseline	0.0		48.0		baseline	0.0	237.2596056411494	0.3999887106983806
285.0	142.80262738875172	pulse	0.0	t			baseline	0.0	237.5597235751111	
285.0	142.9024981654884	ISI	1.0		11.0		baseline	0.0	237.65959435184777	0.10001415690476279
286.0	143.00251232239316	baseline	0.0		48.0		baseline	0.0	237.75960850875254	0.3999684865484596
286.0	143.40248080894162	ISI	1.0		11.0		baseline	0.0	238.159576995301	0.09999846054961381
287.0	143.50247926949123	baseline	0.0		47.0		baseline	0.0	238.2595754558506	0.39997995696194266
287.0	143.5069400529028	pulse	0.0	t			baseline	0.0	238.26403623926217	
287.0	143.90245922645317	ISI	1.0		7.0		baseline	0.0	238.65955541281255	0.11666165087626723
288.0	144.01912087732944	adult	0.0		46.0	face	adult-70.jpg	0.0	238.77621706368882	0.3833089184581695
288.0	144.2025527103233	pulse	0.0	t		face	adult-70.jpg	0.0	238.95964889668267	
288.0	144.4024297957876	ISI	1.0		7.0	face	adult-70.jpg	0.0	239.159525982147	0.11669334543967125
289.0	144.51912314122728	adult	0.0		46.0	face	adult-109.jpg	0.0	239.27621932758666	0.3832989573093073
289.0	144.9024220985366	ISI	1.0		7.0	face	adult-109.jpg	0.0	239.65951828489597	0.11668761023247498
289.0	144.9389043521469	pulse	1.0	t		face	adult-109.jpg	0.0	239.69600053850627	
290.0	145.01910970876907	adult	0.0		46.0	face	adult-143.jpg	0.0	239.77620589512844	0.38329292024991446
290.0	145.40240262901898	ISI	1.0		7.0	face	adult-143.jpg	0.0	240.15949881537836	0.11669817508754932
291.0	145.51910080410653	adult	0.0		46.0	face	adult-34.jpg	0.0	240.2761969904659	0.3832787331584768
291.0	145.60255319328735	pulse	0.0	t		face	adult-34.jpg	0.0	240.35964937964673	
291.0	145.902379537265	ISI	1.0		7.0	face	adult-34.jpg	0.0	240.65947572362438	0.11670511770626035
292.0	146.01908465497127	adult	0.0		46.0	face	adult-25.jpg	0.0	240.77618084133064	0.38324552933136147
292.0	146.30244914456398	pulse	0.0	t		face	adult-25.jpg	0.0	241.05954533092336	
292.0	146.40233018430263	ISI	1.0		7.0	face	adult-25.jpg	0.0	241.159426370662	0.11668791208558105
293.0	146.5190180963882	adult	0.0		46.0	face	adult-96.jpg	0.0	241.27611428274759	0.38330107028014027
293.0	146.90231916666835	ISI	1.0		7.0	face	adult-96.jpg	0.0	241.65941535302773	0.11668157317308214
294.0	147.01900073984143	adult	0.0		45.0	face	adult-43.jpg	0.0	241.7760969262008	0.38330650363423047
294.0	147.00965416401687	pulse	0.0	t		face	adult-43.jpg	0.0	241.76675035037624	
294.0	147.40230724347566	ISI	1.0		7.0	face	adult-43.jpg	0.0	242.15940342983504	0.11670089176459442
295.0	147.51900813524026	adult	0.0		46.0	face	adult-19.jpg	0.0	242.27610432159963	0.38328477021877916
295.0	147.7024025384626	pulse	0.0	t		face	adult-19.jpg	0.0	242.45949872482197	
295.0	147.90229290545903	ISI	1.0		7.0	face	adult-19.jpg	0.0	242.6593890918184	0.11669153432103485
296.0	148.01898443978007	adult	0.0		46.0	face	adult-11.jpg	0.0	242.77608062613945	0.3833098240174877
296.0	148.40229426379756	ISI	1.0		7.0	face	adult-11.jpg	0.0	243.15939045015693	0.11668761023247498
296.0	148.43810368710365	pulse	1.0	t		face	adult-11.jpg	0.0	243.19519987346303	
297.0	148.51898187403003	adult	0.0		46.0	face	adult-105.jpg	0.0	243.2760780603894	0.3832859776312034
297.0	148.90226785166124	ISI	1.0		7.0	face	adult-105.jpg	0.0	243.6593640380206	0.11670149546989705
298.0	149.01896934713113	adult	0.0		46.0	face	adult-62.jpg	0.0	243.7760655334905	0.3832932221030205
298.0	149.10242173631286	pulse	0.0	t		face	adult-62.jpg	0.0	243.85951792267224	
298.0	149.40226256923415	ISI	1.0		5.0	face	adult-62.jpg	0.0	244.15935875559353	0.11668972320330795
299.0	149.51895229243746	adult	0.0		46.0	face	adult-26.jpg	0.0	244.27604847879684	0.38329141098438413
299.0	149.80236417294873	pulse	0.0	t		face	adult-26.jpg	0.0	244.5594603593081	
299.0	149.90224370342185	ISI	1.0		7.0	face	adult-26.jpg	0.0	244.65933988978122	0.11669666582292848
300.0	150.01894036924477	adult	0.0		46.0	face	adult-135.jpg	0.0	244.77603655560415	0.3832971461915804
300.0	150.40223751543635	ISI	1.0		7.0	face	adult-135.jpg	0.0	245.15933370179573	0.11668217687929427
301.0	150.51891969231565	adult	0.0		45.0	face	adult-84.jpg	0.0	245.27601587867503	0.38330137213233684
301.0	150.50952119777685	pulse	0.0	t		face	adult-84.jpg	0.0	245.26661738413623	
301.0	150.90222106444799	ISI	1.0		7.0	face	adult-84.jpg	0.0	245.65931725080736	0.11669243988126254
302.0	151.01891350432925	adult	0.0		46.0	face	adult-84.jpg	1.0	245.77600969068862	0.383281751688628
302.0	151.20231756684734	pulse	0.0	t		face	adult-84.jpg	1.0	245.95941375320672	
302.0	151.40219525601788	ISI	1.0		7.0	face	adult-84.jpg	1.0	246.15929144237725	0.11671055106035055
303.0	151.51890580707823	adult	0.0		46.0	face	adult-140.jpg	0.0	246.2760019934376	0.3832895998666572
303.0	151.5523870383122	response	0.0	b		face	adult-140.jpg	0.0	246.30948322467157	
303.0	151.90219540694488	ISI	1.0		7.0	face	adult-140.jpg	0.0	246.65929159330426	0.11669093061573221
303.0	151.9394392356362	pulse	1.0	t		face	adult-140.jpg	0.0	246.69653542199558	
304.0	152.01888633756062	adult	0.0		46.0	face	adult-46.jpg	0.0	246.77598252392	0.3833143518113502
304.0	152.40220068937197	ISI	1.0		7.0	face	adult-46.jpg	0.0	247.15929687573134	0.11668911949800531
305.0	152.51888980886997	adult	0.0		46.0	face	adult-131.jpg	0.0	247.27598599522935	0.3832687720105241
305.0	152.60238958897025	pulse	0.0	t		face	adult-131.jpg	0.0	247.35948577532963	
305.0	152.9021585808805	ISI	1.0		4.0	face	adult-131.jpg	0.0	247.65925476723987	0.11670058991148835
306.0	153.01885917079198	adult	0.0		46.0	face	adult-81.jpg	0.0	247.77595535715136	0.3832962406322622
306.0	153.30230425513128	pulse	0.0	t		face	adult-81.jpg	0.0	248.05940044149065	
306.0	153.40215541142425	ISI	1.0		7.0	face	adult-81.jpg	0.0	248.15925159778362	0.11667946020224917
307.0	153.5188348716265	adult	0.0		46.0	face	adult-7.jpg	0.0	248.27593105798587	0.3832926183968084
307.0	153.9021274900233	ISI	1.0		7.0	face	adult-7.jpg	0.0	248.65922367638268	0.11668761023247498
308.0	154.01881510025578	adult	0.0		45.0	face	adult-18.jpg	0.0	248.77591128661516	0.3833125406936233
308.0	154.00967227519595	pulse	0.0	t		face	adult-18.jpg	0.0	248.76676846155533	
308.0	154.4021276409494	ISI	1.0		7.0	face	adult-18.jpg	0.0	249.15922382730878	0.11669002505732351
309.0	154.51881766600673	adult	0.0		46.0	face	adult-2.jpg	0.0	249.2759138523661	0.3832889961604451
309.0	154.70226670461943	pulse	0.0	t		face	adult-2.jpg	0.0	249.4593628909788	
309.0	154.90210666216717	ISI	1.0		7.0	face	adult-2.jpg	0.0	249.65920284852655	0.11670240102921525
310.0	155.0188090631964	adult	0.0		46.0	face	adult-51.jpg	0.0	249.77590524955576	0.38329110913127806
310.0	155.40210017232766	ISI	1.0		7.0	face	adult-51.jpg	0.0	250.15919635868704	0.11667402684906847
310.0	155.43822805053424	pulse	1.0	t		face	adult-51.jpg	0.0	250.1953242368936	
311.0	155.51877419917673	adult	0.0		46.0	face	adult-44.jpg	0.0	250.2758703855361	0.38331676663528924
311.0	155.90209096581202	ISI	1.0		11.0	face	adult-44.jpg	0.0	250.6591871521714	0.09999453646105394
312.0	156.00208550227308	baseline	0.0		48.0		baseline	0.0	250.75918168863245	0.39998750328595634
312.0	156.10229344879372	pulse	0.0	t			baseline	0.0	250.8593896351531	
312.0	156.40207300555903	ISI	1.0		11.0		baseline	0.0	251.1591691919184	0.09999846054961381
313.0	156.50207146610865	baseline	0.0		48.0		baseline	0.0	251.25916765246802	0.39998206993277563
313.0	156.80220811495565	pulse	0.0	t			baseline	0.0	251.55930430131502	
313.0	156.90205353604142	ISI	1.0		11.0		baseline	0.0	251.6591497224008	0.10000570502143091
314.0	157.00205924106285	baseline	0.0		48.0		baseline	0.0	251.75915542742223	0.3999748254609585
314.0	157.4020340665238	ISI	1.0		11.0		baseline	0.0	252.1591302528832	0.10000087537446234
315.0	157.50203494189827	baseline	0.0		47.0		baseline	0.0	252.25913112825765	0.3999896162567893
315.0	157.50652440134218	pulse	0.0	t			baseline	0.0	252.26362058770155	
315.0	157.90202455815506	ISI	1.0		11.0		baseline	0.0	252.65912074451444	0.10000510131521878
316.0	158.00202965947028	baseline	0.0		48.0		baseline	0.0	252.75912584582966	0.39999021996391093
316.0	158.20212377723146	pulse	0.0	t			baseline	0.0	252.95921996359084	
316.0	158.4020198794342	ISI	1.0		11.0		baseline	0.0	253.15911606579357	0.10003287179006293
317.0	158.50205275122426	baseline	0.0		48.0		baseline	0.0	253.25914893758363	0.4000213108201933
317.0	158.90207406204445	ISI	1.0		11.0		baseline	0.0	253.65917024840383	0.0999912160787062
317.0	158.9068680911514	pulse	1.0	t			baseline	0.0	253.6639642775108	
318.0	159.00206527812315	baseline	0.0		48.0		baseline	0.0	253.75916146448253	0.3999950496108795
318.0	159.40206032773403	ISI	1.0		11.0		baseline	0.0	254.1591565140934	0.09999846054961381
319.0	159.50205878828365	baseline	0.0		48.0		baseline	0.0	254.25915497464302	0.39998206993277563
319.0	159.60221149570862	pulse	0.0	t			baseline	0.0	254.359307682068	
319.0	159.90204085821642	ISI	1.0		11.0		baseline	0.0	254.6591370445758	0.10000329019749188
320.0	160.00204414841392	baseline	0.0		48.0		baseline	0.0	254.7591403347733	0.3999878051390624
320.0	160.3021484989904	pulse	0.0	t			baseline	0.0	255.05924468534977	
320.0	160.40203195355298	ISI	1.0		11.0		baseline	0.0	255.15912813991235	0.0999975549912051
321.0	160.50202950854418	baseline	0.0		48.0		baseline	0.0	255.25912569490356	0.39998991810989537
321.0	160.90201942665408	ISI	1.0		11.0		baseline	0.0	255.65911561301346	0.09999695128499297
322.0	161.00201637793907	baseline	0.0		47.0		baseline	0.0	255.75911256429845	0.39998810699216847
322.0	161.00632291447528	pulse	0.0	t			baseline	0.0	255.76341910083465	
322.0	161.40200448493124	ISI	1.0		11.0		baseline	0.0	256.1591006712906	0.0999875938423429
323.0	161.50199207877358	baseline	0.0		48.0		baseline	0.0	256.25908826513296	0.39999263478784997
323.0	161.70211789109817	pulse	0.0	t			baseline	0.0	256.45921407745755	
323.0	161.90198471356143	ISI	1.0		7.0		baseline	0.0	256.6590808999208	0.11666798978876614
324.0	162.0186527033502	car	0.0		46.0	object	car-76.jpg	0.0	256.7757488897096	0.3832497552730274
324.0	162.40190245862323	ISI	1.0		7.0	object	car-76.jpg	0.0	257.1589986449826	0.11670089176368492
324.0	162.4386295150034	pulse	1.0	t		object	car-76.jpg	0.0	257.1957257013628	
325.0	162.5186033503869	car	0.0		46.0	object	car-99.jpg	0.0	257.2756995367463	0.3832853739249913
325.0	162.9018887243119	ISI	1.0		7.0	object	car-99.jpg	0.0	257.6589849106713	0.11669757138133718
326.0	163.01858629569324	car	0.0		46.0	object	car-2.jpg	0.0	257.7756824820526	0.3832971461915804
326.0	163.1020027643699	pulse	0.0	t		object	car-2.jpg	0.0	257.8590989507293	
326.0	163.40188344188482	ISI	1.0		7.0	object	car-2.jpg	0.0	258.1589796282442	0.11667251758353814
327.0	163.51855595946836	car	0.0		46.0	object	car-5.jpg	0.0	258.27565214582773	0.3833152573706684
327.0	163.802017343869	pulse	0.0	t		object	car-5.jpg	0.0	258.5591135302284	
327.0	163.90187121683903	ISI	1.0		7.0	object	car-5.jpg	0.0	258.6589674031984	0.11668942135111138
328.0	164.01856063819014	car	0.0		46.0	object	car-60.jpg	0.0	258.7756568245495	0.38329050542506593
328.0	164.4018511436152	ISI	1.0		7.0	object	car-60.jpg	0.0	259.1589473299746	0.11669243988126254
329.0	164.51854358349647	car	0.0		45.0	object	car-111.jpg	0.0	259.27563976985584	0.383290807278172
329.0	164.50944814935428	pulse	0.0	t		object	car-111.jpg	0.0	259.26654433571366	
329.0	164.90183439077464	ISI	1.0		7.0	object	car-111.jpg	0.0	259.658930577134	0.11669938249906409
330.0	165.0185337732737	car	0.0		46.0	object	car-43.jpg	0.0	259.7756299596331	0.38330227769256453
330.0	165.20195866364884	pulse	0.0	t		object	car-43.jpg	0.0	259.9590548500082	
330.0	165.40183605096627	ISI	1.0		7.0	object	car-43.jpg	0.0	260.15893223732564	0.11668278058459691
331.0	165.51851883155086	car	0.0		46.0	object	car-45.jpg	0.0	260.27561501791024	0.38329835360400466
331.0	165.90181718515487	ISI	1.0		7.0	object	car-45.jpg	0.0	260.65891337151425	0.11668851579179318
331.0	165.93932875744304	pulse	1.0	t		object	car-45.jpg	0.0	260.6964249438024	
332.0	166.01850570094666	car	0.0		46.0	object	car-86.jpg	0.0	260.77560188730604	0.3832889961604451
332.0	166.4017946971071	ISI	1.0		7.0	object	car-86.jpg	0.0	261.1588908834665	0.11669757138133718
333.0	166.51849226848844	car	0.0		46.0	object	car-7.jpg	0.0	261.2755884548478	0.38328929801355116
333.0	166.60191749090154	pulse	0.0	t		object	car-7.jpg	0.0	261.3590136772609	
333.0	166.901781566502	ISI	1.0		7.0	object	car-7.jpg	0.0	261.6588777528614	0.11670089176459442
334.0	167.0184824582666	car	0.0		46.0	object	car-93.jpg	0.0	261.77557864462597	0.3832844683656731
334.0	167.3019290518705	pulse	0.0	t		object	car-93.jpg	0.0	262.0590252382299	
334.0	167.40176692663226	ISI	1.0		7.0	object	car-93.jpg	0.0	262.15886311299164	0.11669968435217015
335.0	167.51846661098443	car	0.0		46.0	object	car-142.jpg	0.0	262.2755627973438	0.38328839245514246
335.0	167.90175500343958	ISI	1.0		7.0	object	car-142.jpg	0.0	262.65885118979895	0.11669364729277731
336.0	168.01844865073235	body	0.0		45.0	body	body-98.jpg	0.0	262.77554483709173	0.3833318592842261
336.0	168.00951983943833	pulse	0.0	t		body	body-98.jpg	0.0	262.7666160257977	
336.0	168.40178051001658	ISI	1.0		7.0	body	body-98.jpg	0.0	263.15887669637596	0.11669304358656518
337.0	168.51847355360314	body	0.0		46.0	body	body-132.jpg	0.0	263.2755697399625	0.3832545849209055
337.0	168.70184561970564	pulse	0.0	t		body	body-132.jpg	0.0	263.458941806065	
337.0	168.90172813852405	ISI	1.0		7.0	body	body-132.jpg	0.0	263.6588243248834	0.11669938249906409
338.0	169.0184275210231	body	0.0		46.0	body	body-111.jpg	0.0	263.7755237073825	0.38329473136764136
338.0	169.40172225239075	ISI	1.0		7.0	body	body-111.jpg	0.0	264.15881843875013	0.11669153432194435
338.0	169.43930868422012	pulse	1.0	t		body	body-111.jpg	0.0	264.1964048705795	
339.0	169.5184137867127	body	0.0		46.0	body	body-24.jpg	0.0	264.2755099730721	0.38329412766142923
339.0	169.90170791437413	ISI	1.0		4.0	body	body-24.jpg	0.0	264.6588041007335	0.11669123246883828
340.0	170.01839914684297	body	0.0		46.0	body	body-59.jpg	0.0	264.77549533320234	0.3832742053646143
340.0	170.10181078587084	pulse	0.0	t		body	body-59.jpg	0.0	264.8589069722302	
340.0	170.40167335220758	ISI	1.0		7.0	body	body-59.jpg	0.0	265.15876953856696	0.11672805853231694
341.0	170.5184014107399	body	0.0		46.0	body	body-27.jpg	0.0	265.2754975970993	0.3832717905406753
341.0	170.8017900485711	pulse	0.0	t		body	body-27.jpg	0.0	265.55888623493047	
341.0	170.90167320128057	ISI	1.0		7.0	body	body-27.jpg	0.0	265.65876938763995	0.11669787323444325
342.0	171.01837107451502	body	0.0		46.0	body	body-31.jpg	0.0	265.7754672608744	0.3832877887489303
342.0	171.40165886326395	ISI	1.0		7.0	body	body-31.jpg	0.0	266.1587550496233	0.11669455285118602
343.0	171.51835341611513	body	0.0		45.0	body	body-78.jpg	0.0	266.2754496024745	0.38329201469059626
343.0	171.5091915743169	pulse	0.0	t		body	body-78.jpg	0.0	266.2662877606763	
343.0	171.90164543080573	ISI	1.0		7.0	body	body-78.jpg	0.0	266.6587416171651	0.11668157317399164
344.0	172.01832700397972	body	0.0		46.0	body	body-78.jpg	1.0	266.7754231903391	0.383313446252032
344.0	172.20175400732478	pulse	0.0	t		body	body-78.jpg	1.0	266.95885019368416	
344.0	172.40164045023175	ISI	1.0		7.0	body	body-78.jpg	1.0	267.15873663659113	0.11669032690952008
345.0	172.51833077714127	body	0.0		46.0	body	body-17.jpg	0.0	267.27542696350065	0.38329774989779253
345.0	172.56841422439902	response	0.0	b		body	body-17.jpg	0.0	267.3255104107584	
345.0	172.90162852703907	ISI	1.0		7.0	body	body-17.jpg	0.0	267.65872471339844	0.1166682916418722
345.0	172.93917088833223	pulse	1.0	t		body	body-17.jpg	0.0	267.6962670746916	
346.0	173.01829681868094	body	0.0		46.0	body	body-50.jpg	0.0	267.7753930050403	0.3833173703415014
346.0	173.40161418902244	ISI	1.0		7.0	body	body-50.jpg	0.0	268.1587103753818	0.11669062876262615
347.0	173.51830481778507	body	0.0		46.0	body	body-133.jpg	0.0	268.27540100414444	0.3832868831896121
347.0	173.6017327568743	pulse	0.0	t		body	body-133.jpg	0.0	268.3588289432337	
347.0	173.90159170097468	ISI	1.0		11.0	body	body-133.jpg	0.0	268.65868788733405	0.099985782724616
348.0	174.0015774836993	baseline	0.0		48.0		baseline	0.0	268.75867367005867	0.40000078481807577
348.0	174.30169541766008	pulse	0.0	t			baseline	0.0	269.05879160401946	
348.0	174.40157826851737	ISI	1.0		11.0		baseline	0.0	269.15867445487675	0.10000540316832485
349.0	174.5015836716857	baseline	0.0		48.0		baseline	0.0	269.25867985804507	0.40004908129503747
349.0	174.90163275298073	ISI	1.0		11.0		baseline	0.0	269.6587289393401	0.09999966796203807
350.0	175.00163242094277	baseline	0.0		47.0		baseline	0.0	269.75872860730215	0.4000025959358027
350.0	175.00610769329705	pulse	0.0	t			baseline	0.0	269.76320387965643	
350.0	175.40163501687857	ISI	1.0		11.0		baseline	0.0	270.15873120323795	0.09999031051847851
351.0	175.50162532739705	baseline	0.0		48.0		baseline	0.0	270.2587215137564	0.39998810699307796
351.0	175.70172518036452	pulse	0.0	t			baseline	0.0	270.4588213667239	
351.0	175.90161343439013	ISI	1.0		11.0		baseline	0.0	270.6587096207495	0.09998849940075161
352.0	176.00160193379088	baseline	0.0		48.0		baseline	0.0	270.75869812015026	0.39998991811080487
352.0	176.40159185190169	ISI	1.0		11.0		baseline	0.0	271.15868803826106	0.10000630872673355
352.0	176.4065280537634	pulse	1.0	t			baseline	0.0	271.1636242401228	
353.0	176.50159816062842	baseline	0.0		48.0		baseline	0.0	271.2586943469878	0.39998086252126086
353.0	176.90157902314968	ISI	1.0		11.0		baseline	0.0	271.65867520950906	0.10000661057983962
354.0	177.00158563372952	baseline	0.0		48.0		baseline	0.0	271.7586818200889	0.3999868995806537
354.0	177.1016894409713	pulse	0.0	t			baseline	0.0	271.8587856273307	
354.0	177.40157253331017	ISI	1.0		11.0		baseline	0.0	272.15866871966955	0.10002592917135189
355.0	177.50159846248152	baseline	0.0		48.0		baseline	0.0	272.2586946488409	0.39995097907558375
355.0	177.80166900552467	pulse	0.0	t			baseline	0.0	272.55876519188405	
355.0	177.9015494415571	ISI	1.0		11.0		baseline	0.0	272.6586456279165	0.10001204393392982
356.0	178.00156148549104	baseline	0.0		48.0		baseline	0.0	272.7586576718504	0.39997935325573053
356.0	178.40154083874677	ISI	1.0		11.0		baseline	0.0	273.15863702510615	0.10000298834438581
357.0	178.50154382709115	baseline	0.0		47.0		baseline	0.0	273.25864001345053	0.39998901255148667
357.0	178.506066490364	pulse	0.0	t			baseline	0.0	273.26316267672337	
357.0	178.90153283964264	ISI	1.0		11.0		baseline	0.0	273.658629026002	0.10000419575681008
358.0	179.00153703539945	baseline	0.0		48.0		baseline	0.0	273.7586332217588	0.3999823717858817
358.0	179.20163839763154	pulse	0.0	t			baseline	0.0	273.9587345839909	
358.0	179.40151940718533	ISI	1.0		11.0		baseline	0.0	274.1586155935447	0.09998819754764554
359.0	179.50150760473298	baseline	0.0		48.0		baseline	0.0	274.25860379109236	0.3999905218161075
359.0	179.9014981265491	ISI	1.0		7.0		baseline	0.0	274.65859431290846	0.11669304358747468
359.0	179.93865079563966	pulse	1.0	t			baseline	0.0	274.69574698199904	
360.0	180.01819117013656	house	0.0		46.0	place	house-118.jpg	0.0	274.77528735649594	0.38323315335765074
360.0	180.4014243234942	ISI	1.0		7.0	place	house-118.jpg	0.0	275.1585205098536	0.11668942135111138
361.0	180.51811374484532	house	0.0		46.0	place	house-21.jpg	0.0	275.2752099312047	0.38329110913218756
361.0	180.60152870425645	pulse	0.0	t		place	house-21.jpg	0.0	275.35862489061583	
361.0	180.9014048539775	ISI	1.0		7.0	place	house-21.jpg	0.0	275.6585010403369	0.11669696767512505
362.0	181.01810182165264	house	0.0		46.0	place	house-68.jpg	0.0	275.775198008012	0.3832950332207474
362.0	181.30154630228571	pulse	0.0	t		place	house-68.jpg	0.0	276.0586424886451	
362.0	181.40139685487338	ISI	1.0		4.0	place	house-68.jpg	0.0	276.15849304123276	0.11669243988035305
363.0	181.51808929475374	house	0.0		46.0	place	house-115.jpg	0.0	276.2751854811131	0.38328658133650606
363.0	181.90137587609024	ISI	1.0		7.0	place	house-115.jpg	0.0	276.6584720624496	0.11667795093762834
364.0	182.01805382702787	house	0.0		45.0	place	house-3.jpg	0.0	276.77515001338725	0.38330469251650356
364.0	182.00883402945692	pulse	0.0	t		place	house-3.jpg	0.0	276.7659302158163	
364.0	182.40135851954437	ISI	1.0		7.0	place	house-3.jpg	0.0	277.15845470590375	0.11668640282096021
365.0	182.51804492236533	house	0.0		46.0	place	house-45.jpg	0.0	277.2751411087247	0.38331223884051724
365.0	182.70146920903335	pulse	0.0	t		place	house-45.jpg	0.0	277.4585653953927	
365.0	182.90135716120585	ISI	1.0		7.0	place	house-45.jpg	0.0	277.6584533475652	0.11668761023247498
366.0	183.01804477143833	house	0.0		46.0	place	house-23.jpg	0.0	277.7751409577977	0.38328658133741556
366.0	183.40133135277574	ISI	1.0		7.0	place	house-23.jpg	0.0	278.1584275391351	0.11668881764489925
366.0	183.4390186035016	pulse	1.0	t		place	house-23.jpg	0.0	278.196114789861	
367.0	183.51802017042064	house	0.0		46.0	place	house-16.jpg	0.0	278.27511635678	0.3833101258687748
367.0	183.90133029628942	ISI	1.0		7.0	place	house-16.jpg	0.0	278.6584264826488	0.11668881764489925
368.0	184.01801911393432	house	0.0		46.0	place	house-44.jpg	0.0	278.7751153002937	0.3832781294540837
368.0	184.1014425252297	pulse	0.0	t		place	house-44.jpg	0.0	278.85853871158906	
368.0	184.4012972433884	ISI	1.0		7.0	place	house-44.jpg	0.0	279.1583934297478	0.11671085291254713
369.0	184.51800809630095	house	0.0		46.0	place	house-92.jpg	0.0	279.2751042826603	0.3832944295145353
369.0	184.8014136378988	pulse	0.0	t		place	house-92.jpg	0.0	279.5585098242582	
369.0	184.90130252581548	ISI	1.0		7.0	place	house-92.jpg	0.0	279.65839871217486	0.11668911949800531
370.0	185.0179916453135	house	0.0		46.0	place	house-136.jpg	0.0	279.77508783167286	0.3832871850427182
370.0	185.4012788303562	ISI	1.0		7.0	place	house-136.jpg	0.0	280.1583750167156	0.11669847693974589
371.0	185.51797730729595	house	0.0		45.0	place	house-74.jpg	0.0	280.2750734936553	0.3832895998666572
371.0	185.50872913554394	pulse	0.0	t		place	house-74.jpg	0.0	280.2658253219033	
371.0	185.9012669071626	ISI	1.0		7.0	place	house-74.jpg	0.0	280.658363093522	0.11669817508754932
372.0	186.01796508225016	adult	0.0		46.0	face	adult-99.jpg	0.0	280.77506126860953	0.3833297463143026
372.0	186.2014159319815	pulse	0.0	t		face	adult-99.jpg	0.0	280.9585121183409	
372.0	186.40129482856446	ISI	1.0		7.0	face	adult-99.jpg	0.0	281.15839101492384	0.11669183617414092
373.0	186.5179866647386	adult	0.0		46.0	face	adult-82.jpg	0.0	281.275082851098	0.38329412766142923
373.0	186.90128079240003	ISI	1.0		7.0	face	adult-82.jpg	0.0	281.6583769787594	0.11669606211671635
373.0	186.93751945065196	pulse	1.0	t		face	adult-82.jpg	0.0	281.69461563701134	
374.0	187.01797685451675	adult	0.0		46.0	face	adult-107.jpg	0.0	281.7750730408761	0.3832569997448445
374.0	187.4012338542616	ISI	1.0		7.0	face	adult-107.jpg	0.0	282.15833004062097	0.11667674352520407
375.0	187.5179105977868	adult	0.0		46.0	face	adult-54.jpg	0.0	282.27500678414617	0.3832980517499891
375.0	187.60133310352285	pulse	0.0	t		face	adult-54.jpg	0.0	282.3584292898822	
375.0	187.90120864953678	ISI	1.0		7.0	face	adult-54.jpg	0.0	282.65830483589616	0.11668730838027841
376.0	188.01789595791706	adult	0.0		46.0	face	adult-54.jpg	1.0	282.77499214427644	0.38330469251559407
376.0	188.30135885158234	pulse	0.0	t		face	adult-54.jpg	1.0	283.0584550379417	
376.0	188.40120065043266	ISI	1.0		7.0	face	adult-54.jpg	1.0	283.15829683679203	0.11669757138133718
377.0	188.517898221814	adult	0.0		46.0	face	adult-94.jpg	0.0	283.27499440817337	0.38328748689582426
377.0	188.69301430692576	response	0.0	b		face	adult-94.jpg	0.0	283.45011049328514	
377.0	188.90118570870982	ISI	1.0		7.0	face	adult-94.jpg	0.0	283.6582818950692	0.11669485470520158
378.0	189.01788056341502	adult	0.0		45.0	face	adult-90.jpg	0.0	283.7749767497744	0.3832787331584768
378.0	189.00913286391187	pulse	0.0	t		face	adult-90.jpg	0.0	283.76622905027125	
378.0	189.4011592965735	ISI	1.0		7.0	face	adult-90.jpg	0.0	284.1582554829329	0.1167410382113303
379.0	189.51790033478483	adult	0.0		46.0	face	adult-15.jpg	0.0	284.2749965211442	0.3832705831291605
379.0	189.70127934350603	pulse	0.0	t		face	adult-15.jpg	0.0	284.4583755298654	
379.0	189.901170917914	ISI	1.0		7.0	face	adult-15.jpg	0.0	284.65826710427336	0.11668489355633938
380.0	190.01785581147033	adult	0.0		46.0	face	adult-137.jpg	0.0	284.7749519978297	0.3833007684270342
380.0	190.40115657989736	ISI	1.0		7.0	face	adult-137.jpg	0.0	285.15825276625674	0.11669032690952008
380.0	190.43829023224862	pulse	1.0	t		face	adult-137.jpg	0.0	285.195386418608	
381.0	190.51784690680688	adult	0.0		46.0	face	adult-95.jpg	0.0	285.27494309316626	0.38329201469059626
381.0	190.90113892149748	ISI	1.0		7.0	face	adult-95.jpg	0.0	285.65823510785685	0.11667523426058324
382.0	191.01781415575806	adult	0.0		46.0	face	adult-27.jpg	0.0	285.77491034211744	0.38329956101551943
382.0	191.10124118928888	pulse	0.0	t		face	adult-27.jpg	0.0	285.85833737564826	
382.0	191.40111371677358	ISI	1.0		7.0	face	adult-27.jpg	0.0	286.15820990313296	0.11668459170232381
383.0	191.5177983084759	adult	0.0		46.0	face	adult-45.jpg	0.0	286.2748944948353	0.3833152573706684
383.0	191.80122256495997	pulse	0.0	t		face	adult-45.jpg	0.0	286.55831875131935	
383.0	191.90111356584657	ISI	1.0		7.0	face	adult-45.jpg	0.0	286.65820975220595	0.1166737249959624
384.0	192.01778729084253	car	0.0		46.0	object	car-100.jpg	0.0	286.7748834772019	0.3833125406936233
384.0	192.40109983153616	ISI	1.0		7.0	object	car-100.jpg	0.0	287.15819601789553	0.11666980090649304
385.0	192.51776963244265	car	0.0		45.0	object	car-72.jpg	0.0	287.274865818802	0.38331676663528924
385.0	192.50841701955778	pulse	0.0	t		object	car-72.jpg	0.0	287.26551320591716	
385.0	192.90108639907794	ISI	1.0		7.0	object	car-72.jpg	0.0	287.6581825854373	0.11667946020224917
386.0	193.0177658592802	car	0.0		46.0	object	car-49.jpg	0.0	287.77486204563957	0.3833297463143026
386.0	193.20122908498433	pulse	0.0	t		object	car-49.jpg	0.0	287.9583252713437	
386.0	193.4010956055945	ISI	1.0		7.0	object	car-49.jpg	0.0	288.15819179195387	0.11669243988035305
387.0	193.51778804547484	car	0.0		46.0	object	car-32.jpg	0.0	288.2748842318342	0.38325850900946534
387.0	193.9010465544843	ISI	1.0		7.0	object	car-32.jpg	0.0	288.6581427408437	0.11668761023247498
387.0	193.93765800117217	pulse	1.0	t		object	car-32.jpg	0.0	288.69475418753154	
388.0	194.01773416471679	car	0.0		46.0	object	car-61.jpg	0.0	288.77483035107616	0.3833098240165782
388.0	194.40104398873336	ISI	1.0		7.0	object	car-61.jpg	0.0	289.15814017509274	0.11669243988126254
389.0	194.51773642861463	car	0.0		46.0	object	car-138.jpg	0.0	289.274832614974	0.3832862794834
389.0	194.60114625652477	pulse	0.0	t		object	car-138.jpg	0.0	289.35824244288415	
