trial_nr	onset	event_type	phase	response	nr_frames	face_age	face_sex	face_eth	attractiveness	expression	face_id	sub_id	ses	run	trial_type	catch	rating_type	onset_abs	duration
-1.0	0.0546506875398336	fix	0.0		714													25.054179789920454	5.965963761409512
-1.0	0.7041428727534367	pulse	0.0	t														25.703671975134057	
-1.0	1.4041352055792231	pulse	0.0	t														26.403664307959843	
-1.0	2.1041163696791045	pulse	0.0	t														27.103645472059725	
-1.0	2.804112022931804	pulse	0.0	t														27.803641125312424	
-1.0	3.5040865461633075	pulse	0.0	t														28.503615648543928	
-1.0	4.204101216426352	pulse	0.0	t														29.203630318806972	
-1.0	4.904082682376611	pulse	0.0	t														29.90361178475723	
-1.0	5.6040789393446175	pulse	0.0	t														30.603608041725238	
0.0	6.020614448949345	face	0.0		144	20.0	male	black	3.1070433744528456	smiling	082	sub-17	2.0	2.0	082_smiling	1.0	dominance	31.020143551329966	1.2333318844175665
0.0	6.304075800027931	pulse	0.0	t		20.0	male	black	3.1070433744528456	smiling	082	sub-17	2.0	2.0	082_smiling	1.0	dominance	31.30360490240855	
0.0	7.004091074020835	pulse	0.0	t		20.0	male	black	3.1070433744528456	smiling	082	sub-17	2.0	2.0	082_smiling	1.0	dominance	32.003620176401455	
0.0	7.253946333366912	fix	1.0		177	20.0	male	black	3.1070433744528456	smiling	082	sub-17	2.0	2.0	082_smiling	1.0	dominance	32.25347543574753	1.50833820833941
0.0	7.704058050818276	pulse	1.0	t		20.0	male	black	3.1070433744528456	smiling	082	sub-17	2.0	2.0	082_smiling	1.0	dominance	32.703587153198896	
0.0	8.404045252056676	pulse	1.0	t		20.0	male	black	3.1070433744528456	smiling	082	sub-17	2.0	2.0	082_smiling	1.0	dominance	33.403574354437296	
0.0	8.762284541706322	rating	2.0		293	20.0	male	black	3.1070433744528456	smiling	082	sub-17	2.0	2.0	082_smiling	1.0	dominance	33.76181364408694	2.491615909326356
0.0	9.104037283017533	pulse	2.0	t		20.0	male	black	3.1070433744528456	smiling	082	sub-17	2.0	2.0	082_smiling	1.0	dominance	34.10356638539815	
0.0	9.804032634419855	pulse	2.0	t		20.0	male	black	3.1070433744528456	smiling	082	sub-17	2.0	2.0	082_smiling	1.0	dominance	34.803561736800475	
0.0	10.107983465466532	response	2.0	b		20.0	male	black	3.1070433744528456	smiling	082	sub-17	2.0	2.0	082_smiling	1.0	dominance	35.10751256784715	
0.0	10.504018024512334	pulse	2.0	t		20.0	male	black	3.1070433744528456	smiling	082	sub-17	2.0	2.0	082_smiling	1.0	dominance	35.503547126892954	
0.0	11.204037222647457	pulse	2.0	t		20.0	male	black	3.1070433744528456	smiling	082	sub-17	2.0	2.0	082_smiling	1.0	dominance	36.20356632502808	
0.0	11.253900451032678	fix	3.0		444	20.0	male	black	3.1070433744528456	smiling	082	sub-17	2.0	2.0	082_smiling	1.0	dominance	36.2534295534133	3.7582740636280505
0.0	11.904012953309575	pulse	3.0	t		20.0	male	black	3.1070433744528456	smiling	082	sub-17	2.0	2.0	082_smiling	1.0	dominance	36.903542055690195	
0.0	12.603998645266984	pulse	3.0	t		20.0	male	black	3.1070433744528456	smiling	082	sub-17	2.0	2.0	082_smiling	1.0	dominance	37.603527747647604	
0.0	13.30399067622784	pulse	3.0	t		20.0	male	black	3.1070433744528456	smiling	082	sub-17	2.0	2.0	082_smiling	1.0	dominance	38.30351977860846	
0.0	14.003991762918304	pulse	3.0	t		20.0	male	black	3.1070433744528456	smiling	082	sub-17	2.0	2.0	082_smiling	1.0	dominance	39.003520865298924	
0.0	14.703971417722641	pulse	3.0	t		20.0	male	black	3.1070433744528456	smiling	082	sub-17	2.0	2.0	082_smiling	1.0	dominance	39.70350052010326	
1.0	15.012174514660728	face	0.0		146	54.0	female	white	2.286908077994429	neutral	136	sub-17	2.0	2.0	136_neutral	0.0		40.01170361704135	1.241666470465134
1.0	15.403966467260034	pulse	0.0	t		54.0	female	white	2.286908077994429	neutral	136	sub-17	2.0	2.0	136_neutral	0.0		40.403495569640654	
1.0	16.10396906323149	pulse	0.0	t		54.0	female	white	2.286908077994429	neutral	136	sub-17	2.0	2.0	136_neutral	0.0		41.10349816561211	
1.0	16.253840985125862	fix	1.0		445	54.0	female	white	2.286908077994429	neutral	136	sub-17	2.0	2.0	136_neutral	0.0		41.25337008750648	3.7582719506171998
1.0	16.803942379032378	pulse	1.0	t		54.0	female	white	2.286908077994429	neutral	136	sub-17	2.0	2.0	136_neutral	0.0		41.803471481413	
1.0	17.50394165457692	pulse	1.0	t		54.0	female	white	2.286908077994429	neutral	136	sub-17	2.0	2.0	136_neutral	0.0		42.50347075695754	
1.0	18.2039333836874	pulse	1.0	t		54.0	female	white	2.286908077994429	neutral	136	sub-17	2.0	2.0	136_neutral	0.0		43.20346248606802	
1.0	18.903916358933202	pulse	1.0	t		54.0	female	white	2.286908077994429	neutral	136	sub-17	2.0	2.0	136_neutral	0.0		43.90344546131382	
1.0	19.603925293908105	pulse	1.0	t		54.0	female	white	2.286908077994429	neutral	136	sub-17	2.0	2.0	136_neutral	0.0		44.603454396288726	
2.0	20.012112935743062	face	0.0		146	31.0	male	west_asian	1.9538400318344609	smiling	070	sub-17	2.0	2.0	070_smiling	0.0		45.01164203812368	1.2416691871767398
2.0	20.30392215459142	pulse	0.0	t		31.0	male	west_asian	1.9538400318344609	smiling	070	sub-17	2.0	2.0	070_smiling	0.0		45.30345125697204	
2.0	21.00389516852738	pulse	0.0	t		31.0	male	west_asian	1.9538400318344609	smiling	070	sub-17	2.0	2.0	070_smiling	0.0		46.003424270908	
2.0	21.2537821229198	fix	1.0		444	31.0	male	west_asian	1.9538400318344609	smiling	070	sub-17	2.0	2.0	070_smiling	0.0		46.25331122530042	3.758285534204333
2.0	21.703902292370913	pulse	1.0	t		31.0	male	west_asian	1.9538400318344609	smiling	070	sub-17	2.0	2.0	070_smiling	0.0		46.70343139475153	
2.0	22.40388858804363	pulse	1.0	t		31.0	male	west_asian	1.9538400318344609	smiling	070	sub-17	2.0	2.0	070_smiling	0.0		47.40341769042425	
2.0	23.103857677837368	pulse	1.0	t		31.0	male	west_asian	1.9538400318344609	smiling	070	sub-17	2.0	2.0	070_smiling	0.0		48.10338678021799	
2.0	23.803879894549027	pulse	1.0	t		31.0	male	west_asian	1.9538400318344609	smiling	070	sub-17	2.0	2.0	070_smiling	0.0		48.80340899692965	
2.0	24.5038604549336	pulse	1.0	t		31.0	male	west_asian	1.9538400318344609	smiling	070	sub-17	2.0	2.0	070_smiling	0.0		49.50338955731422	
3.0	25.012067657124135	face	0.0		146	23.0	male	white	2.6275368085953046	neutral	141	sub-17	2.0	2.0	141_neutral	0.0		50.011596759504755	1.2416574147355277
3.0	25.2038561081863	pulse	0.0	t		23.0	male	white	2.6275368085953046	neutral	141	sub-17	2.0	2.0	141_neutral	0.0		50.20338521056692	
3.0	25.90385810044245	pulse	0.0	t		23.0	male	white	2.6275368085953046	neutral	141	sub-17	2.0	2.0	141_neutral	0.0		50.90338720282307	
3.0	26.253725071859662	fix	1.0		444	23.0	male	white	2.6275368085953046	neutral	141	sub-17	2.0	2.0	141_neutral	0.0		51.25325417424028	3.7666312889778055
3.0	26.603847716542077	pulse	1.0	t		23.0	male	white	2.6275368085953046	neutral	141	sub-17	2.0	2.0	141_neutral	0.0		51.6033768189227	
3.0	27.30382857877703	pulse	1.0	t		23.0	male	white	2.6275368085953046	neutral	141	sub-17	2.0	2.0	141_neutral	0.0		52.30335768115765	
3.0	28.003833891474642	pulse	1.0	t		23.0	male	white	2.6275368085953046	neutral	141	sub-17	2.0	2.0	141_neutral	0.0		53.00336299385526	
3.0	28.703818677851814	pulse	1.0	t		23.0	male	white	2.6275368085953046	neutral	141	sub-17	2.0	2.0	141_neutral	0.0		53.703347780232434	
3.0	29.403811312527978	pulse	1.0	t		23.0	male	white	2.6275368085953046	neutral	141	sub-17	2.0	2.0	141_neutral	0.0		54.4033404149086	
4.0	30.020356360837468	face	0.0		145	24.0	male	white	3.1153999204138483	neutral	012	sub-17	2.0	2.0	012_neutral	0.0		55.01988546321809	1.2333140748232836
4.0	30.103864318705746	pulse	0.0	t		24.0	male	white	3.1153999204138483	neutral	012	sub-17	2.0	2.0	012_neutral	0.0		55.103393421086366	
4.0	30.803801713467692	pulse	0.0	t		24.0	male	white	3.1153999204138483	neutral	012	sub-17	2.0	2.0	012_neutral	0.0		55.80333081584831	
4.0	31.25367043566075	fix	1.0		444	24.0	male	white	3.1153999204138483	neutral	012	sub-17	2.0	2.0	012_neutral	0.0		56.25319953804137	3.7582707431865856
4.0	31.503787707275478	pulse	1.0	t		24.0	male	white	3.1153999204138483	neutral	012	sub-17	2.0	2.0	012_neutral	0.0		56.5033168096561	
4.0	32.20377490852843	pulse	1.0	t		24.0	male	white	3.1153999204138483	neutral	012	sub-17	2.0	2.0	012_neutral	0.0		57.20330401090905	
4.0	32.90376844877028	pulse	1.0	t		24.0	male	white	3.1153999204138483	neutral	012	sub-17	2.0	2.0	012_neutral	0.0		57.9032975511509	
4.0	33.60375746116915	pulse	1.0	t		24.0	male	white	3.1153999204138483	neutral	012	sub-17	2.0	2.0	012_neutral	0.0		58.60328656354977	
4.0	34.30374768098409	pulse	1.0	t		24.0	male	white	3.1153999204138483	neutral	012	sub-17	2.0	2.0	012_neutral	0.0		59.30327678336471	
5.0	35.01194117884734	face	0.0		147	20.0	male	black	2.609629924393156	neutral	043	sub-17	2.0	2.0	043_neutral	0.0		60.01147028122796	1.241678242906346
5.0	35.006100237209466	pulse	0.0	t		20.0	male	black	2.609629924393156	neutral	043	sub-17	2.0	2.0	043_neutral	0.0		60.00562933959009	
5.0	35.703739289339865	pulse	0.0	t		20.0	male	black	2.609629924393156	neutral	043	sub-17	2.0	2.0	043_neutral	0.0		60.703268391720485	
5.0	36.25361942175368	fix	1.0		443	20.0	male	black	2.609629924393156	neutral	043	sub-17	2.0	2.0	043_neutral	0.0		61.2531485241343	3.7666044236539165
5.0	36.4037337351765	pulse	1.0	t		20.0	male	black	2.609629924393156	neutral	043	sub-17	2.0	2.0	043_neutral	0.0		61.40326283755712	
5.0	37.10372395499144	pulse	1.0	t		20.0	male	black	2.609629924393156	neutral	043	sub-17	2.0	2.0	043_neutral	0.0		62.10325305737206	
5.0	37.803693346635555	pulse	1.0	t		20.0	male	black	2.609629924393156	neutral	043	sub-17	2.0	2.0	043_neutral	0.0		62.803222449016175	
5.0	38.503727335788426	pulse	1.0	t		20.0	male	black	2.609629924393156	neutral	043	sub-17	2.0	2.0	043_neutral	0.0		63.503256438169046	
5.0	39.203707896173	pulse	1.0	t		20.0	male	black	2.609629924393156	neutral	043	sub-17	2.0	2.0	043_neutral	0.0		64.20323699855362	
5.0	39.903692380699795	pulse	1.0	t		20.0	male	black	2.609629924393156	neutral	043	sub-17	2.0	2.0	043_neutral	0.0		64.90322148308042	
6.0	40.0202238454076	face	0.0		146	22.0	female	west_asian	3.8205332272184642	smiling	066	sub-17	2.0	2.0	066_smiling	1.0	trustworthiness	65.01975294778822	1.2333342992787948
6.0	40.603692259959644	pulse	0.0	t		22.0	female	west_asian	3.8205332272184642	smiling	066	sub-17	2.0	2.0	066_smiling	1.0	trustworthiness	65.60322136234026	
6.0	41.253558144686394	fix	1.0		176	22.0	female	west_asian	3.8205332272184642	smiling	066	sub-17	2.0	2.0	066_smiling	1.0	trustworthiness	66.25308724706701	1.4999873219931033
6.0	41.30367795191705	pulse	1.0	t		22.0	female	west_asian	3.8205332272184642	smiling	066	sub-17	2.0	2.0	066_smiling	1.0	trustworthiness	66.30320705429767	
6.0	42.003715261496836	pulse	1.0	t		22.0	female	west_asian	3.8205332272184642	smiling	066	sub-17	2.0	2.0	066_smiling	1.0	trustworthiness	67.00324436387746	
6.0	42.70365959897754	pulse	1.0	t		22.0	female	west_asian	3.8205332272184642	smiling	066	sub-17	2.0	2.0	066_smiling	1.0	trustworthiness	67.70318870135816	
6.0	42.7535454666795	rating	2.0		295	22.0	female	west_asian	3.8205332272184642	smiling	066	sub-17	2.0	2.0	066_smiling	1.0	trustworthiness	67.75307456906012	2.499969814249198
6.0	43.403663704244536	pulse	2.0	t		22.0	female	west_asian	3.8205332272184642	smiling	066	sub-17	2.0	2.0	066_smiling	1.0	trustworthiness	68.40319280662516	
6.0	44.05684911535354	response	2.0	d		22.0	female	west_asian	3.8205332272184642	smiling	066	sub-17	2.0	2.0	066_smiling	1.0	trustworthiness	69.05637821773416	
6.0	44.10363188847259	pulse	2.0	t		22.0	female	west_asian	3.8205332272184642	smiling	066	sub-17	2.0	2.0	066_smiling	1.0	trustworthiness	69.10316099085321	
6.0	44.803632673298125	pulse	2.0	t		22.0	female	west_asian	3.8205332272184642	smiling	066	sub-17	2.0	2.0	066_smiling	1.0	trustworthiness	69.80316177567875	
6.0	45.253515280928696	fix	3.0		444	22.0	female	west_asian	3.8205332272184642	smiling	066	sub-17	2.0	2.0	066_smiling	1.0	trustworthiness	70.25304438330932	3.7665860103588784
6.0	45.503634061838966	pulse	3.0	t		22.0	female	west_asian	3.8205332272184642	smiling	066	sub-17	2.0	2.0	066_smiling	1.0	trustworthiness	70.50316316421959	
6.0	46.203617338935146	pulse	3.0	t		22.0	female	west_asian	3.8205332272184642	smiling	066	sub-17	2.0	2.0	066_smiling	1.0	trustworthiness	71.20314644131577	
6.0	46.9036045401881	pulse	3.0	t		22.0	female	west_asian	3.8205332272184642	smiling	066	sub-17	2.0	2.0	066_smiling	1.0	trustworthiness	71.90313364256872	
6.0	47.60360200457217	pulse	3.0	t		22.0	female	west_asian	3.8205332272184642	smiling	066	sub-17	2.0	2.0	066_smiling	1.0	trustworthiness	72.60313110695279	
6.0	48.30359433739795	pulse	3.0	t		22.0	female	west_asian	3.8205332272184642	smiling	066	sub-17	2.0	2.0	066_smiling	1.0	trustworthiness	73.30312343977857	
7.0	49.020101291287574	face	0.0		146	47.0	male	east_asian	2.171110226820533	neutral	024	sub-17	2.0	2.0	024_neutral	1.0	dominance	74.0196303936682	1.2333566367306048
7.0	49.00636164574826	pulse	0.0	t		47.0	male	east_asian	2.171110226820533	neutral	024	sub-17	2.0	2.0	024_neutral	1.0	dominance	74.00589074812888	
7.0	49.703579003034974	pulse	0.0	t		47.0	male	east_asian	2.171110226820533	neutral	024	sub-17	2.0	2.0	024_neutral	1.0	dominance	74.7031081054156	
7.0	50.25345792801818	fix	1.0		177	47.0	male	east_asian	2.171110226820533	neutral	024	sub-17	2.0	2.0	024_neutral	1.0	dominance	75.2529870303988	1.4999830959859537
7.0	50.403854478150606	pulse	1.0	t		47.0	male	east_asian	2.171110226820533	neutral	024	sub-17	2.0	2.0	024_neutral	1.0	dominance	75.40338358053123	
7.0	51.103557933383854	pulse	1.0	t		47.0	male	east_asian	2.171110226820533	neutral	024	sub-17	2.0	2.0	024_neutral	1.0	dominance	76.10308703576447	
7.0	51.75344102400413	rating	2.0		294	47.0	male	east_asian	2.171110226820533	neutral	024	sub-17	2.0	2.0	024_neutral	1.0	dominance	76.75297012638475	2.4999695123988204
7.0	51.80355932193925	pulse	2.0	t		47.0	male	east_asian	2.171110226820533	neutral	024	sub-17	2.0	2.0	024_neutral	1.0	dominance	76.80308842431987	
7.0	52.50354833432357	pulse	2.0	t		47.0	male	east_asian	2.171110226820533	neutral	024	sub-17	2.0	2.0	024_neutral	1.0	dominance	77.50307743670419	
7.0	53.203560891590314	pulse	2.0	t		47.0	male	east_asian	2.171110226820533	neutral	024	sub-17	2.0	2.0	024_neutral	1.0	dominance	78.20308999397093	
7.0	53.640009031572845	response	2.0	b		47.0	male	east_asian	2.171110226820533	neutral	024	sub-17	2.0	2.0	024_neutral	1.0	dominance	78.63953813395347	
7.0	53.90352454796084	pulse	2.0	t		47.0	male	east_asian	2.171110226820533	neutral	024	sub-17	2.0	2.0	024_neutral	1.0	dominance	78.90305365034146	
7.0	54.25341053640295	fix	3.0		444	47.0	male	east_asian	2.171110226820533	neutral	024	sub-17	2.0	2.0	024_neutral	1.0	dominance	79.25293963878357	3.7666143849492073
7.0	54.603537407077965	pulse	3.0	t		47.0	male	east_asian	2.171110226820533	neutral	024	sub-17	2.0	2.0	024_neutral	1.0	dominance	79.60306650945859	
7.0	55.30351615631662	pulse	3.0	t		47.0	male	east_asian	2.171110226820533	neutral	024	sub-17	2.0	2.0	024_neutral	1.0	dominance	80.30304525869724	
7.0	56.00350516871549	pulse	3.0	t		47.0	male	east_asian	2.171110226820533	neutral	024	sub-17	2.0	2.0	024_neutral	1.0	dominance	81.00303427109611	
7.0	56.70349961453758	pulse	3.0	t		47.0	male	east_asian	2.171110226820533	neutral	024	sub-17	2.0	2.0	024_neutral	1.0	dominance	81.7030287169182	
7.0	57.40349043806782	pulse	3.0	t		47.0	male	east_asian	2.171110226820533	neutral	024	sub-17	2.0	2.0	024_neutral	1.0	dominance	82.40301954044844	
8.0	58.02002492135216	face	0.0		145	31.0	male	west_asian	1.9538400318344609	neutral	070	sub-17	2.0	2.0	070_neutral	0.0		83.01955402373278	1.2333273565600393
8.0	58.10348609132052	pulse	0.0	t		31.0	male	west_asian	1.9538400318344609	neutral	070	sub-17	2.0	2.0	070_neutral	0.0		83.10301519370114	
8.0	58.80347329255892	pulse	0.0	t		31.0	male	west_asian	1.9538400318344609	neutral	070	sub-17	2.0	2.0	070_neutral	0.0		83.80300239493954	
8.0	59.2533522779122	fix	1.0		444	31.0	male	west_asian	1.9538400318344609	neutral	070	sub-17	2.0	2.0	070_neutral	0.0		84.25288138029282	3.7584141254774295
8.0	59.503475888530375	pulse	1.0	t		31.0	male	west_asian	1.9538400318344609	neutral	070	sub-17	2.0	2.0	070_neutral	0.0		84.503004990911	
8.0	60.20345795821049	pulse	1.0	t		31.0	male	west_asian	1.9538400318344609	neutral	070	sub-17	2.0	2.0	070_neutral	0.0		85.20298706059111	
8.0	60.90346810061601	pulse	1.0	t		31.0	male	west_asian	1.9538400318344609	neutral	070	sub-17	2.0	2.0	070_neutral	0.0		85.90299720299663	
8.0	61.60343930340605	pulse	1.0	t		31.0	male	west_asian	1.9538400318344609	neutral	070	sub-17	2.0	2.0	070_neutral	0.0		86.60296840578667	
8.0	62.30343314552738	pulse	1.0	t		31.0	male	west_asian	1.9538400318344609	neutral	070	sub-17	2.0	2.0	070_neutral	0.0		87.302962247908	
9.0	63.01176640338963	face	0.0		147	28.0	male	east_asian	1.5563072025467568	neutral	005	sub-17	2.0	2.0	005_neutral	0.0		88.01129550577025	1.2415333513199585
9.0	63.00592908402905	pulse	0.0	t		28.0	male	east_asian	1.5563072025467568	neutral	005	sub-17	2.0	2.0	005_neutral	0.0		88.00545818640967	
9.0	63.703420527876006	pulse	0.0	t		28.0	male	east_asian	1.5563072025467568	neutral	005	sub-17	2.0	2.0	005_neutral	0.0		88.70294963025663	
9.0	64.25329975470959	fix	1.0		443	28.0	male	east_asian	1.5563072025467568	neutral	005	sub-17	2.0	2.0	005_neutral	0.0		89.25282885709021	3.7666077440953813
9.0	64.4034134644171	pulse	1.0	t		28.0	male	east_asian	1.5563072025467568	neutral	005	sub-17	2.0	2.0	005_neutral	0.0		89.40294256679772	
9.0	65.10340217495104	pulse	1.0	t		28.0	male	east_asian	1.5563072025467568	neutral	005	sub-17	2.0	2.0	005_neutral	0.0		90.10293127733166	
9.0	65.80339511147758	pulse	1.0	t		28.0	male	east_asian	1.5563072025467568	neutral	005	sub-17	2.0	2.0	005_neutral	0.0		90.8029242138582	
9.0	66.50338382201153	pulse	1.0	t		28.0	male	east_asian	1.5563072025467568	neutral	005	sub-17	2.0	2.0	005_neutral	0.0		91.50291292439215	
9.0	67.20338189012546	pulse	1.0	t		28.0	male	east_asian	1.5563072025467568	neutral	005	sub-17	2.0	2.0	005_neutral	0.0		92.20291099250608	
9.0	67.9033615449298	pulse	1.0	t		28.0	male	east_asian	1.5563072025467568	neutral	005	sub-17	2.0	2.0	005_neutral	0.0		92.90289064731041	
10.0	68.01990749880497	face	0.0		146	47.0	male	east_asian	2.171110226820533	smiling	024	sub-17	2.0	2.0	024_smiling	0.0		93.01943660118559	1.2333261491294252
10.0	68.60336957433901	pulse	0.0	t		47.0	male	east_asian	2.171110226820533	smiling	024	sub-17	2.0	2.0	024_smiling	0.0		93.60289867671963	
10.0	69.2532336479344	fix	1.0		443	47.0	male	east_asian	2.171110226820533	smiling	024	sub-17	2.0	2.0	024_smiling	0.0		94.25276275031501	3.766617101675365
10.0	69.3034292213706	pulse	1.0	t		47.0	male	east_asian	2.171110226820533	smiling	024	sub-17	2.0	2.0	024_smiling	0.0		94.30295832375123	
10.0	70.00336420128588	pulse	1.0	t		47.0	male	east_asian	2.171110226820533	smiling	024	sub-17	2.0	2.0	024_smiling	0.0		95.0028933036665	
10.0	70.70333751708677	pulse	1.0	t		47.0	male	east_asian	2.171110226820533	smiling	024	sub-17	2.0	2.0	024_smiling	0.0		95.70286661946739	
10.0	71.40333679261676	pulse	1.0	t		47.0	male	east_asian	2.171110226820533	smiling	024	sub-17	2.0	2.0	024_smiling	0.0		96.40286589499738	
10.0	72.1033360681613	pulse	1.0	t		47.0	male	east_asian	2.171110226820533	smiling	024	sub-17	2.0	2.0	024_smiling	0.0		97.10286517054192	
10.0	72.80332809912215	pulse	1.0	t		47.0	male	east_asian	2.171110226820533	smiling	024	sub-17	2.0	2.0	024_smiling	0.0		97.80285720150277	
11.0	73.01985074960976	face	0.0		145	20.0	male	black	2.609629924393156	smiling	043	sub-17	2.0	2.0	043_smiling	0.0		98.01937985199038	1.2333294695563382
11.0	73.50330926322204	pulse	0.0	t		20.0	male	black	2.609629924393156	smiling	043	sub-17	2.0	2.0	043_smiling	0.0		98.50283836560266	
11.0	74.20332393349963	pulse	0.0	t		20.0	male	black	2.609629924393156	smiling	043	sub-17	2.0	2.0	043_smiling	0.0		99.20285303588025	
11.0	74.2531802191661	fix	1.0		445	20.0	male	black	2.609629924393156	smiling	043	sub-17	2.0	2.0	043_smiling	0.0		99.25270932154672	3.766611970087979
11.0	74.90330177715805	pulse	1.0	t		20.0	male	black	2.609629924393156	smiling	043	sub-17	2.0	2.0	043_smiling	0.0		99.90283087953867	
11.0	75.60329954340705	pulse	1.0	t		20.0	male	black	2.609629924393156	smiling	043	sub-17	2.0	2.0	043_smiling	0.0		100.60282864578767	
11.0	76.30327195364225	pulse	1.0	t		20.0	male	black	2.609629924393156	smiling	043	sub-17	2.0	2.0	043_smiling	0.0		101.30280105602287	
11.0	77.003283001628	pulse	1.0	t		20.0	male	black	2.609629924393156	smiling	043	sub-17	2.0	2.0	043_smiling	0.0		102.00281210400863	
11.0	77.70326054343604	pulse	1.0	t		20.0	male	black	2.609629924393156	smiling	043	sub-17	2.0	2.0	043_smiling	0.0		102.70278964581667	
12.0	78.01979218925408	face	0.0		145	31.0	female	white	2.1822522881018704	smiling	102	sub-17	2.0	2.0	102_smiling	0.0		103.0193212916347	1.233332186282496
12.0	78.40326283754257	pulse	0.0	t		31.0	female	white	2.1822522881018704	smiling	102	sub-17	2.0	2.0	102_smiling	0.0		103.40279193992319	
12.0	79.10324581278837	pulse	0.0	t		31.0	female	white	2.1822522881018704	smiling	102	sub-17	2.0	2.0	102_smiling	0.0		104.102774915169	
12.0	79.25312437553657	fix	1.0		444	31.0	female	white	2.1822522881018704	smiling	102	sub-17	2.0	2.0	102_smiling	0.0		104.25265347791719	3.766617705390672
12.0	79.80323754189885	pulse	1.0	t		31.0	female	white	2.1822522881018704	smiling	102	sub-17	2.0	2.0	102_smiling	0.0		104.80276664427947	
12.0	80.5032304784254	pulse	1.0	t		31.0	female	white	2.1822522881018704	smiling	102	sub-17	2.0	2.0	102_smiling	0.0		105.50275958080601	
12.0	81.20322250938625	pulse	1.0	t		31.0	female	white	2.1822522881018704	smiling	102	sub-17	2.0	2.0	102_smiling	0.0		106.20275161176687	
12.0	81.90321786078857	pulse	1.0	t		31.0	female	white	2.1822522881018704	smiling	102	sub-17	2.0	2.0	102_smiling	0.0		106.9027469631692	
12.0	82.6032068731729	pulse	1.0	t		31.0	female	white	2.1822522881018704	smiling	102	sub-17	2.0	2.0	102_smiling	0.0		107.60273597555351	
13.0	83.01974208092724	face	0.0		145	26.0	male	white	2.7966573816155993	smiling	117	sub-17	2.0	2.0	117_smiling	0.0		108.01927118330786	1.233328865841031
13.0	83.30319709300238	pulse	0.0	t		26.0	male	white	2.7966573816155993	smiling	117	sub-17	2.0	2.0	117_smiling	0.0		108.302726195383	
13.0	84.00318519980647	pulse	0.0	t		26.0	male	white	2.7966573816155993	smiling	117	sub-17	2.0	2.0	117_smiling	0.0		109.00271430218709	
13.0	84.25307094676828	fix	1.0		444	26.0	male	white	2.7966573816155993	smiling	117	sub-17	2.0	2.0	117_smiling	0.0		109.2526000491489	3.7666077440953813
13.0	84.70317964562855	pulse	1.0	t		26.0	male	white	2.7966573816155993	smiling	117	sub-17	2.0	2.0	117_smiling	0.0		109.70270874800917	
13.0	85.40316986545804	pulse	1.0	t		26.0	male	white	2.7966573816155993	smiling	117	sub-17	2.0	2.0	117_smiling	0.0		110.40269896783866	
13.0	86.10316551871074	pulse	1.0	t		26.0	male	white	2.7966573816155993	smiling	117	sub-17	2.0	2.0	117_smiling	0.0		111.10269462109136	
13.0	86.80315453109506	pulse	1.0	t		26.0	male	white	2.7966573816155993	smiling	117	sub-17	2.0	2.0	117_smiling	0.0		111.80268363347568	
13.0	87.50315833449713	pulse	1.0	t		26.0	male	white	2.7966573816155993	smiling	117	sub-17	2.0	2.0	117_smiling	0.0		112.50268743687775	
14.0	88.01967869086366	face	0.0		145	37.0	male	white	3.898925586947871	smiling	101	sub-17	2.0	2.0	101_smiling	0.0		113.01920779324428	1.2333358085597865
14.0	88.20314432831947	pulse	0.0	t		37.0	male	white	3.898925586947871	smiling	101	sub-17	2.0	2.0	101_smiling	0.0		113.20267343070009	
14.0	88.9031345481344	pulse	0.0	t		37.0	male	white	3.898925586947871	smiling	101	sub-17	2.0	2.0	101_smiling	0.0		113.90266365051502	
14.0	89.25301449942344	fix	1.0		444	37.0	male	white	3.898925586947871	smiling	101	sub-17	2.0	2.0	101_smiling	0.0		114.25254360180406	3.766613177533145
14.0	89.60311178807751	pulse	1.0	t		37.0	male	white	3.898925586947871	smiling	101	sub-17	2.0	2.0	101_smiling	0.0		114.60264089045813	
14.0	90.30312132678227	pulse	1.0	t		37.0	male	white	3.898925586947871	smiling	101	sub-17	2.0	2.0	101_smiling	0.0		115.3026504291629	
14.0	91.00311818745104	pulse	1.0	t		37.0	male	white	3.898925586947871	smiling	101	sub-17	2.0	2.0	101_smiling	0.0		116.00264728983166	
14.0	91.70309995526623	pulse	1.0	t		37.0	male	white	3.898925586947871	smiling	101	sub-17	2.0	2.0	101_smiling	0.0		116.70262905764685	
14.0	92.40309470295324	pulse	1.0	t		37.0	male	white	3.898925586947871	smiling	101	sub-17	2.0	2.0	101_smiling	0.0		117.40262380533386	
15.0	93.01962767695659	face	0.0		145	26.0	female	white	4.854755272582572	smiling	027	sub-17	2.0	2.0	027_smiling	0.0		118.01915677933721	1.2333279602607945
15.0	93.10316491499543	pulse	0.0	t		26.0	female	white	4.854755272582572	smiling	027	sub-17	2.0	2.0	027_smiling	0.0		118.10269401737605	
15.0	93.80307514258311	pulse	0.0	t		26.0	female	white	4.854755272582572	smiling	027	sub-17	2.0	2.0	027_smiling	0.0		118.80260424496373	
15.0	94.25295563721738	fix	1.0		444	26.0	female	white	4.854755272582572	smiling	027	sub-17	2.0	2.0	027_smiling	0.0		119.252484739598	3.766609253390925
15.0	94.50307079583581	pulse	1.0	t		26.0	female	white	4.854755272582572	smiling	027	sub-17	2.0	2.0	027_smiling	0.0		119.50259989821643	
15.0	95.20305950636975	pulse	1.0	t		26.0	female	white	4.854755272582572	smiling	027	sub-17	2.0	2.0	027_smiling	0.0		120.20258860875037	
15.0	95.90305425405677	pulse	1.0	t		26.0	female	white	4.854755272582572	smiling	027	sub-17	2.0	2.0	027_smiling	0.0		120.90258335643739	
15.0	96.60303572000703	pulse	1.0	t		26.0	female	white	4.854755272582572	smiling	027	sub-17	2.0	2.0	027_smiling	0.0		121.60256482238765	
15.0	97.30303439183626	pulse	1.0	t		26.0	female	white	4.854755272582572	smiling	027	sub-17	2.0	2.0	027_smiling	0.0		122.30256349421688	
16.0	98.01956489060831	face	0.0		146	20.0	female	white	3.9502586549940313	neutral	091	sub-17	2.0	2.0	091_neutral	0.0		123.01909399298893	1.2333358085597865
16.0	98.00588108869852	pulse	0.0	t		20.0	female	white	3.9502586549940313	neutral	091	sub-17	2.0	2.0	091_neutral	0.0		123.00541019107914	
16.0	98.7030223779002	pulse	0.0	t		20.0	female	white	3.9502586549940313	neutral	091	sub-17	2.0	2.0	091_neutral	0.0		123.70255148028082	
16.0	99.2529006991681	fix	1.0		443	20.0	female	white	3.9502586549940313	neutral	091	sub-17	2.0	2.0	091_neutral	0.0		124.25242980154871	3.7666068385151448
16.0	99.40301772930252	pulse	1.0	t		20.0	female	white	3.9502586549940313	neutral	091	sub-17	2.0	2.0	091_neutral	0.0		124.40254683168314	
16.0	100.10300553425623	pulse	1.0	t		20.0	female	white	3.9502586549940313	neutral	091	sub-17	2.0	2.0	091_neutral	0.0		125.10253463663685	
16.0	100.80300571536645	pulse	1.0	t		20.0	female	white	3.9502586549940313	neutral	091	sub-17	2.0	2.0	091_neutral	0.0		125.80253481774707	
16.0	101.50298597390065	pulse	1.0	t		20.0	female	white	3.9502586549940313	neutral	091	sub-17	2.0	2.0	091_neutral	0.0		126.50251507628127	
16.0	102.20298162715335	pulse	1.0	t		20.0	female	white	3.9502586549940313	neutral	091	sub-17	2.0	2.0	091_neutral	0.0		127.20251072953397	
16.0	102.90297395996458	pulse	1.0	t		20.0	female	white	3.9502586549940313	neutral	091	sub-17	2.0	2.0	091_neutral	0.0		127.9025030623452	
17.0	103.01950753768324	face	0.0		146	34.0	male	white	2.651014723438122	neutral	121	sub-17	2.0	2.0	121_neutral	0.0		128.01903664006386	1.2333391290012514
17.0	103.60297414108936	pulse	0.0	t		34.0	male	white	2.651014723438122	neutral	121	sub-17	2.0	2.0	121_neutral	0.0		128.60250324346998	
17.0	104.25284666668449	fix	1.0		443	34.0	male	white	2.651014723438122	neutral	121	sub-17	2.0	2.0	121_neutral	0.0		129.2523757690651	3.7666056310845306
17.0	104.30295711632061	pulse	1.0	t		34.0	male	white	2.651014723438122	neutral	121	sub-17	2.0	2.0	121_neutral	0.0		129.30248621870123	
17.0	105.00293345069804	pulse	1.0	t		34.0	male	white	2.651014723438122	neutral	121	sub-17	2.0	2.0	121_neutral	0.0		130.00246255307866	
17.0	105.70293876339565	pulse	1.0	t		34.0	male	white	2.651014723438122	neutral	121	sub-17	2.0	2.0	121_neutral	0.0		130.70246786577627	
17.0	106.40292988877627	pulse	1.0	t		34.0	male	white	2.651014723438122	neutral	121	sub-17	2.0	2.0	121_neutral	0.0		131.4024589911569	
17.0	107.10292765503982	pulse	1.0	t		34.0	male	white	2.651014723438122	neutral	121	sub-17	2.0	2.0	121_neutral	0.0		132.10245675742044	
17.0	107.80291274328192	pulse	1.0	t		34.0	male	white	2.651014723438122	neutral	121	sub-17	2.0	2.0	121_neutral	0.0		132.80244184566254	
18.0	108.01945229776902	face	0.0		145	20.0	female	white	3.9502586549940313	smiling	091	sub-17	2.0	2.0	091_smiling	1.0	trustworthiness	133.01898140014964	1.2333324881328736
18.0	108.50291413182276	pulse	0.0	t		20.0	female	white	3.9502586549940313	smiling	091	sub-17	2.0	2.0	091_smiling	1.0	trustworthiness	133.50244323420338	
18.0	109.20290072934586	pulse	0.0	t		20.0	female	white	3.9502586549940313	smiling	091	sub-17	2.0	2.0	091_smiling	1.0	trustworthiness	134.20242983172648	
18.0	109.2527847859019	fix	1.0		177	20.0	female	white	3.9502586549940313	smiling	091	sub-17	2.0	2.0	091_smiling	1.0	trustworthiness	134.25231388828252	1.4999885294237174
18.0	109.90290634389385	pulse	1.0	t		20.0	female	white	3.9502586549940313	smiling	091	sub-17	2.0	2.0	091_smiling	1.0	trustworthiness	134.90243544627447	
18.0	110.60288630056311	pulse	1.0	t		20.0	female	white	3.9502586549940313	smiling	091	sub-17	2.0	2.0	091_smiling	1.0	trustworthiness	135.60241540294373	
18.0	110.75277331532561	rating	2.0		295	20.0	female	white	3.9502586549940313	smiling	091	sub-17	2.0	2.0	091_smiling	1.0	trustworthiness	135.75230241770623	2.4999646826763637
18.0	111.30288768910395	pulse	2.0	t		20.0	female	white	3.9502586549940313	smiling	091	sub-17	2.0	2.0	091_smiling	1.0	trustworthiness	136.30241679148457	
18.0	112.00287187178037	pulse	2.0	t		20.0	female	white	3.9502586549940313	smiling	091	sub-17	2.0	2.0	091_smiling	1.0	trustworthiness	137.002400974161	
18.0	112.54776773398044	response	2.0	w		20.0	female	white	3.9502586549940313	smiling	091	sub-17	2.0	2.0	091_smiling	1.0	trustworthiness	137.54729683636106	
18.0	112.70285605444224	pulse	2.0	t		20.0	female	white	3.9502586549940313	smiling	091	sub-17	2.0	2.0	091_smiling	1.0	trustworthiness	137.70238515682286	
18.0	113.25273799800198	fix	3.0		443	20.0	female	white	3.9502586549940313	smiling	091	sub-17	2.0	2.0	091_smiling	1.0	trustworthiness	138.2522671003826	3.766615290529444
18.0	113.40285532998678	pulse	3.0	t		20.0	female	white	3.9502586549940313	smiling	091	sub-17	2.0	2.0	091_smiling	1.0	trustworthiness	138.4023844323674	
18.0	114.1028533981007	pulse	3.0	t		20.0	female	white	3.9502586549940313	smiling	091	sub-17	2.0	2.0	091_smiling	1.0	trustworthiness	139.10238250048133	
18.0	114.80283426033566	pulse	3.0	t		20.0	female	white	3.9502586549940313	smiling	091	sub-17	2.0	2.0	091_smiling	1.0	trustworthiness	139.80236336271628	
18.0	115.50282870615774	pulse	3.0	t		20.0	female	white	3.9502586549940313	smiling	091	sub-17	2.0	2.0	091_smiling	1.0	trustworthiness	140.50235780853836	
18.0	116.20282767985191	pulse	3.0	t		20.0	female	white	3.9502586549940313	smiling	091	sub-17	2.0	2.0	091_smiling	1.0	trustworthiness	141.20235678223253	
18.0	116.90294196308241	pulse	3.0	t		20.0	female	white	3.9502586549940313	smiling	091	sub-17	2.0	2.0	091_smiling	1.0	trustworthiness	141.90247106546303	
19.0	117.01935328853142	face	0.0		146	30.0	female	black	2.7345801830481498	smiling	062	sub-17	2.0	2.0	062_smiling	0.0		142.01888239091204	1.2333312807022594
19.0	117.60280540277017	pulse	0.0	t		30.0	female	black	2.7345801830481498	smiling	062	sub-17	2.0	2.0	062_smiling	0.0		142.6023345051508	
19.0	118.25268456923368	fix	1.0		443	30.0	female	black	2.7345801830481498	smiling	062	sub-17	2.0	2.0	062_smiling	0.0		143.2522136716143	3.76660985709168
19.0	118.30279652816535	pulse	1.0	t		30.0	female	black	2.7345801830481498	smiling	062	sub-17	2.0	2.0	062_smiling	0.0		143.30232563054597	
19.0	119.00279338884866	pulse	1.0	t		30.0	female	black	2.7345801830481498	smiling	062	sub-17	2.0	2.0	062_smiling	0.0		144.00232249122928	
19.0	119.70277877894114	pulse	1.0	t		30.0	female	black	2.7345801830481498	smiling	062	sub-17	2.0	2.0	062_smiling	0.0		144.70230788132176	
19.0	120.40277503590914	pulse	1.0	t		30.0	female	black	2.7345801830481498	smiling	062	sub-17	2.0	2.0	062_smiling	0.0		145.40230413828976	
19.0	121.10276465200877	pulse	1.0	t		30.0	female	black	2.7345801830481498	smiling	062	sub-17	2.0	2.0	062_smiling	0.0		146.1022937543894	
19.0	121.80275607925432	pulse	1.0	t		30.0	female	black	2.7345801830481498	smiling	062	sub-17	2.0	2.0	062_smiling	0.0		146.80228518163494	
20.0	122.01929442632536	face	0.0		145	40.0	female	west_asian	1.5777954635893354	smiling	038	sub-17	2.0	2.0	038_smiling	0.0		147.01882352870598	1.2333312807022594
20.0	122.50276863653562	pulse	0.0	t		40.0	female	west_asian	1.5777954635893354	smiling	038	sub-17	2.0	2.0	038_smiling	0.0		147.50229773891624	
20.0	123.20272444460716	pulse	0.0	t		40.0	female	west_asian	1.5777954635893354	smiling	038	sub-17	2.0	2.0	038_smiling	0.0		148.20225354698778	
20.0	123.25262570702762	fix	1.0		1185	40.0	female	west_asian	1.5777954635893354	smiling	038	sub-17	2.0	2.0	038_smiling	0.0		148.25215480940824	10.016537260380574
20.0	123.90271828671393	pulse	1.0	t		40.0	female	west_asian	1.5777954635893354	smiling	038	sub-17	2.0	2.0	038_smiling	0.0		148.90224738909455	
20.0	124.60273356069229	pulse	1.0	t		40.0	female	west_asian	1.5777954635893354	smiling	038	sub-17	2.0	2.0	038_smiling	0.0		149.6022626630729	
20.0	125.30272800651437	pulse	1.0	t		40.0	female	west_asian	1.5777954635893354	smiling	038	sub-17	2.0	2.0	038_smiling	0.0		150.302257108895	
20.0	126.00270796318364	pulse	1.0	t		40.0	female	west_asian	1.5777954635893354	smiling	038	sub-17	2.0	2.0	038_smiling	0.0		151.00223706556426	
20.0	126.7026978811482	pulse	1.0	t		40.0	female	west_asian	1.5777954635893354	smiling	038	sub-17	2.0	2.0	038_smiling	0.0		151.70222698352882	
20.0	127.40271043841494	pulse	1.0	t		40.0	female	west_asian	1.5777954635893354	smiling	038	sub-17	2.0	2.0	038_smiling	0.0		152.40223954079556	
20.0	128.1026903950842	pulse	1.0	t		40.0	female	west_asian	1.5777954635893354	smiling	038	sub-17	2.0	2.0	038_smiling	0.0		153.10221949746483	
20.0	128.80267970933346	pulse	1.0	t		40.0	female	west_asian	1.5777954635893354	smiling	038	sub-17	2.0	2.0	038_smiling	0.0		153.80220881171408	
20.0	129.50268532388145	pulse	1.0	t		40.0	female	west_asian	1.5777954635893354	smiling	038	sub-17	2.0	2.0	038_smiling	0.0		154.50221442626207	
20.0	130.20266105454357	pulse	1.0	t		40.0	female	west_asian	1.5777954635893354	smiling	038	sub-17	2.0	2.0	038_smiling	0.0		155.2021901569242	
20.0	130.90265308550443	pulse	1.0	t		40.0	female	west_asian	1.5777954635893354	smiling	038	sub-17	2.0	2.0	038_smiling	0.0		155.90218218788505	
20.0	131.60265205918404	pulse	1.0	t		40.0	female	west_asian	1.5777954635893354	smiling	038	sub-17	2.0	2.0	038_smiling	0.0		156.60218116156466	
20.0	132.30263593999553	pulse	1.0	t		40.0	female	west_asian	1.5777954635893354	smiling	038	sub-17	2.0	2.0	038_smiling	0.0		157.30216504237615	
20.0	133.00262253751862	pulse	1.0	t		40.0	female	west_asian	1.5777954635893354	smiling	038	sub-17	2.0	2.0	038_smiling	0.0		158.00215163989924	
21.0	133.2691629674082	face	0.0		145	24.0	female	east_asian	4.409868682849185	smiling	030	sub-17	2.0	2.0	030_smiling	0.0		158.2686920697888	1.2333324881328736
21.0	133.7026242279244	pulse	0.0	t		24.0	female	east_asian	4.409868682849185	smiling	030	sub-17	2.0	2.0	030_smiling	0.0		158.702153330305	
21.0	134.40261444773932	pulse	0.0	t		24.0	female	east_asian	4.409868682849185	smiling	030	sub-17	2.0	2.0	030_smiling	0.0		159.40214355011994	
21.0	134.50249545554107	fix	1.0		444	24.0	female	east_asian	4.409868682849185	smiling	030	sub-17	2.0	2.0	030_smiling	0.0		159.5020245579217	3.7582773840549635
21.0	135.10261161028757	pulse	1.0	t		24.0	female	east_asian	4.409868682849185	smiling	030	sub-17	2.0	2.0	030_smiling	0.0		160.1021407126682	
21.0	135.80260726354027	pulse	1.0	t		24.0	female	east_asian	4.409868682849185	smiling	030	sub-17	2.0	2.0	030_smiling	0.0		160.8021363659209	
21.0	136.50260412422358	pulse	1.0	t		24.0	female	east_asian	4.409868682849185	smiling	030	sub-17	2.0	2.0	030_smiling	0.0		161.5021332266042	
21.0	137.2025831753126	pulse	1.0	t		24.0	female	east_asian	4.409868682849185	smiling	030	sub-17	2.0	2.0	030_smiling	0.0		162.20211227769323	
21.0	137.9025664524088	pulse	1.0	t		24.0	female	east_asian	4.409868682849185	smiling	030	sub-17	2.0	2.0	030_smiling	0.0		162.9020955547894	
22.0	138.26077283959603	face	0.0		146	24.0	female	east_asian	2.9076800636689217	neutral	034	sub-17	2.0	2.0	034_neutral	0.0		163.26030194197665	1.2416716020379681
22.0	138.60258565054392	pulse	0.0	t		24.0	female	east_asian	2.9076800636689217	neutral	034	sub-17	2.0	2.0	034_neutral	0.0		163.60211475292454	
22.0	139.3025556459179	pulse	0.0	t		24.0	female	east_asian	2.9076800636689217	neutral	034	sub-17	2.0	2.0	034_neutral	0.0		164.3020847482985	
22.0	139.502444441634	fix	1.0		444	24.0	female	east_asian	2.9076800636689217	neutral	034	sub-17	2.0	2.0	034_neutral	0.0		164.50197354401462	3.76660593294946
22.0	140.0026515158388	pulse	1.0	t		24.0	female	east_asian	2.9076800636689217	neutral	034	sub-17	2.0	2.0	034_neutral	0.0		165.00218061821943	
22.0	140.70252250196063	pulse	1.0	t		24.0	female	east_asian	2.9076800636689217	neutral	034	sub-17	2.0	2.0	034_neutral	0.0		165.70205160434125	
22.0	141.40253777595353	pulse	1.0	t		24.0	female	east_asian	2.9076800636689217	neutral	034	sub-17	2.0	2.0	034_neutral	0.0		166.40206687833415	
22.0	142.1025298069144	pulse	1.0	t		24.0	female	east_asian	2.9076800636689217	neutral	034	sub-17	2.0	2.0	034_neutral	0.0		167.102058909295	
22.0	142.80251851744833	pulse	1.0	t		24.0	female	east_asian	2.9076800636689217	neutral	034	sub-17	2.0	2.0	034_neutral	0.0		167.80204761982895	
23.0	143.26905037458346	face	0.0		145	30.0	female	black	2.7345801830481498	neutral	062	sub-17	2.0	2.0	062_neutral	0.0		168.26857947696408	1.2333364122750936
23.0	143.50250662426697	pulse	0.0	t		30.0	female	black	2.7345801830481498	neutral	062	sub-17	2.0	2.0	062_neutral	0.0		168.5020357266476	
23.0	144.20250107008906	pulse	0.0	t		30.0	female	black	2.7345801830481498	neutral	062	sub-17	2.0	2.0	062_neutral	0.0		169.20203017246968	
23.0	144.50238678685855	fix	1.0		444	30.0	female	black	2.7345801830481498	neutral	062	sub-17	2.0	2.0	062_neutral	0.0		169.50191588923917	3.7666071403800743
23.0	144.9025018549146	pulse	1.0	t		30.0	female	black	2.7345801830481498	neutral	062	sub-17	2.0	2.0	062_neutral	0.0		169.9020309572952	
23.0	145.6024866413063	pulse	1.0	t		30.0	female	black	2.7345801830481498	neutral	062	sub-17	2.0	2.0	062_neutral	0.0		170.60201574368693	
23.0	146.30247776668693	pulse	1.0	t		30.0	female	black	2.7345801830481498	neutral	062	sub-17	2.0	2.0	062_neutral	0.0		171.30200686906755	
23.0	147.00248821095738	pulse	1.0	t		30.0	female	black	2.7345801830481498	neutral	062	sub-17	2.0	2.0	062_neutral	0.0		172.002017313338	
23.0	147.7024633379042	pulse	1.0	t		30.0	female	black	2.7345801830481498	neutral	062	sub-17	2.0	2.0	062_neutral	0.0		172.7019924402848	
24.0	148.26899392723863	face	0.0		145	27.0	female	white	3.504576203740549	smiling	144	sub-17	2.0	2.0	144_smiling	0.0		173.26852302961925	1.2333336955634877
24.0	148.4024589911569	pulse	0.0	t		27.0	female	white	3.504576203740549	smiling	144	sub-17	2.0	2.0	144_smiling	0.0		173.4019880935375	
24.0	149.10245192769798	pulse	0.0	t		27.0	female	white	3.504576203740549	smiling	144	sub-17	2.0	2.0	144_smiling	0.0		174.1019810300786	
24.0	149.5023276228021	fix	1.0		444	27.0	female	white	3.504576203740549	smiling	144	sub-17	2.0	2.0	144_smiling	0.0		174.50185672518273	3.7665899345010985
24.0	149.8024276583601	pulse	1.0	t		27.0	female	white	3.504576203740549	smiling	144	sub-17	2.0	2.0	144_smiling	0.0		174.80195676074072	
24.0	150.50242844318564	pulse	1.0	t		27.0	female	white	3.504576203740549	smiling	144	sub-17	2.0	2.0	144_smiling	0.0		175.50195754556626	
24.0	151.20242711501487	pulse	1.0	t		27.0	female	white	3.504576203740549	smiling	144	sub-17	2.0	2.0	144_smiling	0.0		176.2019562173955	
24.0	151.90241069396143	pulse	1.0	t		27.0	female	white	3.504576203740549	smiling	144	sub-17	2.0	2.0	144_smiling	0.0		176.90193979634205	
24.0	152.60240483793314	pulse	1.0	t		27.0	female	white	3.504576203740549	smiling	144	sub-17	2.0	2.0	144_smiling	0.0		177.60193394031376	
25.0	153.2689175573032	face	0.0		145	36.0	female	white	2.7548746518105847	smiling	011	sub-17	2.0	2.0	011_smiling	0.0		178.26844665968383	1.2333527125738328
25.0	153.30239837818954	pulse	0.0	t		36.0	female	white	2.7548746518105847	smiling	011	sub-17	2.0	2.0	011_smiling	0.0		178.30192748057016	
25.0	154.00240761501482	pulse	0.0	t		36.0	female	white	2.7548746518105847	smiling	011	sub-17	2.0	2.0	011_smiling	0.0		179.00193671739544	
25.0	154.50227026987704	fix	1.0		443	36.0	female	white	2.7548746518105847	smiling	011	sub-17	2.0	2.0	011_smiling	0.0		179.50179937225766	3.7666071403800743
25.0	154.70238304382656	pulse	1.0	t		36.0	female	white	2.7548746518105847	smiling	011	sub-17	2.0	2.0	011_smiling	0.0		179.70191214620718	
25.0	155.40236752835335	pulse	1.0	t		36.0	female	white	2.7548746518105847	smiling	011	sub-17	2.0	2.0	011_smiling	0.0		180.40189663073397	
25.0	156.10237495404726	pulse	1.0	t		36.0	female	white	2.7548746518105847	smiling	011	sub-17	2.0	2.0	011_smiling	0.0		181.10190405642788	
25.0	156.80235641999752	pulse	1.0	t		36.0	female	white	2.7548746518105847	smiling	011	sub-17	2.0	2.0	011_smiling	0.0		181.80188552237814	
25.0	157.50235207325022	pulse	1.0	t		36.0	female	white	2.7548746518105847	smiling	011	sub-17	2.0	2.0	011_smiling	0.0		182.50188117563084	
25.0	158.20233504849602	pulse	1.0	t		36.0	female	white	2.7548746518105847	smiling	011	sub-17	2.0	2.0	011_smiling	0.0		183.20186415087664	
26.0	158.26887741025712	face	0.0		146	27.0	male	black	3.5523278949462798	smiling	042	sub-17	2.0	2.0	042_smiling	0.0		183.26840651263774	1.2333342992787948
26.0	158.902350020624	pulse	0.0	t		27.0	male	black	3.5523278949462798	smiling	042	sub-17	2.0	2.0	042_smiling	0.0		183.90187912300462	
26.0	159.5022117095359	fix	1.0		443	27.0	male	black	3.5523278949462798	smiling	042	sub-17	2.0	2.0	042_smiling	0.0		184.50174081191653	3.7666273648210336
26.0	159.60232575128612	pulse	1.0	t		27.0	male	black	3.5523278949462798	smiling	042	sub-17	2.0	2.0	042_smiling	0.0		184.60185485366674	
26.0	160.30231597110105	pulse	1.0	t		27.0	male	black	3.5523278949462798	smiling	042	sub-17	2.0	2.0	042_smiling	0.0		185.30184507348167	
26.0	161.00233003766334	pulse	1.0	t		27.0	male	black	3.5523278949462798	smiling	042	sub-17	2.0	2.0	042_smiling	0.0		186.00185914004396	
26.0	161.702302447884	pulse	1.0	t		27.0	male	black	3.5523278949462798	smiling	042	sub-17	2.0	2.0	042_smiling	0.0		186.70183155026461	
26.0	162.40229417699447	pulse	1.0	t		27.0	male	black	3.5523278949462798	smiling	042	sub-17	2.0	2.0	042_smiling	0.0		187.4018232793751	
26.0	163.10230794169183	pulse	1.0	t		27.0	male	black	3.5523278949462798	smiling	042	sub-17	2.0	2.0	042_smiling	0.0		188.10183704407245	
27.0	163.26883907435695	face	0.0		146	22.0	female	white	4.614007162753682	smiling	009	sub-17	2.0	2.0	009_smiling	0.0		188.26836817673757	1.2332956615282455
27.0	163.8022821630584	pulse	0.0	t		22.0	female	white	4.614007162753682	smiling	009	sub-17	2.0	2.0	009_smiling	0.0		188.80181126543903	
27.0	164.5021347358852	fix	1.0		444	22.0	female	white	4.614007162753682	smiling	009	sub-17	2.0	2.0	009_smiling	0.0		189.5016638382658	3.758398730758927
27.0	164.50958699260082	pulse	1.0	t		22.0	female	white	4.614007162753682	smiling	009	sub-17	2.0	2.0	009_smiling	0.0		189.50911609498144	
27.0	165.20227105471713	pulse	1.0	t		22.0	female	white	4.614007162753682	smiling	009	sub-17	2.0	2.0	009_smiling	0.0		190.20180015709775	
27.0	165.9022564448096	pulse	1.0	t		22.0	female	white	4.614007162753682	smiling	009	sub-17	2.0	2.0	009_smiling	0.0		190.90178554719023	
27.0	166.60231246954936	pulse	1.0	t		22.0	female	white	4.614007162753682	smiling	009	sub-17	2.0	2.0	009_smiling	0.0		191.60184157192998	
27.0	167.3022181692795	pulse	1.0	t		22.0	female	white	4.614007162753682	smiling	009	sub-17	2.0	2.0	009_smiling	0.0		192.30174727166013	
27.0	168.00224763057486	pulse	1.0	t		22.0	female	white	4.614007162753682	smiling	009	sub-17	2.0	2.0	009_smiling	0.0		193.00177673295548	
28.0	168.26053346664412	face	0.0		146	22.0	female	west_asian	3.8205332272184642	neutral	066	sub-17	2.0	2.0	066_neutral	0.0		193.26006256902474	1.241559914778918
28.0	168.70222305937205	pulse	0.0	t		22.0	female	west_asian	3.8205332272184642	neutral	066	sub-17	2.0	2.0	066_neutral	0.0		193.70175216175267	
28.0	169.40221780705906	pulse	0.0	t		22.0	female	west_asian	3.8205332272184642	neutral	066	sub-17	2.0	2.0	066_neutral	0.0		194.40174690943968	
28.0	169.50209338142304	fix	1.0		444	22.0	female	west_asian	3.8205332272184642	neutral	066	sub-17	2.0	2.0	066_neutral	0.0		194.50162248380366	3.7666101589420578
28.0	170.10221557330806	pulse	1.0	t		22.0	female	west_asian	3.8205332272184642	neutral	066	sub-17	2.0	2.0	066_neutral	0.0		195.10174467568868	
28.0	170.80219794483855	pulse	1.0	t		22.0	female	west_asian	3.8205332272184642	neutral	066	sub-17	2.0	2.0	066_neutral	0.0		195.80172704721917	
28.0	171.5021878628031	pulse	1.0	t		22.0	female	west_asian	3.8205332272184642	neutral	066	sub-17	2.0	2.0	066_neutral	0.0		196.50171696518373	
28.0	172.20219257177087	pulse	1.0	t		22.0	female	west_asian	3.8205332272184642	neutral	066	sub-17	2.0	2.0	066_neutral	0.0		197.20172167415149	
28.0	172.90217615073198	pulse	1.0	t		22.0	female	west_asian	3.8205332272184642	neutral	066	sub-17	2.0	2.0	066_neutral	0.0		197.9017052531126	
29.0	173.2687035403651	face	0.0		145	28.0	male	white	3.9076800636689217	smiling	033	sub-17	2.0	2.0	033_smiling	0.0		198.26823264274572	1.233317093399819
29.0	173.602164559401	pulse	0.0	t		28.0	male	white	3.9076800636689217	smiling	033	sub-17	2.0	2.0	033_smiling	0.0		198.6016936617816	
29.0	174.30216262751492	pulse	0.0	t		28.0	male	white	3.9076800636689217	smiling	033	sub-17	2.0	2.0	033_smiling	0.0		199.30169172989554	
29.0	174.50202063376491	fix	1.0		444	28.0	male	white	3.9076800636689217	smiling	033	sub-17	2.0	2.0	033_smiling	0.0		199.50154973614553	3.7666279685508925
29.0	175.0021558659064	pulse	1.0	t		28.0	male	white	3.9076800636689217	smiling	033	sub-17	2.0	2.0	033_smiling	0.0		200.001684968287	
29.0	175.70213521886035	pulse	1.0	t		28.0	male	white	3.9076800636689217	smiling	033	sub-17	2.0	2.0	033_smiling	0.0		200.70166432124097	
29.0	176.40213389068958	pulse	1.0	t		28.0	male	white	3.9076800636689217	smiling	033	sub-17	2.0	2.0	033_smiling	0.0		201.4016629930702	
29.0	177.10212894022698	pulse	1.0	t		28.0	male	white	3.9076800636689217	smiling	033	sub-17	2.0	2.0	033_smiling	0.0		202.1016580426076	
29.0	177.80211825447623	pulse	1.0	t		28.0	male	white	3.9076800636689217	smiling	033	sub-17	2.0	2.0	033_smiling	0.0		202.80164735685685	
30.0	178.2686486023158	face	0.0		145	27.0	female	white	4.181058495821727	neutral	039	sub-17	2.0	2.0	039_neutral	0.0		203.26817770469643	1.23333097883733
30.0	178.50213292473927	pulse	0.0	t		27.0	female	white	4.181058495821727	neutral	039	sub-17	2.0	2.0	039_neutral	0.0		203.5016620271199	
30.0	179.20212072970753	pulse	0.0	t		27.0	female	white	4.181058495821727	neutral	039	sub-17	2.0	2.0	039_neutral	0.0		204.20164983208815	
30.0	179.50197958115314	fix	1.0		444	27.0	female	white	4.181058495821727	neutral	039	sub-17	2.0	2.0	039_neutral	0.0		204.50150868353376	3.766613177533145
30.0	179.902107629081	pulse	1.0	t		27.0	female	white	4.181058495821727	neutral	039	sub-17	2.0	2.0	039_neutral	0.0		204.90163673146162	
30.0	180.6020890950458	pulse	1.0	t		27.0	female	white	4.181058495821727	neutral	039	sub-17	2.0	2.0	039_neutral	0.0		205.60161819742643	
30.0	181.3020778055652	pulse	1.0	t		27.0	female	white	4.181058495821727	neutral	039	sub-17	2.0	2.0	039_neutral	0.0		206.30160690794582	
30.0	182.00206742167939	pulse	1.0	t		27.0	female	white	4.181058495821727	neutral	039	sub-17	2.0	2.0	039_neutral	0.0		207.00159652406	
30.0	182.70206277306715	pulse	1.0	t		27.0	female	white	4.181058495821727	neutral	039	sub-17	2.0	2.0	039_neutral	0.0		207.70159187544778	
31.0	183.26859275868628	face	0.0		145	24.0	male	white	3.1153999204138483	smiling	012	sub-17	2.0	2.0	012_smiling	1.0	attractiveness	208.2681218610669	1.2333373178553302
31.0	183.40205842631985	pulse	0.0	t		24.0	male	white	3.1153999204138483	smiling	012	sub-17	2.0	2.0	012_smiling	1.0	attractiveness	208.40158752870047	
31.0	184.10205196657625	pulse	0.0	t		24.0	male	white	3.1153999204138483	smiling	012	sub-17	2.0	2.0	012_smiling	1.0	attractiveness	209.10158106895688	
31.0	184.5019300765416	fix	1.0		177	24.0	male	white	3.1153999204138483	smiling	012	sub-17	2.0	2.0	012_smiling	1.0	attractiveness	209.50145917892223	1.4999821904057171
31.0	184.80204792167933	pulse	1.0	t		24.0	male	white	3.1153999204138483	smiling	012	sub-17	2.0	2.0	012_smiling	1.0	attractiveness	209.80157702405995	
31.0	185.50203240620613	pulse	1.0	t		24.0	male	white	3.1153999204138483	smiling	012	sub-17	2.0	2.0	012_smiling	1.0	attractiveness	210.50156150858675	
31.0	186.00191226694733	rating	2.0		294	24.0	male	white	3.1153999204138483	smiling	012	sub-17	2.0	2.0	012_smiling	1.0	attractiveness	211.00144136932795	2.499969210533891
31.0	186.20203590775782	pulse	2.0	t		24.0	male	white	3.1153999204138483	smiling	012	sub-17	2.0	2.0	012_smiling	1.0	attractiveness	211.20156501013844	
31.0	186.90201948671893	pulse	2.0	t		24.0	male	white	3.1153999204138483	smiling	012	sub-17	2.0	2.0	012_smiling	1.0	attractiveness	211.90154858909955	
31.0	187.19699700134515	response	2.0	g		24.0	male	white	3.1153999204138483	smiling	012	sub-17	2.0	2.0	012_smiling	1.0	attractiveness	212.19652610372577	
31.0	187.60201091396448	pulse	2.0	t		24.0	male	white	3.1153999204138483	smiling	012	sub-17	2.0	2.0	012_smiling	1.0	attractiveness	212.6015400163451	
31.0	188.30199419106066	pulse	2.0	t		24.0	male	white	3.1153999204138483	smiling	012	sub-17	2.0	2.0	012_smiling	1.0	attractiveness	213.30152329344128	
31.0	188.50188147748122	fix	3.0		444	24.0	male	white	3.1153999204138483	smiling	012	sub-17	2.0	2.0	012_smiling	1.0	attractiveness	213.50141057986184	3.7666089515259955
31.0	189.0019949758862	pulse	3.0	t		24.0	male	white	3.1153999204138483	smiling	012	sub-17	2.0	2.0	012_smiling	1.0	attractiveness	214.0015240782668	
31.0	189.70198217713914	pulse	3.0	t		24.0	male	white	3.1153999204138483	smiling	012	sub-17	2.0	2.0	012_smiling	1.0	attractiveness	214.70151127951976	
31.0	190.4019974511175	pulse	3.0	t		24.0	male	white	3.1153999204138483	smiling	012	sub-17	2.0	2.0	012_smiling	1.0	attractiveness	215.40152655349812	
31.0	191.10196563534555	pulse	3.0	t		24.0	male	white	3.1153999204138483	smiling	012	sub-17	2.0	2.0	012_smiling	1.0	attractiveness	216.10149473772617	
31.0	191.8019558551605	pulse	3.0	t		24.0	male	white	3.1153999204138483	smiling	012	sub-17	2.0	2.0	012_smiling	1.0	attractiveness	216.8014849575411	
32.0	192.26849042900722	face	0.0		145	40.0	male	white	1.868682849184242	smiling	172	sub-17	2.0	2.0	172_smiling	0.0		217.26801953138784	1.2333342992787948
32.0	192.5019560362707	pulse	0.0	t		40.0	male	white	1.868682849184242	smiling	172	sub-17	2.0	2.0	172_smiling	0.0		217.50148513865133	
32.0	193.20195350066933	pulse	0.0	t		40.0	male	white	1.868682849184242	smiling	172	sub-17	2.0	2.0	172_smiling	0.0		218.20148260304995	
32.0	193.501824728286	fix	1.0		444	40.0	male	white	1.868682849184242	smiling	172	sub-17	2.0	2.0	172_smiling	0.0		218.50135383066663	3.758254141037469
32.0	193.90194915392203	pulse	1.0	t		40.0	male	white	1.868682849184242	smiling	172	sub-17	2.0	2.0	172_smiling	0.0		218.90147825630265	
32.0	194.60192488458415	pulse	1.0	t		40.0	male	white	1.868682849184242	smiling	172	sub-17	2.0	2.0	172_smiling	0.0		219.60145398696477	
32.0	195.30191842484055	pulse	1.0	t		40.0	male	white	1.868682849184242	smiling	172	sub-17	2.0	2.0	172_smiling	0.0		220.30144752722117	
32.0	196.00192283195793	pulse	1.0	t		40.0	male	white	1.868682849184242	smiling	172	sub-17	2.0	2.0	172_smiling	0.0		221.00145193433855	
32.0	196.7019039960578	pulse	1.0	t		40.0	male	white	1.868682849184242	smiling	172	sub-17	2.0	2.0	172_smiling	0.0		221.70143309843843	
33.0	197.26007886932348	face	0.0		146	36.0	female	white	2.7548746518105847	neutral	011	sub-17	2.0	2.0	011_neutral	0.0		222.2596079717041	1.2416833744646283
33.0	197.4019108180364	pulse	0.0	t		36.0	female	white	2.7548746518105847	neutral	011	sub-17	2.0	2.0	011_neutral	0.0		222.40143992041703	
33.0	198.1018962081289	pulse	0.0	t		36.0	female	white	2.7548746518105847	neutral	011	sub-17	2.0	2.0	011_neutral	0.0		223.1014253105095	
33.0	198.5017622437881	fix	1.0		444	36.0	female	white	2.7548746518105847	neutral	011	sub-17	2.0	2.0	011_neutral	0.0		223.50129134616873	3.758397221463383
33.0	198.80186409049202	pulse	1.0	t		36.0	female	white	2.7548746518105847	neutral	011	sub-17	2.0	2.0	011_neutral	0.0		223.80139319287264	
33.0	199.50187091247062	pulse	1.0	t		36.0	female	white	2.7548746518105847	neutral	011	sub-17	2.0	2.0	011_neutral	0.0		224.50140001485124	
33.0	200.20185962300457	pulse	1.0	t		36.0	female	white	2.7548746518105847	neutral	011	sub-17	2.0	2.0	011_neutral	0.0		225.2013887253852	
33.0	200.9018582948338	pulse	1.0	t		36.0	female	white	2.7548746518105847	neutral	011	sub-17	2.0	2.0	011_neutral	0.0		225.90138739721442	
33.0	201.60184760908305	pulse	1.0	t		36.0	female	white	2.7548746518105847	neutral	011	sub-17	2.0	2.0	011_neutral	0.0		226.60137671146367	
34.0	202.2601594652515	face	0.0		146	27.0	female	white	3.504576203740549	neutral	144	sub-17	2.0	2.0	144_neutral	0.0		227.2596885676321	1.2415508590638638
34.0	202.30192506570893	pulse	0.0	t		27.0	female	white	3.504576203740549	neutral	144	sub-17	2.0	2.0	144_neutral	0.0		227.30145416808955	
34.0	203.0018319728697	pulse	0.0	t		27.0	female	white	3.504576203740549	neutral	144	sub-17	2.0	2.0	144_neutral	0.0		228.00136107525032	
34.0	203.50171032431535	fix	1.0		443	27.0	female	white	3.504576203740549	neutral	144	sub-17	2.0	2.0	144_neutral	0.0		228.50123942669597	3.7582680264749797
34.0	203.7018297391187	pulse	1.0	t		27.0	female	white	3.504576203740549	neutral	144	sub-17	2.0	2.0	144_neutral	0.0		228.7013588414993	
34.0	204.40181301621487	pulse	1.0	t		27.0	female	white	3.504576203740549	neutral	144	sub-17	2.0	2.0	144_neutral	0.0		229.4013421185955	
34.0	205.10180716018658	pulse	1.0	t		27.0	female	white	3.504576203740549	neutral	144	sub-17	2.0	2.0	144_neutral	0.0		230.1013362625672	
34.0	205.8017961725709	pulse	1.0	t		27.0	female	white	3.504576203740549	neutral	144	sub-17	2.0	2.0	144_neutral	0.0		230.80132527495152	
34.0	206.50178427938954	pulse	1.0	t		27.0	female	white	3.504576203740549	neutral	144	sub-17	2.0	2.0	144_neutral	0.0		231.50131338177016	
34.0	207.2017847623647	pulse	1.0	t		27.0	female	white	3.504576203740549	neutral	144	sub-17	2.0	2.0	144_neutral	0.0		232.20131386474532	
35.0	207.25997835079033	face	0.0		147	25.0	female	black	3.858336649423	neutral	126	sub-17	2.0	2.0	126_neutral	0.0		232.25950745317095	1.2416731113189599
35.0	207.90178464161	pulse	0.0	t		25.0	female	black	3.858336649423	neutral	126	sub-17	2.0	2.0	126_neutral	0.0		232.9013137439906	
35.0	208.5016514621093	fix	1.0		443	25.0	female	black	3.858336649423	neutral	126	sub-17	2.0	2.0	126_neutral	0.0		233.5011805644899	3.758293986218632
35.0	208.60176520199457	pulse	1.0	t		25.0	female	black	3.858336649423	neutral	126	sub-17	2.0	2.0	126_neutral	0.0		233.6012943043752	
35.0	209.30175813853566	pulse	1.0	t		25.0	female	black	3.858336649423	neutral	126	sub-17	2.0	2.0	126_neutral	0.0		234.30128724091628	
35.0	210.0017350766284	pulse	1.0	t		25.0	female	black	3.858336649423	neutral	126	sub-17	2.0	2.0	126_neutral	0.0		235.001264179009	
35.0	210.70176242491289	pulse	1.0	t		25.0	female	black	3.858336649423	neutral	126	sub-17	2.0	2.0	126_neutral	0.0		235.7012915272935	
35.0	211.40172155341133	pulse	1.0	t		25.0	female	black	3.858336649423	neutral	126	sub-17	2.0	2.0	126_neutral	0.0		236.40125065579196	
35.0	212.1017274698097	pulse	1.0	t		25.0	female	black	3.858336649423	neutral	126	sub-17	2.0	2.0	126_neutral	0.0		237.10125657219032	
36.0	212.25994544832793	face	0.0		147	28.0	male	white	3.9076800636689217	neutral	033	sub-17	2.0	2.0	033_neutral	0.0		237.25947455070855	1.2416516794473864
36.0	212.8017188970698	pulse	0.0	t		28.0	male	white	3.9076800636689217	neutral	033	sub-17	2.0	2.0	033_neutral	0.0		237.80124799945042	
36.0	213.5015971277753	fix	1.0		444	28.0	male	white	3.9076800636689217	neutral	033	sub-17	2.0	2.0	033_neutral	0.0		238.50112623015593	3.766608045945759
36.0	213.50921963209112	pulse	1.0	t		28.0	male	white	3.9076800636689217	neutral	033	sub-17	2.0	2.0	033_neutral	0.0		238.50874873447174	
36.0	214.20228826058155	pulse	1.0	t		28.0	male	white	3.9076800636689217	neutral	033	sub-17	2.0	2.0	033_neutral	0.0		239.20181736296217	
36.0	214.90170314010174	pulse	1.0	t		28.0	male	white	3.9076800636689217	neutral	033	sub-17	2.0	2.0	033_neutral	0.0		239.90123224248237	
36.0	215.60168943577446	pulse	1.0	t		28.0	male	white	3.9076800636689217	neutral	033	sub-17	2.0	2.0	033_neutral	0.0		240.60121853815508	
36.0	216.30168840946862	pulse	1.0	t		28.0	male	white	3.9076800636689217	neutral	033	sub-17	2.0	2.0	033_neutral	0.0		241.30121751184925	
36.0	217.00167198841518	pulse	1.0	t		28.0	male	white	3.9076800636689217	neutral	033	sub-17	2.0	2.0	033_neutral	0.0		242.0012010907958	
37.0	217.26820517372107	face	0.0		145	19.0	male	white	3.2522881018702745	neutral	018	sub-17	2.0	2.0	018_neutral	0.0		242.2677342761017	1.2333324881328736
37.0	217.7016721695254	pulse	0.0	t		19.0	male	white	3.2522881018702745	neutral	018	sub-17	2.0	2.0	018_neutral	0.0		242.70120127190603	
37.0	218.40166057820898	pulse	0.0	t		19.0	male	white	3.2522881018702745	neutral	018	sub-17	2.0	2.0	018_neutral	0.0		243.4011896805896	
37.0	218.50153766185394	fix	1.0		444	19.0	male	white	3.2522881018702745	neutral	018	sub-17	2.0	2.0	018_neutral	0.0		243.50106676423457	3.7582752710441127
37.0	219.1016486850276	pulse	1.0	t		19.0	male	white	3.2522881018702745	neutral	018	sub-17	2.0	2.0	018_neutral	0.0		244.10117778740823	
37.0	219.80164765870722	pulse	1.0	t		19.0	male	white	3.2522881018702745	neutral	018	sub-17	2.0	2.0	018_neutral	0.0		244.80117676108785	
37.0	220.5016402933834	pulse	1.0	t		19.0	male	white	3.2522881018702745	neutral	018	sub-17	2.0	2.0	018_neutral	0.0		245.501169395764	
37.0	221.20162477791018	pulse	1.0	t		19.0	male	white	3.2522881018702745	neutral	018	sub-17	2.0	2.0	018_neutral	0.0		246.2011538802908	
37.0	221.90161982744758	pulse	1.0	t		19.0	male	white	3.2522881018702745	neutral	018	sub-17	2.0	2.0	018_neutral	0.0		246.9011489298282	
38.0	222.25981293289806	face	0.0		146	37.0	male	white	3.898925586947871	neutral	101	sub-17	2.0	2.0	101_neutral	0.0		247.25934203527868	1.2416734131838894
38.0	222.60161155655805	pulse	0.0	t		37.0	male	white	3.898925586947871	neutral	101	sub-17	2.0	2.0	101_neutral	0.0		247.60114065893868	
38.0	223.3016023800883	pulse	0.0	t		37.0	male	white	3.898925586947871	neutral	101	sub-17	2.0	2.0	101_neutral	0.0		248.30113148246892	
38.0	223.50148634608195	fix	1.0		444	37.0	male	white	3.898925586947871	neutral	101	sub-17	2.0	2.0	101_neutral	0.0		248.50101544846257	3.7583160218055127
38.0	224.00159380733385	pulse	1.0	t		37.0	male	white	3.898925586947871	neutral	101	sub-17	2.0	2.0	101_neutral	0.0		249.00112290971447	
38.0	224.7015822160174	pulse	1.0	t		37.0	male	white	3.898925586947871	neutral	101	sub-17	2.0	2.0	101_neutral	0.0		249.70111131839803	
38.0	225.40157334139803	pulse	1.0	t		37.0	male	white	3.898925586947871	neutral	101	sub-17	2.0	2.0	101_neutral	0.0		250.40110244377865	
38.0	226.10157080579665	pulse	1.0	t		37.0	male	white	3.898925586947871	neutral	101	sub-17	2.0	2.0	101_neutral	0.0		251.10109990817728	
38.0	226.80155015875062	pulse	1.0	t		37.0	male	white	3.898925586947871	neutral	101	sub-17	2.0	2.0	101_neutral	0.0		251.80107926113124	
39.0	227.25980236788746	face	0.0		146	26.0	female	white	4.854755272582572	neutral	027	sub-17	2.0	2.0	027_neutral	0.0		252.25933147026808	1.2416211918462068
39.0	227.50155094357615	pulse	0.0	t		26.0	female	white	4.854755272582572	neutral	027	sub-17	2.0	2.0	027_neutral	0.0		252.50108004595677	
39.0	228.20154599311354	pulse	0.0	t		26.0	female	white	4.854755272582572	neutral	027	sub-17	2.0	2.0	027_neutral	0.0		253.20107509549416	
39.0	228.50142355973367	fix	1.0		444	26.0	female	white	4.854755272582572	neutral	027	sub-17	2.0	2.0	027_neutral	0.0		253.5009526621143	3.749959098320687
39.0	228.90154345751216	pulse	1.0	t		26.0	female	white	4.854755272582572	neutral	027	sub-17	2.0	2.0	027_neutral	0.0		253.90107255989278	
39.0	229.60152673460834	pulse	1.0	t		26.0	female	white	4.854755272582572	neutral	027	sub-17	2.0	2.0	027_neutral	0.0		254.60105583698896	
39.0	230.30151031356945	pulse	1.0	t		26.0	female	white	4.854755272582572	neutral	027	sub-17	2.0	2.0	027_neutral	0.0		255.30103941595007	
39.0	231.00151321139128	pulse	1.0	t		26.0	female	white	4.854755272582572	neutral	027	sub-17	2.0	2.0	027_neutral	0.0		256.0010423137719	
39.0	231.70150282750546	pulse	1.0	t		26.0	female	white	4.854755272582572	neutral	027	sub-17	2.0	2.0	027_neutral	0.0		256.7010319298861	
40.0	232.25138265805435	fix	0.0		720													257.250911760435	5.9999293653527275
40.0	232.40149999003916	pulse	0.0	t														257.4010290924198	
40.0	233.10148749314249	pulse	0.0	t														258.1010165955231	
40.0	233.80148737240233	pulse	0.0	t														258.80101647478295	
40.0	234.50146853650222	pulse	0.0	t														259.50099763888284	
40.0	235.20147445290058	pulse	0.0	t														260.2010035552812	
40.0	235.9014628615696	pulse	0.0	t														260.9009919639502	
40.0	236.60144613868033	pulse	0.0	t														261.60097524106095	
40.0	237.3014399807871	pulse	0.0	t														262.30096908316773	
40.0	238.00143201174797	pulse	0.0	t														263.0009611141286	
