trial_nr	onset	event_type	phase	response	nr_frames	face_age	face_sex	face_eth	attractiveness	expression	face_id	sub_id	ses	run	trial_type	catch	rating_type	onset_abs	duration
-1.0	0.055669387362286216	fix	0.0		714													25.869644840742694	5.966311487285566
-1.0	0.7055969428402022	pulse	0.0	t														26.51957239622061	
-1.0	1.4055875854246551	pulse	0.0	t														27.219563038805063	
-1.0	2.105538685373176	pulse	0.0	t														27.919514138753584	
-1.0	2.8055311390708084	pulse	0.0	t														28.619506592451216	
-1.0	3.5055172538704937	pulse	0.0	t														29.3194927072509	
-1.0	4.205493105695496	pulse	0.0	t														30.019468559075904	
-1.0	4.9054837482799485	pulse	0.0	t														30.719459201660356	
-1.0	5.605576115041913	pulse	0.0	t														31.41955156842232	
0.0	6.021980874647852	face	0.0		144	28.0	female	white	5.676880222841227	smiling	124	sub-11	2.0	3.0	124_smiling	0.0		31.83595632802826	1.2333003308303887
0.0	6.305441790827899	pulse	0.0	t		28.0	female	white	5.676880222841227	smiling	124	sub-11	2.0	3.0	124_smiling	0.0		32.11941724420831	
0.0	7.005406172273069	pulse	0.0	t		28.0	female	white	5.676880222841227	smiling	124	sub-11	2.0	3.0	124_smiling	0.0		32.81938162565348	
0.0	7.255281205478241	fix	1.0		445	28.0	female	white	5.676880222841227	smiling	124	sub-11	2.0	3.0	124_smiling	0.0		33.06925665885865	3.7582278863083047
0.0	7.705401040784636	pulse	1.0	t		28.0	female	white	5.676880222841227	smiling	124	sub-11	2.0	3.0	124_smiling	0.0		33.519376494165044	
0.0	8.40538021298562	pulse	1.0	t		28.0	female	white	5.676880222841227	smiling	124	sub-11	2.0	3.0	124_smiling	0.0		34.21935566636603	
0.0	9.105351537029492	pulse	1.0	t		28.0	female	white	5.676880222841227	smiling	124	sub-11	2.0	3.0	124_smiling	0.0		34.9193269904099	
0.0	9.805336142570013	pulse	1.0	t		28.0	female	white	5.676880222841227	smiling	124	sub-11	2.0	3.0	124_smiling	0.0		35.61931159595042	
0.0	10.505305353650328	pulse	1.0	t		28.0	female	white	5.676880222841227	smiling	124	sub-11	2.0	3.0	124_smiling	0.0		36.31928080703074	
1.0	11.013509091786545	face	0.0		146	40.0	female	west_asian	1.5777954635893354	smiling	038	sub-11	2.0	3.0	038_smiling	0.0		36.82748454516695	1.2416248098343203
1.0	11.205296599935537	pulse	0.0	t		40.0	female	west_asian	1.5777954635893354	smiling	038	sub-11	2.0	3.0	038_smiling	0.0		37.019272053315945	
1.0	11.905262490643508	pulse	0.0	t		40.0	female	west_asian	1.5777954635893354	smiling	038	sub-11	2.0	3.0	038_smiling	0.0		37.71923794402392	
1.0	12.255133901620866	fix	1.0		445	40.0	female	west_asian	1.5777954635893354	smiling	038	sub-11	2.0	3.0	038_smiling	0.0		38.069109355001274	3.7582133974065073
1.0	12.605258264713484	pulse	1.0	t		40.0	female	west_asian	1.5777954635893354	smiling	038	sub-11	2.0	3.0	038_smiling	0.0		38.41923371809389	
1.0	13.305224457268196	pulse	1.0	t		40.0	female	west_asian	1.5777954635893354	smiling	038	sub-11	2.0	3.0	038_smiling	0.0		39.119199910648604	
1.0	14.005218420224992	pulse	1.0	t		40.0	female	west_asian	1.5777954635893354	smiling	038	sub-11	2.0	3.0	038_smiling	0.0		39.8191938736054	
1.0	14.705189140568109	pulse	1.0	t		40.0	female	west_asian	1.5777954635893354	smiling	038	sub-11	2.0	3.0	038_smiling	0.0		40.51916459394852	
1.0	15.405171633141435	pulse	1.0	t		40.0	female	west_asian	1.5777954635893354	smiling	038	sub-11	2.0	3.0	038_smiling	0.0		41.21914708652184	
2.0	16.013347299027373	face	0.0		146	30.0	female	black	2.7345801830481498	neutral	062	sub-11	2.0	3.0	062_neutral	0.0		41.82732275240778	1.2416580135723052
2.0	16.105143259035685	pulse	0.0	t		30.0	female	black	2.7345801830481498	neutral	062	sub-11	2.0	3.0	062_neutral	0.0		41.91911871241609	
2.0	16.805130581247795	pulse	0.0	t		30.0	female	black	2.7345801830481498	neutral	062	sub-11	2.0	3.0	062_neutral	0.0		42.6191060346282	
2.0	17.25500531259968	fix	1.0		444	30.0	female	black	2.7345801830481498	neutral	062	sub-11	2.0	3.0	062_neutral	0.0		43.068980765980086	3.7582049455450033
2.0	17.505112168262713	pulse	1.0	t		30.0	female	black	2.7345801830481498	neutral	062	sub-11	2.0	3.0	062_neutral	0.0		43.31908762164312	
2.0	18.205078058970685	pulse	1.0	t		30.0	female	black	2.7345801830481498	neutral	062	sub-11	2.0	3.0	062_neutral	0.0		44.01905351235109	
2.0	18.905054816354095	pulse	1.0	t		30.0	female	black	2.7345801830481498	neutral	062	sub-11	2.0	3.0	062_neutral	0.0		44.7190302697345	
2.0	19.60504455338014	pulse	1.0	t		30.0	female	black	2.7345801830481498	neutral	062	sub-11	2.0	3.0	062_neutral	0.0		45.41902000676055	
2.0	20.30502915892066	pulse	1.0	t		30.0	female	black	2.7345801830481498	neutral	062	sub-11	2.0	3.0	062_neutral	0.0		46.11900461230107	
3.0	21.01321025814468	face	0.0		146	24.0	female	east_asian	2.9076800636689217	smiling	034	sub-11	2.0	3.0	034_smiling	1.0	trustworthiness	46.82718571152509	1.241652580232767
3.0	21.00602828958654	pulse	0.0	t		24.0	female	east_asian	2.9076800636689217	smiling	034	sub-11	2.0	3.0	034_smiling	1.0	trustworthiness	46.820003742966946	
3.0	21.704973919971962	pulse	0.0	t		24.0	female	east_asian	2.9076800636689217	smiling	034	sub-11	2.0	3.0	034_smiling	1.0	trustworthiness	47.51894937335237	
3.0	22.25486283837745	fix	1.0		177	24.0	female	east_asian	2.9076800636689217	smiling	034	sub-11	2.0	3.0	034_smiling	1.0	trustworthiness	48.06883829175786	1.5083121030620532
3.0	22.404943432902655	pulse	1.0	t		24.0	female	east_asian	2.9076800636689217	smiling	034	sub-11	2.0	3.0	034_smiling	1.0	trustworthiness	48.21891888628306	
3.0	23.104935584746272	pulse	1.0	t		24.0	female	east_asian	2.9076800636689217	smiling	034	sub-11	2.0	3.0	034_smiling	1.0	trustworthiness	48.91891103812668	
3.0	23.7631749414395	rating	2.0		293	24.0	female	east_asian	2.9076800636689217	smiling	034	sub-11	2.0	3.0	034_smiling	1.0	trustworthiness	49.57715039481991	2.491549648646469
3.0	23.79968788486076	pulse	2.0	t		24.0	female	east_asian	2.9076800636689217	smiling	034	sub-11	2.0	3.0	034_smiling	1.0	trustworthiness	49.61366333824117	
3.0	24.499772101615235	pulse	2.0	t		24.0	female	east_asian	2.9076800636689217	smiling	034	sub-11	2.0	3.0	034_smiling	1.0	trustworthiness	50.31374755499564	
3.0	25.016319939146342	response	2.0	g		24.0	female	east_asian	2.9076800636689217	smiling	034	sub-11	2.0	3.0	034_smiling	1.0	trustworthiness	50.83029539252675	
3.0	25.199638381105615	pulse	2.0	t		24.0	female	east_asian	2.9076800636689217	smiling	034	sub-11	2.0	3.0	034_smiling	1.0	trustworthiness	51.01361383448602	
3.0	25.904856801331334	pulse	2.0	t		24.0	female	east_asian	2.9076800636689217	smiling	034	sub-11	2.0	3.0	034_smiling	1.0	trustworthiness	51.71883225471174	
3.0	26.25472459008597	fix	3.0		444	24.0	female	east_asian	2.9076800636689217	smiling	034	sub-11	2.0	3.0	034_smiling	1.0	trustworthiness	52.06870004346638	3.7665430078959616
3.0	26.604833558714745	pulse	3.0	t		24.0	female	east_asian	2.9076800636689217	smiling	034	sub-11	2.0	3.0	034_smiling	1.0	trustworthiness	52.41880901209515	
3.0	27.30481605129171	pulse	3.0	t		24.0	female	east_asian	2.9076800636689217	smiling	034	sub-11	2.0	3.0	034_smiling	1.0	trustworthiness	53.11879150467212	
3.0	28.00480790128131	pulse	3.0	t		24.0	female	east_asian	2.9076800636689217	smiling	034	sub-11	2.0	3.0	034_smiling	1.0	trustworthiness	53.81878335466172	
3.0	28.704778319770412	pulse	3.0	t		24.0	female	east_asian	2.9076800636689217	smiling	034	sub-11	2.0	3.0	034_smiling	1.0	trustworthiness	54.51875377315082	
3.0	29.404747530850727	pulse	3.0	t		24.0	female	east_asian	2.9076800636689217	smiling	034	sub-11	2.0	3.0	034_smiling	1.0	trustworthiness	55.218722984231135	
4.0	30.021267597981932	face	0.0		145	31.0	female	east_asian	3.395941106247513	neutral	087	sub-11	2.0	3.0	087_neutral	0.0		55.83524305136234	1.2333114993598429
4.0	30.104742399362294	pulse	0.0	t		31.0	female	east_asian	3.395941106247513	neutral	087	sub-11	2.0	3.0	087_neutral	0.0		55.9187178527427	
4.0	30.80470617710307	pulse	0.0	t		31.0	female	east_asian	3.395941106247513	neutral	087	sub-11	2.0	3.0	087_neutral	0.0		56.61868163048348	
4.0	31.254579097341775	fix	1.0		444	31.0	female	east_asian	3.395941106247513	neutral	087	sub-11	2.0	3.0	087_neutral	0.0		57.06855455072218	3.766539083819225
4.0	31.50468655671284	pulse	1.0	t		31.0	female	east_asian	3.395941106247513	neutral	087	sub-11	2.0	3.0	087_neutral	0.0		57.31866201009325	
4.0	32.20467086039935	pulse	1.0	t		31.0	female	east_asian	3.395941106247513	neutral	087	sub-11	2.0	3.0	087_neutral	0.0		58.018646313779755	
4.0	32.90465033445071	pulse	1.0	t		31.0	female	east_asian	3.395941106247513	neutral	087	sub-11	2.0	3.0	087_neutral	0.0		58.718625787831115	
4.0	33.60462165849458	pulse	1.0	t		31.0	female	east_asian	3.395941106247513	neutral	087	sub-11	2.0	3.0	087_neutral	0.0		59.41859711187499	
4.0	34.30460928255707	pulse	1.0	t		31.0	female	east_asian	3.395941106247513	neutral	087	sub-11	2.0	3.0	087_neutral	0.0		60.118584735937475	
5.0	35.021118181161	face	0.0		146	32.0	male	white	2.389176283326701	neutral	092	sub-11	2.0	3.0	092_neutral	0.0		60.83509363454141	1.2333012363851594
5.0	35.0075484170884	pulse	0.0	t		32.0	male	white	2.389176283326701	neutral	092	sub-11	2.0	3.0	092_neutral	0.0		60.82152387046881	
5.0	35.70456008065594	pulse	0.0	t		32.0	male	white	2.389176283326701	neutral	092	sub-11	2.0	3.0	092_neutral	0.0		61.518535534036346	
5.0	36.25441941754616	fix	1.0		443	32.0	male	white	2.389176283326701	neutral	092	sub-11	2.0	3.0	092_neutral	0.0		62.06839487092657	3.766553270870645
5.0	36.40454196952487	pulse	1.0	t		32.0	male	white	2.389176283326701	neutral	092	sub-11	2.0	3.0	092_neutral	0.0		62.21851742290528	
5.0	37.10451721764912	pulse	1.0	t		32.0	male	white	2.389176283326701	neutral	092	sub-11	2.0	3.0	092_neutral	0.0		62.918492671029526	
5.0	37.80450484170797	pulse	1.0	t		32.0	male	white	2.389176283326701	neutral	092	sub-11	2.0	3.0	092_neutral	0.0		63.618480295088375	
5.0	38.50448069353661	pulse	1.0	t		32.0	male	white	2.389176283326701	neutral	092	sub-11	2.0	3.0	092_neutral	0.0		64.31845614691701	
5.0	39.20446680833629	pulse	1.0	t		32.0	male	white	2.389176283326701	neutral	092	sub-11	2.0	3.0	092_neutral	0.0		65.0184422617167	
5.0	39.904448697205225	pulse	1.0	t		32.0	male	white	2.389176283326701	neutral	092	sub-11	2.0	3.0	092_neutral	0.0		65.71842415058563	
6.0	40.020972688416805	face	0.0		146	22.0	female	white	4.614007162753682	smiling	009	sub-11	2.0	3.0	009_smiling	0.0		65.83494814179721	1.2333238752980833
6.0	40.60442364347546	pulse	0.0	t		22.0	female	white	4.614007162753682	smiling	009	sub-11	2.0	3.0	009_smiling	0.0		66.41839909685586	
6.0	41.25429656371489	fix	1.0		443	22.0	female	white	4.614007162753682	smiling	009	sub-11	2.0	3.0	009_smiling	0.0		67.0682720170953	3.7665282171401486
6.0	41.30440975827514	pulse	1.0	t		22.0	female	white	4.614007162753682	smiling	009	sub-11	2.0	3.0	009_smiling	0.0		67.11838521165555	
6.0	42.004379874913866	pulse	1.0	t		22.0	female	white	4.614007162753682	smiling	009	sub-11	2.0	3.0	009_smiling	0.0		67.81835532829427	
6.0	42.70436206563318	pulse	1.0	t		22.0	female	white	4.614007162753682	smiling	009	sub-11	2.0	3.0	009_smiling	0.0		68.51833751901358	
6.0	43.40433580449462	pulse	1.0	t		22.0	female	white	4.614007162753682	smiling	009	sub-11	2.0	3.0	009_smiling	0.0		69.21831125787503	
6.0	44.10431256187803	pulse	1.0	t		22.0	female	white	4.614007162753682	smiling	009	sub-11	2.0	3.0	009_smiling	0.0		69.91828801525844	
6.0	44.80429837482734	pulse	1.0	t		22.0	female	white	4.614007162753682	smiling	009	sub-11	2.0	3.0	009_smiling	0.0		70.61827382820775	
7.0	45.02082478085504	face	0.0		145	37.0	male	white	3.898925586947871	smiling	101	sub-11	2.0	3.0	101_smiling	0.0		70.83480023423544	1.2333250827068696
7.0	45.504269397020835	pulse	0.0	t		37.0	male	white	3.898925586947871	smiling	101	sub-11	2.0	3.0	101_smiling	0.0		71.31824485040124	
7.0	46.20426185071483	pulse	0.0	t		37.0	male	white	3.898925586947871	smiling	101	sub-11	2.0	3.0	101_smiling	0.0		72.01823730409524	
7.0	46.254149863561906	fix	1.0		445	37.0	male	white	3.898925586947871	smiling	101	sub-11	2.0	3.0	101_smiling	0.0		72.06812531694231	3.766525802322576
7.0	46.90424132476983	pulse	1.0	t		37.0	male	white	3.898925586947871	smiling	101	sub-11	2.0	3.0	101_smiling	0.0		72.71821677815024	
7.0	47.60420751732454	pulse	1.0	t		37.0	male	white	3.898925586947871	smiling	101	sub-11	2.0	3.0	101_smiling	0.0		73.41818297070495	
7.0	48.304192424719076	pulse	1.0	t		37.0	male	white	3.898925586947871	smiling	101	sub-11	2.0	3.0	101_smiling	0.0		74.11816787809948	
7.0	49.004167672839685	pulse	1.0	t		37.0	male	white	3.898925586947871	smiling	101	sub-11	2.0	3.0	101_smiling	0.0		74.8181431262201	
7.0	49.70414744874506	pulse	1.0	t		37.0	male	white	3.898925586947871	smiling	101	sub-11	2.0	3.0	101_smiling	0.0		75.51812290212547	
8.0	50.02067566588448	face	0.0		145	28.0	male	east_asian	1.5563072025467568	neutral	005	sub-11	2.0	3.0	005_neutral	0.0		75.83465111926489	1.2333250827105076
8.0	50.40413688392073	pulse	0.0	t		28.0	male	east_asian	1.5563072025467568	neutral	005	sub-11	2.0	3.0	005_neutral	0.0		76.21811233730114	
8.0	51.104115754267696	pulse	0.0	t		28.0	male	east_asian	1.5563072025467568	neutral	005	sub-11	2.0	3.0	005_neutral	0.0		76.9180912076481	
8.0	51.25400074859499	fix	1.0		445	28.0	male	east_asian	1.5563072025467568	neutral	005	sub-11	2.0	3.0	005_neutral	0.0		77.0679762019754	3.7665291226949194
8.0	51.804096133877465	pulse	1.0	t		28.0	male	east_asian	1.5563072025467568	neutral	005	sub-11	2.0	3.0	005_neutral	0.0		77.61807158725787	
8.0	52.50407168385209	pulse	1.0	t		28.0	male	east_asian	1.5563072025467568	neutral	005	sub-11	2.0	3.0	005_neutral	0.0		78.3180471372325	
8.0	53.204029424548935	pulse	1.0	t		28.0	male	east_asian	1.5563072025467568	neutral	005	sub-11	2.0	3.0	005_neutral	0.0		79.01800487792934	
8.0	53.9040333486264	pulse	1.0	t		28.0	male	east_asian	1.5563072025467568	neutral	005	sub-11	2.0	3.0	005_neutral	0.0		79.7180088020068	
8.0	54.60401161527261	pulse	1.0	t		28.0	male	east_asian	1.5563072025467568	neutral	005	sub-11	2.0	3.0	005_neutral	0.0		80.41798706865302	
9.0	55.02052987128991	face	0.0		145	34.0	male	white	2.651014723438122	smiling	121	sub-11	2.0	3.0	121_smiling	0.0		80.83450532467032	1.233322667889297
9.0	55.30399380599192	pulse	0.0	t		34.0	male	white	2.651014723438122	smiling	121	sub-11	2.0	3.0	121_smiling	0.0		81.11796925937233	
9.0	56.00396995967094	pulse	0.0	t		34.0	male	white	2.651014723438122	smiling	121	sub-11	2.0	3.0	121_smiling	0.0		81.81794541305135	
9.0	56.253852539179206	fix	1.0		444	34.0	male	white	2.651014723438122	smiling	121	sub-11	2.0	3.0	121_smiling	0.0		82.06782799255961	3.766527915289771
9.0	56.703952452247904	pulse	1.0	t		34.0	male	white	2.651014723438122	smiling	121	sub-11	2.0	3.0	121_smiling	0.0		82.51792790562831	
9.0	57.403928304072906	pulse	1.0	t		34.0	male	white	2.651014723438122	smiling	121	sub-11	2.0	3.0	121_smiling	0.0		83.21790375745331	
9.0	58.10389872256201	pulse	1.0	t		34.0	male	white	2.651014723438122	smiling	121	sub-11	2.0	3.0	121_smiling	0.0		83.91787417594242	
9.0	58.80387185771906	pulse	1.0	t		34.0	male	white	2.651014723438122	smiling	121	sub-11	2.0	3.0	121_smiling	0.0		84.61784731109947	
9.0	59.50387095216138	pulse	1.0	t		34.0	male	white	2.651014723438122	smiling	121	sub-11	2.0	3.0	121_smiling	0.0		85.31784640554179	
10.0	60.02038045446898	face	0.0		145	31.0	female	white	2.1822522881018704	neutral	102	sub-11	2.0	3.0	102_neutral	1.0	attractiveness	85.83435590784939	1.233307877133484
10.0	60.20384318176366	pulse	0.0	t		31.0	female	white	2.1822522881018704	neutral	102	sub-11	2.0	3.0	102_neutral	1.0	attractiveness	86.01781863514407	
10.0	60.90381299654837	pulse	0.0	t		31.0	female	white	2.1822522881018704	neutral	102	sub-11	2.0	3.0	102_neutral	1.0	attractiveness	86.71778844992878	
10.0	61.25368833160246	fix	1.0		177	31.0	female	white	2.1822522881018704	neutral	102	sub-11	2.0	3.0	102_neutral	1.0	attractiveness	87.06766378498287	1.4999749462695036
10.0	61.603795489121694	pulse	1.0	t		31.0	female	white	2.1822522881018704	neutral	102	sub-11	2.0	3.0	102_neutral	1.0	attractiveness	87.4177709425021	
10.0	62.303776774286234	pulse	1.0	t		31.0	female	white	2.1822522881018704	neutral	102	sub-11	2.0	3.0	102_neutral	1.0	attractiveness	88.11775222766664	
10.0	62.753663277871965	rating	2.0		294	31.0	female	white	2.1822522881018704	neutral	102	sub-11	2.0	3.0	102_neutral	1.0	attractiveness	88.56763873125237	2.499926046220935
10.0	62.99852092439323	pulse	2.0	t		31.0	female	white	2.1822522881018704	neutral	102	sub-11	2.0	3.0	102_neutral	1.0	attractiveness	88.81249637777364	
10.0	63.69861298930118	pulse	2.0	t		31.0	female	white	2.1822522881018704	neutral	102	sub-11	2.0	3.0	102_neutral	1.0	attractiveness	89.51258844268159	
10.0	64.3985320929205	pulse	2.0	t		31.0	female	white	2.1822522881018704	neutral	102	sub-11	2.0	3.0	102_neutral	1.0	attractiveness	90.21250754630091	
10.0	64.49845119654128	response	2.0	b		31.0	female	white	2.1822522881018704	neutral	102	sub-11	2.0	3.0	102_neutral	1.0	attractiveness	90.31242664992169	
10.0	65.10370795199196	pulse	2.0	t		31.0	female	white	2.1822522881018704	neutral	102	sub-11	2.0	3.0	102_neutral	1.0	attractiveness	90.91768340537237	
10.0	65.2535893240929	fix	3.0		444	31.0	female	white	2.1822522881018704	neutral	102	sub-11	2.0	3.0	102_neutral	1.0	attractiveness	91.06756477747331	3.7665239912093966
10.0	65.80366991861956	pulse	3.0	t		31.0	female	white	2.1822522881018704	neutral	102	sub-11	2.0	3.0	102_neutral	1.0	attractiveness	91.61764537199997	
10.0	66.50364969452494	pulse	3.0	t		31.0	female	white	2.1822522881018704	neutral	102	sub-11	2.0	3.0	102_neutral	1.0	attractiveness	92.31762514790535	
10.0	67.20364003525538	pulse	3.0	t		31.0	female	white	2.1822522881018704	neutral	102	sub-11	2.0	3.0	102_neutral	1.0	attractiveness	93.01761548863578	
10.0	67.90361347226644	pulse	3.0	t		31.0	female	white	2.1822522881018704	neutral	102	sub-11	2.0	3.0	102_neutral	1.0	attractiveness	93.71758892564685	
10.0	68.60360139817931	pulse	3.0	t		31.0	female	white	2.1822522881018704	neutral	102	sub-11	2.0	3.0	102_neutral	1.0	attractiveness	94.41757685155972	
11.0	69.0201133153023	face	0.0		145	21.0	male	black	2.969757262236371	smiling	137	sub-11	2.0	3.0	137_smiling	0.0		94.8340887686827	1.2333030474983389
11.0	69.30358992779657	pulse	0.0	t		21.0	male	black	2.969757262236371	smiling	137	sub-11	2.0	3.0	137_smiling	0.0		95.11756538117697	
11.0	70.00355279997893	pulse	0.0	t		21.0	male	black	2.969757262236371	smiling	137	sub-11	2.0	3.0	137_smiling	0.0		95.81752825335934	
11.0	70.25341636280064	fix	1.0		444	21.0	male	black	2.969757262236371	smiling	137	sub-11	2.0	3.0	137_smiling	0.0		96.06739181618104	3.7665499504983018
11.0	70.70353227403393	pulse	1.0	t		21.0	male	black	2.969757262236371	smiling	137	sub-11	2.0	3.0	137_smiling	0.0		96.51750772741434	
11.0	71.40351567216567	pulse	1.0	t		21.0	male	black	2.969757262236371	smiling	137	sub-11	2.0	3.0	137_smiling	0.0		97.21749112554608	
11.0	72.10348971287749	pulse	1.0	t		21.0	male	black	2.969757262236371	smiling	137	sub-11	2.0	3.0	137_smiling	0.0		97.9174651662579	
11.0	72.8034589239578	pulse	1.0	t		21.0	male	black	2.969757262236371	smiling	137	sub-11	2.0	3.0	137_smiling	0.0		98.61743437733821	
11.0	73.50344805727946	pulse	1.0	t		21.0	male	black	2.969757262236371	smiling	137	sub-11	2.0	3.0	137_smiling	0.0		99.31742351065986	
12.0	74.01996631329894	face	0.0		145	26.0	female	white	4.854755272582572	smiling	027	sub-11	2.0	3.0	027_smiling	0.0		99.83394176667935	1.233324780852854
12.0	74.20342270169567	pulse	0.0	t		26.0	female	white	4.854755272582572	smiling	027	sub-11	2.0	3.0	027_smiling	0.0		100.01739815507608	
12.0	74.90341545724368	pulse	0.0	t		26.0	female	white	4.854755272582572	smiling	027	sub-11	2.0	3.0	027_smiling	0.0		100.71739091062409	
12.0	75.25329109415179	fix	1.0		444	26.0	female	white	4.854755272582572	smiling	027	sub-11	2.0	3.0	027_smiling	0.0		101.0672665475322	3.766528518994164
12.0	75.60339040351755	pulse	1.0	t		26.0	female	white	4.854755272582572	smiling	027	sub-11	2.0	3.0	027_smiling	0.0		101.41736585689796	
12.0	76.30336052015264	pulse	1.0	t		26.0	female	white	4.854755272582572	smiling	027	sub-11	2.0	3.0	027_smiling	0.0		102.11733597353305	
12.0	77.00334572939391	pulse	1.0	t		26.0	female	white	4.854755272582572	smiling	027	sub-11	2.0	3.0	027_smiling	0.0		102.81732118277432	
12.0	77.70332309048172	pulse	1.0	t		26.0	female	white	4.854755272582572	smiling	027	sub-11	2.0	3.0	027_smiling	0.0		103.51729854386213	
12.0	78.40331312936178	pulse	1.0	t		26.0	female	white	4.854755272582572	smiling	027	sub-11	2.0	3.0	027_smiling	0.0		104.21728858274219	
13.0	79.01981961314596	face	0.0		145	19.0	male	white	3.2522881018702745	smiling	018	sub-11	2.0	3.0	018_smiling	0.0		104.83379506652636	1.2333235734477057
13.0	79.10327690710255	pulse	0.0	t		19.0	male	white	3.2522881018702745	smiling	018	sub-11	2.0	3.0	018_smiling	0.0		104.91725236048296	
13.0	79.8032645311614	pulse	0.0	t		19.0	male	white	3.2522881018702745	smiling	018	sub-11	2.0	3.0	018_smiling	0.0		105.61723998454181	
13.0	80.25314318659366	fix	1.0		444	19.0	male	white	3.2522881018702745	smiling	018	sub-11	2.0	3.0	018_smiling	0.0		106.06711863997407	3.7582028325814463
13.0	80.5032440052164	pulse	1.0	t		19.0	male	white	3.2522881018702745	smiling	018	sub-11	2.0	3.0	018_smiling	0.0		106.31721945859681	
13.0	81.20322529038094	pulse	1.0	t		19.0	male	white	3.2522881018702745	smiling	018	sub-11	2.0	3.0	018_smiling	0.0		107.01720074376135	
13.0	81.90319419960724	pulse	1.0	t		19.0	male	white	3.2522881018702745	smiling	018	sub-11	2.0	3.0	018_smiling	0.0		107.71716965298765	
13.0	82.60316854217308	pulse	1.0	t		19.0	male	white	3.2522881018702745	smiling	018	sub-11	2.0	3.0	018_smiling	0.0		108.41714399555349	
13.0	83.30316341068828	pulse	1.0	t		19.0	male	white	3.2522881018702745	smiling	018	sub-11	2.0	3.0	018_smiling	0.0		109.11713886406869	
14.0	84.01134601917511	face	0.0		147	19.0	male	white	3.2522881018702745	neutral	018	sub-11	2.0	3.0	018_neutral	0.0		109.82532147255552	1.2416507691159495
14.0	84.00481846610637	pulse	0.0	t		19.0	male	white	3.2522881018702745	neutral	018	sub-11	2.0	3.0	018_neutral	0.0		109.81879391948678	
14.0	84.70311722730548	pulse	0.0	t		19.0	male	white	3.2522881018702745	neutral	018	sub-11	2.0	3.0	018_neutral	0.0		110.51709268068589	
14.0	85.25299678829106	fix	1.0		443	19.0	male	white	3.2522881018702745	neutral	018	sub-11	2.0	3.0	018_neutral	0.0		111.06697224167146	3.7665233875086415
14.0	85.40310364395918	pulse	1.0	t		19.0	male	white	3.2522881018702745	neutral	018	sub-11	2.0	3.0	018_neutral	0.0		111.21707909733959	
14.0	86.10308311801055	pulse	1.0	t		19.0	male	white	3.2522881018702745	neutral	018	sub-11	2.0	3.0	018_neutral	0.0		111.91705857139095	
14.0	86.80306168650714	pulse	1.0	t		19.0	male	white	3.2522881018702745	neutral	018	sub-11	2.0	3.0	018_neutral	0.0		112.61703713988754	
14.0	87.50301701238641	pulse	1.0	t		19.0	male	white	3.2522881018702745	neutral	018	sub-11	2.0	3.0	018_neutral	0.0		113.31699246576682	
14.0	88.20301339016078	pulse	1.0	t		19.0	male	white	3.2522881018702745	neutral	018	sub-11	2.0	3.0	018_neutral	0.0		114.01698884354118	
14.0	88.90300041051887	pulse	1.0	t		19.0	male	white	3.2522881018702745	neutral	018	sub-11	2.0	3.0	018_neutral	0.0		114.71697586389928	
15.0	89.0195201757997	face	0.0		146	40.0	male	black	2.408674890569041	neutral	061	sub-11	2.0	3.0	061_neutral	0.0		114.8334956291801	1.2333271956704266
15.0	89.60298592161416	pulse	0.0	t		40.0	male	black	2.408674890569041	neutral	061	sub-11	2.0	3.0	061_neutral	0.0		115.41696137499457	
15.0	90.25284737147012	fix	1.0		443	40.0	male	black	2.408674890569041	neutral	061	sub-11	2.0	3.0	061_neutral	0.0		116.06682282485053	3.766539083819225
15.0	90.30296539566916	pulse	1.0	t		40.0	male	black	2.408674890569041	neutral	061	sub-11	2.0	3.0	061_neutral	0.0		116.11694084904957	
15.0	91.0029376252678	pulse	1.0	t		40.0	male	black	2.408674890569041	neutral	061	sub-11	2.0	3.0	061_neutral	0.0		116.81691307864821	
15.0	91.70291679746879	pulse	1.0	t		40.0	male	black	2.408674890569041	neutral	061	sub-11	2.0	3.0	061_neutral	0.0		117.5168922508492	
15.0	92.40289174373902	pulse	1.0	t		40.0	male	black	2.408674890569041	neutral	061	sub-11	2.0	3.0	061_neutral	0.0		118.21686719711943	
15.0	93.10286427519168	pulse	1.0	t		40.0	male	black	2.408674890569041	neutral	061	sub-11	2.0	3.0	061_neutral	0.0		118.91683972857209	
15.0	93.80284103257509	pulse	1.0	t		40.0	male	black	2.408674890569041	neutral	061	sub-11	2.0	3.0	061_neutral	0.0		119.6168164859555	
16.0	94.01938645528935	face	0.0		145	37.0	male	white	3.898925586947871	neutral	101	sub-11	2.0	3.0	101_neutral	1.0	dominance	119.83336190866976	1.2333139141774154
16.0	94.50283559923628	pulse	0.0	t		37.0	male	white	3.898925586947871	neutral	101	sub-11	2.0	3.0	101_neutral	1.0	dominance	120.31681105261669	
16.0	95.20281145106492	pulse	0.0	t		37.0	male	white	3.898925586947871	neutral	101	sub-11	2.0	3.0	101_neutral	1.0	dominance	121.01678690444533	
16.0	95.25270036946677	fix	1.0		177	37.0	male	white	3.898925586947871	neutral	101	sub-11	2.0	3.0	101_neutral	1.0	dominance	121.06667582284717	1.4999580425501335
16.0	95.90279001956151	pulse	1.0	t		37.0	male	white	3.898925586947871	neutral	101	sub-11	2.0	3.0	101_neutral	1.0	dominance	121.71676547294192	
16.0	96.6027734176896	pulse	1.0	t		37.0	male	white	3.898925586947871	neutral	101	sub-11	2.0	3.0	101_neutral	1.0	dominance	122.41674887107001	
16.0	96.7526584120169	rating	2.0		295	37.0	male	white	3.898925586947871	neutral	101	sub-11	2.0	3.0	101_neutral	1.0	dominance	122.5666338653973	2.4999221221405605
16.0	97.297518171501	pulse	2.0	t		37.0	male	white	3.898925586947871	neutral	101	sub-11	2.0	3.0	101_neutral	1.0	dominance	123.1114936248814	
16.0	97.99747983627458	pulse	2.0	t		37.0	male	white	3.898925586947871	neutral	101	sub-11	2.0	3.0	101_neutral	1.0	dominance	123.81145528965499	
16.0	98.4392434981055	response	2.0	y		37.0	male	white	3.898925586947871	neutral	101	sub-11	2.0	3.0	101_neutral	1.0	dominance	124.2532189514859	
16.0	98.69760389751536	pulse	2.0	t		37.0	male	white	3.898925586947871	neutral	101	sub-11	2.0	3.0	101_neutral	1.0	dominance	124.51157935089577	
16.0	99.25258053415746	fix	3.0		443	37.0	male	white	3.898925586947871	neutral	101	sub-11	2.0	3.0	101_neutral	1.0	dominance	125.06655598753787	3.766525802322576
16.0	99.40267954166848	pulse	3.0	t		37.0	male	white	3.898925586947871	neutral	101	sub-11	2.0	3.0	101_neutral	1.0	dominance	125.21665499504888	
16.0	100.10267078795368	pulse	3.0	t		37.0	male	white	3.898925586947871	neutral	101	sub-11	2.0	3.0	101_neutral	1.0	dominance	125.91664624133409	
16.0	100.80264482866914	pulse	3.0	t		37.0	male	white	3.898925586947871	neutral	101	sub-11	2.0	3.0	101_neutral	1.0	dominance	126.61662028204955	
16.0	101.50262792494686	pulse	3.0	t		37.0	male	white	3.898925586947871	neutral	101	sub-11	2.0	3.0	101_neutral	1.0	dominance	127.31660337832727	
16.0	102.20260136195793	pulse	3.0	t		37.0	male	white	3.898925586947871	neutral	101	sub-11	2.0	3.0	101_neutral	1.0	dominance	128.01657681533834	
16.0	102.90258053415891	pulse	3.0	t		37.0	male	white	3.898925586947871	neutral	101	sub-11	2.0	3.0	101_neutral	1.0	dominance	128.71655598753932	
17.0	103.01910633648004	face	0.0		146	54.0	female	white	2.286908077994429	smiling	136	sub-11	2.0	3.0	136_smiling	0.0		128.83308178986044	1.2332942937864573
17.0	103.60255457487074	pulse	0.0	t		54.0	female	white	2.286908077994429	smiling	136	sub-11	2.0	3.0	136_smiling	0.0		129.41653002825115	
17.0	104.2524006302665	fix	1.0		443	54.0	female	white	2.286908077994429	smiling	136	sub-11	2.0	3.0	136_smiling	0.0		130.0663760836469	3.7665599116189696
17.0	104.3025195600203	pulse	1.0	t		54.0	female	white	2.286908077994429	smiling	136	sub-11	2.0	3.0	136_smiling	0.0		130.1164950134007	
17.0	105.0025219748386	pulse	1.0	t		54.0	female	white	2.286908077994429	smiling	136	sub-11	2.0	3.0	136_smiling	0.0		130.816497428219	
17.0	105.70250084518557	pulse	1.0	t		54.0	female	white	2.286908077994429	smiling	136	sub-11	2.0	3.0	136_smiling	0.0		131.51647629856598	
17.0	106.40248182849973	pulse	1.0	t		54.0	female	white	2.286908077994429	smiling	136	sub-11	2.0	3.0	136_smiling	0.0		132.21645728188014	
17.0	107.10244953031724	pulse	1.0	t		54.0	female	white	2.286908077994429	smiling	136	sub-11	2.0	3.0	136_smiling	0.0		132.91642498369765	
17.0	107.8024401729017	pulse	1.0	t		54.0	female	white	2.286908077994429	smiling	136	sub-11	2.0	3.0	136_smiling	0.0		133.6164156262821	
18.0	108.01896054188546	face	0.0		145	23.0	male	white	2.6275368085953046	smiling	141	sub-11	2.0	3.0	141_smiling	0.0		133.83293599526587	1.2333253845572472
18.0	108.50242326917942	pulse	0.0	t		23.0	male	white	2.6275368085953046	smiling	141	sub-11	2.0	3.0	141_smiling	0.0		134.31639872255982	
18.0	109.2023948950773	pulse	0.0	t		23.0	male	white	2.6275368085953046	smiling	141	sub-11	2.0	3.0	141_smiling	0.0		135.0163703484577	
18.0	109.25228592644271	fix	1.0		445	23.0	male	white	2.6275368085953046	smiling	141	sub-11	2.0	3.0	141_smiling	0.0		135.06626137982312	3.766527915289771
18.0	109.9023798024682	pulse	1.0	t		23.0	male	white	2.6275368085953046	smiling	141	sub-11	2.0	3.0	141_smiling	0.0		135.7163552558486	
18.0	110.60235293762526	pulse	1.0	t		23.0	male	white	2.6275368085953046	smiling	141	sub-11	2.0	3.0	141_smiling	0.0		136.41632839100566	
18.0	111.3023272801911	pulse	1.0	t		23.0	male	white	2.6275368085953046	smiling	141	sub-11	2.0	3.0	141_smiling	0.0		137.1163027335715	
18.0	112.00231218758199	pulse	1.0	t		23.0	male	white	2.6275368085953046	smiling	141	sub-11	2.0	3.0	141_smiling	0.0		137.8162876409624	
18.0	112.70228773755662	pulse	1.0	t		23.0	male	white	2.6275368085953046	smiling	141	sub-11	2.0	3.0	141_smiling	0.0		138.51626319093702	
19.0	113.01881384173248	face	0.0		145	28.0	male	white	3.9076800636689217	neutral	033	sub-11	2.0	3.0	033_neutral	0.0		138.8327892951129	1.2333265919696714
19.0	113.40226298568086	pulse	0.0	t		28.0	male	white	3.9076800636689217	neutral	033	sub-11	2.0	3.0	033_neutral	0.0		139.21623843906127	
19.0	114.10225030788934	pulse	0.0	t		28.0	male	white	3.9076800636689217	neutral	033	sub-11	2.0	3.0	033_neutral	0.0		139.91622576126974	
19.0	114.25214043370215	fix	1.0		444	28.0	male	white	3.9076800636689217	neutral	033	sub-11	2.0	3.0	033_neutral	0.0		140.06611588708256	3.7665233875050035
19.0	114.80223008379471	pulse	1.0	t		28.0	male	white	3.9076800636689217	neutral	033	sub-11	2.0	3.0	033_neutral	0.0		140.61620553717512	
19.0	115.50221197266364	pulse	1.0	t		28.0	male	white	3.9076800636689217	neutral	033	sub-11	2.0	3.0	033_neutral	0.0		141.31618742604405	
19.0	116.20219144671864	pulse	1.0	t		28.0	male	white	3.9076800636689217	neutral	033	sub-11	2.0	3.0	033_neutral	0.0		142.01616690009905	
19.0	116.90217092077	pulse	1.0	t		28.0	male	white	3.9076800636689217	neutral	033	sub-11	2.0	3.0	033_neutral	0.0		142.7161463741504	
19.0	117.60213801888312	pulse	1.0	t		28.0	male	white	3.9076800636689217	neutral	033	sub-11	2.0	3.0	033_neutral	0.0		143.41611347226353	
20.0	118.01866382120716	face	0.0		145	22.0	male	black	2.767608436132113	neutral	044	sub-11	2.0	3.0	044_neutral	0.0		143.83263927458756	1.2333253845608851
20.0	118.30212835961356	pulse	0.0	t		22.0	male	black	2.767608436132113	neutral	044	sub-11	2.0	3.0	044_neutral	0.0		144.11610381299397	
20.0	119.002102098475	pulse	0.0	t		22.0	male	black	2.767608436132113	neutral	044	sub-11	2.0	3.0	044_neutral	0.0		144.81607755185541	
20.0	119.25198920576804	fix	1.0		1185	22.0	male	black	2.767608436132113	neutral	044	sub-11	2.0	3.0	044_neutral	0.0		145.06596465914845	10.016356161406293
20.0	119.70208821327469	pulse	1.0	t		22.0	male	black	2.767608436132113	neutral	044	sub-11	2.0	3.0	044_neutral	0.0		145.5160636666551	
20.0	120.40206527251212	pulse	1.0	t		22.0	male	black	2.767608436132113	neutral	044	sub-11	2.0	3.0	044_neutral	0.0		146.21604072589253	
20.0	121.10205410398339	pulse	1.0	t		22.0	male	black	2.767608436132113	neutral	044	sub-11	2.0	3.0	044_neutral	0.0		146.9160295573638	
20.0	121.80201214653061	pulse	1.0	t		22.0	male	black	2.767608436132113	neutral	044	sub-11	2.0	3.0	044_neutral	0.0		147.61598759991102	
20.0	122.50199645021712	pulse	1.0	t		22.0	male	black	2.767608436132113	neutral	044	sub-11	2.0	3.0	044_neutral	0.0		148.31597190359753	
20.0	123.20197924464446	pulse	1.0	t		22.0	male	black	2.767608436132113	neutral	044	sub-11	2.0	3.0	044_neutral	0.0		149.01595469802487	
20.0	123.90195871869946	pulse	1.0	t		22.0	male	black	2.767608436132113	neutral	044	sub-11	2.0	3.0	044_neutral	0.0		149.71593417207987	
20.0	124.6019176668051	pulse	1.0	t		22.0	male	black	2.767608436132113	neutral	044	sub-11	2.0	3.0	044_neutral	0.0		150.4158931201855	
20.0	125.30192400570013	pulse	1.0	t		22.0	male	black	2.767608436132113	neutral	044	sub-11	2.0	3.0	044_neutral	0.0		151.11589945908054	
20.0	126.00189955567475	pulse	1.0	t		22.0	male	black	2.767608436132113	neutral	044	sub-11	2.0	3.0	044_neutral	0.0		151.81587500905516	
20.0	126.70187872787574	pulse	1.0	t		22.0	male	black	2.767608436132113	neutral	044	sub-11	2.0	3.0	044_neutral	0.0		152.51585418125615	
20.0	127.40185307044158	pulse	1.0	t		22.0	male	black	2.767608436132113	neutral	044	sub-11	2.0	3.0	044_neutral	0.0		153.21582852382198	
20.0	128.10183314819733	pulse	1.0	t		22.0	male	black	2.767608436132113	neutral	044	sub-11	2.0	3.0	044_neutral	0.0		153.91580860157774	
20.0	128.80181473521588	pulse	1.0	t		22.0	male	black	2.767608436132113	neutral	044	sub-11	2.0	3.0	044_neutral	0.0		154.6157901885963	
21.0	129.26834536717433	face	0.0		145	25.0	female	west_asian	2.6756864305610826	smiling	064	sub-11	2.0	3.0	064_smiling	0.0		155.08232082055474	1.2333105938014342
21.0	129.5017972277892	pulse	0.0	t		25.0	female	west_asian	2.6756864305610826	smiling	064	sub-11	2.0	3.0	064_smiling	0.0		155.31577268116962	
21.0	130.20177851295375	pulse	0.0	t		25.0	female	west_asian	2.6756864305610826	smiling	064	sub-11	2.0	3.0	064_smiling	0.0		156.01575396633416	
21.0	130.50165596097577	fix	1.0		444	25.0	female	west_asian	2.6756864305610826	smiling	064	sub-11	2.0	3.0	064_smiling	0.0		156.31563141435618	3.766542102341191
21.0	130.90175557219118	pulse	1.0	t		25.0	female	west_asian	2.6756864305610826	smiling	064	sub-11	2.0	3.0	064_smiling	0.0		156.71573102557159	
21.0	131.6017392721733	pulse	1.0	t		25.0	female	west_asian	2.6756864305610826	smiling	064	sub-11	2.0	3.0	064_smiling	0.0		157.4157147255537	
21.0	132.3017069739908	pulse	1.0	t		25.0	female	west_asian	2.6756864305610826	smiling	064	sub-11	2.0	3.0	064_smiling	0.0		158.1156824273712	
21.0	133.0016779961843	pulse	1.0	t		25.0	female	west_asian	2.6756864305610826	smiling	064	sub-11	2.0	3.0	064_smiling	0.0		158.8156534495647	
21.0	133.70167377025427	pulse	1.0	t		25.0	female	west_asian	2.6756864305610826	smiling	064	sub-11	2.0	3.0	064_smiling	0.0		159.51564922363468	
22.0	134.26819806331696	face	0.0		145	27.0	female	white	3.504576203740549	neutral	144	sub-11	2.0	3.0	144_neutral	0.0		160.08217351669737	1.2332961048996367
22.0	134.40165264060124	pulse	0.0	t		27.0	female	white	3.504576203740549	neutral	144	sub-11	2.0	3.0	144_neutral	0.0		160.21562809398165	
22.0	135.10162124797716	pulse	0.0	t		27.0	female	white	3.504576203740549	neutral	144	sub-11	2.0	3.0	144_neutral	0.0		160.91559670135757	
22.0	135.5014941682166	fix	1.0		444	27.0	female	white	3.504576203740549	neutral	144	sub-11	2.0	3.0	144_neutral	0.0		161.315469621597	3.7582810122912633
22.0	135.80161400352517	pulse	1.0	t		27.0	female	white	3.504576203740549	neutral	144	sub-11	2.0	3.0	144_neutral	0.0		161.61558945690558	
22.0	136.5015904590582	pulse	1.0	t		27.0	female	white	3.504576203740549	neutral	144	sub-11	2.0	3.0	144_neutral	0.0		162.31556591243861	
22.0	137.20156480162404	pulse	1.0	t		27.0	female	white	3.504576203740549	neutral	144	sub-11	2.0	3.0	144_neutral	0.0		163.01554025500445	
22.0	137.90154337012063	pulse	1.0	t		27.0	female	white	3.504576203740549	neutral	144	sub-11	2.0	3.0	144_neutral	0.0		163.71551882350104	
22.0	138.60151559971928	pulse	1.0	t		27.0	female	white	3.504576203740549	neutral	144	sub-11	2.0	3.0	144_neutral	0.0		164.4154910530997	
23.0	139.25977518050786	face	0.0		146	27.0	female	white	4.181058495821727	smiling	039	sub-11	2.0	3.0	039_smiling	0.0		165.07375063388827	1.2415756079280982
23.0	139.30150412933654	pulse	0.0	t		27.0	female	white	4.181058495821727	smiling	039	sub-11	2.0	3.0	039_smiling	0.0		165.11547958271694	
23.0	140.00146700152254	pulse	0.0	t		27.0	female	white	4.181058495821727	smiling	039	sub-11	2.0	3.0	039_smiling	0.0		165.81544245490295	
23.0	140.50135078843596	fix	1.0		443	27.0	female	white	4.181058495821727	smiling	039	sub-11	2.0	3.0	039_smiling	0.0		166.31532624181636	3.758287653039588
23.0	140.70146609596486	pulse	1.0	t		27.0	female	white	4.181058495821727	smiling	039	sub-11	2.0	3.0	039_smiling	0.0		166.51544154934527	
23.0	141.40143742000873	pulse	1.0	t		27.0	female	white	4.181058495821727	smiling	039	sub-11	2.0	3.0	039_smiling	0.0		167.21541287338914	
23.0	142.10141236627896	pulse	1.0	t		27.0	female	white	4.181058495821727	smiling	039	sub-11	2.0	3.0	039_smiling	0.0		167.91538781965937	
23.0	142.8014033107138	pulse	1.0	t		27.0	female	white	4.181058495821727	smiling	039	sub-11	2.0	3.0	039_smiling	0.0		168.6153787640942	
23.0	143.50138640699151	pulse	1.0	t		27.0	female	white	4.181058495821727	smiling	039	sub-11	2.0	3.0	039_smiling	0.0		169.31536186037192	
23.0	144.20138761440103	pulse	1.0	t		27.0	female	white	4.181058495821727	smiling	039	sub-11	2.0	3.0	039_smiling	0.0		170.01536306778144	
24.0	144.25963844147554	face	0.0		147	19.0	female	white	4.298846000795861	neutral	100	sub-11	2.0	3.0	100_neutral	0.0		170.07361389485595	1.2415737968185567
24.0	144.90134595880227	pulse	0.0	t		19.0	female	white	4.298846000795861	neutral	100	sub-11	2.0	3.0	100_neutral	0.0		170.71532141218267	
24.0	145.5012122382941	fix	1.0		443	19.0	female	white	4.298846000795861	neutral	100	sub-11	2.0	3.0	100_neutral	0.0		171.3151876916745	3.766546931972698
24.0	145.60132392359446	pulse	1.0	t		19.0	female	white	4.298846000795861	neutral	100	sub-11	2.0	3.0	100_neutral	0.0		171.41529937697487	
24.0	146.30129736060553	pulse	1.0	t		19.0	female	white	4.298846000795861	neutral	100	sub-11	2.0	3.0	100_neutral	0.0		172.11527281398594	
24.0	147.0012771365109	pulse	1.0	t		19.0	female	white	4.298846000795861	neutral	100	sub-11	2.0	3.0	100_neutral	0.0		172.81525258989132	
24.0	147.7012792494752	pulse	1.0	t		19.0	female	white	4.298846000795861	neutral	100	sub-11	2.0	3.0	100_neutral	0.0		173.5152547028556	
24.0	148.40123819758082	pulse	1.0	t		19.0	female	white	4.298846000795861	neutral	100	sub-11	2.0	3.0	100_neutral	0.0		174.21521365096123	
24.0	149.10121314385106	pulse	1.0	t		19.0	female	white	4.298846000795861	neutral	100	sub-11	2.0	3.0	100_neutral	0.0		174.91518859723146	
25.0	149.2677591702668	face	0.0		146	24.0	female	black	3.0955033824114606	smiling	099	sub-11	2.0	3.0	099_smiling	0.0		175.0817346236472	1.2332948974944884
25.0	149.80119684383317	pulse	0.0	t		24.0	female	black	3.0955033824114606	smiling	099	sub-11	2.0	3.0	099_smiling	0.0		175.61517229721358	
25.0	150.5010540677613	fix	1.0		444	24.0	female	black	3.0955033824114606	smiling	099	sub-11	2.0	3.0	099_smiling	0.0		176.3150295211417	3.766552667162614
25.0	150.5085747144476	pulse	1.0	t		24.0	female	black	3.0955033824114606	smiling	099	sub-11	2.0	3.0	099_smiling	0.0		176.322550167828	
25.0	151.20116484750542	pulse	1.0	t		24.0	female	black	3.0955033824114606	smiling	099	sub-11	2.0	3.0	099_smiling	0.0		177.01514030088583	
25.0	151.90113375673172	pulse	1.0	t		24.0	female	black	3.0955033824114606	smiling	099	sub-11	2.0	3.0	099_smiling	0.0		177.71510921011213	
25.0	152.60111172152392	pulse	1.0	t		24.0	female	black	3.0955033824114606	smiling	099	sub-11	2.0	3.0	099_smiling	0.0		178.41508717490433	
25.0	153.30108636594014	pulse	1.0	t		24.0	female	black	3.0955033824114606	smiling	099	sub-11	2.0	3.0	099_smiling	0.0		179.11506181932054	
25.0	154.0010993455835	pulse	1.0	t		24.0	female	black	3.0955033824114606	smiling	099	sub-11	2.0	3.0	099_smiling	0.0		179.8150747989639	
26.0	154.2676067349239	face	0.0		145	47.0	male	east_asian	2.171110226820533	smiling	024	sub-11	2.0	3.0	024_smiling	0.0		180.0815821883043	1.2333003308303887
26.0	154.70104833256846	pulse	0.0	t		47.0	male	east_asian	2.171110226820533	smiling	024	sub-11	2.0	3.0	024_smiling	0.0		180.51502378594887	
26.0	155.40101331771803	pulse	0.0	t		47.0	male	east_asian	2.171110226820533	smiling	024	sub-11	2.0	3.0	024_smiling	0.0		181.21498877109843	
26.0	155.5009070657543	fix	1.0		445	47.0	male	east_asian	2.171110226820533	smiling	024	sub-11	2.0	3.0	024_smiling	0.0		181.3148825191347	3.7665523653158743
26.0	156.10100275289005	pulse	1.0	t		47.0	male	east_asian	2.171110226820533	smiling	024	sub-11	2.0	3.0	024_smiling	0.0		181.91497820627046	
26.0	156.8009855473174	pulse	1.0	t		47.0	male	east_asian	2.171110226820533	smiling	024	sub-11	2.0	3.0	024_smiling	0.0		182.6149610006978	
26.0	157.50096773804034	pulse	1.0	t		47.0	male	east_asian	2.171110226820533	smiling	024	sub-11	2.0	3.0	024_smiling	0.0		183.31494319142075	
26.0	158.2009659269279	pulse	1.0	t		47.0	male	east_asian	2.171110226820533	smiling	024	sub-11	2.0	3.0	024_smiling	0.0		184.0149413803083	
26.0	158.90092125280717	pulse	1.0	t		47.0	male	east_asian	2.171110226820533	smiling	024	sub-11	2.0	3.0	024_smiling	0.0		184.71489670618757	
27.0	159.26745943107017	face	0.0		145	28.0	male	white	3.9076800636689217	smiling	033	sub-11	2.0	3.0	033_smiling	0.0		185.08143488445057	1.2333124049146136
27.0	159.60090072685853	pulse	0.0	t		28.0	male	white	3.9076800636689217	smiling	033	sub-11	2.0	3.0	033_smiling	0.0		185.41487618023893	
27.0	160.30091642317348	pulse	0.0	t		28.0	male	white	3.9076800636689217	smiling	033	sub-11	2.0	3.0	033_smiling	0.0		186.11489187655388	
27.0	160.50077183598478	fix	1.0		444	28.0	male	white	3.9076800636689217	smiling	033	sub-11	2.0	3.0	033_smiling	0.0		186.3147472893652	3.7665224819502328
27.0	161.0008989157468	pulse	1.0	t		28.0	male	white	3.9076800636689217	smiling	033	sub-11	2.0	3.0	033_smiling	0.0		186.8148743691272	
27.0	161.70087205090385	pulse	1.0	t		28.0	male	white	3.9076800636689217	smiling	033	sub-11	2.0	3.0	033_smiling	0.0		187.51484750428426	
27.0	162.4008457897653	pulse	1.0	t		28.0	male	white	3.9076800636689217	smiling	033	sub-11	2.0	3.0	033_smiling	0.0		188.2148212431457	
27.0	163.1008306971562	pulse	1.0	t		28.0	male	white	3.9076800636689217	smiling	033	sub-11	2.0	3.0	033_smiling	0.0		188.9148061505366	
27.0	163.80076730820292	pulse	1.0	t		28.0	male	white	3.9076800636689217	smiling	033	sub-11	2.0	3.0	033_smiling	0.0		189.61474276158333	
28.0	164.267294317935	face	0.0		145	24.0	female	east_asian	4.409868682849185	smiling	030	sub-11	2.0	3.0	030_smiling	0.0		190.08126977131542	1.233333232714358
28.0	164.50075191374344	pulse	0.0	t		24.0	female	east_asian	4.409868682849185	smiling	030	sub-11	2.0	3.0	030_smiling	0.0		190.31472736712385	
28.0	165.20073923595191	pulse	0.0	t		24.0	female	east_asian	4.409868682849185	smiling	030	sub-11	2.0	3.0	030_smiling	0.0		191.01471468933232	
28.0	165.50062755064937	fix	1.0		444	24.0	female	east_asian	4.409868682849185	smiling	030	sub-11	2.0	3.0	030_smiling	0.0		191.31460300402978	3.7665206708370533
28.0	165.9007494989237	pulse	1.0	t		24.0	female	east_asian	4.409868682849185	smiling	030	sub-11	2.0	3.0	030_smiling	0.0		191.7147249523041	
28.0	166.60073048223785	pulse	1.0	t		24.0	female	east_asian	4.409868682849185	smiling	030	sub-11	2.0	3.0	030_smiling	0.0		192.41470593561826	
28.0	167.30070663591687	pulse	1.0	t		24.0	female	east_asian	4.409868682849185	smiling	030	sub-11	2.0	3.0	030_smiling	0.0		193.11468208929728	
28.0	168.00068067663233	pulse	1.0	t		24.0	female	east_asian	4.409868682849185	smiling	030	sub-11	2.0	3.0	030_smiling	0.0		193.81465613001274	
28.0	168.70062513583252	pulse	1.0	t		24.0	female	east_asian	4.409868682849185	smiling	030	sub-11	2.0	3.0	030_smiling	0.0		194.51460058921293	
29.0	169.26714822148642	face	0.0		145	24.0	female	east_asian	4.409868682849185	neutral	030	sub-11	2.0	3.0	030_neutral	0.0		195.08112367486683	1.2333265919696714
29.0	169.40060793025987	pulse	0.0	t		24.0	female	east_asian	4.409868682849185	neutral	030	sub-11	2.0	3.0	030_neutral	0.0		195.21458338364027	
29.0	170.10058559319805	pulse	0.0	t		24.0	female	east_asian	4.409868682849185	neutral	030	sub-11	2.0	3.0	030_neutral	0.0		195.91456104657846	
29.0	170.5004748134561	fix	1.0		444	24.0	female	east_asian	4.409868682849185	neutral	030	sub-11	2.0	3.0	030_neutral	0.0		196.3144502668365	3.7665408949287666
29.0	170.8005774431913	pulse	1.0	t		24.0	female	east_asian	4.409868682849185	neutral	030	sub-11	2.0	3.0	030_neutral	0.0		196.6145528965717	
29.0	171.50058740431268	pulse	1.0	t		24.0	female	east_asian	4.409868682849185	neutral	030	sub-11	2.0	3.0	030_neutral	0.0		197.3145628576931	
29.0	172.2005001690377	pulse	1.0	t		24.0	female	east_asian	4.409868682849185	neutral	030	sub-11	2.0	3.0	030_neutral	0.0		198.0144756224181	
29.0	172.90049745236684	pulse	1.0	t		24.0	female	east_asian	4.409868682849185	neutral	030	sub-11	2.0	3.0	030_neutral	0.0		198.71447290574724	
29.0	173.60048024679418	pulse	1.0	t		24.0	female	east_asian	4.409868682849185	neutral	030	sub-11	2.0	3.0	030_neutral	0.0		199.41445570017459	
30.0	174.26701570838486	face	0.0		145	20.0	male	black	3.1070433744528456	neutral	082	sub-11	2.0	3.0	082_neutral	0.0		200.08099116176527	1.2333124049182516
30.0	174.300537900559	pulse	0.0	t		20.0	male	black	3.1070433744528456	neutral	082	sub-11	2.0	3.0	082_neutral	0.0		200.1145133539394	
30.0	175.0004416097181	pulse	0.0	t		20.0	male	black	3.1070433744528456	neutral	082	sub-11	2.0	3.0	082_neutral	0.0		200.81441706309852	
30.0	175.5003281133031	fix	1.0		443	20.0	male	black	3.1070433744528456	neutral	082	sub-11	2.0	3.0	082_neutral	0.0		201.31430356668352	3.7665424041915685
30.0	175.70055148390384	pulse	1.0	t		20.0	male	black	3.1070433744528456	neutral	082	sub-11	2.0	3.0	082_neutral	0.0		201.51452693728424	
30.0	176.4004108207955	pulse	1.0	t		20.0	male	black	3.1070433744528456	neutral	082	sub-11	2.0	3.0	082_neutral	0.0		202.21438627417592	
30.0	177.1003887855877	pulse	1.0	t		20.0	male	black	3.1070433744528456	neutral	082	sub-11	2.0	3.0	082_neutral	0.0		202.91436423896812	
30.0	177.80036222259878	pulse	1.0	t		20.0	male	black	3.1070433744528456	neutral	082	sub-11	2.0	3.0	082_neutral	0.0		203.6143376759792	
30.0	178.50034562072688	pulse	1.0	t		20.0	male	black	3.1070433744528456	neutral	082	sub-11	2.0	3.0	082_neutral	0.0		204.31432107410728	
30.0	179.20031543551158	pulse	1.0	t		20.0	male	black	3.1070433744528456	neutral	082	sub-11	2.0	3.0	082_neutral	0.0		205.014290888892	
31.0	179.26687051749468	face	0.0		146	47.0	male	east_asian	2.171110226820533	neutral	024	sub-11	2.0	3.0	024_neutral	0.0		205.0808459708751	1.2333066697246977
31.0	179.9003097003224	pulse	0.0	t		47.0	male	east_asian	2.171110226820533	neutral	024	sub-11	2.0	3.0	024_neutral	0.0		205.7142851537028	
31.0	180.50017718721938	fix	1.0		443	47.0	male	east_asian	2.171110226820533	neutral	024	sub-11	2.0	3.0	024_neutral	0.0		206.3141526405998	3.7665439134543703
31.0	180.60028917437376	pulse	1.0	t		47.0	male	east_asian	2.171110226820533	neutral	024	sub-11	2.0	3.0	024_neutral	0.0		206.41426462775416	
31.0	181.30026744101633	pulse	1.0	t		47.0	male	east_asian	2.171110226820533	neutral	024	sub-11	2.0	3.0	024_neutral	0.0		207.11424289439674	
31.0	182.00024057617702	pulse	1.0	t		47.0	male	east_asian	2.171110226820533	neutral	024	sub-11	2.0	3.0	024_neutral	0.0		207.81421602955743	
31.0	182.70020948540332	pulse	1.0	t		47.0	male	east_asian	2.171110226820533	neutral	024	sub-11	2.0	3.0	024_neutral	0.0		208.51418493878373	
31.0	183.40020073168853	pulse	1.0	t		47.0	male	east_asian	2.171110226820533	neutral	024	sub-11	2.0	3.0	024_neutral	0.0		209.21417618506894	
31.0	184.10017567795876	pulse	1.0	t		47.0	male	east_asian	2.171110226820533	neutral	024	sub-11	2.0	3.0	024_neutral	0.0		209.91415113133917	
32.0	184.26672110067375	face	0.0		146	36.0	female	white	2.7548746518105847	neutral	011	sub-11	2.0	3.0	011_neutral	0.0		210.08069655405416	1.2332948974908504
32.0	184.80016088720367	pulse	0.0	t		36.0	female	white	2.7548746518105847	neutral	011	sub-11	2.0	3.0	011_neutral	0.0		210.61413634058408	
32.0	185.5000159981646	fix	1.0		444	36.0	female	white	2.7548746518105847	neutral	011	sub-11	2.0	3.0	011_neutral	0.0		211.313991451545	3.766554780129809
32.0	185.5076042597393	pulse	1.0	t		36.0	female	white	2.7548746518105847	neutral	011	sub-11	2.0	3.0	011_neutral	0.0		211.32157971311972	
32.0	186.20010927048497	pulse	1.0	t		36.0	female	white	2.7548746518105847	neutral	011	sub-11	2.0	3.0	011_neutral	0.0		212.01408472386538	
32.0	186.90010051677018	pulse	1.0	t		36.0	female	white	2.7548746518105847	neutral	011	sub-11	2.0	3.0	011_neutral	0.0		212.7140759701506	
32.0	187.6000760667448	pulse	1.0	t		36.0	female	white	2.7548746518105847	neutral	011	sub-11	2.0	3.0	011_neutral	0.0		213.4140515201252	
32.0	188.30004920190186	pulse	1.0	t		36.0	female	white	2.7548746518105847	neutral	011	sub-11	2.0	3.0	011_neutral	0.0		214.11402465528226	
32.0	189.00002143150414	pulse	1.0	t		36.0	female	white	2.7548746518105847	neutral	011	sub-11	2.0	3.0	011_neutral	0.0		214.81399688488455	
33.0	189.2665707782944	face	0.0		145	27.0	female	white	4.181058495821727	neutral	039	sub-11	2.0	3.0	039_neutral	0.0		215.08054623167482	1.2333066697246977
33.0	189.70000271666868	pulse	0.0	t		27.0	female	white	4.181058495821727	neutral	039	sub-11	2.0	3.0	039_neutral	0.0		215.51397817004909	
33.0	190.39998309627845	pulse	0.0	t		27.0	female	white	4.181058495821727	neutral	039	sub-11	2.0	3.0	039_neutral	0.0		216.21395854965886	
33.0	190.4998774480191	fix	1.0		444	27.0	female	white	4.181058495821727	neutral	039	sub-11	2.0	3.0	039_neutral	0.0		216.3138529013995	3.766549044939893
33.0	191.09996679626056	pulse	1.0	t		27.0	female	white	4.181058495821727	neutral	039	sub-11	2.0	3.0	039_neutral	0.0		216.91394224964097	
33.0	191.79995472217342	pulse	1.0	t		27.0	female	white	4.181058495821727	neutral	039	sub-11	2.0	3.0	039_neutral	0.0		217.61393017555383	
33.0	192.4999052184212	pulse	1.0	t		27.0	female	white	4.181058495821727	neutral	039	sub-11	2.0	3.0	039_neutral	0.0		218.3138806718016	
33.0	193.19991065175782	pulse	1.0	t		27.0	female	white	4.181058495821727	neutral	039	sub-11	2.0	3.0	039_neutral	0.0		219.01388610513823	
33.0	193.89988861655002	pulse	1.0	t		27.0	female	white	4.181058495821727	neutral	039	sub-11	2.0	3.0	039_neutral	0.0		219.71386406993042	
34.0	194.266426492959	face	0.0		145	24.0	male	white	3.1153999204138483	smiling	012	sub-11	2.0	3.0	012_smiling	1.0	dominance	220.0804019463394	1.2332915771185071
34.0	194.59986326096987	pulse	0.0	t		24.0	male	white	3.1153999204138483	smiling	012	sub-11	2.0	3.0	012_smiling	1.0	dominance	220.41383871435028	
34.0	195.2998366979773	pulse	0.0	t		24.0	male	white	3.1153999204138483	smiling	012	sub-11	2.0	3.0	012_smiling	1.0	dominance	221.1138121513577	
34.0	195.4997180700775	fix	1.0		177	24.0	male	white	3.1153999204138483	smiling	012	sub-11	2.0	3.0	012_smiling	1.0	dominance	221.3136935234579	1.4999589481049043
34.0	195.99981858684987	pulse	1.0	t		24.0	male	white	3.1153999204138483	smiling	012	sub-11	2.0	3.0	012_smiling	1.0	dominance	221.81379404023028	
34.0	196.69979534423328	pulse	1.0	t		24.0	male	white	3.1153999204138483	smiling	012	sub-11	2.0	3.0	012_smiling	1.0	dominance	222.5137707976137	
34.0	196.9996770181824	rating	2.0		295	24.0	male	white	3.1153999204138483	smiling	012	sub-11	2.0	3.0	012_smiling	1.0	dominance	222.81365247156282	2.499947175871057
34.0	197.39465268889762	pulse	2.0	t		24.0	male	white	3.1153999204138483	smiling	012	sub-11	2.0	3.0	012_smiling	1.0	dominance	223.20862814227803	
34.0	198.0945204776508	pulse	2.0	t		24.0	male	white	3.1153999204138483	smiling	012	sub-11	2.0	3.0	012_smiling	1.0	dominance	223.9084959310312	
34.0	198.49975308492867	response	2.0	b		24.0	male	white	3.1153999204138483	smiling	012	sub-11	2.0	3.0	012_smiling	1.0	dominance	224.31372853830908	
34.0	198.79450508319132	pulse	2.0	t		24.0	male	white	3.1153999204138483	smiling	012	sub-11	2.0	3.0	012_smiling	1.0	dominance	224.60848053657173	
34.0	199.49962419405347	fix	3.0		443	24.0	male	white	3.1153999204138483	smiling	012	sub-11	2.0	3.0	012_smiling	1.0	dominance	225.31359964743388	3.7665330467752938
34.0	199.5076528579375	pulse	3.0	t		24.0	male	white	3.1153999204138483	smiling	012	sub-11	2.0	3.0	012_smiling	1.0	dominance	225.3216283113179	
34.0	200.19970267561803	pulse	3.0	t		24.0	male	white	3.1153999204138483	smiling	012	sub-11	2.0	3.0	012_smiling	1.0	dominance	226.01367812899844	
34.0	200.89966947188077	pulse	3.0	t		24.0	male	white	3.1153999204138483	smiling	012	sub-11	2.0	3.0	012_smiling	1.0	dominance	226.71364492526118	
34.0	201.59967037743627	pulse	3.0	t		24.0	male	white	3.1153999204138483	smiling	012	sub-11	2.0	3.0	012_smiling	1.0	dominance	227.41364583081668	
34.0	202.299636871845	pulse	3.0	t		24.0	male	white	3.1153999204138483	smiling	012	sub-11	2.0	3.0	012_smiling	1.0	dominance	228.1136123252254	
34.0	202.9996489459336	pulse	3.0	t		24.0	male	white	3.1153999204138483	smiling	012	sub-11	2.0	3.0	012_smiling	1.0	dominance	228.813624399314	
35.0	203.26615724082876	face	0.0		145	24.0	female	black	3.0955033824114606	neutral	099	sub-11	2.0	3.0	099_neutral	0.0		229.08013269420917	1.2332948974908504
35.0	203.69960638477642	pulse	0.0	t		24.0	female	black	3.0955033824114606	neutral	099	sub-11	2.0	3.0	099_neutral	0.0		229.51358183815682	
35.0	204.39956533288205	pulse	0.0	t		24.0	female	black	3.0955033824114606	neutral	099	sub-11	2.0	3.0	099_neutral	0.0		230.21354078626246	
35.0	204.4994521383196	fix	1.0		444	24.0	female	black	3.0955033824114606	neutral	099	sub-11	2.0	3.0	099_neutral	0.0		230.31342759170002	3.758356777187146
35.0	205.09956654029156	pulse	1.0	t		24.0	female	black	3.0955033824114606	neutral	099	sub-11	2.0	3.0	099_neutral	0.0		230.91354199367197	
35.0	205.79953846803983	pulse	1.0	t		24.0	female	black	3.0955033824114606	neutral	099	sub-11	2.0	3.0	099_neutral	0.0		231.61351392142024	
35.0	206.49951854579558	pulse	1.0	t		24.0	female	black	3.0955033824114606	neutral	099	sub-11	2.0	3.0	099_neutral	0.0		232.313493999176	
35.0	207.1995046605989	pulse	1.0	t		24.0	female	black	3.0955033824114606	neutral	099	sub-11	2.0	3.0	099_neutral	0.0		233.0134801139793	
35.0	207.89947055130324	pulse	1.0	t		24.0	female	black	3.0955033824114606	neutral	099	sub-11	2.0	3.0	099_neutral	0.0		233.71344600468365	
36.0	208.25780891550676	face	0.0		146	26.0	male	white	2.7966573816155993	smiling	117	sub-11	2.0	3.0	117_smiling	1.0	trustworthiness	234.07178436888717	1.2415125208281097
36.0	208.59947266426752	pulse	0.0	t		26.0	male	white	2.7966573816155993	smiling	117	sub-11	2.0	3.0	117_smiling	1.0	trustworthiness	234.41344811764793	
36.0	209.29943131052278	pulse	0.0	t		26.0	male	white	2.7966573816155993	smiling	117	sub-11	2.0	3.0	117_smiling	1.0	trustworthiness	235.11340676390319	
36.0	209.49932143633487	fix	1.0		177	26.0	male	white	2.7966573816155993	smiling	117	sub-11	2.0	3.0	117_smiling	1.0	trustworthiness	235.31329688971528	1.4999532129113504
36.0	209.99941138827853	pulse	1.0	t		26.0	male	white	2.7966573816155993	smiling	117	sub-11	2.0	3.0	117_smiling	1.0	trustworthiness	235.81338684165894	
36.0	210.69937818454127	pulse	1.0	t		26.0	male	white	2.7966573816155993	smiling	117	sub-11	2.0	3.0	117_smiling	1.0	trustworthiness	236.51335363792168	
36.0	210.99927464924622	rating	2.0		295	26.0	male	white	2.7966573816155993	smiling	117	sub-11	2.0	3.0	117_smiling	1.0	trustworthiness	236.81325010262663	2.4999145758374652
36.0	211.3942382458772	pulse	2.0	t		26.0	male	white	2.7966573816155993	smiling	117	sub-11	2.0	3.0	117_smiling	1.0	trustworthiness	237.2082136992576	
36.0	212.09421289029342	pulse	2.0	t		26.0	male	white	2.7966573816155993	smiling	117	sub-11	2.0	3.0	117_smiling	1.0	trustworthiness	237.90818834367383	
36.0	212.7940728308895	pulse	2.0	t		26.0	male	white	2.7966573816155993	smiling	117	sub-11	2.0	3.0	117_smiling	1.0	trustworthiness	238.6080482842699	
36.0	213.3107426166971	response	2.0	y		26.0	male	white	2.7966573816155993	smiling	117	sub-11	2.0	3.0	117_smiling	1.0	trustworthiness	239.1247180700775	
36.0	213.49918922508368	fix	3.0		444	26.0	male	white	2.7966573816155993	smiling	117	sub-11	2.0	3.0	117_smiling	1.0	trustworthiness	239.3131646784641	3.7748729202394316
36.0	213.50718921301086	pulse	3.0	t		26.0	male	white	2.7966573816155993	smiling	117	sub-11	2.0	3.0	117_smiling	1.0	trustworthiness	239.32116466639127	
36.0	214.19929276037874	pulse	3.0	t		26.0	male	white	2.7966573816155993	smiling	117	sub-11	2.0	3.0	117_smiling	1.0	trustworthiness	240.01326821375915	
36.0	214.8992631788642	pulse	3.0	t		26.0	male	white	2.7966573816155993	smiling	117	sub-11	2.0	3.0	117_smiling	1.0	trustworthiness	240.7132386322446	
36.0	215.59924808625874	pulse	3.0	t		26.0	male	white	2.7966573816155993	smiling	117	sub-11	2.0	3.0	117_smiling	1.0	trustworthiness	241.41322353963915	
36.0	216.29922242882458	pulse	3.0	t		26.0	male	white	2.7966573816155993	smiling	117	sub-11	2.0	3.0	117_smiling	1.0	trustworthiness	242.113197882205	
36.0	216.99919465842322	pulse	3.0	t		26.0	male	white	2.7966573816155993	smiling	117	sub-11	2.0	3.0	117_smiling	1.0	trustworthiness	242.81317011180363	
37.0	217.27406214532311	face	0.0		145	40.0	male	black	2.408674890569041	smiling	061	sub-11	2.0	3.0	061_smiling	0.0		243.08803759870352	1.2333232715936902
37.0	217.6991898287888	pulse	0.0	t		40.0	male	black	2.408674890569041	smiling	061	sub-11	2.0	3.0	061_smiling	0.0		243.5131652821692	
37.0	218.39916417135464	pulse	0.0	t		40.0	male	black	2.408674890569041	smiling	061	sub-11	2.0	3.0	061_smiling	0.0		244.21313962473505	
37.0	218.5073854169168	fix	1.0		444	40.0	male	black	2.408674890569041	smiling	061	sub-11	2.0	3.0	061_smiling	0.0		244.3213608702972	3.7665487430895155
37.0	219.09914938059956	pulse	1.0	t		40.0	male	black	2.408674890569041	smiling	061	sub-11	2.0	3.0	061_smiling	0.0		244.91312483397996	
37.0	219.79910863055557	pulse	1.0	t		40.0	male	black	2.408674890569041	smiling	061	sub-11	2.0	3.0	061_smiling	0.0		245.61308408393597	
37.0	220.4990926323917	pulse	1.0	t		40.0	male	black	2.408674890569041	smiling	061	sub-11	2.0	3.0	061_smiling	0.0		246.3130680857721	
37.0	221.1990853879397	pulse	1.0	t		40.0	male	black	2.408674890569041	smiling	061	sub-11	2.0	3.0	061_smiling	0.0		247.0130608413201	
37.0	221.89906123976834	pulse	1.0	t		40.0	male	black	2.408674890569041	smiling	061	sub-11	2.0	3.0	061_smiling	0.0		247.71303669314875	
38.0	222.27393416000632	face	0.0		145	54.0	female	white	2.286908077994429	neutral	136	sub-11	2.0	3.0	136_neutral	0.0		248.08790961338673	1.2333051604655338
38.0	222.59904554345485	pulse	0.0	t		54.0	female	white	2.286908077994429	neutral	136	sub-11	2.0	3.0	136_neutral	0.0		248.41302099683526	
38.0	223.2990020767429	pulse	0.0	t		54.0	female	white	2.286908077994429	neutral	136	sub-11	2.0	3.0	136_neutral	0.0		249.11297753012332	
38.0	223.50723932047185	fix	1.0		444	54.0	female	white	2.286908077994429	neutral	136	sub-11	2.0	3.0	136_neutral	0.0		249.32121477385226	3.76654149863316
38.0	223.99899936007205	pulse	1.0	t		54.0	female	white	2.286908077994429	neutral	136	sub-11	2.0	3.0	136_neutral	0.0		249.81297481345246	
38.0	224.69897611745546	pulse	1.0	t		54.0	female	white	2.286908077994429	neutral	136	sub-11	2.0	3.0	136_neutral	0.0		250.51295157083587	
38.0	225.39894744149933	pulse	1.0	t		54.0	female	white	2.286908077994429	neutral	136	sub-11	2.0	3.0	136_neutral	0.0		251.21292289487974	
38.0	226.09892812296312	pulse	1.0	t		54.0	female	white	2.286908077994429	neutral	136	sub-11	2.0	3.0	136_neutral	0.0		251.91290357634352	
38.0	226.7989700804137	pulse	1.0	t		54.0	female	white	2.286908077994429	neutral	136	sub-11	2.0	3.0	136_neutral	0.0		252.61294553379412	
39.0	227.273780819105	face	0.0		145	23.0	male	white	2.6275368085953046	neutral	141	sub-11	2.0	3.0	141_neutral	0.0		253.08775627248542	1.2332945956404728
39.0	227.4989006544165	pulse	0.0	t		23.0	male	white	2.6275368085953046	neutral	141	sub-11	2.0	3.0	141_neutral	0.0		253.3128761077969	
39.0	228.19887318586916	pulse	0.0	t		23.0	male	white	2.6275368085953046	neutral	141	sub-11	2.0	3.0	141_neutral	0.0		254.01284863924957	
39.0	228.5070754147455	fix	1.0		444	23.0	male	white	2.6275368085953046	neutral	141	sub-11	2.0	3.0	141_neutral	0.0		254.3210508681259	3.7499061239759612
39.0	228.8988481321394	pulse	1.0	t		23.0	male	white	2.6275368085953046	neutral	141	sub-11	2.0	3.0	141_neutral	0.0		254.7128235855198	
39.0	229.59883968027862	pulse	1.0	t		23.0	male	white	2.6275368085953046	neutral	141	sub-11	2.0	3.0	141_neutral	0.0		255.41281513365902	
39.0	230.29881462654885	pulse	1.0	t		23.0	male	white	2.6275368085953046	neutral	141	sub-11	2.0	3.0	141_neutral	0.0		256.11279007992925	
39.0	230.998795308009	pulse	1.0	t		23.0	male	white	2.6275368085953046	neutral	141	sub-11	2.0	3.0	141_neutral	0.0		256.8127707613894	
39.0	231.69877508391437	pulse	1.0	t		23.0	male	white	2.6275368085953046	neutral	141	sub-11	2.0	3.0	141_neutral	0.0		257.5127505372948	
40.0	232.25698153872145	fix	0.0		720													258.07095699210186	5.999819794258656
40.0	232.39875546352414	pulse	0.0	t														258.21273091690455	
40.0	233.09873161720316	pulse	0.0	t														258.91270707058356	
40.0	233.79870807273255	pulse	0.0	t														259.61268352611296	
40.0	234.4986839245612	pulse	0.0	t														260.3126593779416	
40.0	235.19866098379498	pulse	0.0	t														261.0126364371754	
40.0	235.8986467967443	pulse	0.0	t														261.7126222501247	
40.0	236.59863230783958	pulse	0.0	t														262.41260776122	
40.0	237.29860363188345	pulse	0.0	t														263.11257908526386	
40.0	237.99857163555498	pulse	0.0	t														263.8125470889354	
