trial_nr	onset	event_type	phase	response	nr_frames	trial_type	stim_name	task_probe	onset_abs	duration
0.0	0.05709224011366132	baseline	0.0		701		baseline	0.0	29.405818948863043	5.849604809419816
0.0	0.7069229589669703	pulse	0.0	t			baseline	0.0	30.055649667716352	
0.0	1.4068908414312773	pulse	0.0	t			baseline	0.0	30.75561755018066	
0.0	2.1068759297181714	pulse	0.0	t			baseline	0.0	31.455602638467553	
0.0	2.8068601124355155	pulse	0.0	t			baseline	0.0	32.1555868211849	
0.0	3.506843087726793	pulse	0.0	t			baseline	0.0	32.855569796476175	
0.0	4.206847796688862	pulse	0.0	t			baseline	0.0	33.555574505438244	
0.0	4.90683258311924	pulse	0.0	t			baseline	0.0	34.25555929186862	
0.0	5.606824010393666	pulse	0.0	t			baseline	0.0	34.95555071914305	
0.0	5.906697049533477	ISI	1.0		0		baseline	0.0	35.25542375828286	0.14168451644991364
1.0	6.048381565983391	number	0.0		43	character	number-64.jpg	0.0	35.39710827473277	0.3582647716516476
1.0	6.30676683876527	pulse	0.0	t		character	number-64.jpg	0.0	35.65549354751465	
1.0	6.406646337635038	ISI	1.0		354	character	number-64.jpg	0.0	35.75537304638442	3.016656745648561
1.0	7.006760379035313	pulse	1.0	t		character	number-64.jpg	0.0	36.355487087784695	
1.0	7.706748184031085	pulse	1.0	t		character	number-64.jpg	0.0	37.05547489278047	
1.0	8.40673900759225	pulse	1.0	t		character	number-64.jpg	0.0	37.75546571634163	
1.0	9.106728321870833	pulse	1.0	t		character	number-64.jpg	0.0	38.455455030620215	
2.0	9.4233030832836	adult	0.0		46	face	adult-59.jpg	0.0	38.77202979203298	0.3833034696597224
2.0	9.806606552943322	ISI	1.0		236	face	adult-59.jpg	0.0	39.155333261692704	2.016643162104174
2.0	9.838335901126356	pulse	1.0	t		face	adult-59.jpg	0.0	39.18706260987574	
2.0	10.506702120723276	pulse	1.0	t		face	adult-59.jpg	0.0	39.85542882947266	
2.0	11.206689925719274	pulse	1.0	t		face	adult-59.jpg	0.0	40.555416634468656	
3.0	11.823249715047496	adult	0.0		46	face	adult-59.jpg	1.0	41.17197642379688	0.3833544834146778
3.0	11.906689201263589	pulse	0.0	t		face	adult-59.jpg	1.0	41.25541591001297	
3.0	12.206604198462173	ISI	1.0		233	face	adult-59.jpg	1.0	41.555330907211555	2.0166549345092335
3.0	12.260180715472416	response	1.0	b		face	adult-59.jpg	1.0	41.6089074242218	
3.0	12.606722586596561	pulse	1.0	t		face	adult-59.jpg	1.0	41.95544929534594	
3.0	13.30672820112818	pulse	1.0	t		face	adult-59.jpg	1.0	42.65545490987756	
3.0	14.006709063423841	pulse	1.0	t		face	adult-59.jpg	1.0	43.35543577217322	
4.0	14.223259132971407	car	0.0		46	object	car-135.jpg	0.0	43.57198584172079	0.38327479328881964
4.0	14.606533926260227	ISI	1.0		232	object	car-135.jpg	0.0	43.95526063500961	2.0166392379690024
4.0	14.70664494909488	pulse	1.0	t		object	car-135.jpg	0.0	44.05537165784426	
4.0	15.406624000251213	pulse	1.0	t		object	car-135.jpg	0.0	44.755350709000595	
4.0	16.10661723866474	pulse	1.0	t		object	car-135.jpg	0.0	45.45534394741412	
5.0	16.62317316422923	limb	0.0		46	body	limb-19.jpg	0.0	45.97189987297861	0.38330739379489387
5.0	16.806599006529723	pulse	0.0	t		body	limb-19.jpg	0.0	46.155325715279105	
5.0	17.006480558024123	ISI	1.0		353	body	limb-19.jpg	0.0	46.355207266773505	3.0166425583911405
5.0	17.506609148909547	pulse	1.0	t		body	limb-19.jpg	0.0	46.85533585765893	
5.0	18.20658759635262	pulse	1.0	t		body	limb-19.jpg	0.0	47.555314305102	
5.0	18.906569062361314	pulse	1.0	t		body	limb-19.jpg	0.0	48.255295771110696	
5.0	19.606565319340234	pulse	1.0	t		body	limb-19.jpg	0.0	48.955292028089616	
6.0	20.023123116415263	adult	0.0		46	face	adult-137.jpg	0.0	49.371849825164645	0.38335599269748855
6.0	20.30659598796433	pulse	0.0	t		face	adult-137.jpg	0.0	49.65532269671371	
6.0	20.40647910911275	ISI	1.0		353	face	adult-137.jpg	0.0	49.755205817862134	3.01662746556417
6.0	21.00660643220067	pulse	1.0	t		face	adult-137.jpg	0.0	50.35533314095005	
6.0	21.70660510403195	pulse	1.0	t		face	adult-137.jpg	0.0	51.05533181278133	
6.0	22.406591097888622	pulse	1.0	t		face	adult-137.jpg	0.0	51.755317806638004	
6.0	23.106580412166977	pulse	1.0	t		face	adult-137.jpg	0.0	52.45530712091636	
7.0	23.423106574676922	adult	0.0		46	face	adult-74.jpg	0.0	52.771833283426304	0.3832790192802804
7.0	23.806385593957202	ISI	1.0		233	face	adult-74.jpg	0.0	53.155112302706584	2.0166651976314824
7.0	23.85952411713015	pulse	1.0	t		face	adult-74.jpg	0.0	53.20825082587953	
7.0	24.50648568958536	pulse	1.0	t		face	adult-74.jpg	0.0	53.85521239833474	
7.0	25.20646685373731	pulse	1.0	t		face	adult-74.jpg	0.0	54.55519356248669	
8.0	25.823050791588685	number	0.0		46	character	number-111.jpg	0.0	55.17177750033807	0.38330860122096055
8.0	25.906478807256235	pulse	0.0	t		character	number-111.jpg	0.0	55.25520551600562	
8.0	26.206359392809645	ISI	1.0		356	character	number-111.jpg	0.0	55.55508610155903	3.016642860247657
8.0	26.6064678196783	pulse	1.0	t		character	number-111.jpg	0.0	55.95519452842768	
8.0	27.306447172690923	pulse	1.0	t		character	number-111.jpg	0.0	56.655173881440305	
8.0	28.00642682756029	pulse	1.0	t		character	number-111.jpg	0.0	57.35515353630967	
8.0	28.706411010277634	pulse	1.0	t		character	number-111.jpg	0.0	58.055137719027016	
9.0	29.223002253057302	adult	0.0		46	face	adult-139.jpg	0.0	58.571728961806684	0.3833273163263584
9.0	29.406406361687004	pulse	0.0	t		face	adult-139.jpg	0.0	58.755133070436386	
9.0	29.60632956938366	ISI	1.0		351	face	adult-139.jpg	0.0	58.95505627813304	3.0166507085175454
9.0	30.106479290226616	pulse	1.0	t		face	adult-139.jpg	0.0	59.455205998976	
9.0	30.80646769893565	pulse	1.0	t		face	adult-139.jpg	0.0	60.15519440768503	
9.0	31.50645550393142	pulse	1.0	t		face	adult-139.jpg	0.0	60.8551822126808	
9.0	32.20644059221854	pulse	1.0	t		face	adult-139.jpg	0.0	61.55516730096792	
10.0	32.622980277901206	car	0.0		46	object	car-55.jpg	0.0	61.97170698665059	0.3832775099974697
10.0	32.906371648185086	pulse	0.0	t		object	car-55.jpg	0.0	62.25509835693447	
10.0	33.006257787898676	ISI	1.0		233	object	car-55.jpg	0.0	62.35498449664806	2.0166383323996797
10.0	33.60636066060715	pulse	1.0	t		object	car-55.jpg	0.0	62.955087369356534	
10.0	34.30633578762831	pulse	1.0	t		object	car-55.jpg	0.0	63.655062496377695	
11.0	35.022896120298356	adult	0.0		45	face	adult-42.jpg	0.0	64.37162282904774	0.38332701446984174
11.0	35.014922277978485	pulse	0.0	t		face	adult-42.jpg	0.0	64.36364898672787	
11.0	35.4062231347682	ISI	1.0		231	face	adult-42.jpg	0.0	64.75494984351758	2.0166383323994523
11.0	35.706324075594694	pulse	1.0	t		face	adult-42.jpg	0.0	65.05505078434408	
11.0	36.40630674902923	pulse	1.0	t		face	adult-42.jpg	0.0	65.75503345777861	
11.0	37.10629153545983	pulse	1.0	t		face	adult-42.jpg	0.0	66.45501824420921	
12.0	37.42286146716765	number	0.0		46	character	number-6.jpg	0.0	66.77158817591703	0.3833110160733213
12.0	37.80617248324097	ISI	1.0		233	character	number-6.jpg	0.0	67.15489919199035	2.0166866294457577
12.0	37.8573377702221	pulse	1.0	t		character	number-6.jpg	0.0	67.20606447897148	
12.0	38.50627348443868	pulse	1.0	t		character	number-6.jpg	0.0	67.85500019318806	
12.0	39.20632618859031	pulse	1.0	t		character	number-6.jpg	0.0	68.55505289733969	
13.0	39.82285911268673	limb	0.0		46	body	limb-48.jpg	0.0	69.17158582143611	0.38328535826758525
13.0	39.90625513156124	pulse	0.0	t		body	limb-48.jpg	0.0	69.25498184031062	
13.0	40.206144470954314	ISI	1.0		353	body	limb-48.jpg	0.0	69.5548711797037	3.016647991808668
13.0	40.60626255723196	pulse	1.0	t		body	limb-48.jpg	0.0	69.95498926598134	
13.0	41.306228628557164	pulse	1.0	t		body	limb-48.jpg	0.0	70.65495533730655	
13.0	42.00626563616879	pulse	1.0	t		body	limb-48.jpg	0.0	71.35499234491817	
13.0	42.706231405637254	pulse	1.0	t		body	limb-48.jpg	0.0	72.05495811438664	
14.0	43.22279246276298	car	0.0		46	object	car-25.jpg	0.0	72.57151917151236	0.38330558265556647
14.0	43.406241246160334	pulse	0.0	t		object	car-25.jpg	0.0	72.75496795490972	
14.0	43.60609804541855	ISI	1.0		473	object	car-25.jpg	0.0	72.95482475416793	4.016657651218111
14.0	44.10619162094554	pulse	1.0	t		object	car-25.jpg	0.0	73.45491832969492	
14.0	44.80619331134221	pulse	1.0	t		object	car-25.jpg	0.0	74.1549200200916	
14.0	45.506175984776746	pulse	1.0	t		object	car-25.jpg	0.0	74.85490269352613	
14.0	46.20623080192422	pulse	1.0	t		object	car-25.jpg	0.0	75.5549575106736	
14.0	46.90622132362887	pulse	1.0	t		object	car-25.jpg	0.0	76.25494803237825	
15.0	47.62275569663666	car	0.0		45	object	car-6.jpg	0.0	76.97148240538604	0.3832938102505068
15.0	47.61486848714344	pulse	0.0	t		object	car-6.jpg	0.0	76.96359519589282	
15.0	48.006049506887166	ISI	1.0		231	object	car-6.jpg	0.0	77.35477621563655	2.016665801344743
15.0	48.30620930973873	pulse	1.0	t		object	car-6.jpg	0.0	77.65493601848812	
15.0	49.006216433552936	pulse	1.0	t		object	car-6.jpg	0.0	78.35494314230232	
15.0	49.22285373964041	response	1.0	b		object	car-6.jpg	0.0	78.5715804483898	
15.0	49.70617133618612	pulse	1.0	t		object	car-6.jpg	0.0	79.0548980449355	
16.0	50.02271530823191	number	0.0		46	character	number-72.jpg	0.0	79.37144201698129	0.38325366333083366
16.0	50.40596897156274	ISI	1.0		233	character	number-72.jpg	0.0	79.75469568031212	2.0166697254796873
16.0	50.461321914301834	pulse	1.0	t		character	number-72.jpg	0.0	79.81004862305122	
16.0	51.106137890481705	pulse	1.0	t		character	number-72.jpg	0.0	80.45486459923109	
16.0	51.806120563916465	pulse	1.0	t		character	number-72.jpg	0.0	81.15484727266585	
17.0	52.42263869704243	number	0.0		46	character	number-59.jpg	0.0	81.77136540579181	0.38329622510286754
17.0	52.506142176844605	pulse	0.0	t		character	number-59.jpg	0.0	81.85486888559399	
17.0	52.8059349221453	ISI	1.0		232	character	number-59.jpg	0.0	82.15466163089468	2.0166651976314824
17.0	53.206111568591496	pulse	1.0	t		character	number-59.jpg	0.0	82.55483827734088	
17.0	53.90607431949479	pulse	1.0	t		character	number-59.jpg	0.0	83.25480102824417	
17.0	54.60605306879438	pulse	1.0	t		character	number-59.jpg	0.0	83.95477977754376	
18.0	54.82260011977678	limb	0.0		46	body	limb-20.jpg	0.0	84.17132682852616	0.38330467708601645
18.0	55.2059047968628	ISI	1.0		233	body	limb-20.jpg	0.0	84.55463150561218	2.0166817997410362
18.0	55.30606109817836	pulse	1.0	t		body	limb-20.jpg	0.0	84.65478780692774	
18.0	56.00602566022076	pulse	1.0	t		body	limb-20.jpg	0.0	85.35475236897014	
18.0	56.70609345719913	pulse	1.0	t		body	limb-20.jpg	0.0	86.05482016594851	
19.0	57.22258659660383	adult	0.0		46	face	adult-97.jpg	0.0	86.57131330535321	0.38327660442791966
19.0	57.40600217578208	pulse	0.0	t		face	adult-97.jpg	0.0	86.75472888453146	
19.0	57.60586320103175	ISI	1.0		233	face	adult-97.jpg	0.0	86.95458990978113	2.016665801344516
19.0	58.10605820035562	pulse	1.0	t		face	adult-97.jpg	0.0	87.454784909105	
19.0	58.80612871404287	pulse	1.0	t		face	adult-97.jpg	0.0	88.15485542279225	
19.0	59.50596891119153	pulse	1.0	t		face	adult-97.jpg	0.0	88.85469561994091	
20.0	59.62252900237627	adult	0.0		46	face	adult-87.jpg	0.0	88.97125571112565	0.38329411210702347
20.0	60.00582311448329	ISI	1.0		469	face	adult-87.jpg	0.0	89.35454982323267	4.016669423623171
20.0	60.20594162336033	pulse	1.0	t		face	adult-87.jpg	0.0	89.55466833210971	
20.0	60.9059481434615	pulse	1.0	t		face	adult-87.jpg	0.0	90.25467485221088	
20.0	61.605942287444805	pulse	1.0	t		face	adult-87.jpg	0.0	90.95466899619419	
20.0	62.30600042501396	pulse	1.0	t		face	adult-87.jpg	0.0	91.65472713376334	
20.0	63.00593842368107	pulse	1.0	t		face	adult-87.jpg	0.0	92.35466513243045	
20.0	63.70597814800158	pulse	1.0	t		face	adult-87.jpg	0.0	93.05470485675096	
21.0	64.02249253810646	limb	0.0		46	body	limb-80.jpg	0.0	93.37121924685584	0.38328354712825785
21.0	64.40577608523472	ISI	1.0		469	body	limb-80.jpg	0.0	93.7545027939841	4.016622937716193
21.0	64.49539759335835	pulse	1.0	t		body	limb-80.jpg	0.0	93.84412430210773	
21.0	65.10592055377401	pulse	1.0	t		body	limb-80.jpg	0.0	94.4546472625234	
21.0	65.80592465902282	pulse	1.0	t		body	limb-80.jpg	0.0	95.1546513677722	
21.0	66.50602596207727	pulse	1.0	t		body	limb-80.jpg	0.0	95.85475267082666	
21.0	67.20588668547043	pulse	1.0	t		body	limb-80.jpg	0.0	96.55461339421981	
21.0	67.90591705223824	pulse	1.0	t		body	limb-80.jpg	0.0	97.25464376098762	
22.0	68.42239902295091	limb	0.0		46	body	limb-23.jpg	0.0	97.7711257317003	0.38329018797207937
22.0	68.60583301537781	pulse	0.0	t		body	limb-23.jpg	0.0	97.9545597241272	
22.0	68.80568921092299	ISI	1.0		205	body	limb-23.jpg	0.0	98.15441591967237	2.0167303986438583
22.0	69.30583259277864	pulse	1.0	t		body	limb-23.jpg	0.0	98.65455930152802	
22.0	70.0058889192087	pulse	1.0	t		body	limb-23.jpg	0.0	99.35461562795808	
22.0	70.7059380010819	pulse	1.0	t		body	limb-23.jpg	0.0	100.05466470983129	
23.0	70.82241960956685	number	0.0		46	character	number-82.jpg	0.0	100.17114631831623	0.38325939860510516
23.0	71.20567900817196	ISI	1.0		232	character	number-82.jpg	0.0	100.55440571692134	2.016648293665412
23.0	71.40581170430619	pulse	1.0	t		character	number-82.jpg	0.0	100.75453841305557	
23.0	72.10582365782511	pulse	1.0	t		character	number-82.jpg	0.0	101.4545503665745	
23.0	72.80584828931865	pulse	1.0	t		character	number-82.jpg	0.0	102.15457499806803	
24.0	73.22232730183737	limb	0.0		46	body	limb-21.jpg	0.0	102.57105401058675	0.38331765691691544
24.0	73.50577934528519	pulse	0.0	t		body	limb-21.jpg	0.0	102.85450605403457	
24.0	73.60564495875428	ISI	1.0		713	body	limb-21.jpg	0.0	102.95437166750366	6.024994325097168
24.0	74.20576232057647	pulse	1.0	t		body	limb-21.jpg	0.0	103.55448902932585	
24.0	74.90572869375819	pulse	1.0	t		body	limb-21.jpg	0.0	104.25445540250757	
24.0	75.60573491200284	pulse	1.0	t		body	limb-21.jpg	0.0	104.95446162075223	
24.0	76.30575561936143	pulse	1.0	t		body	limb-21.jpg	0.0	105.65448232811082	
24.0	77.00578357127688	pulse	1.0	t		body	limb-21.jpg	0.0	106.35451028002626	
24.0	77.70579129880412	pulse	1.0	t		body	limb-21.jpg	0.0	107.0545180075535	
24.0	78.40578272607854	pulse	1.0	t		body	limb-21.jpg	0.0	107.75450943482792	
24.0	79.10580433900668	pulse	1.0	t		body	limb-21.jpg	0.0	108.45453104775606	
25.0	79.63063928385145	car	0.0		45	object	car-28.jpg	0.0	108.97936599260083	0.3749178950215537
25.0	79.80578640872841	pulse	0.0	t		object	car-28.jpg	0.0	109.15451311747779	
25.0	80.005557178873	ISI	1.0		593	object	car-28.jpg	0.0	109.35428388762239	5.0249671580086215
25.0	80.50576002646676	pulse	1.0	t		object	car-28.jpg	0.0	109.85448673521614	
25.0	81.20571915509163	pulse	1.0	t		object	car-28.jpg	0.0	110.55444586384101	
25.0	81.90569367839976	pulse	1.0	t		object	car-28.jpg	0.0	111.25442038714914	
25.0	82.60568752052632	pulse	1.0	t		object	car-28.jpg	0.0	111.9544142292757	
25.0	83.30568589050108	pulse	1.0	t		object	car-28.jpg	0.0	112.65441259925046	
25.0	84.00571927583405	pulse	1.0	t		object	car-28.jpg	0.0	113.35444598458344	
25.0	84.7056874601551	pulse	1.0	t		object	car-28.jpg	0.0	114.05441416890449	
26.0	85.03052433688163	adult	0.0		45	face	adult-92.jpg	0.0	114.37925104563101	0.3749737384812306
26.0	85.40549807536286	ISI	1.0		219	face	adult-92.jpg	0.0	114.75422478411224	2.01665704750485
26.0	85.5743496802736	pulse	1.0	t		face	adult-92.jpg	0.0	114.92307638902298	
26.0	86.10564405318473	pulse	1.0	t		face	adult-92.jpg	0.0	115.45437076193411	
26.0	86.80562642476298	pulse	1.0	t		face	adult-92.jpg	0.0	116.15435313351236	
27.0	87.42215512286771	house	0.0		46	place	house-9.jpg	0.0	116.77088183161709	0.38326694501870406
27.0	87.50555053802918	pulse	0.0	t		place	house-9.jpg	0.0	116.85427724677857	
27.0	87.80542206788641	ISI	1.0		309	place	house-9.jpg	0.0	117.1541487766358	3.0166537270829394
27.0	88.22557829675634	pulse	1.0	t		place	house-9.jpg	0.0	117.57430500550572	
27.0	88.90560553629052	pulse	1.0	t		place	house-9.jpg	0.0	118.2543322450399	
27.0	89.60553689411358	pulse	1.0	t		place	house-9.jpg	0.0	118.95426360286297	
27.0	90.3054893818944	pulse	1.0	t		place	house-9.jpg	0.0	119.65421609064379	
28.0	90.82207579496935	house	0.0		46	place	house-30.jpg	0.0	120.17080250371873	0.3833140346387154
28.0	91.00550495769176	pulse	0.0	t		place	house-30.jpg	0.0	120.35423166644114	
28.0	91.20538982960807	ISI	1.0		353	place	house-30.jpg	0.0	120.55411653835745	3.0166467843826013
28.0	91.70549306454427	pulse	1.0	t		place	house-30.jpg	0.0	121.05421977329365	
28.0	92.40547211570038	pulse	1.0	t		place	house-30.jpg	0.0	121.75419882444976	
28.0	93.10546927824907	pulse	1.0	t		place	house-30.jpg	0.0	122.45419598699846	
28.0	93.80556695902487	pulse	1.0	t		place	house-30.jpg	0.0	123.15429366777425	
29.0	94.22203661399067	limb	0.0		46	body	limb-46.jpg	0.0	123.57076332274005	0.3833176569171428
29.0	94.50556442342986	pulse	0.0	t		body	limb-46.jpg	0.0	123.85429113217924	
29.0	94.60535427090781	ISI	1.0		226	body	limb-46.jpg	0.0	123.95408097965719	2.016636823116869
29.0	95.20544295635887	pulse	1.0	t		body	limb-46.jpg	0.0	124.55416966510825	
29.0	95.90542261122823	pulse	1.0	t		body	limb-46.jpg	0.0	125.25414931997761	
30.0	96.62199109402468	limb	0.0		45	body	limb-75.jpg	0.0	125.97071780277406	0.38330165852062237
30.0	96.61561045051485	pulse	0.0	t		body	limb-75.jpg	0.0	125.96433715926423	
30.0	97.0052927525453	ISI	1.0		307	body	limb-75.jpg	0.0	126.35401946129468	4.016673649614631
30.0	98.4307299615557	pulse	1.0	t		body	limb-75.jpg	0.0	127.77945667030508	
30.0	98.4309005104999	pulse	1.0	t		body	limb-75.jpg	0.0	127.77962721924928	
30.0	98.70539133889088	pulse	1.0	t		body	limb-75.jpg	0.0	128.05411804764026	
30.0	99.40537642717777	pulse	1.0	t		body	limb-75.jpg	0.0	128.75410313592715	
30.0	100.10535940246905	pulse	1.0	t		body	limb-75.jpg	0.0	129.45408611121843	
30.0	100.80540788062899	pulse	1.0	t		body	limb-75.jpg	0.0	130.15413458937837	
31.0	101.02196640215993	number	0.0		46	character	number-43.jpg	0.0	130.37069311090931	0.383240985356224
31.0	101.40520738751616	ISI	1.0		207	character	number-43.jpg	0.0	130.75393409626554	2.0166851201631744
31.0	101.67174127755356	pulse	1.0	t		character	number-43.jpg	0.0	131.02046798630295	
31.0	102.20535330496682	pulse	1.0	t		character	number-43.jpg	0.0	131.5540800137162	
31.0	102.90533235612315	pulse	1.0	t		character	number-43.jpg	0.0	132.25405906487254	
32.0	103.42189250767933	house	0.0		46	place	house-130.jpg	0.0	132.7706192164287	0.3832859619806186
32.0	103.60529963487443	pulse	0.0	t		place	house-130.jpg	0.0	132.9540263436238	
32.0	103.80517846965995	ISI	1.0		320	place	house-130.jpg	0.0	133.15390517840933	3.0166473880956346
32.0	104.30530374012324	pulse	1.0	t		place	house-130.jpg	0.0	133.65403044887262	
32.0	105.00529094140597	pulse	1.0	t		place	house-130.jpg	0.0	134.35401765015536	
32.0	105.70527119998837	pulse	1.0	t		place	house-130.jpg	0.0	135.05399790873776	
32.0	106.40527409781134	pulse	1.0	t		place	house-130.jpg	0.0	135.75400080656073	
33.0	106.82182585775558	house	0.0		46	place	house-52.jpg	0.0	136.17055256650497	0.38332127919557024
33.0	107.10528876803892	pulse	0.0	t		place	house-52.jpg	0.0	136.4540154767883	
33.0	107.20514713695115	ISI	1.0		205	place	house-52.jpg	0.0	136.55387384570054	2.016658556787661
33.0	107.80530585311908	pulse	1.0	t		place	house-52.jpg	0.0	137.15403256186846	
33.0	108.50546933862029	pulse	1.0	t		place	house-52.jpg	0.0	137.85419604736967	
34.0	109.22180569373882	car	0.0		45	object	car-141.jpg	0.0	138.5705324024882	0.38332882560894177
34.0	109.2140736385063	pulse	0.0	t		object	car-141.jpg	0.0	138.5628003472557	
34.0	109.60513451934776	ISI	1.0		865	object	car-141.jpg	0.0	138.95386122809714	8.016562264552022
34.0	110.3881434373975	pulse	1.0	t		object	car-141.jpg	0.0	139.73687014614688	
34.0	110.60527880677319	pulse	1.0	t		object	car-141.jpg	0.0	139.95400551552257	
34.0	111.30527023404761	pulse	1.0	t		object	car-141.jpg	0.0	140.653996942797	
34.0	112.00524868149068	pulse	1.0	t		object	car-141.jpg	0.0	141.35397539024007	
34.0	112.70524342918702	pulse	1.0	t		object	car-141.jpg	0.0	142.0539701379364	
34.0	113.40525025114471	pulse	1.0	t		object	car-141.jpg	0.0	142.7539769598941	
34.0	114.1052178317525	pulse	1.0	t		object	car-141.jpg	0.0	143.45394454050188	
34.0	114.80525061337244	pulse	1.0	t		object	car-141.jpg	0.0	144.15397732212182	
34.0	115.50518529161764	pulse	1.0	t		object	car-141.jpg	0.0	144.85391200036702	
34.0	116.20518034117049	pulse	1.0	t		object	car-141.jpg	0.0	145.55390704991987	
34.0	116.90518384270626	pulse	1.0	t		object	car-141.jpg	0.0	146.25391055145565	
35.0	117.62169678389978	limb	0.0		45	body	limb-91.jpg	0.0	146.97042349264916	0.38330165852062237
35.0	117.61376188107351	pulse	0.0	t		body	limb-91.jpg	0.0	146.9624885898229	
35.0	118.0049984424204	ISI	1.0		548	body	limb-91.jpg	0.0	147.35372515116978	5.016622334002932
35.0	118.43110215066758	pulse	1.0	t		body	limb-91.jpg	0.0	147.77982885941697	
35.0	119.00517140621696	pulse	1.0	t		body	limb-91.jpg	0.0	148.35389811496634	
35.0	119.70512691256317	pulse	1.0	t		body	limb-91.jpg	0.0	149.05385362131256	
35.0	120.40511924540692	pulse	1.0	t		body	limb-91.jpg	0.0	149.7538459541563	
35.0	121.10513602863057	pulse	1.0	t		body	limb-91.jpg	0.0	150.45386273737995	
35.0	121.80512202248724	pulse	1.0	t		body	limb-91.jpg	0.0	151.15384873123662	
35.0	122.50508567895986	pulse	1.0	t		body	limb-91.jpg	0.0	151.85381238770924	
36.0	123.02162077642333	car	0.0		46	object	car-85.jpg	0.0	152.37034748517272	0.3832621153139826
36.0	123.20501130150888	pulse	0.0	t		object	car-85.jpg	0.0	152.55373801025826	
36.0	123.40488289173732	ISI	1.0		165	object	car-85.jpg	0.0	152.7536096004867	2.0166612734965383
36.0	124.02665755462408	pulse	1.0	t		object	car-85.jpg	0.0	153.37538426337346	
36.0	124.60500411732323	pulse	1.0	t		object	car-85.jpg	0.0	153.95373082607261	
36.0	125.30510089252948	pulse	1.0	t		object	car-85.jpg	0.0	154.65382760127886	
37.0	125.42154416523385	number	0.0		46	character	number-128.jpg	0.0	154.77027087398324	0.38329048982859604
37.0	125.80483465506245	ISI	1.0		541	character	number-128.jpg	0.0	155.15356136381183	5.016645878813051
37.0	126.28935937590563	pulse	1.0	t		character	number-128.jpg	0.0	155.63808608465501	
37.0	126.7050179423527	pulse	1.0	t		character	number-128.jpg	0.0	156.05374465110208	
37.0	127.40499125823476	pulse	1.0	t		character	number-128.jpg	0.0	156.75371796698414	
37.0	128.10494857572007	pulse	1.0	t		character	number-128.jpg	0.0	157.45367528446945	
37.0	128.8049650570872	pulse	1.0	t		character	number-128.jpg	0.0	158.15369176583658	
37.0	129.50500085727253	pulse	1.0	t		character	number-128.jpg	0.0	158.85372756602192	
37.0	130.2049774935765	pulse	1.0	t		character	number-128.jpg	0.0	159.5537042023259	
38.0	130.8214805338755	number	0.0		46	character	number-35.jpg	0.0	160.17020724262488	0.38327298214949224
38.0	130.90492364237002	pulse	0.0	t		character	number-35.jpg	0.0	160.2536503511194	
38.0	131.204753516025	ISI	1.0		710	character	number-35.jpg	0.0	160.55348022477438	6.016653123369906
38.0	131.60487763943365	pulse	1.0	t		character	number-35.jpg	0.0	160.95360434818303	
38.0	132.30487389641257	pulse	1.0	t		character	number-35.jpg	0.0	161.65360060516196	
38.0	133.00488102022678	pulse	1.0	t		character	number-35.jpg	0.0	162.35360772897616	
38.0	133.7048507138304	pulse	1.0	t		character	number-35.jpg	0.0	163.0535774225798	
38.0	134.40483761325663	pulse	1.0	t		character	number-35.jpg	0.0	163.753564322006	
38.0	135.10481636255622	pulse	1.0	t		character	number-35.jpg	0.0	164.4535430713056	
38.0	135.8048183548094	pulse	1.0	t		character	number-35.jpg	0.0	165.1535450635588	
38.0	136.5048016319572	pulse	1.0	t		character	number-35.jpg	0.0	165.8535283407066	
39.0	137.2214066393949	house	0.0		45	place	house-115.jpg	0.0	166.57013334814428	0.38328143413264115
39.0	137.21325409800443	pulse	0.0	t		place	house-115.jpg	0.0	166.5619808067538	
39.0	137.60468807352754	ISI	1.0		233	place	house-115.jpg	0.0	166.95341478227692	2.0166869313022744
39.0	137.9048747416109	pulse	1.0	t		place	house-115.jpg	0.0	167.2536014503603	
39.0	138.6048595280413	pulse	1.0	t		place	house-115.jpg	0.0	167.95358623679067	
39.0	139.30484401261515	pulse	1.0	t		place	house-115.jpg	0.0	168.65357072136453	
40.0	139.62137500482982	car	0.0		46	object	car-5.jpg	0.0	168.9701017135792	0.3832660394489267
40.0	140.00464104427874	ISI	1.0		193	object	car-5.jpg	0.0	169.35336775302812	2.0166395398257464
40.0	140.39143880522784	pulse	1.0	t		object	car-5.jpg	0.0	169.74016551397722	
40.0	140.70477917383073	pulse	1.0	t		object	car-5.jpg	0.0	170.0535058825801	
40.0	141.40472502076773	pulse	1.0	t		object	car-5.jpg	0.0	170.7534517295171	
41.0	142.0212805841045	number	0.0		46	character	number-115.jpg	0.0	171.37000729285387	0.3832965269593842
41.0	142.10471886289452	pulse	0.0	t		character	number-115.jpg	0.0	171.4534455716439	
41.0	142.40457711106387	ISI	1.0		464	character	number-115.jpg	0.0	171.75330381981325	4.016685723876208
41.0	142.80470515860748	pulse	1.0	t		character	number-115.jpg	0.0	172.15343186735686	
41.0	143.50468934132505	pulse	1.0	t		character	number-115.jpg	0.0	172.85341605007443	
41.0	144.20469586142622	pulse	1.0	t		character	number-115.jpg	0.0	173.5534225701756	
41.0	144.90469664625311	pulse	1.0	t		character	number-115.jpg	0.0	174.2534233550025	
41.0	145.604728220447	pulse	1.0	t		character	number-115.jpg	0.0	174.95345492919637	
41.0	146.30475587050591	pulse	1.0	t		character	number-115.jpg	0.0	175.6534825792553	
42.0	146.42126283494008	car	0.0		46	object	car-24.jpg	0.0	175.76998954368946	0.3832732840060089
42.0	146.8045361189461	ISI	1.0		170	object	car-24.jpg	0.0	176.15326282769547	2.016651010374062
42.0	147.38314590054688	pulse	1.0	t		object	car-24.jpg	0.0	176.73187260929626	
42.0	147.70465450708048	pulse	1.0	t		object	car-24.jpg	0.0	177.05338121582986	
42.0	148.40466796988198	pulse	1.0	t		object	car-24.jpg	0.0	177.75339467863137	
43.0	148.82118712932015	limb	0.0		44	body	limb-103.jpg	0.0	178.16991383806953	0.3833110160733213
43.0	149.1046437006164	pulse	0.0	t		body	limb-103.jpg	0.0	178.4533704093658	
43.0	149.20449814539347	ISI	1.0		211	body	limb-103.jpg	0.0	178.55322485414285	2.016650406661256
43.0	149.80459981067565	pulse	1.0	t		body	limb-103.jpg	0.0	179.15332651942504	
43.0	150.50459063423682	pulse	1.0	t		body	limb-103.jpg	0.0	179.8533173429862	
44.0	151.22114855205473	limb	0.0		45	body	limb-54.jpg	0.0	180.5698752608041	0.38331071421657725
44.0	151.21319855640127	pulse	0.0	t		body	limb-54.jpg	0.0	180.56192526515065	
44.0	151.6044592662713	ISI	1.0		318	body	limb-54.jpg	0.0	180.9531859750207	3.016679083032386
44.0	151.95259644920134	pulse	1.0	t		body	limb-54.jpg	0.0	181.30132315795072	
44.0	152.60463494677674	pulse	1.0	t		body	limb-54.jpg	0.0	181.95336165552612	
44.0	153.30465444670904	pulse	1.0	t		body	limb-54.jpg	0.0	182.65338115545842	
44.0	154.0046606649537	pulse	1.0	t		body	limb-54.jpg	0.0	183.35338737370307	
45.0	154.6211383493037	limb	0.0		46	body	limb-39.jpg	0.0	183.96986505805307	0.3832645301663433
45.0	154.7045343681782	pulse	0.0	t		body	limb-39.jpg	0.0	184.05326107692758	
45.0	155.00440287947004	ISI	1.0		335	body	limb-39.jpg	0.0	184.35312958821942	3.016664292061705
45.0	155.40452307874352	pulse	1.0	t		body	limb-39.jpg	0.0	184.7532497874929	
45.0	156.10450726146087	pulse	1.0	t		body	limb-39.jpg	0.0	185.45323397021025	
45.0	156.80449597202642	pulse	1.0	t		body	limb-39.jpg	0.0	186.1532226807758	
45.0	157.50448739930061	pulse	1.0	t		body	limb-39.jpg	0.0	186.85321410805	
46.0	158.02106717153174	house	0.0		46	place	house-61.jpg	0.0	187.36979388028112	0.38328052856309114
46.0	158.20452953847348	pulse	0.0	t		place	house-61.jpg	0.0	187.55325624722286	
46.0	158.40434770009483	ISI	1.0		341	place	house-61.jpg	0.0	187.7530744088442	3.016836350288713
46.0	158.90451704161273	pulse	1.0	t		place	house-61.jpg	0.0	188.25324375036212	
46.0	159.60458000888661	pulse	1.0	t		place	house-61.jpg	0.0	188.953306717636	
46.0	160.30444676941056	pulse	1.0	t		place	house-61.jpg	0.0	189.65317347815994	
46.0	161.0045260369377	pulse	1.0	t		place	house-61.jpg	0.0	190.3532527456871	
47.0	161.42118405038354	house	0.0		46	place	house-94.jpg	0.0	190.76991075913293	0.3831172241755212
47.0	161.70449029712358	pulse	0.0	t		place	house-94.jpg	0.0	191.05321700587297	
47.0	161.80430127455907	ISI	1.0		801	place	house-94.jpg	0.0	191.15302798330845	7.016617202441921
47.0	162.4044352384908	pulse	1.0	t		place	house-94.jpg	0.0	191.7531619472402	
47.0	163.1044776795202	pulse	1.0	t		place	house-94.jpg	0.0	192.45320438826957	
47.0	163.80445250468483	pulse	1.0	t		place	house-94.jpg	0.0	193.1531792134342	
47.0	164.5044007664742	pulse	1.0	t		place	house-94.jpg	0.0	193.85312747522357	
47.0	165.20438585476109	pulse	1.0	t		place	house-94.jpg	0.0	194.55311256351047	
47.0	165.90436490591742	pulse	1.0	t		place	house-94.jpg	0.0	195.2530916146668	
47.0	166.60434727749566	pulse	1.0	t		place	house-94.jpg	0.0	195.95307398624504	
47.0	167.304351684601	pulse	1.0	t		place	house-94.jpg	0.0	196.65307839335037	
47.0	168.00441736858374	pulse	1.0	t		place	house-94.jpg	0.0	197.35314407733313	
47.0	168.7044314350985	pulse	1.0	t		place	house-94.jpg	0.0	198.0531581438479	
48.0	168.820918477001	adult	0.0		46	face	adult-142.jpg	0.0	198.16964518575037	0.38326422830982665
48.0	169.2041827053108	ISI	1.0		232	face	adult-142.jpg	0.0	198.5529094140602	2.016660669783505
48.0	169.40436037806944	pulse	1.0	t		face	adult-142.jpg	0.0	198.75308708681882	
48.0	170.1043044138671	pulse	1.0	t		face	adult-142.jpg	0.0	199.4530311226165	
48.0	170.80438851109875	pulse	1.0	t		face	adult-142.jpg	0.0	200.15311521984813	
49.0	171.22084337509432	adult	0.0		46	face	adult-57.jpg	0.0	200.5695700838437	0.3833146383517487
49.0	171.50429632411192	pulse	0.0	t		face	adult-57.jpg	0.0	200.8530230328613	
49.0	171.60415801344607	ISI	1.0		591	face	adult-57.jpg	0.0	200.95288472219545	5.016626559994393
49.0	172.20435566910737	pulse	1.0	t		face	adult-57.jpg	0.0	201.55308237785675	
49.0	172.90440143055866	pulse	1.0	t		face	adult-57.jpg	0.0	202.25312813930805	
49.0	173.60425973909946	pulse	1.0	t		face	adult-57.jpg	0.0	202.95298644784884	
49.0	174.30424814780827	pulse	1.0	t		face	adult-57.jpg	0.0	203.65297485655765	
49.0	175.0043114169389	pulse	1.0	t		face	adult-57.jpg	0.0	204.35303812568827	
49.0	175.7042844309642	pulse	1.0	t		face	adult-57.jpg	0.0	205.0530111397136	
49.0	176.40429064920886	pulse	1.0	t		face	adult-57.jpg	0.0	205.75301735795824	
50.0	176.62078457344046	house	0.0		46	place	house-44.jpg	0.0	205.96951128218984	0.383312223499388
50.0	177.00409679693985	ISI	1.0		217	place	house-44.jpg	0.0	206.35282350568923	2.0166392379692297
50.0	177.188535367927	pulse	1.0	t		place	house-44.jpg	0.0	206.53726207667637	
50.0	177.80418928578342	pulse	1.0	t		place	house-44.jpg	0.0	207.1529159945328	
50.0	178.50420305044145	pulse	1.0	t		place	house-44.jpg	0.0	207.85292975919083	
51.0	179.02073603490908	car	0.0		46	object	car-30.jpg	0.0	208.36946274365846	0.38332218476534763
51.0	179.20416187720957	pulse	0.0	t		object	car-30.jpg	0.0	208.55288858595895	
51.0	179.40405821967443	ISI	1.0		352	object	car-30.jpg	0.0	208.7527849284238	3.0166332008384416
51.0	179.90415873790175	pulse	1.0	t		object	car-30.jpg	0.0	209.25288544665113	
51.0	180.60414744846707	pulse	1.0	t		object	car-30.jpg	0.0	209.95287415721646	
51.0	181.30414038502408	pulse	1.0	t		object	car-30.jpg	0.0	210.65286709377347	
51.0	182.00411702132806	pulse	1.0	t		object	car-30.jpg	0.0	211.35284373007744	
52.0	182.42069142051287	adult	0.0		46	face	adult-136.jpg	0.0	211.76941812926225	0.3833227884781536
52.0	182.70414980294822	pulse	0.0	t		face	adult-136.jpg	0.0	212.0528765116976	
52.0	182.80401420899102	ISI	1.0		231	face	adult-136.jpg	0.0	212.1527409177404	2.0166845164499136
52.0	183.4041771511504	pulse	1.0	t		face	adult-136.jpg	0.0	212.7529038598998	
52.0	184.1041697858509	pulse	1.0	t		face	adult-136.jpg	0.0	213.45289649460028	
53.0	184.82069872544093	house	0.0		45	place	house-42.jpg	0.0	214.16942543419032	0.3832775099974697
53.0	184.81336240413043	pulse	0.0	t		place	house-42.jpg	0.0	214.1620891128798	
53.0	185.2039762354384	ISI	1.0		334	place	house-42.jpg	0.0	214.55270294418779	3.0249919102448075
53.0	185.5041429809903	pulse	1.0	t		place	house-42.jpg	0.0	214.8528696897397	
53.0	186.2041482936654	pulse	1.0	t		place	house-42.jpg	0.0	215.5528750024148	
53.0	186.90411164828174	pulse	1.0	t		place	house-42.jpg	0.0	216.25283835703112	
53.0	187.6041773322645	pulse	1.0	t		place	house-42.jpg	0.0	216.95290404101388	
54.0	188.2289681456832	car	0.0		45	object	car-43.jpg	0.0	217.5776948544326	0.3749806811815688
54.0	188.30407548586845	pulse	0.0	t		object	car-43.jpg	0.0	217.65280219461783	
54.0	188.60394882686478	ISI	1.0		225	object	car-43.jpg	0.0	217.95267553561416	2.016646180669568
54.0	189.00409438208771	pulse	1.0	t		object	car-43.jpg	0.0	218.3528210908371	
54.0	189.7040683016828	pulse	1.0	t		object	car-43.jpg	0.0	219.0527950104322	
54.0	190.40409806473735	pulse	1.0	t		object	car-43.jpg	0.0	219.75282477348674	
55.0	190.62059500753435	number	0.0		46	character	number-120.jpg	0.0	219.96932171628373	0.38325638003993845
55.0	191.0038513875743	ISI	1.0		215	character	number-120.jpg	0.0	220.35257809632367	2.016671838475304
55.0	191.20838696317833	pulse	1.0	t		character	number-120.jpg	0.0	220.5571136719277	
55.0	191.80398311776753	pulse	1.0	t		character	number-120.jpg	0.0	221.1527098265169	
55.0	192.50398360073814	pulse	1.0	t		character	number-120.jpg	0.0	221.85271030948752	
56.0	193.0205232260496	adult	0.0		46	face	adult-101.jpg	0.0	222.36924993479897	0.38330467708601645
56.0	193.20394544607166	pulse	0.0	t		face	adult-101.jpg	0.0	222.55267215482104	
56.0	193.4038279031356	ISI	1.0		471	face	adult-101.jpg	0.0	222.752554611885	4.016658254930917
56.0	193.90398305739632	pulse	1.0	t		face	adult-101.jpg	0.0	223.2527097661457	
56.0	194.60392679133747	pulse	1.0	t		face	adult-101.jpg	0.0	223.95265350008685	
56.0	195.3039484042656	pulse	1.0	t		face	adult-101.jpg	0.0	224.652675113015	
56.0	196.0039099477426	pulse	1.0	t		face	adult-101.jpg	0.0	225.352636656492	
56.0	196.7040058173793	pulse	1.0	t		face	adult-101.jpg	0.0	226.0527325261287	
57.0	197.42048615806652	number	0.0		45	character	number-38.jpg	0.0	226.7692128668159	0.3833040733729831
57.0	197.4129161997953	pulse	0.0	t		character	number-38.jpg	0.0	226.76164290854467	
57.0	197.8037902314395	ISI	1.0		342	character	number-38.jpg	0.0	227.1525169401889	3.016640747251813
57.0	198.10400919817243	pulse	1.0	t		character	number-38.jpg	0.0	227.45273590692182	
57.0	198.80394115970876	pulse	1.0	t		character	number-38.jpg	0.0	228.15266786845814	
57.0	199.50392504056958	pulse	1.0	t		character	number-38.jpg	0.0	228.85265174931897	
57.0	200.20390318615614	pulse	1.0	t		character	number-38.jpg	0.0	229.55262989490552	
58.0	200.82043097869132	house	0.0		46	place	house-103.jpg	0.0	230.1691576874407	0.3832829434152245
58.0	200.90383937368392	pulse	0.0	t		place	house-103.jpg	0.0	230.2525660824333	
58.0	201.20371392210654	ISI	1.0		198	place	house-103.jpg	0.0	230.55244063085593	2.016653123369906
58.0	201.6038286879625	pulse	1.0	t		place	house-103.jpg	0.0	230.9525553967119	
58.0	202.3038198133802	pulse	1.0	t		place	house-103.jpg	0.0	231.65254652212957	
58.0	203.0038003738191	pulse	1.0	t		place	house-103.jpg	0.0	232.35252708256849	
59.0	203.22036704547645	number	0.0		46	character	number-94.jpg	0.0	232.56909375422583	0.38330346965994977
59.0	203.6036705151364	ISI	1.0		463	character	number-94.jpg	0.0	232.95239722388578	4.025009116067395
59.0	203.7370672584666	pulse	1.0	t		character	number-94.jpg	0.0	233.08579396721598	
59.0	204.40379137849436	pulse	1.0	t		character	number-94.jpg	0.0	233.75251808724374	
59.0	205.10381419884857	pulse	1.0	t		character	number-94.jpg	0.0	234.45254090759795	
59.0	205.80375008451983	pulse	1.0	t		character	number-94.jpg	0.0	235.15247679326922	
59.0	206.50378045128764	pulse	1.0	t		character	number-94.jpg	0.0	235.85250716003702	
59.0	207.20380629020724	pulse	1.0	t		character	number-94.jpg	0.0	236.55253299895662	
60.0	207.6286796312038	house	0.0		45	place	house-64.jpg	0.0	236.97740633995318	0.37496166421965427
60.0	207.90380254718616	pulse	0.0	t		place	house-64.jpg	0.0	237.25252925593554	
60.0	208.00364129542345	ISI	1.0		236	place	house-64.jpg	0.0	237.35236800417283	2.016648293665412
60.0	208.60380242644374	pulse	1.0	t		place	house-64.jpg	0.0	237.95252913519312	
60.0	209.30379536300075	pulse	1.0	t		place	house-64.jpg	0.0	238.65252207175013	
61.0	210.02028958908886	house	0.0		45	place	house-64.jpg	1.0	239.36901629783824	0.3833064882251165
61.0	210.01243105596677	pulse	0.0	t		place	house-64.jpg	1.0	239.36115776471615	
61.0	210.40359607731398	ISI	1.0		227	place	house-64.jpg	1.0	239.75232278606336	2.016679988601936
61.0	210.70380719577702	pulse	1.0	t		place	house-64.jpg	1.0	240.0525339045264	
61.0	210.7454202325987	response	1.0	b		place	house-64.jpg	1.0	240.09414694134807	
61.0	211.4037672299712	pulse	1.0	t		place	house-64.jpg	1.0	240.7524939387206	
61.0	212.1037704296507	pulse	1.0	t		place	house-64.jpg	1.0	241.45249713840008	
62.0	212.4202760659159	house	0.0		46	place	house-134.jpg	0.0	241.7690027746653	0.3832600023181385
62.0	212.80353606823405	ISI	1.0		346	place	house-134.jpg	0.0	242.15226277698343	3.016641954678107
62.0	212.91875772752746	pulse	1.0	t		place	house-134.jpg	0.0	242.26748443627685	
62.0	213.50364189913648	pulse	1.0	t		place	house-134.jpg	0.0	242.85236860788586	
62.0	214.20364540067226	pulse	1.0	t		place	house-134.jpg	0.0	243.55237210942164	
62.0	214.90367063587905	pulse	1.0	t		place	house-134.jpg	0.0	244.25239734462843	
62.0	215.60363097192976	pulse	1.0	t		place	house-134.jpg	0.0	244.95235768067914	
63.0	215.82017802291216	car	0.0		46	object	car-54.jpg	0.0	245.16890473166154	0.38330739379489387
63.0	216.20348541670705	ISI	1.0		475	object	car-54.jpg	0.0	245.55221212545644	4.016638936112486
63.0	216.30373589726264	pulse	1.0	t		object	car-54.jpg	0.0	245.65246260601202	
63.0	217.00361050605648	pulse	1.0	t		object	car-54.jpg	0.0	246.35233721480586	
63.0	217.70358895349978	pulse	1.0	t		object	car-54.jpg	0.0	247.05231566224916	
63.0	218.40358581419173	pulse	1.0	t		object	car-54.jpg	0.0	247.7523125229411	
63.0	219.10365723344876	pulse	1.0	t		object	car-54.jpg	0.0	248.45238394219814	
63.0	219.80365288671442	pulse	1.0	t		object	car-54.jpg	0.0	249.1523795954638	
64.0	220.22012435281954	car	0.0		46	object	car-54.jpg	1.0	249.56885106156892	0.3832898861155627
64.0	220.50358333896816	pulse	0.0	t		object	car-54.jpg	1.0	249.85231004771754	
64.0	220.6034142389351	ISI	1.0		186	object	car-54.jpg	1.0	249.95214094768448	2.0166579530746276
64.0	221.2035424675928	pulse	1.0	t		object	car-54.jpg	1.0	250.55226917634218	
64.0	221.9035194057533	pulse	1.0	t		object	car-54.jpg	1.0	251.25224611450267	
65.0	222.62007219200973	limb	0.0		45	body	limb-60.jpg	0.0	251.9687989007591	0.38331886434343687
65.0	222.6119830404923	pulse	0.0	t		body	limb-60.jpg	0.0	251.9607097492417	
65.0	223.00339105635317	ISI	1.0		239	body	limb-60.jpg	0.0	252.35211776510255	1.9999580419409995
65.0	223.30349924173652	pulse	1.0	t		body	limb-60.jpg	0.0	252.6522259504859	
65.0	224.00358001854602	pulse	1.0	t		body	limb-60.jpg	0.0	253.3523067272954	
65.0	224.7034911519811	pulse	1.0	t		body	limb-60.jpg	0.0	254.05221786073048	
66.0	225.00334909829417	baseline	0.0		708		baseline	0.0	254.35207580704355	5.899974402565476
66.0	225.40345933630215	pulse	0.0	t			baseline	0.0	254.75218604505153	
66.0	226.1034894012132	pulse	0.0	t			baseline	0.0	255.4522161099626	
66.0	226.80352821996416	pulse	0.0	t			baseline	0.0	256.15225492871355	
66.0	227.50364250284952	pulse	0.0	t			baseline	0.0	256.8523692115989	
66.0	228.20349447240324	pulse	0.0	t			baseline	0.0	257.5522211811526	
66.0	228.90351246305272	pulse	0.0	t			baseline	0.0	258.2522391718021	
66.0	229.603537396403	pulse	0.0	t			baseline	0.0	258.9522641051524	
66.0	230.3034539632556	pulse	0.0	t			baseline	0.0	259.652180672005	
66.0	230.90332350085964	ISI	1.0		12		baseline	0.0	260.252050209609	0.13332399590444766
