trial_nr	onset	event_type	phase	response	nr_frames	trial_type	stim_name	task_probe	onset_abs	duration
0.0	0.05910033110558288	baseline	0.0		700		baseline	0.0	23.30762267189857	5.8413056950194004
0.0	0.700628554161085	pulse	0.0	t			baseline	0.0	23.949150894954073	
0.0	1.4006008739925164	pulse	0.0	t			baseline	0.0	24.649123214785504	
0.0	2.1005789290829853	pulse	0.0	t			baseline	0.0	25.349101269875973	
0.0	2.800564530563861	pulse	0.0	t			baseline	0.0	26.04908687135685	
0.0	3.5005501320447365	pulse	0.0	t			baseline	0.0	26.749072472837724	
0.0	4.200552335594693	pulse	0.0	t			baseline	0.0	27.44907467638768	
0.0	4.9005080533606815	pulse	0.0	t			baseline	0.0	28.14903039415367	
0.0	5.600519916290068	pulse	0.0	t			baseline	0.0	28.849042257083056	
0.0	5.900406026124983	ISI	1.0		4		baseline	0.0	29.14892836691797	0.12499664185816073
1.0	6.025402667983144	number	0.0		45	character	number-64.jpg	0.0	29.273925008776132	0.37494313792558387
1.0	6.3004566171439365	pulse	0.0	t		character	number-64.jpg	0.0	29.548978957936924	
1.0	6.400345805908728	ISI	1.0		234	character	number-64.jpg	0.0	29.648868146701716	2.0166458335916104
1.0	7.000446746464149	pulse	1.0	t		character	number-64.jpg	0.0	30.248969087257137	
1.0	7.700432951656694	pulse	1.0	t		character	number-64.jpg	0.0	30.948955292449682	
2.0	8.416991639500338	limb	0.0		45	body	limb-132.jpg	0.0	31.665513980293326	0.38331148401266546
2.0	8.406775634568476	pulse	0.0	t		body	limb-132.jpg	0.0	31.655297975361464	
2.0	8.800303123513004	ISI	1.0		713	body	limb-132.jpg	0.0	32.04882546430599	6.016599649665295
2.0	9.100410493589152	pulse	1.0	t		body	limb-132.jpg	0.0	32.34893283438214	
2.0	9.800391869091982	pulse	1.0	t		body	limb-132.jpg	0.0	33.04891420988497	
2.0	10.500381998412195	pulse	1.0	t		body	limb-132.jpg	0.0	33.74890433920518	
2.0	11.20035914793334	pulse	1.0	t		body	limb-132.jpg	0.0	34.44888148872633	
2.0	11.900361653337313	pulse	1.0	t		body	limb-132.jpg	0.0	35.1488839941303	
2.0	12.600419700189377	pulse	1.0	t		body	limb-132.jpg	0.0	35.848942040982365	
2.0	13.30039141630914	pulse	1.0	t		body	limb-132.jpg	0.0	36.54891375710213	
2.0	14.000379734494345	pulse	1.0	t		body	limb-132.jpg	0.0	37.24890207528733	
2.0	14.700372580511612	pulse	1.0	t		body	limb-132.jpg	0.0	37.9488949213046	
3.0	14.816902773178299	adult	0.0		46	face	adult-49.jpg	0.0	38.06542511397129	0.38330484318430535
3.0	15.200207616362604	ISI	1.0		235	face	adult-49.jpg	0.0	38.44872995715559	2.016653379985655
3.0	15.400362709831825	pulse	1.0	t		face	adult-49.jpg	0.0	38.64888505062481	
3.0	16.100354046571738	pulse	1.0	t		face	adult-49.jpg	0.0	39.348876387364726	
3.0	16.800325460833847	pulse	1.0	t		face	adult-49.jpg	0.0	40.048847801626835	
4.0	17.21686099634826	adult	0.0		46	face	adult-71.jpg	0.0	40.46538333714125	0.3832719409110723
4.0	17.500249181895924	pulse	0.0	t		face	adult-71.jpg	0.0	40.74877152268891	
4.0	17.600132937259332	ISI	1.0		233	face	adult-71.jpg	0.0	40.84865527805232	2.016661530087731
4.0	18.200245650183206	pulse	1.0	t		face	adult-71.jpg	0.0	41.448767990976194	
4.0	18.90023396836841	pulse	1.0	t		face	adult-71.jpg	0.0	42.1487563091614	
5.0	19.616794467347063	limb	0.0		45	body	limb-58.jpg	0.0	42.86531680814005	0.3832957875129068
5.0	19.607902401592582	pulse	0.0	t		body	limb-58.jpg	0.0	42.85642474238557	
5.0	20.00009025485997	ISI	1.0		353	body	limb-58.jpg	0.0	43.24861259565296	3.016632551938528
5.0	20.300199436071125	pulse	1.0	t		body	limb-58.jpg	0.0	43.54872177686411	
5.0	21.000194093227037	pulse	1.0	t		body	limb-58.jpg	0.0	44.248716434020025	
5.0	21.70015464068274	pulse	1.0	t		body	limb-58.jpg	0.0	44.94867698147573	
5.0	22.400176464852848	pulse	1.0	t		body	limb-58.jpg	0.0	45.648698805645836	
6.0	23.016722806798498	house	0.0		46	place	house-45.jpg	0.0	46.265245147591486	0.38333201019850094
6.0	23.100154519943317	pulse	0.0	t		place	house-45.jpg	0.0	46.348676860736305	
6.0	23.400054816997	ISI	1.0		235	place	house-45.jpg	0.0	46.64857715778999	2.016675717306498
6.0	23.80029165299493	pulse	1.0	t		place	house-45.jpg	0.0	47.04881399378792	
6.0	24.500203601681278	pulse	1.0	t		place	house-45.jpg	0.0	47.748725942474266	
6.0	25.2001922217205	pulse	1.0	t		place	house-45.jpg	0.0	48.44871456251349	
7.0	25.416730534303497	adult	0.0		46	face	adult-90.jpg	0.0	48.665252875096485	0.38327163905705675
7.0	25.800002173360554	ISI	1.0		235	face	adult-90.jpg	0.0	49.04852451415354	2.0166512669929944
7.0	25.90010507597617	pulse	1.0	t		face	adult-90.jpg	0.0	49.14862741676916	
7.0	26.6000876588987	pulse	1.0	t		face	adult-90.jpg	0.0	49.84860999969169	
7.0	27.300076278937922	pulse	1.0	t		face	adult-90.jpg	0.0	50.54859861973091	
8.0	27.816653440353548	car	0.0		46	object	car-113.jpg	0.0	51.065175781146536	0.383305748753628
8.0	28.00006791753549	pulse	0.0	t		object	car-113.jpg	0.0	51.24859025832848	
8.0	28.199959189107176	ISI	1.0		352	object	car-113.jpg	0.0	51.448481529900164	3.0166349667852046
8.0	28.700050802315673	pulse	1.0	t		object	car-113.jpg	0.0	51.94857314310866	
8.0	29.400037611223524	pulse	1.0	t		object	car-113.jpg	0.0	52.64855995201651	
8.0	30.100029853529122	pulse	1.0	t		object	car-113.jpg	0.0	53.34855219432211	
8.0	30.800014549444313	pulse	1.0	t		object	car-113.jpg	0.0	54.0485368902373	
9.0	31.21659415589238	number	0.0		46	character	number-103.jpg	0.0	54.46511649668537	0.38333321762183914
9.0	31.50004422186248	pulse	0.0	t		character	number-103.jpg	0.0	54.74856656265547	
9.0	31.59992737351422	ISI	1.0		233	character	number-103.jpg	0.0	54.84844971430721	2.016642815033265
9.0	32.20005366994519	pulse	1.0	t		character	number-103.jpg	0.0	55.44857601073818	
9.0	32.900041082561074	pulse	1.0	t		character	number-103.jpg	0.0	56.14856342335406	
10.0	33.616570188547485	limb	0.0		45	body	limb-101.jpg	0.0	56.86509252934047	0.38330122091429075
10.0	33.60822599092353	pulse	0.0	t		body	limb-101.jpg	0.0	56.85674833171652	
10.0	33.999871409461775	ISI	1.0		234	body	limb-101.jpg	0.0	57.24839375025476	2.0166557948323316
10.0	34.300033415427606	pulse	1.0	t		body	limb-101.jpg	0.0	57.548555756220594	
10.0	34.99999969814235	pulse	1.0	t		body	limb-101.jpg	0.0	58.248522038935334	
10.0	35.699994053440605	pulse	1.0	t		body	limb-101.jpg	0.0	58.94851639423359	
11.0	36.01652720429411	house	0.0		46	place	house-123.jpg	0.0	59.265049545087095	0.38327586503510247
11.0	36.39980306932921	ISI	1.0		235	place	house-123.jpg	0.0	59.6483254101222	2.016638589055219
11.0	36.43436102124906	pulse	1.0	t		place	house-123.jpg	0.0	59.68288336204205	
11.0	37.099897338870505	pulse	1.0	t		place	house-123.jpg	0.0	60.34841967966349	
11.0	37.79989652385848	pulse	1.0	t		place	house-123.jpg	0.0	61.04841886465147	
12.0	38.41644165838443	car	0.0		46	object	car-99.jpg	0.0	61.66496399917742	0.3832972967902606
12.0	38.499873069671594	pulse	0.0	t		object	car-99.jpg	0.0	61.74839541046458	
12.0	38.79973895517469	ISI	1.0		715	object	car-99.jpg	0.0	62.04826129596768	6.0166343630735355
12.0	39.19987134909388	pulse	1.0	t		object	car-99.jpg	0.0	62.44839368988687	
12.0	39.89986238397614	pulse	1.0	t		object	car-99.jpg	0.0	63.14838472476913	
12.0	40.59983772236592	pulse	1.0	t		object	car-99.jpg	0.0	63.84836006315891	
12.0	41.29982302199278	pulse	1.0	t		object	car-99.jpg	0.0	64.54834536278577	
12.0	41.99982401811576	pulse	1.0	t		object	car-99.jpg	0.0	65.24834635890875	
12.0	42.6998754241431	pulse	1.0	t		object	car-99.jpg	0.0	65.94839776493609	
12.0	43.39985559222259	pulse	1.0	t		object	car-99.jpg	0.0	66.64837793301558	
12.0	44.0998393825721	pulse	1.0	t		object	car-99.jpg	0.0	67.34836172336509	
13.0	44.816373318248225	car	0.0		45	object	car-99.jpg	1.0	68.06489565904121	0.3833126914323657
13.0	44.80697413488815	pulse	0.0	t		object	car-99.jpg	1.0	68.05549647568114	
13.0	45.19968600968059	ISI	1.0		232	object	car-99.jpg	1.0	68.44820835047358	2.016651568850648
13.0	45.499833224715985	pulse	1.0	t		object	car-99.jpg	1.0	68.74835556550897	
13.0	46.199807355678786	pulse	1.0	t		object	car-99.jpg	1.0	69.44832969647177	
13.0	46.899793259017315	pulse	1.0	t		object	car-99.jpg	1.0	70.1483155998103	
14.0	47.21633757853124	number	0.0		46	character	number-89.jpg	0.0	70.46485991932423	0.3833027301952825
14.0	47.59964030872652	ISI	1.0		353	character	number-89.jpg	0.0	70.84816264951951	3.016632551938528
14.0	47.651763244899485	pulse	1.0	t		character	number-89.jpg	0.0	70.90028558569247	
14.0	48.2997735176541	pulse	1.0	t		character	number-89.jpg	0.0	71.54829585844709	
14.0	48.99975911913498	pulse	1.0	t		character	number-89.jpg	0.0	72.24828145992797	
14.0	49.69974985216686	pulse	1.0	t		character	number-89.jpg	0.0	72.94827219295985	
14.0	50.3997387740601	pulse	1.0	t		character	number-89.jpg	0.0	73.64826111485309	
15.0	50.61627286066505	limb	0.0		46	body	limb-63.jpg	0.0	73.86479520145804	0.38328824111886206
15.0	50.99956110178391	ISI	1.0		475	body	limb-63.jpg	0.0	74.2480834425769	4.016637079777865
15.0	51.09973192193502	pulse	1.0	t		body	limb-63.jpg	0.0	74.348254262728	
15.0	51.799714504861186	pulse	1.0	t		body	limb-63.jpg	0.0	75.04823684565417	
15.0	52.49970312490041	pulse	1.0	t		body	limb-63.jpg	0.0	75.7482254656934	
15.0	53.19981309093782	pulse	1.0	t		body	limb-63.jpg	0.0	76.44833543173081	
15.0	53.89966285734772	pulse	1.0	t		body	limb-63.jpg	0.0	77.14818519814071	
15.0	54.5996638534707	pulse	1.0	t		body	limb-63.jpg	0.0	77.84818619426369	
16.0	55.016198181561776	adult	0.0		46	face	adult-7.jpg	0.0	78.26472052235476	0.3833102765856893
16.0	55.299610213711276	pulse	0.0	t		face	adult-7.jpg	0.0	78.54813255450426	
16.0	55.399508458147466	ISI	1.0		353	face	adult-7.jpg	0.0	78.64803079894045	3.0166147424533847
16.0	55.99962992488872	pulse	1.0	t		face	adult-7.jpg	0.0	79.24815226568171	
16.0	56.699630317300034	pulse	1.0	t		face	adult-7.jpg	0.0	79.94815265809302	
16.0	57.39961259837219	pulse	1.0	t		face	adult-7.jpg	0.0	80.64813493916517	
16.0	58.099596388718055	pulse	1.0	t		face	adult-7.jpg	0.0	81.34811872951104	
17.0	58.41612320060085	number	0.0		46	character	number-58.jpg	0.0	81.66464554139384	0.38330574874999
17.0	58.79942894935084	ISI	1.0		232	character	number-58.jpg	0.0	82.04795129014383	2.0166660579234303
17.0	58.859163177465234	pulse	1.0	t		character	number-58.jpg	0.0	82.10768551825822	
17.0	59.49957755292053	pulse	1.0	t		character	number-58.jpg	0.0	82.74809989371352	
17.0	60.19955409873364	pulse	1.0	t		character	number-58.jpg	0.0	83.44807643952663	
18.0	60.81609500727427	number	0.0		46	character	number-107.jpg	0.0	84.06461734806726	0.3833033339069516
18.0	60.89951434433533	pulse	0.0	t		character	number-107.jpg	0.0	84.14803668512832	
18.0	61.19939834118122	ISI	1.0		595	character	number-107.jpg	0.0	84.44792068197421	5.016602668223641
18.0	61.599539187060145	pulse	1.0	t		character	number-107.jpg	0.0	84.84806152785313	
18.0	62.29952327926367	pulse	1.0	t		character	number-107.jpg	0.0	85.54804562005666	
18.0	62.99951582342692	pulse	1.0	t		character	number-107.jpg	0.0	86.2480381642199	
18.0	63.69950716016683	pulse	1.0	t		character	number-107.jpg	0.0	86.94802950095982	
18.0	64.39948249855661	pulse	1.0	t		character	number-107.jpg	0.0	87.6480048393496	
18.0	65.09946387405944	pulse	1.0	t		character	number-107.jpg	0.0	88.34798621485243	
18.0	65.79946064420074	pulse	1.0	t		character	number-107.jpg	0.0	89.04798298499372	
19.0	66.21600100940486	car	0.0		46	object	car-8.jpg	0.0	89.46452335019785	0.38327918544746353
19.0	66.4993988543356	pulse	0.0	t		object	car-8.jpg	0.0	89.74792119512858	
19.0	66.59928019485233	ISI	1.0		355	object	car-8.jpg	0.0	89.84780253564531	3.016640702044242
19.0	67.19943818613683	pulse	1.0	t		object	car-8.jpg	0.0	90.44796052692982	
19.0	67.89941412823464	pulse	1.0	t		object	car-8.jpg	0.0	91.14793646902763	
19.0	68.59940063528484	pulse	1.0	t		object	car-8.jpg	0.0	91.84792297607783	
19.0	69.2993904627474	pulse	1.0	t		object	car-8.jpg	0.0	92.54791280354038	
20.0	69.61592089689657	car	0.0		46	object	car-71.jpg	0.0	92.86444323768956	0.38332144524974865
20.0	69.99924234214632	ISI	1.0		473	object	car-71.jpg	0.0	93.2477646829393	4.016617761008092
20.0	70.04958553700635	pulse	1.0	t		object	car-71.jpg	0.0	93.29810787779934	
20.0	70.52437379276671	response	1.0	b		object	car-71.jpg	0.0	93.7728961335597	
20.0	70.699343856224	pulse	1.0	t		object	car-71.jpg	0.0	93.94786619701699	
20.0	71.39936568039411	pulse	1.0	t		object	car-71.jpg	0.0	94.6478880211871	
20.0	72.09933588723288	pulse	1.0	t		object	car-71.jpg	0.0	95.34785822802587	
20.0	72.79932963881947	pulse	1.0	t		object	car-71.jpg	0.0	96.04785197961246	
20.0	73.49932822009941	pulse	1.0	t		object	car-71.jpg	0.0	96.7478505608924	
21.0	74.01586010315441	number	0.0		46	character	number-68.jpg	0.0	97.2643824439474	0.38328884483416914
21.0	74.19927518404802	pulse	0.0	t		character	number-68.jpg	0.0	97.44779752484101	
21.0	74.39914894798858	ISI	1.0		355	character	number-68.jpg	0.0	97.64767128878157	3.0166512669929944
21.0	74.8993051583202	pulse	1.0	t		character	number-68.jpg	0.0	98.14782749911319	
21.0	75.59928683568069	pulse	1.0	t		character	number-68.jpg	0.0	98.84780917647367	
21.0	76.2992718334499	pulse	1.0	t		character	number-68.jpg	0.0	99.54779417424288	
21.0	76.99925320895272	pulse	1.0	t		character	number-68.jpg	0.0	100.24777554974571	
22.0	77.41580021498157	car	0.0		47	object	car-83.jpg	0.0	100.66432255577456	0.3916188552357198
22.0	77.69919896547799	pulse	0.0	t		object	car-83.jpg	0.0	100.94772130627098	
22.0	77.80741907021729	ISI	1.0		232	object	car-83.jpg	0.0	101.05594141101028	2.024987314514874
22.0	78.39924252326091	pulse	1.0	t		object	car-83.jpg	0.0	101.6477648640539	
22.0	79.09921212638801	pulse	1.0	t		object	car-83.jpg	0.0	102.347734467181	
22.0	79.79920436869725	pulse	1.0	t		object	car-83.jpg	0.0	103.04772670949023	
23.0	79.83240638473217	limb	0.0		45	body	limb-54.jpg	0.0	103.08092872552515	0.3749700030857639
23.0	80.20737638781793	ISI	1.0		833	body	limb-54.jpg	0.0	103.45589872861092	7.016563426979701
23.0	80.49919510172549	pulse	1.0	t		body	limb-54.jpg	0.0	103.74771744251848	
23.0	81.19918674032306	pulse	1.0	t		body	limb-54.jpg	0.0	104.44770908111605	
23.0	81.89916962510324	pulse	1.0	t		body	limb-54.jpg	0.0	105.14769196589623	
23.0	82.59916307483581	pulse	1.0	t		body	limb-54.jpg	0.0	105.8476854156288	
23.0	83.29914384662698	pulse	1.0	t		body	limb-54.jpg	0.0	106.54766618741996	
23.0	83.99913850377925	pulse	1.0	t		body	limb-54.jpg	0.0	107.24766084457224	
23.0	84.69911957742443	pulse	1.0	t		body	limb-54.jpg	0.0	107.94764191821741	
23.0	85.39910759375198	pulse	1.0	t		body	limb-54.jpg	0.0	108.64762993454497	
23.0	86.09909711936052	pulse	1.0	t		body	limb-54.jpg	0.0	109.34761946015351	
23.0	86.79908302269905	pulse	1.0	t		body	limb-54.jpg	0.0	110.04760536349204	
24.0	87.22393981479763	house	0.0		46	place	house-131.jpg	0.0	110.47246215559062	0.38328582627582364
24.0	87.49901006416985	pulse	0.0	t		place	house-131.jpg	0.0	110.74753240496284	
24.0	87.60722564107346	ISI	1.0		235	place	house-131.jpg	0.0	110.85574798186644	2.016625307402137
24.0	88.19900049534408	pulse	1.0	t		place	house-131.jpg	0.0	111.44752283613707	
24.0	88.8989827764126	pulse	1.0	t		place	house-131.jpg	0.0	112.14750511720558	
24.0	89.59893155149985	pulse	1.0	t		place	house-131.jpg	0.0	112.84745389229283	
25.0	89.62385094847559	adult	0.0		46	face	adult-29.jpg	0.0	112.87237328926858	0.3833329157678236
25.0	90.00718386424342	ISI	1.0		232	face	adult-29.jpg	0.0	113.2557062050364	2.0166391927632503
25.0	90.2989530738123	pulse	1.0	t		face	adult-29.jpg	0.0	113.54747541460529	
25.0	90.9989407882822	pulse	1.0	t		face	adult-29.jpg	0.0	114.24746312907519	
25.0	91.69893121945643	pulse	1.0	t		face	adult-29.jpg	0.0	114.94745356024941	
26.0	92.02382305700667	house	0.0		46	place	house-32.jpg	0.0	115.27234539779965	0.38330605060764356
26.0	92.39891500980593	pulse	0.0	t		place	house-32.jpg	0.0	115.64743735059892	
26.0	92.40712910761431	ISI	1.0		473	place	house-32.jpg	0.0	115.6556514484073	4.016646739157295
26.0	93.09890423355682	pulse	1.0	t		place	house-32.jpg	0.0	116.34742657434981	
26.0	93.79894930061346	pulse	1.0	t		place	house-32.jpg	0.0	117.04747164140645	
26.0	94.4989433540577	pulse	1.0	t		place	house-32.jpg	0.0	117.74746569485069	
26.0	95.19893589822095	pulse	1.0	t		place	house-32.jpg	0.0	118.44745823901394	
26.0	95.89891787743545	pulse	1.0	t		place	house-32.jpg	0.0	119.14744021822844	
27.0	96.4237758467716	limb	0.0		46	body	limb-107.jpg	0.0	119.67229818756459	0.3832571499806363
27.0	96.59883857993555	pulse	0.0	t		body	limb-107.jpg	0.0	119.84736092072853	
27.0	96.80703299675224	ISI	1.0		235	body	limb-107.jpg	0.0	120.05555533754523	2.016682358134858
27.0	97.29882478513173	pulse	1.0	t		body	limb-107.jpg	0.0	120.54734712592472	
27.0	97.9988131033133	pulse	1.0	t		body	limb-107.jpg	0.0	121.24733544410628	
27.0	98.69880685489989	pulse	1.0	t		body	limb-107.jpg	0.0	121.94732919569287	
28.0	98.8237153548871	house	0.0		46	place	house-134.jpg	0.0	122.07223769568009	0.38328944854220026
28.0	99.2070048034293	ISI	1.0		473	place	house-134.jpg	0.0	122.45552714422229	4.01665036142731
28.0	99.3988000027748	pulse	1.0	t		place	house-134.jpg	0.0	122.6473223435678	
28.0	100.09877594487625	pulse	1.0	t		place	house-134.jpg	0.0	123.34729828566924	
28.0	100.79875611295574	pulse	1.0	t		place	house-134.jpg	0.0	124.04727845374873	
28.0	101.49875861835608	pulse	1.0	t		place	house-134.jpg	0.0	124.74728095914907	
28.0	102.19873154189918	pulse	1.0	t		place	house-134.jpg	0.0	125.44725388269217	
28.0	102.89879864442628	pulse	1.0	t		place	house-134.jpg	0.0	126.14732098521927	
29.0	103.22365516485661	limb	0.0		46	body	limb-48.jpg	0.0	126.4721775056496	0.3832861281298392
29.0	103.59872085620736	pulse	0.0	t		body	limb-48.jpg	0.0	126.84724319700035	
29.0	103.60694129298645	ISI	1.0		595	body	limb-48.jpg	0.0	126.85546363377944	5.016580934610829
29.0	104.29869408160448	pulse	1.0	t		body	limb-48.jpg	0.0	127.54721642239747	
29.0	104.9986872294794	pulse	1.0	t		body	limb-48.jpg	0.0	128.2472095702724	
29.0	105.69868098106599	pulse	1.0	t		body	limb-48.jpg	0.0	128.94720332185898	
29.0	106.39867714749926	pulse	1.0	t		body	limb-48.jpg	0.0	129.64719948829224	
29.0	107.09864825990735	pulse	1.0	t		body	limb-48.jpg	0.0	130.34717060070034	
29.0	107.79864110592462	pulse	1.0	t		body	limb-48.jpg	0.0	131.0471634467176	
29.0	108.49862036843842	pulse	1.0	t		body	limb-48.jpg	0.0	131.7471427092314	
30.0	108.62352222759728	car	0.0		46	object	car-141.jpg	0.0	131.87204456839027	0.38331963411474135
30.0	109.00684186171202	ISI	1.0		355	object	car-141.jpg	0.0	132.255364202505	3.0250184056530998
30.0	109.19861774229503	pulse	1.0	t		object	car-141.jpg	0.0	132.44714008308802	
30.0	109.89866552605235	pulse	1.0	t		object	car-141.jpg	0.0	133.14718786684534	
30.0	110.5986505238252	pulse	1.0	t		object	car-141.jpg	0.0	133.8471728646182	
30.0	111.29864638840081	pulse	1.0	t		object	car-141.jpg	0.0	134.5471687291938	
30.0	111.99862353792196	pulse	1.0	t		object	car-141.jpg	0.0	135.24714587871495	
31.0	112.03186026736512	adult	0.0		45	face	adult-93.jpg	0.0	135.2803826081581	0.3749352896811615
31.0	112.40679555704628	ISI	1.0		355	face	adult-93.jpg	0.0	135.65531789783927	3.016657002252032
31.0	112.69861698765453	pulse	1.0	t		face	adult-93.jpg	0.0	135.94713932844752	
31.0	113.39860228728139	pulse	1.0	t		face	adult-93.jpg	0.0	136.64712462807438	
31.0	114.09857853123685	pulse	1.0	t		face	adult-93.jpg	0.0	137.34710087202984	
31.0	114.79857288653511	pulse	1.0	t		face	adult-93.jpg	0.0	138.0470952273281	
32.0	115.42345255929831	adult	0.0		46	face	adult-9.jpg	0.0	138.6719749000913	0.3832535277106217
32.0	115.49850687068829	pulse	0.0	t		face	adult-9.jpg	0.0	138.74702921148128	
32.0	115.80670608700893	ISI	1.0		233	face	adult-9.jpg	0.0	139.05522842780192	2.016668170916091
32.0	116.19848884990279	pulse	1.0	t		face	adult-9.jpg	0.0	139.44701119069578	
32.0	116.89847807365368	pulse	1.0	t		face	adult-9.jpg	0.0	140.14700041444667	
32.0	117.59846790111624	pulse	1.0	t		face	adult-9.jpg	0.0	140.84699024190923	
33.0	117.82337425792502	limb	0.0		46	body	limb-8.jpg	0.0	141.071896598718	0.38328944854220026
33.0	118.20666370646722	ISI	1.0		235	body	limb-8.jpg	0.0	141.4551860472602	2.0166660579234303
33.0	118.29847825476463	pulse	1.0	t		body	limb-8.jpg	0.0	141.54700059555762	
33.0	118.9984273317059	pulse	1.0	t		body	limb-8.jpg	0.0	142.24694967249889	
33.0	119.6984156498911	pulse	1.0	t		body	limb-8.jpg	0.0	142.9469379906841	
34.0	120.22332976439066	limb	0.0		46	body	limb-8.jpg	1.0	143.47185210518364	0.3833063524652971
34.0	120.39841634416007	pulse	0.0	t		body	limb-8.jpg	1.0	143.64693868495306	
34.0	120.60663611685595	ISI	1.0		235	body	limb-8.jpg	1.0	143.85515845764894	2.016687187824573
34.0	120.64040381050654	response	1.0	b		body	limb-8.jpg	1.0	143.88892615129953	
34.0	121.09839017326885	pulse	1.0	t		body	limb-8.jpg	1.0	144.34691251406184	
34.0	121.79845999249665	pulse	1.0	t		body	limb-8.jpg	1.0	145.04698233328963	
34.0	122.49843502902877	pulse	1.0	t		body	limb-8.jpg	1.0	145.74695736982176	
35.0	122.62332330468053	adult	0.0		46	face	adult-40.jpg	0.0	145.8718456454735	0.3832653000827122
35.0	123.00658860476324	ISI	1.0		355	face	adult-40.jpg	0.0	146.25511094555623	3.01660719605934
35.0	123.19835422225151	pulse	1.0	t		face	adult-40.jpg	0.0	146.4468765630445	
35.0	123.89835370909714	pulse	1.0	t		face	adult-40.jpg	0.0	147.14687604989012	
35.0	124.59834202728234	pulse	1.0	t		face	adult-40.jpg	0.0	147.84686436807533	
35.0	125.29831827123417	pulse	1.0	t		face	adult-40.jpg	0.0	148.54684061202715	
35.0	125.99830447643035	pulse	1.0	t		face	adult-40.jpg	0.0	149.24682681722334	
36.0	126.02319580082258	house	0.0		46	place	house-120.jpg	0.0	149.27171814161557	0.3833371417495073
36.0	126.40653294257208	ISI	1.0		353	place	house-120.jpg	0.0	149.65505528336507	3.0166672653467685
36.0	126.69829883172861	pulse	1.0	t		place	house-120.jpg	0.0	149.9468211725216	
36.0	127.39828111279712	pulse	1.0	t		place	house-120.jpg	0.0	150.6468034535901	
36.0	128.0982639975773	pulse	1.0	t		place	house-120.jpg	0.0	151.3467863383703	
36.0	128.79833442051677	pulse	1.0	t		place	house-120.jpg	0.0	152.04685676130975	
37.0	129.42320020791885	house	0.0		46	place	house-63.jpg	0.0	152.67172254871184	0.38326379080535844
37.0	129.49824546363743	pulse	0.0	t		place	house-63.jpg	0.0	152.74676780443042	
37.0	129.8064639987242	ISI	1.0		353	place	house-63.jpg	0.0	153.0549863395172	3.0166446261682722
37.0	130.19823257439566	pulse	1.0	t		place	house-63.jpg	0.0	153.44675491518865	
37.0	130.89821727031085	pulse	1.0	t		place	house-63.jpg	0.0	154.14673961110384	
37.0	131.59820800334273	pulse	1.0	t		place	house-63.jpg	0.0	154.84673034413572	
37.0	132.29826001308174	pulse	1.0	t		place	house-63.jpg	0.0	155.54678235387473	
38.0	132.82310862489248	car	0.0		46	object	car-135.jpg	0.0	156.07163096568547	0.38328703369552386
38.0	132.99818977125688	pulse	0.0	t		object	car-135.jpg	0.0	156.24671211204986	
38.0	133.206395658588	ISI	1.0		593	object	car-135.jpg	0.0	156.454917999381	5.016631344518828
38.0	133.69818231542013	pulse	1.0	t		object	car-135.jpg	0.0	156.94670465621311	
38.0	134.39815795566392	pulse	1.0	t		object	car-135.jpg	0.0	157.6466802964569	
38.0	135.09814959426149	pulse	1.0	t		object	car-135.jpg	0.0	158.34667193505447	
38.0	135.79819918915382	pulse	1.0	t		object	car-135.jpg	0.0	159.0467215299468	
38.0	136.49819837414543	pulse	1.0	t		object	car-135.jpg	0.0	159.74672071493842	
38.0	137.19818518304965	pulse	1.0	t		object	car-135.jpg	0.0	160.44670752384263	
38.0	137.89815931401245	pulse	1.0	t		object	car-135.jpg	0.0	161.14668165480543	
39.0	138.22302700310684	number	0.0		46	character	number-66.jpg	0.0	161.47154934389982	0.38327616688911803
39.0	138.59808454435188	pulse	0.0	t		character	number-66.jpg	0.0	161.84660688514487	
39.0	138.60630316999595	ISI	1.0		235	character	number-66.jpg	0.0	161.85482551078894	2.0166425131792494
39.0	139.2980746736721	pulse	1.0	t		character	number-66.jpg	0.0	162.54659701446508	
39.0	139.9980614825763	pulse	1.0	t		character	number-66.jpg	0.0	163.2465838233693	
40.0	140.6229456831752	number	0.0		46	character	number-66.jpg	1.0	163.8714680239682	0.38332446380809415
40.0	140.6980325949844	pulse	0.0	t		character	number-66.jpg	1.0	163.94655493577739	
40.0	141.0062701469833	ISI	1.0		235	character	number-66.jpg	1.0	164.25479248777629	2.0166557948286936
40.0	141.29804297881856	response	1.0	b		character	number-66.jpg	1.0	164.54656531961155	
40.0	141.3980239317243	pulse	1.0	t		character	number-66.jpg	1.0	164.6465462725173	
40.0	142.0980131554752	pulse	1.0	t		character	number-66.jpg	1.0	165.3465354962682	
40.0	142.7980132460325	pulse	1.0	t		character	number-66.jpg	1.0	166.04653558682548	
41.0	143.022925941812	car	0.0		46	object	car-97.jpg	0.0	166.27144828260498	0.3832867318415083
41.0	143.4062126736535	ISI	1.0		235	object	car-97.jpg	0.0	166.6547350144465	2.0166841692662274
41.0	143.49799250854267	pulse	1.0	t		object	car-97.jpg	0.0	166.74651484933565	
41.0	144.19798807126426	pulse	1.0	t		object	car-97.jpg	0.0	167.44651041205725	
41.0	144.89803042162384	pulse	1.0	t		object	car-97.jpg	0.0	168.14655276241683	
42.0	145.42289684291973	car	0.0		45	object	car-130.jpg	0.0	168.67141918371271	0.38331721926806495
42.0	145.59799760990427	pulse	0.0	t		object	car-130.jpg	0.0	168.84651995069726	
42.0	145.8062140621878	ISI	1.0		233	object	car-130.jpg	0.0	169.05473640298078	2.016656096686347
42.0	146.29801460438102	pulse	1.0	t		object	car-130.jpg	0.0	169.546536945174	
42.0	146.99801016710262	pulse	1.0	t		object	car-130.jpg	0.0	170.2465325078956	
42.0	147.69799395745213	pulse	1.0	t		object	car-130.jpg	0.0	170.94651629824511	
43.0	147.82287015887414	number	0.0		46	character	number-34.jpg	0.0	171.07139249966713	0.3832695260680339
43.0	148.20613968494217	ISI	1.0		233	character	number-34.jpg	0.0	171.45466202573516	2.0166370797742275
43.0	148.3979143580982	pulse	1.0	t		character	number-34.jpg	0.0	171.6464366988912	
43.0	149.09789995958272	pulse	1.0	t		character	number-34.jpg	0.0	172.3464223003757	
43.0	149.79788616477526	pulse	1.0	t		character	number-34.jpg	0.0	173.04640850556825	
44.0	150.2227767647164	house	0.0		46	place	house-11.jpg	0.0	173.4712991055094	0.383320539680426
44.0	150.4978829349202	pulse	0.0	t		place	house-11.jpg	0.0	173.7464052757132	
44.0	150.60609730439683	ISI	1.0		954	place	house-11.jpg	0.0	173.8546196451898	8.016580330902798
44.0	151.19786491413106	pulse	1.0	t		place	house-11.jpg	0.0	174.44638725492405	
44.0	151.8978484026229	pulse	1.0	t		place	house-11.jpg	0.0	175.1463707434159	
44.0	152.5978255521477	pulse	1.0	t		place	house-11.jpg	0.0	175.84634789294068	
44.0	153.29781990744596	pulse	1.0	t		place	house-11.jpg	0.0	176.54634224823894	
44.0	153.9978803691447	pulse	1.0	t		place	house-11.jpg	0.0	177.24640270993768	
44.0	154.69786597062557	pulse	1.0	t		place	house-11.jpg	0.0	177.94638831141856	
44.0	155.39784613870506	pulse	1.0	t		place	house-11.jpg	0.0	178.64636847949805	
44.0	156.0978293253429	pulse	1.0	t		place	house-11.jpg	0.0	179.3463516661359	
44.0	156.7978188509478	pulse	1.0	t		place	house-11.jpg	0.0	180.0463411917408	
44.0	157.49781380995773	pulse	1.0	t		place	house-11.jpg	0.0	180.74633615075072	
44.0	158.19779307247154	pulse	1.0	t		place	house-11.jpg	0.0	181.44631541326453	
45.0	158.62267763529962	limb	0.0		46	body	limb-138.jpg	0.0	181.8711999760926	0.3832683186410577
45.0	158.89772132136568	pulse	0.0	t		body	limb-138.jpg	0.0	182.14624366215867	
45.0	159.00594595394068	ISI	1.0		354	body	limb-138.jpg	0.0	182.25446829473367	3.0166228925554606
45.0	159.59771507295227	pulse	1.0	t		body	limb-138.jpg	0.0	182.84623741374526	
45.0	160.29770067443678	pulse	1.0	t		body	limb-138.jpg	0.0	183.54622301522977	
45.0	160.9976832573593	pulse	1.0	t		body	limb-138.jpg	0.0	184.2462055981523	
45.0	161.69773828565667	pulse	1.0	t		body	limb-138.jpg	0.0	184.94626062644966	
46.0	162.02256884649614	house	0.0		46	place	house-3.jpg	0.0	185.27109118728913	0.38330242834126693
46.0	162.39765566774804	pulse	0.0	t		place	house-3.jpg	0.0	185.64617800854103	
46.0	162.4058712748374	ISI	1.0		232	place	house-3.jpg	0.0	185.6543936156304	2.0166666616350994
46.0	163.09764670263394	pulse	1.0	t		place	house-3.jpg	0.0	186.34616904342693	
46.0	163.79763290782648	pulse	1.0	t		place	house-3.jpg	0.0	187.04615524861947	
47.0	164.4225379364725	number	0.0		46	character	number-132.jpg	0.0	187.6710602772655	0.3833217471037642
47.0	164.4976423559092	pulse	0.0	t		character	number-132.jpg	0.0	187.74616469670218	
47.0	164.80585968357627	ISI	1.0		235	character	number-132.jpg	0.0	188.05438202436926	2.0166512669929944
47.0	165.19768832853515	pulse	1.0	t		character	number-132.jpg	0.0	188.44621066932814	
47.0	165.89766577991395	pulse	1.0	t		character	number-132.jpg	0.0	189.14618812070694	
47.0	166.5976507776868	pulse	1.0	t		character	number-132.jpg	0.0	189.84617311847978	
48.0	166.82251095056927	adult	0.0		46	face	adult-100.jpg	0.0	190.07103329136226	0.38329065596553846
48.0	167.2058016065348	ISI	1.0		234	face	adult-100.jpg	0.0	190.4543239473278	2.016650059573294
48.0	167.29758023400427	pulse	1.0	t		face	adult-100.jpg	0.0	190.54610257479726	
48.0	167.9975601002261	pulse	1.0	t		face	adult-100.jpg	0.0	191.2460824410191	
48.0	168.69754721098798	pulse	1.0	t		face	adult-100.jpg	0.0	191.94606955178097	
49.0	169.2224516661081	limb	0.0		46	body	limb-53.jpg	0.0	192.4709740069011	0.38329065596553846
49.0	169.39753794401622	pulse	0.0	t		body	limb-53.jpg	0.0	192.6460602848092	
49.0	169.60574232207364	ISI	1.0		236	body	limb-53.jpg	0.0	192.85426466286663	2.016649455857987
49.0	170.09752113065406	pulse	1.0	t		body	limb-53.jpg	0.0	193.34604347144705	
49.0	170.79749495976284	pulse	1.0	t		body	limb-53.jpg	0.0	194.04601730055583	
49.0	171.49748840949542	pulse	1.0	t		body	limb-53.jpg	0.0	194.7460107502884	
50.0	171.62239177793163	adult	0.0		46	face	adult-43.jpg	0.0	194.8709141187246	0.38332265267308685
50.0	172.0057144306047	ISI	1.0		233	face	adult-43.jpg	0.0	195.2542367713977	2.0166693783357914
50.0	172.1974894056184	pulse	1.0	t		face	adult-43.jpg	0.0	195.4460117464114	
50.0	172.89753326525533	pulse	1.0	t		face	adult-43.jpg	0.0	196.14605560604832	
50.0	173.59752822426526	pulse	1.0	t		face	adult-43.jpg	0.0	196.84605056505825	
51.0	174.0223838089405	limb	0.0		46	body	limb-74.jpg	0.0	197.2709061497335	0.38327405390373315
51.0	174.29745888800608	pulse	0.0	t		body	limb-74.jpg	0.0	197.54598122879906	
51.0	174.40565786284424	ISI	1.0		352	body	limb-74.jpg	0.0	197.65418020363722	3.0166298352378362
51.0	174.99743060412584	pulse	1.0	t		body	limb-74.jpg	0.0	198.24595294491883	
51.0	175.69742435571243	pulse	1.0	t		body	limb-74.jpg	0.0	198.94594669650542	
51.0	176.39739848667523	pulse	1.0	t		body	limb-74.jpg	0.0	199.64592082746822	
51.0	177.09739133269613	pulse	1.0	t		body	limb-74.jpg	0.0	200.34591367348912	
52.0	177.42228769808207	number	0.0		46	character	number-101.jpg	0.0	200.67081003887506	0.3833241619504406
52.0	177.79738991397244	pulse	0.0	t		character	number-101.jpg	0.0	201.04591225476543	
52.0	177.8056118600325	ISI	1.0		233	character	number-101.jpg	0.0	201.0541342008255	2.01665156884701
52.0	178.49746154433524	pulse	1.0	t		character	number-101.jpg	0.0	201.74598388512823	
52.0	179.19735779652547	pulse	1.0	t		character	number-101.jpg	0.0	202.44588013731845	
53.0	179.82226342887952	house	0.0		46	place	house-14.jpg	0.0	203.0707857696725	0.38332023782641045
53.0	179.8973509444004	pulse	0.0	t		place	house-14.jpg	0.0	203.14587328519337	
53.0	180.20558366670593	ISI	1.0		475	place	house-14.jpg	0.0	203.45410600749892	4.016633155653835
53.0	180.59740597269774	pulse	1.0	t		place	house-14.jpg	0.0	203.84592831349073	
53.0	181.29737708510584	pulse	1.0	t		place	house-14.jpg	0.0	204.54589942589882	
53.0	181.99736479957937	pulse	1.0	t		place	house-14.jpg	0.0	205.24588714037236	
53.0	182.6973582493083	pulse	1.0	t		place	house-14.jpg	0.0	205.9458805901013	
53.0	183.39734807677087	pulse	1.0	t		place	house-14.jpg	0.0	206.64587041756386	
53.0	184.09733699866774	pulse	1.0	t		place	house-14.jpg	0.0	207.34585933946073	
54.0	184.22221682235977	adult	0.0		46	face	adult-32.jpg	0.0	207.47073916315276	0.3833033339033136
54.0	184.60552015626308	ISI	1.0		233	face	adult-32.jpg	0.0	207.85404249705607	2.016638589055219
54.0	184.79732742983833	pulse	1.0	t		face	adult-32.jpg	0.0	208.04584977063132	
54.0	185.49731484245785	pulse	1.0	t		face	adult-32.jpg	0.0	208.74583718325084	
54.0	186.19728867156664	pulse	1.0	t		face	adult-32.jpg	0.0	209.44581101235963	
55.0	186.6221587453183	house	0.0		46	place	house-101.jpg	0.0	209.8706810861113	0.3833027301952825
55.0	186.89724680417567	pulse	0.0	t		place	house-101.jpg	0.0	210.14576914496865	
55.0	187.00546147551358	ISI	1.0		352	place	house-101.jpg	0.0	210.25398381630657	3.0166503614273097
55.0	187.59726470422174	pulse	1.0	t		place	house-101.jpg	0.0	210.84578704501473	
55.0	188.29726570034472	pulse	1.0	t		place	house-101.jpg	0.0	211.5457880411377	
55.0	188.99724164244617	pulse	1.0	t		place	house-101.jpg	0.0	212.24576398323916	
55.0	189.6972414311458	pulse	1.0	t		place	house-101.jpg	0.0	212.9457637719388	
56.0	190.0221118369409	number	0.0		46	character	number-18.jpg	0.0	213.27063417773388	0.38327163905341877
56.0	190.39716152993788	pulse	0.0	t		character	number-18.jpg	0.0	213.64568387073086	
56.0	190.4053834759943	ISI	1.0		353	character	number-18.jpg	0.0	213.6539058167873	3.01663406121952
56.0	191.0972135396769	pulse	1.0	t		character	number-18.jpg	0.0	214.34573588046987	
56.0	191.79712850692158	pulse	1.0	t		character	number-18.jpg	0.0	215.04565084771457	
56.0	192.4971122972711	pulse	1.0	t		character	number-18.jpg	0.0	215.74563463806408	
56.0	193.19709578576294	pulse	1.0	t		character	number-18.jpg	0.0	216.44561812655593	
57.0	193.42201753721383	limb	0.0		46	body	limb-69.jpg	0.0	216.67053987800682	0.3833051450383209
57.0	193.80532268225215	ISI	1.0		232	body	limb-69.jpg	0.0	217.05384502304514	2.0166518707046635
57.0	193.89710070600995	pulse	1.0	t		body	limb-69.jpg	0.0	217.14562304680294	
57.0	194.59708117594346	pulse	1.0	t		body	limb-69.jpg	0.0	217.84560351673645	
57.0	195.29707311639868	pulse	1.0	t		body	limb-69.jpg	0.0	218.54559545719167	
58.0	195.82197455295682	house	0.0		46	place	house-115.jpg	0.0	219.0704968937498	0.3833160118483647
58.0	195.99705207705483	pulse	0.0	t		place	house-115.jpg	0.0	219.24557441784782	
58.0	196.20529056480518	ISI	1.0		473	place	house-115.jpg	0.0	219.45381290559817	4.024952902960649
58.0	196.69710952019523	pulse	1.0	t		place	house-115.jpg	0.0	219.94563186098821	
58.0	197.3970893864207	pulse	1.0	t		place	house-115.jpg	0.0	220.6456117272137	
58.0	198.09708102501827	pulse	1.0	t		place	house-115.jpg	0.0	221.34560336581126	
58.0	198.7970717580465	pulse	1.0	t		place	house-115.jpg	0.0	222.0455940988395	
58.0	199.49705705767337	pulse	1.0	t		place	house-115.jpg	0.0	222.74557939846636	
58.0	200.19703813131855	pulse	1.0	t		place	house-115.jpg	0.0	223.44556047211154	
59.0	200.23024346776583	house	0.0		45	place	house-80.jpg	0.0	223.47876580855882	0.37497332350176293
59.0	200.6052167912676	ISI	1.0		355	place	house-80.jpg	0.0	223.85373913206058	3.0166250055444834
59.0	200.89703309032848	pulse	1.0	t		place	house-80.jpg	0.0	224.14555543112147	
59.0	201.59702020109034	pulse	1.0	t		place	house-80.jpg	0.0	224.84554254188333	
59.0	202.29701123597624	pulse	1.0	t		place	house-80.jpg	0.0	225.54553357676923	
59.0	202.99698929106307	pulse	1.0	t		place	house-80.jpg	0.0	226.24551163185606	
60.0	203.62184179681208	car	0.0		46	object	car-121.jpg	0.0	226.87036413760507	0.3832819021517935
60.0	203.69694048099336	pulse	0.0	t		object	car-121.jpg	0.0	226.94546282178635	
60.0	204.00512369896387	ISI	1.0		235	object	car-121.jpg	0.0	227.25364603975686	2.016650059569656
60.0	204.39690465071908	pulse	1.0	t		object	car-121.jpg	0.0	227.64542699151207	
60.0	205.0968842150869	pulse	1.0	t		object	car-121.jpg	0.0	228.3454065558799	
60.0	205.79687434440712	pulse	1.0	t		object	car-121.jpg	0.0	229.0453966852001	
61.0	206.02177375853353	adult	0.0		46	face	adult-28.jpg	0.0	229.27029609932652	0.38331208772433456
61.0	206.40508584625786	ISI	1.0		235	face	adult-28.jpg	0.0	229.65360818705085	2.0166470410113106
61.0	206.4968662848587	pulse	1.0	t		face	adult-28.jpg	0.0	229.74538862565169	
61.0	207.1968576215986	pulse	1.0	t		face	adult-28.jpg	0.0	230.4453799623916	
61.0	207.89684111009046	pulse	1.0	t		face	adult-28.jpg	0.0	231.14536345088345	
62.0	208.42173288726917	adult	0.0		46	face	adult-74.jpg	0.0	231.67025522806216	0.3833051450419589
62.0	208.59680980765552	pulse	0.0	t		face	adult-74.jpg	0.0	231.8453321484485	
62.0	208.80503803231113	ISI	1.0		592	face	adult-74.jpg	0.0	232.05356037310412	5.016649757715641
62.0	209.29683012254463	pulse	1.0	t		face	adult-74.jpg	0.0	232.54535246333762	
62.0	209.99687247290058	pulse	1.0	t		face	adult-74.jpg	0.0	233.24539481369357	
62.0	210.69685294283772	pulse	1.0	t		face	adult-74.jpg	0.0	233.9453752836307	
62.0	211.39684759999	pulse	1.0	t		face	adult-74.jpg	0.0	234.64536994078298	
62.0	212.09695937716242	pulse	1.0	t		face	adult-74.jpg	0.0	235.3454817179554	
62.0	212.79681397326203	pulse	1.0	t		face	adult-74.jpg	0.0	236.04533631405502	
62.0	213.4968092341296	pulse	1.0	t		face	adult-74.jpg	0.0	236.7453315749226	
63.0	213.82168779002677	number	0.0		46	character	number-81.jpg	0.0	237.07021013081976	0.3832873355531774
63.0	214.19676374447226	pulse	0.0	t		character	number-81.jpg	0.0	237.44528608526525	
63.0	214.20497512557995	ISI	1.0		475	character	number-81.jpg	0.0	237.45349746637294	4.016632551938528
63.0	214.8967843612154	pulse	1.0	t		character	number-81.jpg	0.0	238.14530670200838	
63.0	215.59677237754659	pulse	1.0	t		character	number-81.jpg	0.0	238.84529471833957	
63.0	216.29676039387414	pulse	1.0	t		character	number-81.jpg	0.0	239.54528273466713	
63.0	216.99674418422	pulse	1.0	t		character	number-81.jpg	0.0	240.245266525013	
63.0	217.69673853951826	pulse	1.0	t		character	number-81.jpg	0.0	240.94526088031125	
64.0	218.22160767751848	car	0.0		46	object	car-10.jpg	0.0	241.47013001831147	0.3832592629696592
64.0	218.39664807336158	pulse	0.0	t		object	car-10.jpg	0.0	241.64517041415456	
64.0	218.60486694048814	ISI	1.0		475	object	car-10.jpg	0.0	241.85338928128112	4.016621081424091
64.0	219.09664484350287	pulse	1.0	t		object	car-10.jpg	0.0	242.34516718429586	
64.0	219.7966325579764	pulse	1.0	t		object	car-10.jpg	0.0	243.0451548987694	
64.0	220.4966217817273	pulse	1.0	t		object	car-10.jpg	0.0	243.7451441225203	
64.0	221.1965928941354	pulse	1.0	t		object	car-10.jpg	0.0	244.44511523492838	
64.0	221.8965914754117	pulse	1.0	t		object	car-10.jpg	0.0	245.14511381620468	
64.0	222.59658975483399	pulse	1.0	t		object	car-10.jpg	0.0	245.84511209562697	
65.0	222.62148802191223	car	0.0		46	object	car-60.jpg	0.0	245.87001036270522	0.3833114840090275
65.0	223.00479950592126	ISI	1.0		239	object	car-60.jpg	0.0	246.25332184671424	2.0000265633025265
65.0	223.29656569693543	pulse	1.0	t		object	car-60.jpg	0.0	246.54508803772842	
65.0	223.996554015117	pulse	1.0	t		object	car-60.jpg	0.0	247.24507635591	
65.0	224.69659636547658	pulse	1.0	t		object	car-60.jpg	0.0	247.94511870626957	
66.0	225.00482606922378	baseline	0.0		708		baseline	0.0	248.25334841001677	5.89988653243563
66.0	225.39660007830025	pulse	0.0	t			baseline	0.0	248.64512241909324	
66.0	226.096571492566	pulse	0.0	t			baseline	0.0	249.345093833359	
66.0	226.79656886641897	pulse	0.0	t			baseline	0.0	250.04509120721195	
66.0	227.4965520530568	pulse	0.0	t			baseline	0.0	250.7450743938498	
66.0	228.19661885372625	pulse	0.0	t			baseline	0.0	251.44514119451924	
66.0	228.8965335191133	pulse	0.0	t			baseline	0.0	252.14505585990628	
66.0	229.5965118760614	pulse	0.0	t			baseline	0.0	252.8450342168544	
66.0	230.29650924991438	pulse	0.0	t			baseline	0.0	253.54503159070737	
66.0	230.9047126016594	ISI	1.0		12		baseline	0.0	254.1532349424524	0.10000329023023369
66.0	230.9965241314021	pulse	1.0	t			baseline	0.0	254.2450464721951	
