trial_nr	onset	event_type	phase	response	nr_frames	face_age	face_sex	face_eth	attractiveness	expression	face_id	sub_id	ses	run	trial_type	catch	rating_type	onset_abs	duration
-1.0	0.06055769051454263	fix	0.0		713													23.74780075469971	5.95792040728702
-1.0	0.7020182978922094	pulse	0.0	t														24.389261362077377	
-1.0	1.4020217088618665	pulse	0.0	t														25.089264773047034	
-1.0	2.1019916138466215	pulse	0.0	t														25.78923467803179	
-1.0	2.8019877802798874	pulse	0.0	t														26.489230844465055	
-1.0	3.5019797207314696	pulse	0.0	t														27.189222784916637	
-1.0	4.20196502035833	pulse	0.0	t														27.889208084543498	
-1.0	4.901944584726152	pulse	0.0	t														28.58918764891132	
-1.0	5.601937430743419	pulse	0.0	t														29.289180494928587	
0.0	6.018478097801562	face	0.0		144	28.0	male	white	3.9076800636689217	smiling	033	sub-10	2.0	3.0	033_smiling	1.0	attractiveness	29.70572116198673	1.2333060958881106
0.0	6.3019191081039025	pulse	0.0	t		28.0	male	white	3.9076800636689217	smiling	033	sub-10	2.0	3.0	033_smiling	1.0	attractiveness	29.98916217228907	
0.0	7.00192765061729	pulse	0.0	t		28.0	male	white	3.9076800636689217	smiling	033	sub-10	2.0	3.0	033_smiling	1.0	attractiveness	30.689170714802458	
0.0	7.251784193689673	fix	1.0		177	28.0	male	white	3.9076800636689217	smiling	033	sub-10	2.0	3.0	033_smiling	1.0	attractiveness	30.93902725787484	1.5083434429834597
0.0	7.701903592718736	pulse	1.0	t		28.0	male	white	3.9076800636689217	smiling	033	sub-10	2.0	3.0	033_smiling	1.0	attractiveness	31.389146656903904	
0.0	8.40187470512683	pulse	1.0	t		28.0	male	white	3.9076800636689217	smiling	033	sub-10	2.0	3.0	033_smiling	1.0	attractiveness	32.089117769312	
0.0	8.760127636673133	rating	2.0		293	28.0	male	white	3.9076800636689217	smiling	033	sub-10	2.0	3.0	033_smiling	1.0	attractiveness	32.4473707008583	2.4915979970064654
0.0	9.101866645578411	pulse	2.0	t		28.0	male	white	3.9076800636689217	smiling	033	sub-10	2.0	3.0	033_smiling	1.0	attractiveness	32.78910970976358	
0.0	9.763300743983564	response	2.0	y		28.0	male	white	3.9076800636689217	smiling	033	sub-10	2.0	3.0	033_smiling	1.0	attractiveness	33.45054380816873	
0.0	9.801836550563166	pulse	2.0	t		28.0	male	white	3.9076800636689217	smiling	033	sub-10	2.0	3.0	033_smiling	1.0	attractiveness	33.489079614748334	
0.0	10.501845696791861	pulse	2.0	t		28.0	male	white	3.9076800636689217	smiling	033	sub-10	2.0	3.0	033_smiling	1.0	attractiveness	34.18908876097703	
0.0	11.201836429820105	pulse	2.0	t		28.0	male	white	3.9076800636689217	smiling	033	sub-10	2.0	3.0	033_smiling	1.0	attractiveness	34.88907949400527	
0.0	11.251725633679598	fix	3.0		444	28.0	male	white	3.9076800636689217	smiling	033	sub-10	2.0	3.0	033_smiling	1.0	attractiveness	34.938968697864766	3.7582573386389413
0.0	11.901819918311958	pulse	3.0	t		28.0	male	white	3.9076800636689217	smiling	033	sub-10	2.0	3.0	033_smiling	1.0	attractiveness	35.589062982497126	
0.0	12.60181004763217	pulse	3.0	t		28.0	male	white	3.9076800636689217	smiling	033	sub-10	2.0	3.0	033_smiling	1.0	attractiveness	36.28905311181734	
0.0	13.301801384372084	pulse	3.0	t		28.0	male	white	3.9076800636689217	smiling	033	sub-10	2.0	3.0	033_smiling	1.0	attractiveness	36.98904444855725	
0.0	14.001789400699636	pulse	3.0	t		28.0	male	white	3.9076800636689217	smiling	033	sub-10	2.0	3.0	033_smiling	1.0	attractiveness	37.689032464884804	
0.0	14.701771078056481	pulse	3.0	t		28.0	male	white	3.9076800636689217	smiling	033	sub-10	2.0	3.0	033_smiling	1.0	attractiveness	38.38901414224165	
1.0	15.00998297231854	face	0.0		146	27.0	female	white	4.181058495821727	neutral	039	sub-10	2.0	3.0	039_neutral	0.0		38.69722603650371	1.2416548213477654
1.0	15.401762716654048	pulse	0.0	t		27.0	female	white	4.181058495821727	neutral	039	sub-10	2.0	3.0	039_neutral	0.0		39.089005780839216	
1.0	16.10174560143423	pulse	0.0	t		27.0	female	white	4.181058495821727	neutral	039	sub-10	2.0	3.0	039_neutral	0.0		39.7889886656194	
1.0	16.251637793666305	fix	1.0		445	27.0	female	white	4.181058495821727	neutral	039	sub-10	2.0	3.0	039_neutral	0.0		39.93888085785147	3.758250697814219
1.0	16.801730297349422	pulse	1.0	t		27.0	female	white	4.181058495821727	neutral	039	sub-10	2.0	3.0	039_neutral	0.0		40.48897336153459	
1.0	17.50172525635935	pulse	1.0	t		27.0	female	white	4.181058495821727	neutral	039	sub-10	2.0	3.0	039_neutral	0.0		41.18896832054452	
1.0	18.20169938732579	pulse	1.0	t		27.0	female	white	4.181058495821727	neutral	039	sub-10	2.0	3.0	039_neutral	0.0		41.88894245151096	
1.0	18.9016997797371	pulse	1.0	t		27.0	female	white	4.181058495821727	neutral	039	sub-10	2.0	3.0	039_neutral	0.0		42.58894284392227	
1.0	19.601674212557555	pulse	1.0	t		27.0	female	white	4.181058495821727	neutral	039	sub-10	2.0	3.0	039_neutral	0.0		43.28891727674272	
2.0	20.009888491480524	face	0.0		146	28.0	female	white	5.676880222841227	neutral	124	sub-10	2.0	3.0	124_neutral	0.0		43.69713155566569	1.2416614621724875
2.0	20.30166313445443	pulse	0.0	t		28.0	female	white	5.676880222841227	neutral	124	sub-10	2.0	3.0	124_neutral	0.0		43.9889061986396	
2.0	21.001662319442403	pulse	0.0	t		28.0	female	white	5.676880222841227	neutral	124	sub-10	2.0	3.0	124_neutral	0.0		44.68890538362757	
2.0	21.25154995365301	fix	1.0		444	28.0	female	white	5.676880222841227	neutral	124	sub-10	2.0	3.0	124_neutral	0.0		44.93879301783818	3.758249490390881
2.0	21.701900876018044	pulse	1.0	t		28.0	female	white	5.676880222841227	neutral	124	sub-10	2.0	3.0	124_neutral	0.0		45.38914394020321	
2.0	22.401637748385838	pulse	1.0	t		28.0	female	white	5.676880222841227	neutral	124	sub-10	2.0	3.0	124_neutral	0.0		46.088880812571006	
2.0	23.101617010899645	pulse	1.0	t		28.0	female	white	5.676880222841227	neutral	124	sub-10	2.0	3.0	124_neutral	0.0		46.78886007508481	
2.0	23.80161951629998	pulse	1.0	t		28.0	female	white	5.676880222841227	neutral	124	sub-10	2.0	3.0	124_neutral	0.0		47.48886258048515	
2.0	24.50159696767878	pulse	1.0	t		28.0	female	white	5.676880222841227	neutral	124	sub-10	2.0	3.0	124_neutral	0.0		48.18884003186395	
3.0	25.009799444043892	face	0.0		146	20.0	male	black	3.1070433744528456	neutral	082	sub-10	2.0	3.0	082_neutral	0.0		48.69704250822906	1.2416602547491493
3.0	25.201576833904255	pulse	0.0	t		20.0	male	black	3.1070433744528456	neutral	082	sub-10	2.0	3.0	082_neutral	0.0		48.88881989808942	
3.0	25.90157028363319	pulse	0.0	t		20.0	male	black	3.1070433744528456	neutral	082	sub-10	2.0	3.0	082_neutral	0.0		49.58881334781836	
3.0	26.25145969879304	fix	1.0		444	20.0	male	black	3.1070433744528456	neutral	082	sub-10	2.0	3.0	082_neutral	0.0		49.93870276297821	3.758250697814219
3.0	26.601560412953404	pulse	1.0	t		20.0	male	black	3.1070433744528456	neutral	082	sub-10	2.0	3.0	082_neutral	0.0		50.28880347713857	
3.0	27.301543297733588	pulse	1.0	t		20.0	male	black	3.1070433744528456	neutral	082	sub-10	2.0	3.0	082_neutral	0.0		50.988786361918756	
3.0	28.001532219626824	pulse	1.0	t		20.0	male	black	3.1070433744528456	neutral	082	sub-10	2.0	3.0	082_neutral	0.0		51.68877528381199	
3.0	28.701509671005624	pulse	1.0	t		20.0	male	black	3.1070433744528456	neutral	082	sub-10	2.0	3.0	082_neutral	0.0		52.38875273519079	
3.0	29.40149678176749	pulse	1.0	t		20.0	male	black	3.1070433744528456	neutral	082	sub-10	2.0	3.0	082_neutral	0.0		53.08873984595266	
4.0	30.00971039660726	face	0.0		146	37.0	male	white	3.898925586947871	smiling	101	sub-10	2.0	3.0	101_smiling	0.0		53.69695346079243	1.2416623677381722
4.0	30.10150351314951	pulse	0.0	t		37.0	male	white	3.898925586947871	smiling	101	sub-10	2.0	3.0	101_smiling	0.0		53.78874657733468	
4.0	30.80148217194801	pulse	0.0	t		37.0	male	white	3.898925586947871	smiling	101	sub-10	2.0	3.0	101_smiling	0.0		54.48872523613318	
4.0	31.251372764345433	fix	1.0		444	37.0	male	white	3.898925586947871	smiling	101	sub-10	2.0	3.0	101_smiling	0.0		54.9386158285306	3.766580708219408
4.0	31.50147411240323	pulse	1.0	t		37.0	male	white	3.898925586947871	smiling	101	sub-10	2.0	3.0	101_smiling	0.0		55.1887171765884	
4.0	32.20146393986579	pulse	1.0	t		37.0	male	white	3.898925586947871	smiling	101	sub-10	2.0	3.0	101_smiling	0.0		55.88870700405096	
4.0	32.90143807082859	pulse	1.0	t		37.0	male	white	3.898925586947871	smiling	101	sub-10	2.0	3.0	101_smiling	0.0		56.58868113501376	
4.0	33.60142095560877	pulse	1.0	t		37.0	male	white	3.898925586947871	smiling	101	sub-10	2.0	3.0	101_smiling	0.0		57.28866401979394	
4.0	34.301411084928986	pulse	1.0	t		37.0	male	white	3.898925586947871	smiling	101	sub-10	2.0	3.0	101_smiling	0.0		57.988654149114154	
5.0	35.01795347256484	face	0.0		146	23.0	male	white	2.6275368085953046	smiling	141	sub-10	2.0	3.0	141_smiling	0.0		58.70519653675001	1.2333245090849232
5.0	35.00420937799572	pulse	0.0	t		23.0	male	white	2.6275368085953046	smiling	141	sub-10	2.0	3.0	141_smiling	0.0		58.69145244218089	
5.0	35.70139677696716	pulse	0.0	t		23.0	male	white	2.6275368085953046	smiling	141	sub-10	2.0	3.0	141_smiling	0.0		59.388639841152326	
5.0	36.251277981649764	fix	1.0		444	23.0	male	white	2.6275368085953046	smiling	141	sub-10	2.0	3.0	141_smiling	0.0		59.93852104583493	3.7665876509017835
5.0	36.40137694504665	pulse	1.0	t		23.0	male	white	2.6275368085953046	smiling	141	sub-10	2.0	3.0	141_smiling	0.0		60.08862000923182	
5.0	37.101338398071675	pulse	1.0	t		23.0	male	white	2.6275368085953046	smiling	141	sub-10	2.0	3.0	141_smiling	0.0		60.78858146225684	
5.0	37.801364750073844	pulse	1.0	t		23.0	male	white	2.6275368085953046	smiling	141	sub-10	2.0	3.0	141_smiling	0.0		61.48860781425901	
5.0	38.501337069905276	pulse	1.0	t		23.0	male	white	2.6275368085953046	smiling	141	sub-10	2.0	3.0	141_smiling	0.0		62.188580134090444	
5.0	39.20132387880949	pulse	1.0	t		23.0	male	white	2.6275368085953046	smiling	141	sub-10	2.0	3.0	141_smiling	0.0		62.88856694299466	
5.0	39.90130857472468	pulse	1.0	t		23.0	male	white	2.6275368085953046	smiling	141	sub-10	2.0	3.0	141_smiling	0.0		63.58855163890985	
6.0	40.01786563255155	face	0.0		146	22.0	female	west_asian	3.8205332272184642	smiling	066	sub-10	2.0	3.0	066_smiling	0.0		63.705108696736716	1.2333121329975256
6.0	40.60130745785864	pulse	0.0	t		22.0	female	west_asian	3.8205332272184642	smiling	066	sub-10	2.0	3.0	066_smiling	0.0		64.2885505220438	
6.0	41.25117776554907	fix	1.0		444	22.0	female	west_asian	3.8205332272184642	smiling	066	sub-10	2.0	3.0	066_smiling	0.0		64.93842082973424	3.7582633757556323
6.0	41.30128189067909	pulse	1.0	t		22.0	female	west_asian	3.8205332272184642	smiling	066	sub-10	2.0	3.0	066_smiling	0.0		64.98852495486426	
6.0	42.00127775525834	pulse	1.0	t		22.0	female	west_asian	3.8205332272184642	smiling	066	sub-10	2.0	3.0	066_smiling	0.0		65.68852081944351	
6.0	42.70127633653465	pulse	1.0	t		22.0	female	west_asian	3.8205332272184642	smiling	066	sub-10	2.0	3.0	066_smiling	0.0		66.38851940071982	
6.0	43.40126525843152	pulse	1.0	t		22.0	female	west_asian	3.8205332272184642	smiling	066	sub-10	2.0	3.0	066_smiling	0.0		67.08850832261669	
6.0	44.10123546527029	pulse	1.0	t		22.0	female	west_asian	3.8205332272184642	smiling	066	sub-10	2.0	3.0	066_smiling	0.0		67.78847852945546	
6.0	44.80123374469258	pulse	1.0	t		22.0	female	west_asian	3.8205332272184642	smiling	066	sub-10	2.0	3.0	066_smiling	0.0		68.48847680887775	
7.0	45.009441141304706	face	0.0		146	26.0	male	white	2.7966573816155993	neutral	117	sub-10	2.0	3.0	117_neutral	0.0		68.69668420548987	1.2416608584608184
7.0	45.50122296844347	pulse	0.0	t		26.0	male	white	2.7966573816155993	neutral	117	sub-10	2.0	3.0	117_neutral	0.0		69.18846603262864	
7.0	46.20120555136964	pulse	0.0	t		26.0	male	white	2.7966573816155993	neutral	117	sub-10	2.0	3.0	117_neutral	0.0		69.88844861555481	
7.0	46.251101999765524	fix	1.0		445	26.0	male	white	2.7966573816155993	neutral	117	sub-10	2.0	3.0	117_neutral	0.0		69.93834506395069	3.766584028631769
7.0	46.90119658625554	pulse	1.0	t		26.0	male	white	2.7966573816155993	neutral	117	sub-10	2.0	3.0	117_neutral	0.0		70.5884396504407	
7.0	47.60117464134237	pulse	1.0	t		26.0	male	white	2.7966573816155993	neutral	117	sub-10	2.0	3.0	117_neutral	0.0		71.28841770552754	
7.0	48.301173524476326	pulse	1.0	t		26.0	male	white	2.7966573816155993	neutral	117	sub-10	2.0	3.0	117_neutral	0.0		71.9884165886615	
7.0	49.00114976843179	pulse	1.0	t		26.0	male	white	2.7966573816155993	neutral	117	sub-10	2.0	3.0	117_neutral	0.0		72.68839283261696	
7.0	49.701132955069625	pulse	1.0	t		26.0	male	white	2.7966573816155993	neutral	117	sub-10	2.0	3.0	117_neutral	0.0		73.38837601925479	
8.0	50.01768602839729	face	0.0		145	19.0	female	white	4.298846000795861	smiling	100	sub-10	2.0	3.0	100_smiling	0.0		73.70492909258246	1.2333254146542458
8.0	50.40113606418163	pulse	0.0	t		19.0	female	white	4.298846000795861	smiling	100	sub-10	2.0	3.0	100_smiling	0.0		74.0883791283668	
8.0	51.101120458242804	pulse	0.0	t		19.0	female	white	4.298846000795861	smiling	100	sub-10	2.0	3.0	100_smiling	0.0		74.78836352242797	
8.0	51.25101144305154	fix	1.0		445	19.0	female	white	4.298846000795861	smiling	100	sub-10	2.0	3.0	100_smiling	0.0		74.9382545072367	3.766590065744822
8.0	51.80109549477493	pulse	1.0	t		19.0	female	white	4.298846000795861	smiling	100	sub-10	2.0	3.0	100_smiling	0.0		75.4883385589601	
8.0	52.50109588718624	pulse	1.0	t		19.0	female	white	4.298846000795861	smiling	100	sub-10	2.0	3.0	100_smiling	0.0		76.1883389513714	
8.0	53.2010857146488	pulse	1.0	t		19.0	female	white	4.298846000795861	smiling	100	sub-10	2.0	3.0	100_smiling	0.0		76.88832877883397	
8.0	53.90106859942898	pulse	1.0	t		19.0	female	white	4.298846000795861	smiling	100	sub-10	2.0	3.0	100_smiling	0.0		77.58831166361415	
8.0	54.60104725823112	pulse	1.0	t		19.0	female	white	4.298846000795861	smiling	100	sub-10	2.0	3.0	100_smiling	0.0		78.28829032241629	
9.0	55.01760150879636	face	0.0		145	31.0	female	east_asian	3.395941106247513	smiling	087	sub-10	2.0	3.0	087_smiling	0.0		78.70484457298153	1.233317868260201
9.0	55.30105217847813	pulse	0.0	t		31.0	female	east_asian	3.395941106247513	smiling	087	sub-10	2.0	3.0	087_smiling	0.0		78.9882952426633	
9.0	56.00103959109401	pulse	0.0	t		31.0	female	east_asian	3.395941106247513	smiling	087	sub-10	2.0	3.0	087_smiling	0.0		79.68828265527918	
9.0	56.25091937705656	fix	1.0		444	31.0	female	east_asian	3.395941106247513	smiling	087	sub-10	2.0	3.0	087_smiling	0.0		79.93816244124173	3.7665888583251217
9.0	56.70100949607877	pulse	1.0	t		31.0	female	east_asian	3.395941106247513	smiling	087	sub-10	2.0	3.0	087_smiling	0.0		80.38825256026394	
9.0	57.40100868107038	pulse	1.0	t		31.0	female	east_asian	3.395941106247513	smiling	087	sub-10	2.0	3.0	087_smiling	0.0		81.08825174525555	
9.0	58.10097586935444	pulse	1.0	t		31.0	female	east_asian	3.395941106247513	smiling	087	sub-10	2.0	3.0	087_smiling	0.0		81.78821893353961	
9.0	58.80099708980924	pulse	1.0	t		31.0	female	east_asian	3.395941106247513	smiling	087	sub-10	2.0	3.0	087_smiling	0.0		82.48824015399441	
9.0	59.500957637268584	pulse	1.0	t		31.0	female	east_asian	3.395941106247513	smiling	087	sub-10	2.0	3.0	087_smiling	0.0		83.18820070145375	
10.0	60.01750823538168	face	0.0		145	24.0	female	black	3.0955033824114606	smiling	099	sub-10	2.0	3.0	099_smiling	0.0		83.70475129956685	1.2333272257856152
10.0	60.20095169070919	pulse	0.0	t		24.0	female	black	3.0955033824114606	smiling	099	sub-10	2.0	3.0	099_smiling	0.0		83.88819475489436	
10.0	60.90094242374107	pulse	0.0	t		24.0	female	black	3.0955033824114606	smiling	099	sub-10	2.0	3.0	099_smiling	0.0		84.58818548792624	
10.0	61.2508354611673	fix	1.0		444	24.0	female	black	3.0955033824114606	smiling	099	sub-10	2.0	3.0	099_smiling	0.0		84.93807852535247	3.7665804063617543
10.0	61.600938288316684	pulse	1.0	t		24.0	female	black	3.0955033824114606	smiling	099	sub-10	2.0	3.0	099_smiling	0.0		85.28818135250185	
10.0	62.30091755082685	pulse	1.0	t		24.0	female	black	3.0955033824114606	smiling	099	sub-10	2.0	3.0	099_smiling	0.0		85.98816061501202	
10.0	63.00090073746469	pulse	1.0	t		24.0	female	black	3.0955033824114606	smiling	099	sub-10	2.0	3.0	099_smiling	0.0		86.68814380164986	
10.0	63.700879094409174	pulse	1.0	t		24.0	female	black	3.0955033824114606	smiling	099	sub-10	2.0	3.0	099_smiling	0.0		87.38812215859434	
10.0	64.40086650702506	pulse	1.0	t		24.0	female	black	3.0955033824114606	smiling	099	sub-10	2.0	3.0	099_smiling	0.0		88.08810957121023	
11.0	65.01741586752905	face	0.0		145	54.0	female	white	2.286908077994429	smiling	136	sub-10	2.0	3.0	136_smiling	0.0		88.70465893171422	1.2333251127965923
11.0	65.10086267345832	pulse	0.0	t		54.0	female	white	2.286908077994429	smiling	136	sub-10	2.0	3.0	136_smiling	0.0		88.78810573764349	
11.0	65.80084495452684	pulse	0.0	t		54.0	female	white	2.286908077994429	smiling	136	sub-10	2.0	3.0	136_smiling	0.0		89.488088018712	
11.0	66.25074098032565	fix	1.0		444	54.0	female	white	2.286908077994429	smiling	136	sub-10	2.0	3.0	136_smiling	0.0		89.93798404451081	3.766582519354415
11.0	66.50084776178483	pulse	1.0	t		54.0	female	white	2.286908077994429	smiling	136	sub-10	2.0	3.0	136_smiling	0.0		90.18809082597	
11.0	67.20084513564143	pulse	1.0	t		54.0	female	white	2.286908077994429	smiling	136	sub-10	2.0	3.0	136_smiling	0.0		90.8880881998266	
11.0	67.90081624804952	pulse	1.0	t		54.0	female	white	2.286908077994429	smiling	136	sub-10	2.0	3.0	136_smiling	0.0		91.58805931223469	
11.0	68.6008096977821	pulse	1.0	t		54.0	female	white	2.286908077994429	smiling	136	sub-10	2.0	3.0	136_smiling	0.0		92.28805276196726	
11.0	69.300797412252	pulse	1.0	t		54.0	female	white	2.286908077994429	smiling	136	sub-10	2.0	3.0	136_smiling	0.0		92.98804047643716	
12.0	70.01732349968006	face	0.0		146	27.0	male	black	3.5523278949462798	smiling	042	sub-10	2.0	3.0	042_smiling	0.0		93.70456656386523	1.233328735066607
12.0	70.00372308843362	pulse	0.0	t		27.0	male	black	3.5523278949462798	smiling	042	sub-10	2.0	3.0	042_smiling	0.0		93.69096615261878	
12.0	70.70077495418809	pulse	0.0	t		27.0	male	black	3.5523278949462798	smiling	042	sub-10	2.0	3.0	042_smiling	0.0		94.38801801837326	
12.0	71.25065223474667	fix	1.0		443	27.0	male	black	3.5523278949462798	smiling	042	sub-10	2.0	3.0	042_smiling	0.0		94.93789529893183	3.7665843304857844
12.0	71.40075965010328	pulse	1.0	t		27.0	male	black	3.5523278949462798	smiling	042	sub-10	2.0	3.0	042_smiling	0.0		95.08800271428845	
12.0	72.1007464590075	pulse	1.0	t		27.0	male	black	3.5523278949462798	smiling	042	sub-10	2.0	3.0	042_smiling	0.0		95.78798952319266	
12.0	72.80081054297625	pulse	1.0	t		27.0	male	black	3.5523278949462798	smiling	042	sub-10	2.0	3.0	042_smiling	0.0		96.48805360716142	
12.0	73.50071464341454	pulse	1.0	t		27.0	male	black	3.5523278949462798	smiling	042	sub-10	2.0	3.0	042_smiling	0.0		97.18795770759971	
12.0	74.20070477273111	pulse	1.0	t		27.0	male	black	3.5523278949462798	smiling	042	sub-10	2.0	3.0	042_smiling	0.0		97.88794783691628	
12.0	74.90068403524492	pulse	1.0	t		27.0	male	black	3.5523278949462798	smiling	042	sub-10	2.0	3.0	042_smiling	0.0		98.58792709943009	
13.0	75.01723656523245	face	0.0		146	28.0	male	white	3.9076800636689217	neutral	033	sub-10	2.0	3.0	033_neutral	0.0		98.70447962941762	1.23331454784784
13.0	75.60068744621458	pulse	0.0	t		28.0	male	white	3.9076800636689217	neutral	033	sub-10	2.0	3.0	033_neutral	0.0		99.28793051039975	
13.0	76.25055111308029	fix	1.0		443	28.0	male	white	3.9076800636689217	neutral	033	sub-10	2.0	3.0	033_neutral	0.0		99.93779417726546	3.766599423273874
13.0	76.3010120316685	pulse	1.0	t		28.0	male	white	3.9076800636689217	neutral	033	sub-10	2.0	3.0	033_neutral	0.0		99.98825509585367	
13.0	77.00064597123855	pulse	1.0	t		28.0	male	white	3.9076800636689217	neutral	033	sub-10	2.0	3.0	033_neutral	0.0		100.68788903542372	
13.0	77.70064726921919	pulse	1.0	t		28.0	male	white	3.9076800636689217	neutral	033	sub-10	2.0	3.0	033_neutral	0.0		101.38789033340436	
13.0	78.40063287070006	pulse	1.0	t		28.0	male	white	3.9076800636689217	neutral	033	sub-10	2.0	3.0	033_neutral	0.0		102.08787593488523	
13.0	79.10061394434524	pulse	1.0	t		28.0	male	white	3.9076800636689217	neutral	033	sub-10	2.0	3.0	033_neutral	0.0		102.78785700853041	
13.0	79.80059350871306	pulse	1.0	t		28.0	male	white	3.9076800636689217	neutral	033	sub-10	2.0	3.0	033_neutral	0.0		103.48783657289823	
14.0	80.01715053635417	face	0.0		145	28.0	female	white	5.676880222841227	smiling	124	sub-10	2.0	3.0	124_smiling	0.0		103.70439360053933	1.2333169626908784
14.0	80.50059450483968	pulse	0.0	t		28.0	female	white	5.676880222841227	smiling	124	sub-10	2.0	3.0	124_smiling	0.0		104.18783756902485	
14.0	81.20057588034251	pulse	0.0	t		28.0	female	white	5.676880222841227	smiling	124	sub-10	2.0	3.0	124_smiling	0.0		104.88781894452768	
14.0	81.25046749904504	fix	1.0		445	28.0	female	white	5.676880222841227	smiling	124	sub-10	2.0	3.0	124_smiling	0.0		104.93771056323021	3.7582639794673014
14.0	81.90057114120646	pulse	1.0	t		28.0	female	white	5.676880222841227	smiling	124	sub-10	2.0	3.0	124_smiling	0.0		105.58781420539162	
14.0	82.60055402598664	pulse	1.0	t		28.0	female	white	5.676880222841227	smiling	124	sub-10	2.0	3.0	124_smiling	0.0		106.28779709017181	
14.0	83.3005683037627	pulse	1.0	t		28.0	female	white	5.676880222841227	smiling	124	sub-10	2.0	3.0	124_smiling	0.0		106.98781136794787	
14.0	84.00051919183534	pulse	1.0	t		28.0	female	white	5.676880222841227	smiling	124	sub-10	2.0	3.0	124_smiling	0.0		107.6877622560205	
14.0	84.7005168675496	pulse	1.0	t		28.0	female	white	5.676880222841227	smiling	124	sub-10	2.0	3.0	124_smiling	0.0		108.38775993173476	
15.0	85.00873147851235	face	0.0		146	26.0	male	white	2.7966573816155993	smiling	117	sub-10	2.0	3.0	117_smiling	0.0		108.69597454269751	1.2416379174246686
15.0	85.40050880800118	pulse	0.0	t		26.0	male	white	2.7966573816155993	smiling	117	sub-10	2.0	3.0	117_smiling	0.0		109.08775187218635	
15.0	86.1004820333983	pulse	0.0	t		26.0	male	white	2.7966573816155993	smiling	117	sub-10	2.0	3.0	117_smiling	0.0		109.78772509758346	
15.0	86.25036939593701	fix	1.0		445	26.0	male	white	2.7966573816155993	smiling	117	sub-10	2.0	3.0	117_smiling	0.0		109.93761246012218	3.7665991214198584
15.0	86.80048182209794	pulse	1.0	t		26.0	male	white	2.7966573816155993	smiling	117	sub-10	2.0	3.0	117_smiling	0.0		110.4877248862831	
15.0	87.50046410317009	pulse	1.0	t		26.0	male	white	2.7966573816155993	smiling	117	sub-10	2.0	3.0	117_smiling	0.0		111.18770716735526	
15.0	88.20045694918736	pulse	1.0	t		26.0	male	white	2.7966573816155993	smiling	117	sub-10	2.0	3.0	117_smiling	0.0		111.88770001337252	
15.0	88.90044013582519	pulse	1.0	t		26.0	male	white	2.7966573816155993	smiling	117	sub-10	2.0	3.0	117_smiling	0.0		112.58768320001036	
15.0	89.60043086885344	pulse	1.0	t		26.0	male	white	2.7966573816155993	smiling	117	sub-10	2.0	3.0	117_smiling	0.0		113.2876739330386	
16.0	90.01696851735687	face	0.0		145	24.0	female	black	3.0955033824114606	neutral	099	sub-10	2.0	3.0	099_neutral	0.0		113.70421158154204	1.2333245090812852
16.0	90.30040982950959	pulse	0.0	t		24.0	female	black	3.0955033824114606	neutral	099	sub-10	2.0	3.0	099_neutral	0.0		113.98765289369476	
16.0	91.00040237367284	pulse	0.0	t		24.0	female	black	3.0955033824114606	neutral	099	sub-10	2.0	3.0	099_neutral	0.0		114.68764543785801	
16.0	91.25029302643816	fix	1.0		444	24.0	female	black	3.0955033824114606	neutral	099	sub-10	2.0	3.0	099_neutral	0.0		114.93753609062333	3.7665855379127606
16.0	91.70036171370884	pulse	1.0	t		24.0	female	black	3.0955033824114606	neutral	099	sub-10	2.0	3.0	099_neutral	0.0		115.38760477789401	
16.0	92.4003850471563	pulse	1.0	t		24.0	female	black	3.0955033824114606	neutral	099	sub-10	2.0	3.0	099_neutral	0.0		116.08762811134147	
16.0	93.10035283915204	pulse	1.0	t		24.0	female	black	3.0955033824114606	neutral	099	sub-10	2.0	3.0	099_neutral	0.0		116.7875959033372	
16.0	93.80034840187	pulse	1.0	t		24.0	female	black	3.0955033824114606	neutral	099	sub-10	2.0	3.0	099_neutral	0.0		117.48759146605516	
16.0	94.5003412478909	pulse	1.0	t		24.0	female	black	3.0955033824114606	neutral	099	sub-10	2.0	3.0	099_neutral	0.0		118.18758431207607	
17.0	95.01687856435092	face	0.0		145	30.0	female	black	2.7345801830481498	neutral	062	sub-10	2.0	3.0	062_neutral	1.0	dominance	118.70412162853609	1.2333257165082614
17.0	95.20031930298137	pulse	0.0	t		30.0	female	black	2.7345801830481498	neutral	062	sub-10	2.0	3.0	062_neutral	1.0	dominance	118.88756236716654	
17.0	95.90030762116294	pulse	0.0	t		30.0	female	black	2.7345801830481498	neutral	062	sub-10	2.0	3.0	062_neutral	1.0	dominance	119.5875506853481	
17.0	96.25020428085918	fix	1.0		177	30.0	female	black	2.7345801830481498	neutral	062	sub-10	2.0	3.0	062_neutral	1.0	dominance	119.93744734504435	1.4999726820569776
17.0	96.60030680615455	pulse	1.0	t		30.0	female	black	2.7345801830481498	neutral	062	sub-10	2.0	3.0	062_neutral	1.0	dominance	120.28754987033972	
17.0	97.30029059650042	pulse	1.0	t		30.0	female	black	2.7345801830481498	neutral	062	sub-10	2.0	3.0	062_neutral	1.0	dominance	120.98753366068559	
17.0	97.75017696291616	rating	2.0		294	30.0	female	black	2.7345801830481498	neutral	062	sub-10	2.0	3.0	062_neutral	1.0	dominance	121.43742002710133	2.4999551744258497
17.0	98.00028827221104	pulse	2.0	t		30.0	female	black	2.7345801830481498	neutral	062	sub-10	2.0	3.0	062_neutral	1.0	dominance	121.6875313363962	
17.0	98.70027025142554	pulse	2.0	t		30.0	female	black	2.7345801830481498	neutral	062	sub-10	2.0	3.0	062_neutral	1.0	dominance	122.3875133156107	
17.0	99.40025826775309	pulse	2.0	t		30.0	female	black	2.7345801830481498	neutral	062	sub-10	2.0	3.0	062_neutral	1.0	dominance	123.08750133193826	
17.0	99.52833776206171	response	2.0	b		30.0	female	black	2.7345801830481498	neutral	062	sub-10	2.0	3.0	062_neutral	1.0	dominance	123.21558082624688	
17.0	100.10023813397856	pulse	2.0	t		30.0	female	black	2.7345801830481498	neutral	062	sub-10	2.0	3.0	062_neutral	1.0	dominance	123.78748119816373	
17.0	100.250132137342	fix	3.0		444	30.0	female	black	2.7345801830481498	neutral	062	sub-10	2.0	3.0	062_neutral	1.0	dominance	123.93737520152717	3.7665936880148365
17.0	100.8002315837075	pulse	3.0	t		30.0	female	black	2.7345801830481498	neutral	062	sub-10	2.0	3.0	062_neutral	1.0	dominance	124.48747464789267	
17.0	101.50021265735631	pulse	3.0	t		30.0	female	black	2.7345801830481498	neutral	062	sub-10	2.0	3.0	062_neutral	1.0	dominance	125.18745572154148	
17.0	102.20029243782119	pulse	3.0	t		30.0	female	black	2.7345801830481498	neutral	062	sub-10	2.0	3.0	062_neutral	1.0	dominance	125.88753550200636	
17.0	102.90019321784712	pulse	3.0	t		30.0	female	black	2.7345801830481498	neutral	062	sub-10	2.0	3.0	062_neutral	1.0	dominance	126.58743628203229	
17.0	103.60016282097422	pulse	3.0	t		30.0	female	black	2.7345801830481498	neutral	062	sub-10	2.0	3.0	062_neutral	1.0	dominance	127.28740588515939	
18.0	104.01672582535684	face	0.0		145	37.0	male	white	3.898925586947871	neutral	101	sub-10	2.0	3.0	101_neutral	0.0		127.70396888954201	1.233302473618096
18.0	104.30016834493654	pulse	0.0	t		37.0	male	white	3.898925586947871	neutral	101	sub-10	2.0	3.0	101_neutral	0.0		127.9874114091217	
18.0	105.00014157033365	pulse	0.0	t		37.0	male	white	3.898925586947871	neutral	101	sub-10	2.0	3.0	101_neutral	0.0		128.68738463451882	
18.0	105.25002829897494	fix	1.0		444	37.0	male	white	3.898925586947871	neutral	101	sub-10	2.0	3.0	101_neutral	0.0		128.9372713631601	3.7665970084271976
18.0	105.70014407573399	pulse	1.0	t		37.0	male	white	3.898925586947871	neutral	101	sub-10	2.0	3.0	101_neutral	0.0		129.38738713991916	
18.0	106.40012394195946	pulse	1.0	t		37.0	male	white	3.898925586947871	neutral	101	sub-10	2.0	3.0	101_neutral	0.0		130.08736700614463	
18.0	107.10008328199547	pulse	1.0	t		37.0	male	white	3.898925586947871	neutral	101	sub-10	2.0	3.0	101_neutral	0.0		130.78732634618063	
18.0	107.80010631358527	pulse	1.0	t		37.0	male	white	3.898925586947871	neutral	101	sub-10	2.0	3.0	101_neutral	0.0		131.48734937777044	
18.0	108.50008195382907	pulse	1.0	t		37.0	male	white	3.898925586947871	neutral	101	sub-10	2.0	3.0	101_neutral	0.0		132.18732501801423	
19.0	109.01662530740214	face	0.0		145	26.0	female	white	4.854755272582572	smiling	027	sub-10	2.0	3.0	027_smiling	0.0		132.7038683715873	1.2333254146542458
19.0	109.20006997015662	pulse	0.0	t		26.0	female	white	4.854755272582572	smiling	027	sub-10	2.0	3.0	027_smiling	0.0		132.8873130343418	
19.0	109.90007458854961	pulse	0.0	t		26.0	female	white	4.854755272582572	smiling	027	sub-10	2.0	3.0	027_smiling	0.0		133.58731765273478	
19.0	110.24995072205638	fix	1.0		444	26.0	female	white	4.854755272582572	smiling	027	sub-10	2.0	3.0	027_smiling	0.0		133.93719378624155	3.766589462033153
19.0	110.60005596405244	pulse	1.0	t		26.0	female	white	4.854755272582572	smiling	027	sub-10	2.0	3.0	027_smiling	0.0		134.2872990282376	
19.0	111.30004398038	pulse	1.0	t		26.0	female	white	4.854755272582572	smiling	027	sub-10	2.0	3.0	027_smiling	0.0		134.98728704456516	
19.0	112.00003773196659	pulse	1.0	t		26.0	female	white	4.854755272582572	smiling	027	sub-10	2.0	3.0	027_smiling	0.0		135.68728079615175	
19.0	112.70001608891107	pulse	1.0	t		26.0	female	white	4.854755272582572	smiling	027	sub-10	2.0	3.0	027_smiling	0.0		136.38725915309624	
19.0	113.39998931430819	pulse	1.0	t		26.0	female	white	4.854755272582572	smiling	027	sub-10	2.0	3.0	027_smiling	0.0		137.08723237849335	
20.0	114.01654018408954	face	0.0		145	28.0	male	east_asian	1.5563072025467568	neutral	005	sub-10	2.0	3.0	005_neutral	0.0		137.7037832482747	1.2333223960959003
20.0	114.10001627002566	pulse	0.0	t		28.0	male	east_asian	1.5563072025467568	neutral	005	sub-10	2.0	3.0	005_neutral	0.0		137.78725933421083	
20.0	114.79997651562735	pulse	0.0	t		28.0	male	east_asian	1.5563072025467568	neutral	005	sub-10	2.0	3.0	005_neutral	0.0		138.48721957981252	
20.0	115.24986258018544	fix	1.0		1185	28.0	male	east_asian	1.5563072025467568	neutral	005	sub-10	2.0	3.0	005_neutral	0.0		138.9371056443706	10.016474983254739
20.0	115.49996423009725	pulse	1.0	t		28.0	male	east_asian	1.5563072025467568	neutral	005	sub-10	2.0	3.0	005_neutral	0.0		139.18720729428242	
20.0	116.19995315199412	pulse	1.0	t		28.0	male	east_asian	1.5563072025467568	neutral	005	sub-10	2.0	3.0	005_neutral	0.0		139.8871962161793	
20.0	116.89994026275599	pulse	1.0	t		28.0	male	east_asian	1.5563072025467568	neutral	005	sub-10	2.0	3.0	005_neutral	0.0		140.58718332694116	
20.0	117.59992616609088	pulse	1.0	t		28.0	male	east_asian	1.5563072025467568	neutral	005	sub-10	2.0	3.0	005_neutral	0.0		141.28716923027605	
20.0	118.29991720097678	pulse	1.0	t		28.0	male	east_asian	1.5563072025467568	neutral	005	sub-10	2.0	3.0	005_neutral	0.0		141.98716026516195	
20.0	118.99990672658532	pulse	1.0	t		28.0	male	east_asian	1.5563072025467568	neutral	005	sub-10	2.0	3.0	005_neutral	0.0		142.6871497907705	
20.0	119.69988840394217	pulse	1.0	t		28.0	male	east_asian	1.5563072025467568	neutral	005	sub-10	2.0	3.0	005_neutral	0.0		143.38713146812734	
20.0	120.39988275924043	pulse	1.0	t		28.0	male	east_asian	1.5563072025467568	neutral	005	sub-10	2.0	3.0	005_neutral	0.0		144.0871258234256	
20.0	121.09986956814464	pulse	1.0	t		28.0	male	east_asian	1.5563072025467568	neutral	005	sub-10	2.0	3.0	005_neutral	0.0		144.7871126323298	
20.0	121.79985124550512	pulse	1.0	t		28.0	male	east_asian	1.5563072025467568	neutral	005	sub-10	2.0	3.0	005_neutral	0.0		145.4870943096903	
20.0	122.49984741193475	pulse	1.0	t		28.0	male	east_asian	1.5563072025467568	neutral	005	sub-10	2.0	3.0	005_neutral	0.0		146.18709047611992	
20.0	123.19983573011996	pulse	1.0	t		28.0	male	east_asian	1.5563072025467568	neutral	005	sub-10	2.0	3.0	005_neutral	0.0		146.88707879430513	
20.0	123.89981680376513	pulse	1.0	t		28.0	male	east_asian	1.5563072025467568	neutral	005	sub-10	2.0	3.0	005_neutral	0.0		147.5870598679503	
20.0	124.59979153844324	pulse	1.0	t		28.0	male	east_asian	1.5563072025467568	neutral	005	sub-10	2.0	3.0	005_neutral	0.0		148.2870346026284	
21.0	125.26633756344017	face	0.0		145	20.0	male	black	3.1070433744528456	smiling	082	sub-10	2.0	3.0	082_smiling	0.0		148.95358062762534	1.233323301661585
21.0	125.29979585497858	pulse	0.0	t		20.0	male	black	3.1070433744528456	smiling	082	sub-10	2.0	3.0	082_smiling	0.0		148.98703891916375	
21.0	125.99976696738668	pulse	0.0	t		20.0	male	black	3.1070433744528456	smiling	082	sub-10	2.0	3.0	082_smiling	0.0		149.68701003157184	
21.0	126.49966086510176	fix	1.0		443	20.0	male	black	3.1070433744528456	smiling	082	sub-10	2.0	3.0	082_smiling	0.0		150.18690392928693	3.766586745332461
21.0	126.69976343567396	pulse	1.0	t		20.0	male	black	3.1070433744528456	smiling	082	sub-10	2.0	3.0	082_smiling	0.0		150.38700649985913	
21.0	127.39975597983721	pulse	1.0	t		20.0	male	black	3.1070433744528456	smiling	082	sub-10	2.0	3.0	082_smiling	0.0		151.08699904402238	
21.0	128.09973222379267	pulse	1.0	t		20.0	male	black	3.1070433744528456	smiling	082	sub-10	2.0	3.0	082_smiling	0.0		151.78697528797784	
21.0	128.79973654033165	pulse	1.0	t		20.0	male	black	3.1070433744528456	smiling	082	sub-10	2.0	3.0	082_smiling	0.0		152.48697960451682	
21.0	129.49971670841114	pulse	1.0	t		20.0	male	black	3.1070433744528456	smiling	082	sub-10	2.0	3.0	082_smiling	0.0		153.1869597725963	
21.0	130.19970593216203	pulse	1.0	t		20.0	male	black	3.1070433744528456	smiling	082	sub-10	2.0	3.0	082_smiling	0.0		153.8869489963472	
22.0	130.26624761043422	face	0.0		146	21.0	male	black	2.969757262236371	neutral	137	sub-10	2.0	3.0	137_neutral	0.0		153.9534906746194	1.2333242072309076
22.0	130.89969092993124	pulse	0.0	t		21.0	male	black	2.969757262236371	neutral	137	sub-10	2.0	3.0	137_neutral	0.0		154.5869339941164	
22.0	131.49957181766513	fix	1.0		443	21.0	male	black	2.969757262236371	neutral	137	sub-10	2.0	3.0	137_neutral	0.0		155.1868148818503	3.7583741568050755
22.0	131.59975984359335	pulse	1.0	t		21.0	male	black	2.969757262236371	neutral	137	sub-10	2.0	3.0	137_neutral	0.0		155.28700290777851	
22.0	132.29966696258634	pulse	1.0	t		21.0	male	black	2.969757262236371	neutral	137	sub-10	2.0	3.0	137_neutral	0.0		155.9869100267715	
22.0	132.99965014922418	pulse	1.0	t		21.0	male	black	2.969757262236371	neutral	137	sub-10	2.0	3.0	137_neutral	0.0		156.68689321340935	
22.0	133.69963756184006	pulse	1.0	t		21.0	male	black	2.969757262236371	neutral	137	sub-10	2.0	3.0	137_neutral	0.0		157.38688062602523	
22.0	134.39963312456166	pulse	1.0	t		21.0	male	black	2.969757262236371	neutral	137	sub-10	2.0	3.0	137_neutral	0.0		158.08687618874683	
22.0	135.09961600934184	pulse	1.0	t		21.0	male	black	2.969757262236371	neutral	137	sub-10	2.0	3.0	137_neutral	0.0		158.786859073527	
23.0	135.2579459744702	face	0.0		147	23.0	male	white	2.6275368085953046	neutral	141	sub-10	2.0	3.0	141_neutral	0.0		158.94518903865537	1.241525325240218
23.0	135.7995994978337	pulse	0.0	t		23.0	male	white	2.6275368085953046	neutral	141	sub-10	2.0	3.0	141_neutral	0.0		159.48684256201886	
23.0	136.49947129971042	fix	1.0		444	23.0	male	white	2.6275368085953046	neutral	141	sub-10	2.0	3.0	141_neutral	0.0		160.1867143638956	3.7583370285501587
23.0	136.50688125388479	pulse	1.0	t		23.0	male	white	2.6275368085953046	neutral	141	sub-10	2.0	3.0	141_neutral	0.0		160.19412431806995	
23.0	137.19957160636477	pulse	1.0	t		23.0	male	white	2.6275368085953046	neutral	141	sub-10	2.0	3.0	141_neutral	0.0		160.88681467054994	
23.0	137.899563848674	pulse	1.0	t		23.0	male	white	2.6275368085953046	neutral	141	sub-10	2.0	3.0	141_neutral	0.0		161.58680691285917	
23.0	138.59953707407112	pulse	1.0	t		23.0	male	white	2.6275368085953046	neutral	141	sub-10	2.0	3.0	141_neutral	0.0		162.2867801382563	
23.0	139.2995422961758	pulse	1.0	t		23.0	male	white	2.6275368085953046	neutral	141	sub-10	2.0	3.0	141_neutral	0.0		162.98678536036095	
23.0	139.99952246425528	pulse	1.0	t		23.0	male	white	2.6275368085953046	neutral	141	sub-10	2.0	3.0	141_neutral	0.0		163.68676552844045	
24.0	140.25780832826058	face	0.0		146	27.0	female	white	3.504576203740549	smiling	144	sub-10	2.0	3.0	144_smiling	0.0		163.94505139244575	1.241587205666292
24.0	140.69951893254256	pulse	0.0	t		27.0	female	white	3.504576203740549	smiling	144	sub-10	2.0	3.0	144_smiling	0.0		164.38676199672773	
24.0	141.39950302474608	pulse	0.0	t		27.0	female	white	3.504576203740549	smiling	144	sub-10	2.0	3.0	144_smiling	0.0		165.08674608893125	
24.0	141.49939553392687	fix	1.0		444	27.0	female	white	3.504576203740549	smiling	144	sub-10	2.0	3.0	144_smiling	0.0		165.18663859811204	3.766581915642746
24.0	142.0994886262306	pulse	1.0	t		27.0	female	white	3.504576203740549	smiling	144	sub-10	2.0	3.0	144_smiling	0.0		165.78673169041576	
24.0	142.79948569822955	pulse	1.0	t		27.0	female	white	3.504576203740549	smiling	144	sub-10	2.0	3.0	144_smiling	0.0		166.4867287624147	
24.0	143.49946979043307	pulse	1.0	t		27.0	female	white	3.504576203740549	smiling	144	sub-10	2.0	3.0	144_smiling	0.0		167.18671285461824	
24.0	144.19944573253088	pulse	1.0	t		27.0	female	white	3.504576203740549	smiling	144	sub-10	2.0	3.0	144_smiling	0.0		167.88668879671604	
24.0	144.899424391333	pulse	1.0	t		27.0	female	white	3.504576203740549	smiling	144	sub-10	2.0	3.0	144_smiling	0.0		168.58666745551818	
25.0	145.26597744956962	face	0.0		145	19.0	male	white	3.2522881018702745	neutral	018	sub-10	2.0	3.0	018_neutral	0.0		168.9532205137548	1.233326622073946
25.0	145.5994317264267	pulse	0.0	t		19.0	male	white	3.2522881018702745	neutral	018	sub-10	2.0	3.0	018_neutral	0.0		169.28667479061187	
25.0	146.2994013295538	pulse	0.0	t		19.0	male	white	3.2522881018702745	neutral	018	sub-10	2.0	3.0	018_neutral	0.0		169.98664439373897	
25.0	146.49930407164356	fix	1.0		444	19.0	male	white	3.2522881018702745	neutral	018	sub-10	2.0	3.0	018_neutral	0.0		170.18654713582873	3.7665864434784453
25.0	146.99940534423513	pulse	1.0	t		19.0	male	white	3.2522881018702745	neutral	018	sub-10	2.0	3.0	018_neutral	0.0		170.6866484084203	
25.0	147.69938430489128	pulse	1.0	t		19.0	male	white	3.2522881018702745	neutral	018	sub-10	2.0	3.0	018_neutral	0.0		171.38662736907645	
25.0	148.39938288617122	pulse	1.0	t		19.0	male	white	3.2522881018702745	neutral	018	sub-10	2.0	3.0	018_neutral	0.0		172.0866259503564	
25.0	149.09936033755002	pulse	1.0	t		19.0	male	white	3.2522881018702745	neutral	018	sub-10	2.0	3.0	018_neutral	0.0		172.7866034017352	
25.0	149.79934956130091	pulse	1.0	t		19.0	male	white	3.2522881018702745	neutral	018	sub-10	2.0	3.0	018_neutral	0.0		173.48659262548608	
26.0	150.265890515122	face	0.0		145	32.0	male	white	2.389176283326701	smiling	092	sub-10	2.0	3.0	092_smiling	0.0		173.95313357930718	1.233322697949916
26.0	150.4993445203072	pulse	0.0	t		32.0	male	white	2.389176283326701	smiling	092	sub-10	2.0	3.0	092_smiling	0.0		174.18658758449237	
26.0	151.19932710323337	pulse	0.0	t		32.0	male	white	2.389176283326701	smiling	092	sub-10	2.0	3.0	092_smiling	0.0		174.88657016741854	
26.0	151.49921321307193	fix	1.0		444	32.0	male	white	2.389176283326701	smiling	092	sub-10	2.0	3.0	092_smiling	0.0		175.1864562772571	3.766585839766776
26.0	151.8993066676012	pulse	1.0	t		32.0	male	white	2.389176283326701	smiling	092	sub-10	2.0	3.0	092_smiling	0.0		175.58654973178636	
26.0	152.59930464516947	pulse	1.0	t		32.0	male	white	2.389176283326701	smiling	092	sub-10	2.0	3.0	092_smiling	0.0		176.28654770935464	
26.0	153.299290548508	pulse	1.0	t		32.0	male	white	2.389176283326701	smiling	092	sub-10	2.0	3.0	092_smiling	0.0		176.98653361269317	
26.0	153.99927132029552	pulse	1.0	t		32.0	male	white	2.389176283326701	smiling	092	sub-10	2.0	3.0	092_smiling	0.0		177.6865143844807	
26.0	154.69925812920337	pulse	1.0	t		32.0	male	white	2.389176283326701	smiling	092	sub-10	2.0	3.0	092_smiling	0.0		178.38650119338854	
27.0	155.2657990528387	face	0.0		146	19.0	female	white	4.298846000795861	neutral	100	sub-10	2.0	3.0	100_neutral	0.0		178.95304211702387	1.2416587454681576
27.0	155.39925701233733	pulse	0.0	t		19.0	female	white	4.298846000795861	neutral	100	sub-10	2.0	3.0	100_neutral	0.0		179.0865000765225	
27.0	156.09923235072347	pulse	0.0	t		19.0	female	white	4.298846000795861	neutral	100	sub-10	2.0	3.0	100_neutral	0.0		179.78647541490864	
27.0	156.50745779830686	fix	1.0		444	19.0	female	white	4.298846000795861	neutral	100	sub-10	2.0	3.0	100_neutral	0.0		180.19470086249203	3.766578595230385
27.0	156.79923123385743	pulse	1.0	t		19.0	female	white	4.298846000795861	neutral	100	sub-10	2.0	3.0	100_neutral	0.0		180.4864742980426	
27.0	157.4992138167836	pulse	1.0	t		19.0	female	white	4.298846000795861	neutral	100	sub-10	2.0	3.0	100_neutral	0.0		181.18645688096876	
27.0	158.19920364424615	pulse	1.0	t		19.0	female	white	4.298846000795861	neutral	100	sub-10	2.0	3.0	100_neutral	0.0		181.88644670843132	
27.0	158.89917053067256	pulse	1.0	t		19.0	female	white	4.298846000795861	neutral	100	sub-10	2.0	3.0	100_neutral	0.0		182.58641359485773	
27.0	159.5991793750436	pulse	1.0	t		19.0	female	white	4.298846000795861	neutral	100	sub-10	2.0	3.0	100_neutral	0.0		183.28642243922877	
28.0	160.27403639353724	face	0.0		145	40.0	male	white	1.868682849184242	smiling	172	sub-10	2.0	3.0	172_smiling	0.0		183.9612794577224	1.233332055478968
28.0	160.2991610524041	pulse	0.0	t		40.0	male	white	1.868682849184242	smiling	172	sub-10	2.0	3.0	172_smiling	0.0		183.98640411658926	
28.0	160.99914363532662	pulse	0.0	t		40.0	male	white	1.868682849184242	smiling	172	sub-10	2.0	3.0	172_smiling	0.0		184.6863866995118	
28.0	161.5073684490162	fix	1.0		443	40.0	male	white	1.868682849184242	smiling	172	sub-10	2.0	3.0	172_smiling	0.0		185.19461151320138	3.7665864434784453
28.0	161.6991262182528	pulse	1.0	t		40.0	male	white	1.868682849184242	smiling	172	sub-10	2.0	3.0	172_smiling	0.0		185.38636928243795	
28.0	162.3991254032444	pulse	1.0	t		40.0	male	white	1.868682849184242	smiling	172	sub-10	2.0	3.0	172_smiling	0.0		186.08636846742957	
28.0	163.0991022509079	pulse	1.0	t		40.0	male	white	1.868682849184242	smiling	172	sub-10	2.0	3.0	172_smiling	0.0		186.78634531509306	
28.0	163.7991177361073	pulse	1.0	t		40.0	male	white	1.868682849184242	smiling	172	sub-10	2.0	3.0	172_smiling	0.0		187.48636080029246	
28.0	164.49908703738038	pulse	1.0	t		40.0	male	white	1.868682849184242	smiling	172	sub-10	2.0	3.0	172_smiling	0.0		188.18633010156555	
28.0	165.19907535556558	pulse	1.0	t		40.0	male	white	1.868682849184242	smiling	172	sub-10	2.0	3.0	172_smiling	0.0		188.88631841975075	
29.0	165.27395489249466	face	0.0		146	20.0	male	black	2.609629924393156	neutral	043	sub-10	2.0	3.0	043_neutral	0.0		188.96119795667983	1.2333371870226983
29.0	165.89906699416315	pulse	0.0	t		20.0	male	black	2.609629924393156	neutral	043	sub-10	2.0	3.0	043_neutral	0.0		189.58631005834832	
29.0	166.50729207951736	fix	1.0		443	20.0	male	black	2.609629924393156	neutral	043	sub-10	2.0	3.0	043_neutral	0.0		190.19453514370252	3.766571048839978
29.0	166.59905380306736	pulse	1.0	t		20.0	male	black	2.609629924393156	neutral	043	sub-10	2.0	3.0	043_neutral	0.0		190.28629686725253	
29.0	167.2990273303185	pulse	1.0	t		20.0	male	black	2.609629924393156	neutral	043	sub-10	2.0	3.0	043_neutral	0.0		190.98627039450366	
29.0	167.99901655406939	pulse	1.0	t		20.0	male	black	2.609629924393156	neutral	043	sub-10	2.0	3.0	043_neutral	0.0		191.68625961825455	
29.0	168.699013927926	pulse	1.0	t		20.0	male	black	2.609629924393156	neutral	043	sub-10	2.0	3.0	043_neutral	0.0		192.38625699211116	
29.0	169.39900194425354	pulse	1.0	t		20.0	male	black	2.609629924393156	neutral	043	sub-10	2.0	3.0	043_neutral	0.0		193.0862450084387	
29.0	170.09898060305568	pulse	1.0	t		20.0	male	black	2.609629924393156	neutral	043	sub-10	2.0	3.0	043_neutral	0.0		193.78622366724085	
30.0	170.27386312835733	face	0.0		146	31.0	male	west_asian	1.9538400318344609	neutral	070	sub-10	2.0	3.0	070_neutral	0.0		193.9611061925425	1.2416472749500826
30.0	170.79897978804365	pulse	0.0	t		31.0	male	west_asian	1.9538400318344609	neutral	070	sub-10	2.0	3.0	070_neutral	0.0		194.48622285222882	
30.0	171.4989614654005	pulse	0.0	t		31.0	male	west_asian	1.9538400318344609	neutral	070	sub-10	2.0	3.0	070_neutral	0.0		195.18620452958567	
30.0	171.51551040330742	fix	1.0		443	31.0	male	west_asian	1.9538400318344609	neutral	070	sub-10	2.0	3.0	070_neutral	0.0		195.20275346749258	3.7582630738979788
30.0	172.1989362000786	pulse	1.0	t		31.0	male	west_asian	1.9538400318344609	neutral	070	sub-10	2.0	3.0	070_neutral	0.0		195.88617926426377	
30.0	172.8989347813549	pulse	1.0	t		31.0	male	west_asian	1.9538400318344609	neutral	070	sub-10	2.0	3.0	070_neutral	0.0		196.58617784554008	
30.0	173.59892491067512	pulse	1.0	t		31.0	male	west_asian	1.9538400318344609	neutral	070	sub-10	2.0	3.0	070_neutral	0.0		197.2861679748603	
30.0	174.29891262514866	pulse	1.0	t		31.0	male	west_asian	1.9538400318344609	neutral	070	sub-10	2.0	3.0	070_neutral	0.0		197.98615568933383	
30.0	174.99889037838147	pulse	1.0	t		31.0	male	west_asian	1.9538400318344609	neutral	070	sub-10	2.0	3.0	070_neutral	0.0		198.68613344256664	
31.0	175.2737734772054	face	0.0		145	31.0	female	white	2.1822522881018704	smiling	102	sub-10	2.0	3.0	102_smiling	0.0		198.96101654139056	1.2333242072309076
31.0	175.69889318563946	pulse	0.0	t		31.0	female	white	2.1822522881018704	smiling	102	sub-10	2.0	3.0	102_smiling	0.0		199.38613624982463	
31.0	176.39887154258395	pulse	0.0	t		31.0	female	white	2.1822522881018704	smiling	102	sub-10	2.0	3.0	102_smiling	0.0		200.08611460676912	
31.0	176.5070976844363	fix	1.0		444	31.0	female	white	2.1822522881018704	smiling	102	sub-10	2.0	3.0	102_smiling	0.0		200.19434074862147	3.766586745332461
31.0	177.09886076633484	pulse	1.0	t		31.0	female	white	2.1822522881018704	smiling	102	sub-10	2.0	3.0	102_smiling	0.0		200.78610383052	
31.0	177.79886659215117	pulse	1.0	t		31.0	female	white	2.1822522881018704	smiling	102	sub-10	2.0	3.0	102_smiling	0.0		201.48610965633634	
31.0	178.49883498785493	pulse	1.0	t		31.0	female	white	2.1822522881018704	smiling	102	sub-10	2.0	3.0	102_smiling	0.0		202.1860780520401	
31.0	179.1988239097518	pulse	1.0	t		31.0	female	white	2.1822522881018704	smiling	102	sub-10	2.0	3.0	102_smiling	0.0		202.88606697393698	
31.0	179.8988221891741	pulse	1.0	t		31.0	female	white	2.1822522881018704	smiling	102	sub-10	2.0	3.0	102_smiling	0.0		203.58606525335927	
32.0	180.27368442976876	face	0.0		145	21.0	male	east_asian/white	3.501790688420215	smiling	036	sub-10	2.0	3.0	036_smiling	1.0	trustworthiness	203.96092749395393	1.2333236035192385
32.0	180.59885035231127	pulse	0.0	t		21.0	male	east_asian/white	3.501790688420215	smiling	036	sub-10	2.0	3.0	036_smiling	1.0	trustworthiness	204.28609341649644	
32.0	181.2988724783354	pulse	0.0	t		21.0	male	east_asian/white	3.501790688420215	smiling	036	sub-10	2.0	3.0	036_smiling	1.0	trustworthiness	204.98611554252057	
32.0	181.507008033288	fix	1.0		177	21.0	male	east_asian/white	3.501790688420215	smiling	036	sub-10	2.0	3.0	036_smiling	1.0	trustworthiness	205.19425109747317	1.4999793228816998
32.0	181.99876873052563	pulse	1.0	t		21.0	male	east_asian/white	3.501790688420215	smiling	036	sub-10	2.0	3.0	036_smiling	1.0	trustworthiness	205.6860117947108	
32.0	182.69875523757582	pulse	1.0	t		21.0	male	east_asian/white	3.501790688420215	smiling	036	sub-10	2.0	3.0	036_smiling	1.0	trustworthiness	206.385998301761	
32.0	183.0069873561697	rating	2.0		295	21.0	male	east_asian/white	3.501790688420215	smiling	036	sub-10	2.0	3.0	036_smiling	1.0	trustworthiness	206.69423042035487	2.5082824681303464
32.0	183.39875321514046	pulse	2.0	t		21.0	male	east_asian/white	3.501790688420215	smiling	036	sub-10	2.0	3.0	036_smiling	1.0	trustworthiness	207.08599627932563	
32.0	184.09874394817234	pulse	2.0	t		21.0	male	east_asian/white	3.501790688420215	smiling	036	sub-10	2.0	3.0	036_smiling	1.0	trustworthiness	207.7859870123575	
32.0	184.29871370222827	response	2.0	g		21.0	male	east_asian/white	3.501790688420215	smiling	036	sub-10	2.0	3.0	036_smiling	1.0	trustworthiness	207.98595676641344	
32.0	184.79871053274474	pulse	2.0	t		21.0	male	east_asian/white	3.501790688420215	smiling	036	sub-10	2.0	3.0	036_smiling	1.0	trustworthiness	208.4859535969299	
32.0	185.49867409875878	pulse	2.0	t		21.0	male	east_asian/white	3.501790688420215	smiling	036	sub-10	2.0	3.0	036_smiling	1.0	trustworthiness	209.18591716294395	
32.0	185.51526982430005	fix	3.0		443	21.0	male	east_asian/white	3.501790688420215	smiling	036	sub-10	2.0	3.0	036_smiling	1.0	trustworthiness	209.20251288848522	3.7582537163725647
32.0	186.1986944136479	pulse	3.0	t		21.0	male	east_asian/white	3.501790688420215	smiling	036	sub-10	2.0	3.0	036_smiling	1.0	trustworthiness	209.88593747783307	
32.0	186.8986827318331	pulse	3.0	t		21.0	male	east_asian/white	3.501790688420215	smiling	036	sub-10	2.0	3.0	036_smiling	1.0	trustworthiness	210.58592579601827	
32.0	187.59866622032496	pulse	3.0	t		21.0	male	east_asian/white	3.501790688420215	smiling	036	sub-10	2.0	3.0	036_smiling	1.0	trustworthiness	211.28590928451013	
32.0	188.29866268861224	pulse	3.0	t		21.0	male	east_asian/white	3.501790688420215	smiling	036	sub-10	2.0	3.0	036_smiling	1.0	trustworthiness	211.9859057527974	
32.0	188.9986573457645	pulse	3.0	t		21.0	male	east_asian/white	3.501790688420215	smiling	036	sub-10	2.0	3.0	036_smiling	1.0	trustworthiness	212.68590040994968	
33.0	189.2735235406726	face	0.0		145	27.0	female	white	3.504576203740549	neutral	144	sub-10	2.0	3.0	144_neutral	0.0		212.96076660485778	1.2333245090849232
33.0	189.698637513844	pulse	0.0	t		27.0	female	white	3.504576203740549	neutral	144	sub-10	2.0	3.0	144_neutral	0.0		213.38588057802917	
33.0	190.39862703945255	pulse	0.0	t		27.0	female	white	3.504576203740549	neutral	144	sub-10	2.0	3.0	144_neutral	0.0		214.08587010363772	
33.0	190.50684804975754	fix	1.0		444	27.0	female	white	3.504576203740549	neutral	144	sub-10	2.0	3.0	144_neutral	0.0		214.1940911139427	3.766573765537032
33.0	191.09861445206843	pulse	1.0	t		27.0	female	white	3.504576203740549	neutral	144	sub-10	2.0	3.0	144_neutral	0.0		214.7858575162536	
33.0	191.79860759994335	pulse	1.0	t		27.0	female	white	3.504576203740549	neutral	144	sub-10	2.0	3.0	144_neutral	0.0		215.48585066412852	
33.0	192.49858444761048	pulse	1.0	t		27.0	female	white	3.504576203740549	neutral	144	sub-10	2.0	3.0	144_neutral	0.0		216.18582751179565	
33.0	193.19856431383232	pulse	1.0	t		27.0	female	white	3.504576203740549	neutral	144	sub-10	2.0	3.0	144_neutral	0.0		216.8858073780175	
33.0	193.89853723737542	pulse	1.0	t		27.0	female	white	3.504576203740549	neutral	144	sub-10	2.0	3.0	144_neutral	0.0		217.5857803015606	
34.0	194.27342181529457	face	0.0		145	25.0	female	black	3.858336649423	neutral	126	sub-10	2.0	3.0	126_neutral	0.0		217.96066487947974	1.2333257165082614
34.0	194.59854487432676	pulse	0.0	t		25.0	female	black	3.858336649423	neutral	126	sub-10	2.0	3.0	126_neutral	0.0		218.28578793851193	
34.0	195.29853862591335	pulse	0.0	t		25.0	female	black	3.858336649423	neutral	126	sub-10	2.0	3.0	126_neutral	0.0		218.98578169009852	
34.0	195.50674753180283	fix	1.0		444	25.0	female	black	3.858336649423	neutral	126	sub-10	2.0	3.0	126_neutral	0.0		219.193990595988	3.766597310284851
34.0	195.99851698285784	pulse	1.0	t		25.0	female	black	3.858336649423	neutral	126	sub-10	2.0	3.0	126_neutral	0.0		219.685760047043	
34.0	196.69850650846274	pulse	1.0	t		25.0	female	black	3.858336649423	neutral	126	sub-10	2.0	3.0	126_neutral	0.0		220.3857495726479	
34.0	197.39850146747267	pulse	1.0	t		25.0	female	black	3.858336649423	neutral	126	sub-10	2.0	3.0	126_neutral	0.0		221.08574453165784	
34.0	198.09847982441715	pulse	1.0	t		25.0	female	black	3.858336649423	neutral	126	sub-10	2.0	3.0	126_neutral	0.0		221.78572288860232	
34.0	198.79846512404401	pulse	1.0	t		25.0	female	black	3.858336649423	neutral	126	sub-10	2.0	3.0	126_neutral	0.0		222.48570818822918	
35.0	199.27334484208768	face	0.0		145	24.0	female	east_asian	2.9076800636689217	neutral	034	sub-10	2.0	3.0	034_neutral	1.0	attractiveness	222.96058790627285	1.2333374888803519
35.0	199.49846581831298	pulse	0.0	t		24.0	female	east_asian	2.9076800636689217	neutral	034	sub-10	2.0	3.0	034_neutral	1.0	attractiveness	223.18570888249815	
35.0	200.1984390437101	pulse	0.0	t		24.0	female	east_asian	2.9076800636689217	neutral	034	sub-10	2.0	3.0	034_neutral	1.0	attractiveness	223.88568210789526	
35.0	200.50668233096803	fix	1.0		177	24.0	female	east_asian	2.9076800636689217	neutral	034	sub-10	2.0	3.0	034_neutral	1.0	attractiveness	224.1939253951532	1.4999606078272336
35.0	200.89842947488432	pulse	1.0	t		24.0	female	east_asian	2.9076800636689217	neutral	034	sub-10	2.0	3.0	034_neutral	1.0	attractiveness	224.5856725390695	
35.0	201.59841085038715	pulse	1.0	t		24.0	female	east_asian	2.9076800636689217	neutral	034	sub-10	2.0	3.0	034_neutral	1.0	attractiveness	225.28565391457232	
35.0	202.00664293879527	rating	2.0		295	24.0	female	east_asian	2.9076800636689217	neutral	034	sub-10	2.0	3.0	034_neutral	1.0	attractiveness	225.69388600298043	2.499955778137519
35.0	202.29841848733486	pulse	2.0	t		24.0	female	east_asian	2.9076800636689217	neutral	034	sub-10	2.0	3.0	034_neutral	1.0	attractiveness	225.98566155152002	
35.0	202.99839231644364	pulse	2.0	t		24.0	female	east_asian	2.9076800636689217	neutral	034	sub-10	2.0	3.0	034_neutral	1.0	attractiveness	226.6856353806288	
35.0	203.6983776160705	pulse	2.0	t		24.0	female	east_asian	2.9076800636689217	neutral	034	sub-10	2.0	3.0	034_neutral	1.0	attractiveness	227.38562068025567	
35.0	204.3983837437445	pulse	2.0	t		24.0	female	east_asian	2.9076800636689217	neutral	034	sub-10	2.0	3.0	034_neutral	1.0	attractiveness	228.08562680792966	
35.0	204.50659871693279	fix	3.0		443	24.0	female	east_asian	2.9076800636689217	neutral	034	sub-10	2.0	3.0	034_neutral	1.0	attractiveness	228.19384178111795	3.766584632343438
35.0	204.5900259022419	response	3.0	b		24.0	female	east_asian	2.9076800636689217	neutral	034	sub-10	2.0	3.0	034_neutral	1.0	attractiveness	228.27726896642707	
35.0	205.09834519676588	pulse	3.0	t		24.0	female	east_asian	2.9076800636689217	neutral	034	sub-10	2.0	3.0	034_neutral	1.0	attractiveness	228.78558826095104	
35.0	205.7983443817575	pulse	3.0	t		24.0	female	east_asian	2.9076800636689217	neutral	034	sub-10	2.0	3.0	034_neutral	1.0	attractiveness	229.48558744594266	
35.0	206.49833602035505	pulse	3.0	t		24.0	female	east_asian	2.9076800636689217	neutral	034	sub-10	2.0	3.0	034_neutral	1.0	attractiveness	230.18557908454022	
35.0	207.19832826266065	pulse	3.0	t		24.0	female	east_asian	2.9076800636689217	neutral	034	sub-10	2.0	3.0	034_neutral	1.0	attractiveness	230.88557132684582	
35.0	207.89831084558682	pulse	3.0	t		24.0	female	east_asian	2.9076800636689217	neutral	034	sub-10	2.0	3.0	034_neutral	1.0	attractiveness	231.585553909772	
36.0	208.27318334927622	face	0.0		145	20.0	female	white	3.9502586549940313	neutral	091	sub-10	2.0	3.0	091_neutral	0.0		231.9604264134614	1.2333236035192385
36.0	208.59830037119173	pulse	0.0	t		20.0	female	white	3.9502586549940313	neutral	091	sub-10	2.0	3.0	091_neutral	0.0		232.2855434353769	
36.0	209.2982865763879	pulse	0.0	t		20.0	female	white	3.9502586549940313	neutral	091	sub-10	2.0	3.0	091_neutral	0.0		232.98552964057308	
36.0	209.50650695279546	fix	1.0		444	20.0	female	white	3.9502586549940313	neutral	091	sub-10	2.0	3.0	091_neutral	0.0		233.19375001698063	3.7665861416207918
36.0	209.9982730834381	pulse	1.0	t		20.0	female	white	3.9502586549940313	neutral	091	sub-10	2.0	3.0	091_neutral	0.0		233.68551614762328	
36.0	210.69830245399862	pulse	1.0	t		20.0	female	white	3.9502586549940313	neutral	091	sub-10	2.0	3.0	091_neutral	0.0		234.3855455181838	
36.0	211.39824941794723	pulse	1.0	t		20.0	female	white	3.9502586549940313	neutral	091	sub-10	2.0	3.0	091_neutral	0.0		235.0854924821324	
36.0	212.09823592499743	pulse	1.0	t		20.0	female	white	3.9502586549940313	neutral	091	sub-10	2.0	3.0	091_neutral	0.0		235.7854789891826	
36.0	212.79820824482886	pulse	1.0	t		20.0	female	white	3.9502586549940313	neutral	091	sub-10	2.0	3.0	091_neutral	0.0		236.48545130901402	
37.0	213.27309309441625	face	0.0		145	36.0	female	white	2.7548746518105847	smiling	011	sub-10	2.0	3.0	011_smiling	1.0	dominance	236.96033615860142	1.233323905373254
37.0	213.4982125613642	pulse	0.0	t		36.0	female	white	2.7548746518105847	smiling	011	sub-10	2.0	3.0	011_smiling	1.0	dominance	237.18545562554937	
37.0	214.19819091830868	pulse	0.0	t		36.0	female	white	2.7548746518105847	smiling	011	sub-10	2.0	3.0	011_smiling	1.0	dominance	237.88543398249385	
37.0	214.5064169997895	fix	1.0		177	36.0	female	white	2.7548746518105847	smiling	011	sub-10	2.0	3.0	011_smiling	1.0	dominance	238.19366006397468	1.499974493191985
37.0	214.8981722938115	pulse	1.0	t		36.0	female	white	2.7548746518105847	smiling	011	sub-10	2.0	3.0	011_smiling	1.0	dominance	238.58541535799668	
37.0	215.59815940457338	pulse	1.0	t		36.0	female	white	2.7548746518105847	smiling	011	sub-10	2.0	3.0	011_smiling	1.0	dominance	239.28540246875855	
37.0	216.0063914929815	rating	2.0		294	36.0	female	white	2.7548746518105847	smiling	011	sub-10	2.0	3.0	011_smiling	1.0	dominance	239.69363455716666	2.499944307619444
37.0	216.29816945636776	pulse	2.0	t		36.0	female	white	2.7548746518105847	smiling	011	sub-10	2.0	3.0	011_smiling	1.0	dominance	239.98541252055293	
37.0	216.9981438891882	pulse	2.0	t		36.0	female	white	2.7548746518105847	smiling	011	sub-10	2.0	3.0	011_smiling	1.0	dominance	240.68538695337338	
37.0	217.19814231953933	response	2.0	w		36.0	female	white	2.7548746518105847	smiling	011	sub-10	2.0	3.0	011_smiling	1.0	dominance	240.8853853837245	
37.0	217.69812949067273	pulse	2.0	t		36.0	female	white	2.7548746518105847	smiling	011	sub-10	2.0	3.0	011_smiling	1.0	dominance	241.3853725548579	
37.0	218.39812535524834	pulse	2.0	t		36.0	female	white	2.7548746518105847	smiling	011	sub-10	2.0	3.0	011_smiling	1.0	dominance	242.0853684194335	
37.0	218.50633580060094	fix	3.0		444	36.0	female	white	2.7548746518105847	smiling	011	sub-10	2.0	3.0	011_smiling	1.0	dominance	242.1935788647861	3.766596102861513
37.0	219.09811306971824	pulse	3.0	t		36.0	female	white	2.7548746518105847	smiling	011	sub-10	2.0	3.0	011_smiling	1.0	dominance	242.7853561339034	
37.0	219.7980908229547	pulse	3.0	t		36.0	female	white	2.7548746518105847	smiling	011	sub-10	2.0	3.0	011_smiling	1.0	dominance	243.48533388713986	
37.0	220.4980848763953	pulse	3.0	t		36.0	female	white	2.7548746518105847	smiling	011	sub-10	2.0	3.0	011_smiling	1.0	dominance	244.18532794058046	
37.0	221.19807470385786	pulse	3.0	t		36.0	female	white	2.7548746518105847	smiling	011	sub-10	2.0	3.0	011_smiling	1.0	dominance	244.88531776804302	
37.0	221.89804581626595	pulse	3.0	t		36.0	female	white	2.7548746518105847	smiling	011	sub-10	2.0	3.0	011_smiling	1.0	dominance	245.58528888045112	
38.0	222.27293190346245	face	0.0		145	40.0	female	west_asian	1.5777954635893354	neutral	038	sub-10	2.0	3.0	038_neutral	0.0		245.96017496764762	1.2333254146542458
38.0	222.59805073651296	pulse	0.0	t		40.0	female	west_asian	1.5777954635893354	neutral	038	sub-10	2.0	3.0	038_neutral	0.0		246.28529380069813	
38.0	223.29804358253386	pulse	0.0	t		40.0	female	west_asian	1.5777954635893354	neutral	038	sub-10	2.0	3.0	038_neutral	0.0		246.98528664671903	
38.0	223.5062573181167	fix	1.0		444	40.0	female	west_asian	1.5777954635893354	neutral	038	sub-10	2.0	3.0	038_neutral	0.0		247.19350038230186	3.7665662191429874
38.0	223.99800895968292	pulse	1.0	t		40.0	female	west_asian	1.5777954635893354	neutral	038	sub-10	2.0	3.0	038_neutral	0.0		247.6852520238681	
38.0	224.69800331498118	pulse	1.0	t		40.0	female	west_asian	1.5777954635893354	neutral	038	sub-10	2.0	3.0	038_neutral	0.0		248.38524637916635	
38.0	225.3980000851261	pulse	1.0	t		40.0	female	west_asian	1.5777954635893354	neutral	038	sub-10	2.0	3.0	038_neutral	0.0		249.08524314931128	
38.0	226.09798659217267	pulse	1.0	t		40.0	female	west_asian	1.5777954635893354	neutral	038	sub-10	2.0	3.0	038_neutral	0.0		249.78522965635784	
38.0	226.79797038252218	pulse	1.0	t		40.0	female	west_asian	1.5777954635893354	neutral	038	sub-10	2.0	3.0	038_neutral	0.0		250.48521344670735	
39.0	227.27282353725968	face	0.0		145	22.0	male	black	2.767608436132113	smiling	044	sub-10	2.0	3.0	044_smiling	0.0		250.96006660144485	1.2333411111503665
39.0	227.49796322854309	pulse	0.0	t		22.0	male	black	2.767608436132113	smiling	044	sub-10	2.0	3.0	044_smiling	0.0		251.18520629272825	
39.0	228.197954565283	pulse	0.0	t		22.0	male	black	2.767608436132113	smiling	044	sub-10	2.0	3.0	044_smiling	0.0		251.88519762946817	
39.0	228.50616464841005	fix	1.0		444	22.0	male	black	2.767608436132113	smiling	044	sub-10	2.0	3.0	044_smiling	0.0		252.19340771259522	3.7499342709161283
39.0	228.89793382779317	pulse	1.0	t		22.0	male	black	2.767608436132113	smiling	044	sub-10	2.0	3.0	044_smiling	0.0		252.58517689197834	
39.0	229.59792093855503	pulse	1.0	t		22.0	male	black	2.767608436132113	smiling	044	sub-10	2.0	3.0	044_smiling	0.0		253.2851640027402	
39.0	230.29791046416358	pulse	1.0	t		22.0	male	black	2.767608436132113	smiling	044	sub-10	2.0	3.0	044_smiling	0.0		253.98515352834875	
39.0	230.9978867081154	pulse	1.0	t		22.0	male	black	2.767608436132113	smiling	044	sub-10	2.0	3.0	044_smiling	0.0		254.68512977230057	
39.0	231.69787713928963	pulse	1.0	t		22.0	male	black	2.767608436132113	smiling	044	sub-10	2.0	3.0	044_smiling	0.0		255.3851202034748	
40.0	232.25609891932618	fix	0.0		720													255.94334198351135	5.999891030085564
40.0	232.3978769279929	pulse	0.0	t														256.0851199921781	
40.0	233.09784653112	pulse	0.0	t														256.7850895953052	
40.0	233.79785356435968	pulse	0.0	t														257.48509662854485	
40.0	234.4978476178003	pulse	0.0	t														258.18509068198546	
40.0	235.1978105801063	pulse	0.0	t														258.8850536442915	
40.0	235.89782636715972	pulse	0.0	t														259.5850694313449	
40.0	236.59790101607723	pulse	0.0	t														260.2851440802624	
40.0	237.2978808823027	pulse	0.0	t														260.9851239464879	
40.0	237.99777532335793	pulse	0.0	t														261.6850183875431	
