trial_nr	onset	event_type	phase	response	nr_frames	trial_type	stim_name	task_probe	onset_abs	duration
0.0	0.06007001220496022	baseline	0.0		40.0		baseline	0.0	127.1696010475589	0.34134979206646676
0.0	0.401419804271427	ISI	1.0		11.0		baseline	0.0	127.51095083962537	0.09999695126680308
1.0	0.5014167555382301	baseline	0.0		48.0		baseline	0.0	127.61094779089217	0.3999935403062409
1.0	0.7015344185419963	pulse	0.0	t			baseline	0.0	127.81106545389594	
1.0	0.901410295844471	ISI	1.0		11.0		baseline	0.0	128.0109413311984	0.0999954419930873
2.0	1.0014057378375583	baseline	0.0		48.0		baseline	0.0	128.1109367731915	0.39998297538841143
2.0	1.4013887132259697	ISI	1.0		11.0		baseline	0.0	128.5109197485799	0.09999755497665319
2.0	1.4060010546818376	pulse	1.0	t			baseline	0.0	128.51553209003578	
3.0	1.5013862682026229	baseline	0.0		48.0		baseline	0.0	128.61091730355656	0.3999902199047938
3.0	1.9013764881074167	ISI	1.0		11.0		baseline	0.0	129.01090752346136	0.09999846054051886
4.0	2.0013749486479355	baseline	0.0		48.0		baseline	0.0	129.11090598400187	0.399983277242427
4.0	2.101487812160485	pulse	0.0	t			baseline	0.0	129.21101884751442	
4.0	2.4013582258903625	ISI	1.0		11.0		baseline	0.0	129.5108892612443	0.10000449763720098
5.0	2.5013627235275635	baseline	0.0		48.0		baseline	0.0	129.6108937588815	0.3999929365982098
5.0	2.8014734136850166	pulse	0.0	t			baseline	0.0	129.91100444903896	
5.0	2.9013556601257733	ISI	1.0		11.0		baseline	0.0	130.0108866954797	0.09999815868468431
6.0	3.0013538188104576	baseline	0.0		48.0		baseline	0.0	130.1108848541644	0.39999414401791
6.0	3.4013479628283676	ISI	1.0		11.0		baseline	0.0	130.5108789981823	0.09999544199126831
7.0	3.501343404819636	baseline	0.0		47.0		baseline	0.0	130.61087444017357	0.39999172917850956
7.0	3.505565146153458	pulse	0.0	t			baseline	0.0	130.6150961815074	
7.0	3.9013351339981455	ISI	1.0		11.0		baseline	0.0	131.01086616935208	0.10003528682682372
8.0	4.001370420824969	baseline	0.0		48.0		baseline	0.0	131.1109014561789	0.3999536954725045
8.0	4.201444314881883	pulse	0.0	t			baseline	0.0	131.31097535023582	
8.0	4.401324116297474	ISI	1.0		11.0		baseline	0.0	131.5108551516514	0.09998699005882372
9.0	4.501311106356297	baseline	0.0		48.0		baseline	0.0	131.61084214171024	0.39999263474237523
9.0	4.901303741098673	ISI	1.0		11.0		baseline	0.0	132.0108347764526	0.09999695126680308
9.0	4.905809225951089	pulse	1.0	t			baseline	0.0	132.01534026130503	
10.0	5.001300692365476	baseline	0.0		48.0		baseline	0.0	132.11083172771941	0.3999923328865407
10.0	5.401293025252016	ISI	1.0		11.0		baseline	0.0	132.51082406060596	0.09999695126680308
11.0	5.5012899765188195	baseline	0.0		48.0		baseline	0.0	132.61082101187276	0.39999172917850956
11.0	5.601407971562367	pulse	0.0	t			baseline	0.0	132.7109390069163	
11.0	5.901281705697329	ISI	1.0		5.0		baseline	0.0	133.01081274105127	0.11668439057393698
12.0	6.017966096271266	adult	0.0		46.0	face	adult-131.jpg	0.0	133.1274971316252	0.38325116342457477
12.0	6.301349200432014	pulse	0.0	t		face	adult-131.jpg	0.0	133.41088023578595	
12.0	6.401217259695841	ISI	1.0		6.0	face	adult-131.jpg	0.0	133.51074829504978	0.10837251660268521
13.0	6.509589776298526	adult	0.0		47.0	face	adult-64.jpg	0.0	133.61912081165246	0.3916357844045706
13.0	6.901225560703097	ISI	1.0		6.0	face	adult-64.jpg	0.0	134.01075659605704	0.10834534967034415
14.0	7.009570910373441	adult	0.0		46.0	face	adult-14.jpg	0.0	134.11910194572738	0.39164514190269983
14.0	7.005118250111991	pulse	0.0	t		face	adult-14.jpg	0.0	134.11464928546593	
14.0	7.4012160522761405	ISI	1.0		7.0	face	adult-14.jpg	0.0	134.51074708763008	0.11668771097902209
15.0	7.517903763255163	adult	0.0		46.0	face	adult-36.jpg	0.0	134.6274347986091	0.383300667612275
15.0	7.701324931305862	pulse	0.0	t		face	adult-36.jpg	0.0	134.8108559666598	
15.0	7.901204430867438	ISI	1.0		4.0	face	adult-36.jpg	0.0	135.01073546622138	0.1166855979936372
16.0	8.017890028861075	adult	0.0		46.0	face	adult-85.jpg	0.0	135.127421064215	0.3833039880155411
16.0	8.401194016876616	ISI	1.0		7.0	face	adult-85.jpg	0.0	135.51072505223055	0.11668650355750287
16.0	8.437548806148698	pulse	1.0	t		face	adult-85.jpg	0.0	135.54707984150264	
17.0	8.517880520434119	adult	0.0		46.0	face	adult-96.jpg	0.0	135.62741155578806	0.3833027805958409
17.0	8.90118330102996	ISI	1.0		7.0	face	adult-96.jpg	0.0	136.0107143363839	0.11668891839690332
18.0	9.017872219426863	adult	0.0		46.0	face	adult-48.jpg	0.0	136.1274032547808	0.3833018750319752
18.0	9.101297341776444	pulse	0.0	t		face	adult-48.jpg	0.0	136.21082837713038	
18.0	9.401174094458838	ISI	1.0		6.0	face	adult-48.jpg	0.0	136.51070512981278	0.11668710726735299
19.0	9.517861201726191	adult	0.0		46.0	face	adult-81.jpg	0.0	136.62739223708013	0.3833027805958409
19.0	9.801279924753544	pulse	0.0	t		face	adult-81.jpg	0.0	136.91081096010748	
19.0	9.901163982322032	ISI	1.0		7.0	face	adult-81.jpg	0.0	137.01069501767597	0.11670038888041745
19.0	9.933900739875753	response	1.0	b		face	adult-81.jpg	0.0	137.0434317752297	
20.0	10.01786437120245	adult	0.0		46.0	face	adult-120.jpg	0.0	137.1273954065564	0.3832798396306316
20.0	10.401144210833081	ISI	1.0		6.0	face	adult-120.jpg	0.0	137.51067524618702	0.11668620170348731
21.0	10.517830412536568	adult	0.0		45.0	face	adult-50.jpg	0.0	137.6273614478905	0.3833130436596548
21.0	10.510065801328892	pulse	0.0	t		face	adult-50.jpg	0.0	137.61959683668283	
21.0	10.901143456196223	ISI	1.0		8.0	face	adult-50.jpg	0.0	138.01067449155016	0.11668529613780265
22.0	11.017828752334026	adult	0.0		46.0	face	adult-144.jpg	0.0	138.12735978768796	0.3833027805958409
22.0	11.201234525791733	pulse	0.0	t		face	adult-144.jpg	0.0	138.31076556114567	
22.0	11.401131532929867	ISI	1.0		7.0	face	adult-144.jpg	0.0	138.5106625682838	0.11668469242977153
23.0	11.517816225359638	adult	0.0		46.0	face	adult-61.jpg	0.0	138.62734726071358	0.3832958379352931
23.0	11.901112063294931	ISI	1.0		5.0	face	adult-61.jpg	0.0	139.01064309864887	0.11668650355932186
23.0	11.95008559093003	pulse	1.0	t		face	adult-61.jpg	0.0	139.05961662628397	
24.0	12.017798566854253	car	0.0		46.0	object	car-73.jpg	0.0	139.1273296022082	0.383348964382094
24.0	12.401147531236347	ISI	1.0		6.0	object	car-73.jpg	0.0	139.5106785665903	0.11668650355750287
25.0	12.51783403479385	car	0.0		46.0	object	car-12.jpg	0.0	139.6273650701478	0.3833012713221251
25.0	12.601263081256548	pulse	0.0	t		object	car-12.jpg	0.0	139.7107941166105	
25.0	12.901135306115975	ISI	1.0		4.0	object	car-12.jpg	0.0	140.0106663414699	0.11668801283303765
26.0	13.017823318949013	car	0.0		46.0	object	car-105.jpg	0.0	140.12735435430295	0.3832991583367402
26.0	13.301239627136965	pulse	0.0	t		object	car-105.jpg	0.0	140.4107706624909	
26.0	13.401122477285753	ISI	1.0		7.0	object	car-105.jpg	0.0	140.5106535126397	0.11668982396258798
27.0	13.517812301248341	car	0.0		46.0	object	car-100.jpg	0.0	140.62734333660228	0.3832695765668177
27.0	13.901081877815159	ISI	1.0		7.0	object	car-100.jpg	0.0	141.0106129131691	0.11667895718710497
28.0	14.017760835002264	car	0.0		45.0	object	car-84.jpg	0.0	141.1272918703562	0.38331062882207334
28.0	14.0078992384515	pulse	0.0	t		object	car-84.jpg	0.0	141.11743027380544	
28.0	14.401071463824337	ISI	1.0		6.0	object	car-84.jpg	0.0	141.51060249917828	0.1166855979936372
29.0	14.517757061817974	car	0.0		46.0	object	car-98.jpg	0.0	141.6272880971719	0.383303384305691
29.0	14.701161627854162	pulse	0.0	t		object	car-98.jpg	0.0	141.8106926632081	
29.0	14.901060446123665	ISI	1.0		7.0	object	car-98.jpg	0.0	142.0105914814776	0.11668378686590586
30.0	15.017744232989571	car	0.0		46.0	object	car-4.jpg	0.0	142.1272752683435	0.38330579914327245
30.0	15.401050032132844	ISI	1.0		6.0	object	car-4.jpg	0.0	142.51058106748678	0.11668499428378709
30.0	15.445558523459113	pulse	1.0	t		object	car-4.jpg	0.0	142.55508955881305	
31.0	15.51773502641663	car	0.0		46.0	object	car-57.jpg	0.0	142.62726606177057	0.38330308245167544
31.0	15.901038108868306	ISI	1.0		6.0	object	car-57.jpg	0.0	143.01056914422225	0.11671699089311005
32.0	16.017755099761416	car	0.0		46.0	object	car-83.jpg	0.0	143.12728613511536	0.3832722932602337
32.0	16.101153658888506	pulse	0.0	t		object	car-83.jpg	0.0	143.21068469424245	
32.0	16.40102739302165	ISI	1.0		7.0	object	car-83.jpg	0.0	143.5105584283756	0.11668620170348731
33.0	16.517713594725137	car	0.0		46.0	object	car-86.jpg	0.0	143.62724463007908	0.38329251753384597
33.0	16.801133827028025	pulse	0.0	t		object	car-86.jpg	0.0	143.91066486238196	
33.0	16.901006112258983	ISI	1.0		6.0	object	car-86.jpg	0.0	144.01053714761292	0.11669918145889824
34.0	17.01770529371788	car	0.0		46.0	object	car-85.jpg	0.0	144.12723632907182	0.3833018750319752
34.0	17.401007168749857	ISI	1.0		6.0	object	car-85.jpg	0.0	144.5105382041038	0.1166807683166553
35.0	17.517687937066512	car	0.0		45.0	object	car-131.jpg	0.0	144.62721897242045	0.38330911954835756
35.0	17.507746348990622	pulse	0.0	t		object	car-131.jpg	0.0	144.61727738434456	
35.0	17.90099705661487	ISI	1.0		7.0	object	car-131.jpg	0.0	145.0105280919688	0.1166855979936372
36.0	18.017682654608507	house	0.0		46.0	place	house-73.jpg	0.0	145.12721368996245	0.38330730841698823
36.0	18.201106539352622	pulse	0.0	t		place	house-73.jpg	0.0	145.31063757470656	
36.0	18.400989963025495	ISI	1.0		5.0	place	house-73.jpg	0.0	145.51052099837943	0.11668016460862418
37.0	18.51767012763412	house	0.0		46.0	place	house-23.jpg	0.0	145.62720116298806	0.3833070065629727
37.0	18.900977134197092	ISI	1.0		7.0	place	house-23.jpg	0.0	146.01050816955103	0.11668378686408687
37.0	18.93612450424189	pulse	1.0	t		place	house-23.jpg	0.0	146.04565553959583	
38.0	19.01766092106118	house	0.0		46.0	place	house-72.jpg	0.0	146.12719195641512	0.38330428987137566
38.0	19.400965210932554	ISI	1.0		7.0	place	house-72.jpg	0.0	146.5104962462865	0.1166753349298233
39.0	19.517640545862378	house	0.0		46.0	place	house-119.jpg	0.0	146.62717158121632	0.3833474551083782
39.0	19.601113361271928	pulse	0.0	t		place	house-119.jpg	0.0	146.71064439662587	
39.0	19.900988000970756	ISI	1.0		5.0	place	house-119.jpg	0.0	147.0105190363247	0.11667744791338919
40.0	20.017665448884145	house	0.0		46.0	place	house-44.jpg	0.0	147.12719648423808	0.3833118362399546
40.0	20.301092925701596	pulse	0.0	t		place	house-44.jpg	0.0	147.41062396105553	
40.0	20.4009772851241	ISI	1.0		7.0	place	house-44.jpg	0.0	147.51050832047804	0.11669133323630376
41.0	20.517668618360403	house	0.0		46.0	place	house-55.jpg	0.0	147.62719965371434	0.383297950918859
41.0	20.900966569279262	ISI	1.0		7.0	place	house-55.jpg	0.0	148.0104976046332	0.11668197573635553
42.0	21.017648545015618	house	0.0		45.0	place	house-75.jpg	0.0	148.12717958036956	0.38330851583668846
42.0	21.007858789906095	pulse	0.0	t		place	house-75.jpg	0.0	148.11738982526003	
42.0	21.400957060852306	ISI	1.0		5.0	place	house-75.jpg	0.0	148.51048809620625	0.11668922025091888
43.0	21.517646281103225	house	0.0		46.0	place	house-138.jpg	0.0	148.62717731645716	0.3832991583385592
43.0	21.701064430606493	pulse	0.0	t		place	house-138.jpg	0.0	148.81059546596043	
43.0	21.900945439441784	ISI	1.0		7.0	place	house-138.jpg	0.0	149.01047647479572	0.11668861654288776
44.0	22.017634055984672	house	0.0		46.0	place	house-139.jpg	0.0	149.1271650913386	0.3833018750301562
44.0	22.40093593101483	ISI	1.0		7.0	place	house-139.jpg	0.0	149.51046696636877	0.11669193694615387
44.0	22.43705799023337	pulse	1.0	t		place	house-139.jpg	0.0	149.5465890255873	
45.0	22.517627867960982	house	0.0		46.0	place	house-143.jpg	0.0	149.62715890331492	0.38329674349915877
45.0	22.90092461146014	ISI	1.0		7.0	place	house-143.jpg	0.0	150.01045564681408	0.11670582226543047
46.0	23.01763043372557	house	0.0		46.0	place	house-28.jpg	0.0	150.1271614690795	0.3832846693076135
46.0	23.101038048496775	pulse	0.0	t		place	house-28.jpg	0.0	150.21056908385071	
46.0	23.400915103033185	ISI	1.0		7.0	place	house-28.jpg	0.0	150.51044613838712	0.11668408871992142
47.0	23.517599191753106	house	0.0		46.0	place	house-33.jpg	0.0	150.62713022710705	0.3833045917253912
47.0	23.801021838893575	pulse	0.0	t		place	house-33.jpg	0.0	150.91055287424751	
47.0	23.900903783478498	ISI	1.0		7.0	place	house-33.jpg	0.0	151.01043481883244	0.11669465363775089
48.0	24.01759843711625	house	0.0		46.0	place	house-58.jpg	0.0	151.1271294724702	0.3832964416451432
48.0	24.40089487876139	ISI	1.0		7.0	place	house-58.jpg	0.0	151.51042591411533	0.11667080710867594
49.0	24.517565685870068	house	0.0		45.0	place	house-2.jpg	0.0	151.627096721224	0.38331817519065225
49.0	24.50787886325088	pulse	0.0	t		place	house-2.jpg	0.0	151.61740989860482	
49.0	24.90088386106072	ISI	1.0		7.0	place	house-2.jpg	0.0	152.01041489641466	0.11668801283303765
50.0	25.017571873893758	house	0.0		46.0	place	house-42.jpg	0.0	152.1271029092477	0.38330036575825943
50.0	25.20099032525104	pulse	0.0	t		place	house-42.jpg	0.0	152.31052136060498	
50.0	25.400872239652017	ISI	1.0		5.0	place	house-42.jpg	0.0	152.51040327500596	0.11668922025091888
51.0	25.517561459902936	house	0.0		46.0	place	house-116.jpg	0.0	152.62709249525687	0.38330157317614066
51.0	25.900863033079077	ISI	1.0		7.0	place	house-116.jpg	0.0	153.01039406843302	0.11668801283303765
51.0	25.93615589714136	pulse	1.0	t		place	house-116.jpg	0.0	153.0456869324953	
52.0	26.017551045912114	house	0.0		46.0	place	house-116.jpg	1.0	153.12708208126605	0.3833027805958409
52.0	26.400853826507955	ISI	1.0		5.0	place	house-116.jpg	1.0	153.5103848618619	0.11669072952645365
53.0	26.51754455603441	house	0.0		46.0	place	house-115.jpg	0.0	153.62707559138835	0.3832544838260219
53.0	26.600971187657706	pulse	0.0	t		place	house-115.jpg	0.0	153.71050222301164	
53.0	26.90079903986043	ISI	1.0		7.0	place	house-115.jpg	0.0	154.01033007521437	0.11669616291146667
54.0	27.017495202771897	house	0.0		46.0	place	house-68.jpg	0.0	154.12702623812584	0.38330157317795965
54.0	27.30091634063865	pulse	0.0	t		place	house-68.jpg	0.0	154.4104473759926	
54.0	27.400796775949857	ISI	1.0		7.0	place	house-68.jpg	0.0	154.5103278113038	0.11668952210675343
55.0	27.51748629805661	house	0.0		46.0	place	house-66.jpg	0.0	154.62701733341055	0.3833027805958409
55.0	27.90078907865245	ISI	1.0		7.0	place	house-66.jpg	0.0	155.0103201140064	0.1166807683166553
56.0	28.017469846969107	house	0.0		45.0	place	house-41.jpg	0.0	155.12700088232305	0.38330851583668846
56.0	28.00760915598039	pulse	0.0	t		place	house-41.jpg	0.0	155.11714019133433	
56.0	28.400778362805795	ISI	1.0		7.0	place	house-41.jpg	0.0	155.51030939815973	0.1166855979936372
57.0	28.517463960799432	house	0.0		46.0	place	house-131.jpg	0.0	155.62699499615337	0.38327953777661605
57.0	28.7008845251421	pulse	0.0	t		place	house-131.jpg	0.0	155.81041556049604	
57.0	28.90074349857605	ISI	1.0		7.0	place	house-131.jpg	0.0	156.01027453393	0.11673751702073787
58.0	29.017481015596786	house	0.0		46.0	place	house-14.jpg	0.0	156.12701205095073	0.38326776543908636
58.0	29.400748781035873	ISI	1.0		7.0	place	house-14.jpg	0.0	156.5102798163898	0.11669465363775089
58.0	29.43778002693216	pulse	1.0	t		place	house-14.jpg	0.0	156.5473110622861	
59.0	29.517443434673623	house	0.0		46.0	place	house-43.jpg	0.0	156.62697447002756	0.38330428986955667
59.0	29.90074772454318	ISI	1.0		7.0	place	house-43.jpg	0.0	157.01027875989712	0.11668861654288776
60.0	30.017436341086068	adult	0.0		46.0	face	adult-31.jpg	0.0	157.12696737644	0.383300667612275
60.0	30.10093571971811	pulse	0.0	t		face	adult-31.jpg	0.0	157.21046675507205	
60.0	30.400737008698343	ISI	1.0		7.0	face	adult-31.jpg	0.0	157.51026804405228	0.1166855979936372
61.0	30.51742260669198	adult	0.0		46.0	face	adult-71.jpg	0.0	157.62695364204592	0.383306100999107
61.0	30.8008422352832	pulse	0.0	t		face	adult-71.jpg	0.0	157.91037327063714	
61.0	30.900728707691087	ISI	1.0		6.0	face	adult-71.jpg	0.0	158.01025974304503	0.11668227759037109
62.0	31.017410985281458	adult	0.0		46.0	face	adult-42.jpg	0.0	158.1269420206354	0.3833070065629727
62.0	31.40071799184443	ISI	1.0		7.0	face	adult-42.jpg	0.0	158.51024902719837	0.11666567557767848
63.0	31.51738366742211	adult	0.0		45.0	face	adult-40.jpg	0.0	158.62691470277605	0.3833239104314998
63.0	31.507391669592835	pulse	0.0	t		face	adult-40.jpg	0.0	158.61692270494677	
63.0	31.90070757785361	ISI	1.0		5.0	face	adult-40.jpg	0.0	159.01023861320755	0.11666959968897572
64.0	32.017377177542585	adult	0.0		46.0	face	adult-25.jpg	0.0	159.12690821289652	0.38331817519247124
64.0	32.200815551317646	pulse	0.0	t		face	adult-25.jpg	0.0	159.31034658667159	
64.0	32.400695352735056	ISI	1.0		7.0	face	adult-25.jpg	0.0	159.510226388089	0.11667563678383885
65.0	32.517370989518895	adult	0.0		46.0	face	adult-83.jpg	0.0	159.62690202487283	0.38334564397882787
65.0	32.90071663349772	ISI	1.0		7.0	face	adult-83.jpg	0.0	160.01024766885166	0.11667895718892396
65.0	32.937422178058114	pulse	1.0	t		face	adult-83.jpg	0.0	160.04695321341205	
66.0	33.01739559068665	adult	0.0		46.0	face	adult-83.jpg	1.0	160.12692662604059	0.38331334551367036
66.0	33.05920459447225	response	0.0	b		face	adult-83.jpg	1.0	160.1687356298262	
66.0	33.40070893620032	ISI	1.0		6.0	face	adult-83.jpg	1.0	160.51023997155426	0.11668710726917197
67.0	33.51739604346949	adult	0.0		46.0	face	adult-90.jpg	0.0	160.62692707882343	0.38326867100113304
67.0	33.60085346428241	pulse	0.0	t		face	adult-90.jpg	0.0	160.71038449963635	
67.0	33.90066471447062	ISI	1.0		6.0	face	adult-90.jpg	0.0	161.01019574982456	0.11668529613962164
68.0	34.017350010610244	adult	0.0		46.0	face	adult-135.jpg	0.0	161.12688104596418	0.3833039880155411
68.0	34.300752131623085	pulse	0.0	t		face	adult-135.jpg	0.0	161.41028316697702	
68.0	34.400653998625785	ISI	1.0		7.0	face	adult-135.jpg	0.0	161.51018503397972	0.11668680541333742
69.0	34.51734080403912	adult	0.0		46.0	face	adult-117.jpg	0.0	161.62687183939306	0.3833021768859908
69.0	34.90064298092511	ISI	1.0		6.0	face	adult-117.jpg	0.0	162.01017401627905	0.11668257944620564
70.0	35.01732556037132	adult	0.0		45.0	face	adult-19.jpg	0.0	162.12685659572526	0.38331002511040424
70.0	35.00751950510312	pulse	0.0	t		face	adult-19.jpg	0.0	162.11705054045706	
70.0	35.40063558548172	ISI	1.0		7.0	face	adult-19.jpg	0.0	162.51016662083566	0.11668318315605575
71.0	35.51731876863778	adult	0.0		46.0	face	adult-63.jpg	0.0	162.62684980399172	0.38329342309771164
71.0	35.700742653381894	pulse	0.0	t		face	adult-63.jpg	0.0	162.81027368873583	
71.0	35.90061219173549	ISI	1.0		5.0	face	adult-63.jpg	0.0	163.01014322708943	0.11670038887859846
72.0	36.01731258061409	house	0.0		46.0	place	house-38.jpg	0.0	163.12684361596803	0.3833018750319752
72.0	36.400614455646064	ISI	1.0		6.0	place	house-38.jpg	0.0	163.510145491	0.11668439057393698
72.0	36.44741674165198	pulse	1.0	t		place	house-38.jpg	0.0	163.55694777700592	
73.0	36.51729884622	house	0.0		46.0	place	house-86.jpg	0.0	163.62682988157394	0.3833073084188072
73.0	36.90060615463881	ISI	1.0		7.0	place	house-86.jpg	0.0	164.01013718999275	0.11668107017248985
74.0	37.0172872248113	house	0.0		46.0	place	house-108.jpg	0.0	164.12681826016524	0.383306100997288
74.0	37.10080199803815	pulse	0.0	t		place	house-108.jpg	0.0	164.2103330333921	
74.0	37.400593325808586	ISI	1.0		5.0	place	house-108.jpg	0.0	164.51012436116253	0.11668257944620564
75.0	37.51727590525479	house	0.0		46.0	place	house-59.jpg	0.0	164.62680694060873	0.38330579914509144
75.0	37.80069734497556	pulse	0.0	t		place	house-59.jpg	0.0	164.9102283803295	
75.0	37.90058170439988	ISI	1.0		7.0	place	house-59.jpg	0.0	165.01011273975382	0.11668469242977153
76.0	38.017266396829655	house	0.0		46.0	place	house-63.jpg	0.0	165.1267974321836	0.3833048935794068
76.0	38.40057129040906	ISI	1.0		7.0	place	house-63.jpg	0.0	165.510102325763	0.11670793524899636
77.0	38.51727922565806	house	0.0		45.0	place	house-54.jpg	0.0	165.626810261012	0.3832840655977634
77.0	38.50770318375362	pulse	0.0	t		place	house-54.jpg	0.0	165.61723421910756	
77.0	38.90056329125582	ISI	1.0		4.0	place	house-54.jpg	0.0	166.01009432660976	0.11668137202650541
78.0	39.01724466328233	house	0.0		46.0	place	house-102.jpg	0.0	166.12677569863627	0.3833076102728228
78.0	39.20067005730198	pulse	0.0	t		place	house-102.jpg	0.0	166.31020109265592	
78.0	39.40055227355515	ISI	1.0		6.0	place	house-102.jpg	0.0	166.5100833089091	0.11668499428560608
79.0	39.517237267840756	house	0.0		46.0	place	house-70.jpg	0.0	166.6267683031947	0.38333417349531373
79.0	39.90057144133607	ISI	1.0		6.0	place	house-70.jpg	0.0	167.01010247669	0.11667835347907385
79.0	39.944512143769316	pulse	1.0	t		place	house-70.jpg	0.0	167.05404317912325	
80.0	40.01724979481514	house	0.0		46.0	place	house-123.jpg	0.0	167.12678083016908	0.3832813489043474
80.0	40.40053114371949	ISI	1.0		6.0	place	house-123.jpg	0.0	167.51006217907343	0.11667563678565784
81.0	40.51720678050515	house	0.0		46.0	place	house-76.jpg	0.0	167.6267378158591	0.38331334551367036
81.0	40.60064367519044	pulse	0.0	t		place	house-76.jpg	0.0	167.71017471054438	
81.0	40.90052012601882	ISI	1.0		6.0	place	house-76.jpg	0.0	168.01005116137276	0.1166732219462574
82.0	41.017193347965076	house	0.0		46.0	place	house-26.jpg	0.0	168.12672438331902	0.3833163640629209
82.0	41.300628974862775	pulse	0.0	t		place	house-26.jpg	0.0	168.4101600102167	
82.0	41.400509712028	ISI	1.0		7.0	place	house-26.jpg	0.0	168.51004074738194	0.11668499428378709
83.0	41.517194706311784	house	0.0		46.0	place	house-124.jpg	0.0	168.62672574166572	0.38330519543524133
83.0	41.900499901747025	ISI	1.0		5.0	place	house-124.jpg	0.0	169.01003093710096	0.11669404992790078
84.0	42.017193951674926	body	0.0		45.0	body	body-78.jpg	0.0	169.12672498702887	0.3832949323714274
84.0	42.00761730606064	pulse	0.0	t		body	body-78.jpg	0.0	169.11714834141458	
84.0	42.400488884046354	ISI	1.0		6.0	body	body-78.jpg	0.0	169.5100199194003	0.11668680541333742
85.0	42.51717568945969	body	0.0		46.0	body	body-105.jpg	0.0	169.62670672481363	0.38330368615970656
85.0	42.700596555656375	pulse	0.0	t		body	body-105.jpg	0.0	169.8101275910103	
85.0	42.9004793756194	ISI	1.0		7.0	body	body-105.jpg	0.0	170.01001041097334	0.11668439057575597
86.0	43.017163766195154	body	0.0		46.0	body	body-11.jpg	0.0	170.1266948015491	0.38330459172357223
86.0	43.400468357918726	ISI	1.0		5.0	body	body-11.jpg	0.0	170.50999939327266	0.11668589984947175
86.0	43.455609986685886	pulse	1.0	t		body	body-11.jpg	0.0	170.56514102203982	
87.0	43.5171542577682	body	0.0		46.0	body	body-96.jpg	0.0	170.62668529312214	0.3833039880155411
87.0	43.90045824578374	ISI	1.0		7.0	body	body-96.jpg	0.0	171.00998928113768	0.11668378686408687
88.0	44.017142032647826	body	0.0		46.0	body	body-96.jpg	1.0	171.12667306800176	0.3832916119681613
88.0	44.10056926798097	pulse	0.0	t		body	body-96.jpg	1.0	171.2101003033349	
88.0	44.375540584227565	response	0.0	b		body	body-96.jpg	1.0	171.4850716195815	
88.0	44.40043364461599	ISI	1.0		7.0	body	body-96.jpg	1.0	171.50996467996993	0.11673329105360608
89.0	44.51716693566959	body	0.0		46.0	body	body-31.jpg	0.0	171.62669797102353	0.38326867100295203
89.0	44.80052649515528	pulse	0.0	t		body	body-31.jpg	0.0	171.91005753050922	
89.0	44.900435606672545	ISI	1.0		6.0	body	body-31.jpg	0.0	172.00996664202648	0.11668529613962164
90.0	45.01712090281217	body	0.0		46.0	body	body-33.jpg	0.0	172.1266519381661	0.3833012713221251
90.0	45.40042217413429	ISI	1.0		6.0	body	body-33.jpg	0.0	172.50995320948823	0.11668439057393698
91.0	45.51710656470823	body	0.0		45.0	body	body-57.jpg	0.0	172.62663760006217	0.38328436745359795
91.0	45.511095729931185	pulse	0.0	t		body	body-57.jpg	0.0	172.62062676528512	
91.0	45.90039093216183	ISI	1.0		7.0	body	body-57.jpg	0.0	173.00992196751577	0.11671035008839681
92.0	46.01710128225022	body	0.0		46.0	body	body-19.jpg	0.0	173.12663231760416	0.38332994752818195
92.0	46.20055655989381	pulse	0.0	t		body	body-19.jpg	0.0	173.31008759524775	
92.0	46.400431229778405	ISI	1.0		5.0	body	body-19.jpg	0.0	173.50996226513234	0.11669435178373533
93.0	46.51712558156214	body	0.0		46.0	body	body-17.jpg	0.0	173.62665661691608	0.3832689728569676
93.0	46.90039455441911	ISI	1.0		7.0	body	body-17.jpg	0.0	174.00992558977305	0.11668499428378709
93.0	46.934768572447865	pulse	1.0	t		body	body-17.jpg	0.0	174.0442996078018	
94.0	47.017079548702895	body	0.0		46.0	body	body-112.jpg	0.0	174.12661058405683	0.38330428986955667
94.0	47.40038383857245	ISI	1.0		6.0	body	body-112.jpg	0.0	174.5099148739264	0.11668680541333742
95.0	47.51707064398579	body	0.0		46.0	body	body-132.jpg	0.0	174.62660167933973	0.38330579914509144
95.0	47.600495464481355	pulse	0.0	t		body	body-132.jpg	0.0	174.7100264998353	
95.0	47.90037644313088	ISI	1.0		11.0	body	body-132.jpg	0.0	175.00990747848482	0.09999695126680308
96.0	48.000373394397684	baseline	0.0		48.0		baseline	0.0	175.10990442975162	0.39999172917669057
96.0	48.30047895302232	pulse	0.0	t			baseline	0.0	175.41000998837626	
96.0	48.400365123574375	ISI	1.0		11.0		baseline	0.0	175.5098961589283	0.09997974554244138
97.0	48.500344869116816	baseline	0.0		48.0		baseline	0.0	175.60987590447075	0.40000953861272137
97.0	48.90035440772954	ISI	1.0		11.0		baseline	0.0	176.00988544308348	0.0999906123161054
98.0	49.00034502004564	baseline	0.0		47.0		baseline	0.0	176.10987605539958	0.3999998792569386
98.0	49.00465792153045	pulse	0.0	t			baseline	0.0	176.1141889568844	
98.0	49.40034489930258	ISI	1.0		11.0		baseline	0.0	176.50987593465652	0.09999393271937151
99.0	49.50033883202195	baseline	0.0		48.0		baseline	0.0	176.6098698673759	0.39999323845222534
99.0	49.7004525709126	pulse	0.0	t			baseline	0.0	176.80998360626654	
99.0	49.90033207047418	ISI	1.0		11.0		baseline	0.0	177.00986310582812	0.09998668820298917
100.0	50.00031875867717	baseline	0.0		48.0		baseline	0.0	177.1098497940311	0.40000501078975503
100.0	50.40032376946692	ISI	1.0		11.0		baseline	0.0	177.50985480482086	0.09998849933072051
100.0	50.4049391294684	pulse	1.0	t			baseline	0.0	177.51447016482234	
101.0	50.50031226879764	baseline	0.0		48.0		baseline	0.0	177.60984330415158	0.3999974644211761
101.0	50.90030973321882	ISI	1.0		11.0		baseline	0.0	178.00984076857276	0.0999900086044363
102.0	51.000299741823255	baseline	0.0		48.0		baseline	0.0	178.1098307771772	0.40000138853247336
102.0	51.10041230348179	pulse	0.0	t			baseline	0.0	178.20994333883573	
102.0	51.40030113035573	ISI	1.0		11.0		baseline	0.0	178.50983216570967	0.09997974554244138
103.0	51.50028087589817	baseline	0.0		48.0		baseline	0.0	178.6098119112521	0.40001376457985316
103.0	51.80040665879642	pulse	0.0	t			baseline	0.0	178.90993769415036	
103.0	51.90029464047802	ISI	1.0		11.0		baseline	0.0	179.00982567583196	0.09999423457338708
104.0	52.00028887505141	baseline	0.0		48.0		baseline	0.0	179.10981991040535	0.39999384216207545
104.0	52.400282717213486	ISI	1.0		11.0		baseline	0.0	179.50981375256742	0.09999785683066875
105.0	52.500280574044154	baseline	0.0		47.0		baseline	0.0	179.6098116093981	0.40005874094458704
105.0	52.50460343673876	pulse	0.0	t			baseline	0.0	179.6141344720927	
105.0	52.90033931498874	ISI	1.0		11.0		baseline	0.0	180.00987035034268	0.0999857826391235
106.0	53.000325097627865	baseline	0.0		48.0		baseline	0.0	180.1098561329818	0.39999172917850956
106.0	53.200438232808665	pulse	0.0	t			baseline	0.0	180.3099692681626	
106.0	53.400316826806375	ISI	1.0		11.0		baseline	0.0	180.5098478621603	0.10000962916819844
107.0	53.50032645597457	baseline	0.0		48.0		baseline	0.0	180.6098574913285	0.399991427322675
107.0	53.90031788329725	ISI	1.0		7.0		baseline	0.0	181.0098489186512	0.11663639566177153
107.0	53.93287081127346	pulse	1.0	t			baseline	0.0	181.0424018466274	
108.0	54.01695427895902	body	0.0		46.0	body	body-26.jpg	0.0	181.12648531431296	0.3832840655977634
108.0	54.40023834455678	ISI	1.0		8.0	body	body-26.jpg	0.0	181.50976937991072	0.11668801283121866
109.0	54.516926357388	body	0.0		46.0	body	body-26.jpg	1.0	181.62645739274194	0.38330096946810954
109.0	54.60034815933432	pulse	0.0	t		body	body-26.jpg	1.0	181.70987919468826	
109.0	54.90022732685611	ISI	1.0		8.0	body	body-26.jpg	1.0	182.00975836221005	0.11667925904293952
109.0	54.958670643503865	response	1.0	b		body	body-26.jpg	1.0	182.0682016788578	
110.0	55.01690658589905	body	0.0		46.0	body	body-142.jpg	0.0	182.126437621253	0.3833124399498047
110.0	55.30033104416725	pulse	0.0	t		body	body-142.jpg	0.0	182.4098620795212	
110.0	55.400219025848855	ISI	1.0		6.0	body	body-142.jpg	0.0	182.5097500612028	0.11668499428378709
111.0	55.51690402013264	body	0.0		46.0	body	body-144.jpg	0.0	182.62643505548658	0.38330308245167544
111.0	55.90020710258432	ISI	1.0		7.0	body	body-144.jpg	0.0	183.00973813793826	0.11668046646082075
112.0	56.01688756904514	body	0.0		45.0	body	body-86.jpg	0.0	183.12641860439908	0.38330911954835756
112.0	56.00910182800362	pulse	0.0	t		body	body-86.jpg	0.0	183.11863286335756	
112.0	56.400196688593496	ISI	1.0		8.0	body	body-86.jpg	0.0	183.50972772394744	0.11668469242795254
113.0	56.51688138102145	body	0.0		46.0	body	body-109.jpg	0.0	183.6264124163754	0.3833073084188072
113.0	56.70030737875095	pulse	0.0	t		body	body-109.jpg	0.0	183.8098384141049	
113.0	56.900188689440256	ISI	1.0		8.0	body	body-109.jpg	0.0	184.0097197247942	0.11668620170348731
114.0	57.01687489114374	body	0.0		46.0	body	body-58.jpg	0.0	184.12640592649768	0.38327893406676594
114.0	57.40015382521051	ISI	1.0		8.0	body	body-58.jpg	0.0	184.50968486056445	0.11673359290762164
114.0	57.43192374181672	pulse	1.0	t		body	body-58.jpg	0.0	184.54145477717066	
115.0	57.51688741811813	body	0.0		46.0	body	body-97.jpg	0.0	184.62641845347207	0.38327802850290027
115.0	57.90016544662103	ISI	1.0		8.0	body	body-97.jpg	0.0	185.00969648197497	0.11668650355750287
116.0	58.016851950178534	body	0.0		46.0	body	body-66.jpg	0.0	185.12638298553247	0.3833045917253912
116.0	58.10028009107555	pulse	0.0	t		body	body-66.jpg	0.0	185.20981112642949	
116.0	58.400156541903925	ISI	1.0		7.0	body	body-66.jpg	0.0	185.50968757725786	0.11668589984765276
117.0	58.51684244175158	body	0.0		46.0	body	body-63.jpg	0.0	185.62637347710552	0.3833018750319752
117.0	58.80026056106908	pulse	0.0	t		body	body-63.jpg	0.0	185.90979159642302	
117.0	58.90014431678355	ISI	1.0		8.0	body	body-63.jpg	0.0	186.0096753521375	0.11668650355932186
118.0	59.016830820342875	body	0.0		46.0	body	body-106.jpg	0.0	186.1263618556968	0.3833054972892569
118.0	59.40013631763213	ISI	1.0		6.0	body	body-106.jpg	0.0	186.50966735298607	0.11667744791338919
119.0	59.51681376554552	body	0.0		45.0	body	body-46.jpg	0.0	186.62634480089946	0.3833094214023731
119.0	59.50865281897677	pulse	0.0	t		body	body-46.jpg	0.0	186.6181838543307	
119.0	59.900123186947894	ISI	1.0		6.0	body	body-46.jpg	0.0	187.00965422230183	0.1166877109772031
120.0	60.0168108979251	car	0.0		46.0	object	car-17.jpg	0.0	187.12634193327904	0.3833350790591794
120.0	60.200262553311404	pulse	0.0	t		object	car-17.jpg	0.0	187.30979358866534	
120.0	60.40014597698428	ISI	1.0		7.0	object	car-17.jpg	0.0	187.50967701233822	0.11669103138046921
121.0	60.516837008364746	car	0.0		46.0	object	car-106.jpg	0.0	187.62636804371868	0.38329946019439376
121.0	60.90013646855914	ISI	1.0		7.0	object	car-106.jpg	0.0	188.00966750391308	0.11671336863582837
121.0	60.939920328442895	pulse	1.0	t		object	car-106.jpg	0.0	188.04945136379683	
122.0	61.01684983719497	car	0.0		46.0	object	car-138.jpg	0.0	188.1263808725489	0.3832756136634998
122.0	61.40012545085847	ISI	1.0		5.0	object	car-138.jpg	0.0	188.5096564862124	0.1166877109772031
123.0	61.51681316183567	car	0.0		46.0	object	car-8.jpg	0.0	188.6263441971896	0.3833000639024249
123.0	61.60024160458852	pulse	0.0	t		object	car-8.jpg	0.0	188.70977263994246	
123.0	61.900113225738096	ISI	1.0		6.0	object	car-8.jpg	0.0	189.00964426109203	0.11669163509031932
124.0	62.016804860828415	car	0.0		46.0	object	car-69.jpg	0.0	189.12633589618235	0.3833039880155411
124.0	62.300218754178786	pulse	0.0	t		object	car-69.jpg	0.0	189.40974978953273	
124.0	62.400108848843956	ISI	1.0		5.0	object	car-69.jpg	0.0	189.5096398841979	0.11668408871992142
125.0	62.51679293756388	car	0.0		46.0	object	car-141.jpg	0.0	189.62632397291782	0.3832716895503836
125.0	62.90006462711426	ISI	1.0		6.0	object	car-141.jpg	0.0	190.0095956624682	0.11671035008839681
126.0	63.01677497720266	car	0.0		45.0	object	car-39.jpg	0.0	190.1263060125566	0.3833024787418253
126.0	63.00390117152892	pulse	0.0	t		object	car-39.jpg	0.0	190.11343220688286	
126.0	63.40007745594448	ISI	1.0		6.0	object	car-39.jpg	0.0	190.50960849129842	0.11669223879835044
127.0	63.516769694742834	car	0.0		46.0	object	car-5.jpg	0.0	190.62630073009677	0.383311534385939
127.0	63.70019207021505	pulse	0.0	t		object	car-5.jpg	0.0	190.809723105569	
127.0	63.90008122912877	ISI	1.0		5.0	object	car-5.jpg	0.0	191.0096122644827	0.11668046646263974
128.0	64.01676169559141	car	0.0		46.0	object	car-26.jpg	0.0	191.12629273094535	0.3832828581780632
128.0	64.40004455376948	ISI	1.0		5.0	object	car-26.jpg	0.0	191.50957558912341	0.11669706847715133
128.0	64.44896948278074	pulse	1.0	t		object	car-26.jpg	0.0	191.55850051813468	
129.0	64.51674162224663	car	0.0		46.0	object	car-111.jpg	0.0	191.62627265760057	0.3832991583385592
129.0	64.90004078058519	ISI	1.0		7.0	object	car-111.jpg	0.0	192.00957181593913	0.11668740912318754
130.0	65.01672818970837	car	0.0		46.0	object	car-71.jpg	0.0	192.1262592250623	0.3832584079391381
130.0	65.10011799504537	pulse	0.0	t		object	car-71.jpg	0.0	192.2096490303993	
130.0	65.39998659764751	ISI	1.0		7.0	object	car-71.jpg	0.0	192.50951763300145	0.11668378686408687
131.0	65.5166703845116	car	0.0		46.0	object	car-29.jpg	0.0	192.62620141986554	0.3833145529333706
131.0	65.80010963366658	pulse	0.0	t		object	car-29.jpg	0.0	192.90964066902052	
131.0	65.89998493744497	ISI	1.0		6.0	object	car-29.jpg	0.0	193.0095159727989	0.11666869412511005
132.0	66.01665363157008	adult	0.0		46.0	face	adult-69.jpg	0.0	193.12618466692402	0.3833217974497529
132.0	66.39997542901983	ISI	1.0		7.0	face	adult-69.jpg	0.0	193.50950646437377	0.11665933662516181
133.0	66.516634765645	adult	0.0		45.0	face	adult-1.jpg	0.0	193.62616580099893	0.3833414180116961
133.0	66.5081819254774	pulse	0.0	t		face	adult-1.jpg	0.0	193.61771296083134	
133.0	66.89997618365669	ISI	1.0		0.0	face	adult-1.jpg	0.0	194.00950721901063	0.16668905423102842
134.0	67.06666523788772	adult	0.0		40.0	face	adult-113.jpg	0.0	194.17619627324166	0.3332950983913179
134.0	67.20010558881222	pulse	0.0	t		face	adult-113.jpg	0.0	194.30963662416616	
134.0	67.39996033627904	ISI	1.0		7.0	face	adult-113.jpg	0.0	194.50949137163298	0.11668499428378709
135.0	67.51664533056282	adult	0.0		46.0	face	adult-6.jpg	0.0	194.62617636591676	0.383292517532027
135.0	67.89993784809485	ISI	1.0		7.0	face	adult-6.jpg	0.0	195.0094688834488	0.11671970758834505
135.0	67.93293118223664	pulse	1.0	t		face	adult-6.jpg	0.0	195.04246221759058	
136.0	68.0166575556832	adult	0.0		46.0	face	adult-129.jpg	0.0	195.12618859103713	0.38328798970906064
136.0	68.39994554539226	ISI	1.0		7.0	face	adult-129.jpg	0.0	195.5094765807462	0.11667925904475851
137.0	68.51662480443701	adult	0.0		46.0	face	adult-7.jpg	0.0	195.62615583979095	0.3833070065629727
137.0	68.60010003468415	pulse	0.0	t		face	adult-7.jpg	0.0	195.70963107003809	
137.0	68.89993181099999	ISI	1.0		7.0	face	adult-7.jpg	0.0	196.00946284635393	0.11668016460680519
138.0	69.01661197560679	adult	0.0		46.0	face	adult-122.jpg	0.0	196.12614301096073	0.38330368615970656
138.0	69.30002949121445	pulse	0.0	t		face	adult-122.jpg	0.0	196.40956052656838	
138.0	69.3999156617665	ISI	1.0		0.0	face	adult-122.jpg	0.0	196.50944669712044	0.16669780802112655
139.0	69.56661346978763	adult	0.0		40.0	face	adult-106.jpg	0.0	196.67614450514156	0.3332818167800724
139.0	69.8998952865677	ISI	1.0		7.0	face	adult-106.jpg	0.0	197.00942632192164	0.11670099258844857
140.0	70.01659627915615	adult	0.0		45.0	face	adult-100.jpg	0.0	197.1261273145101	0.38329523422726197
140.0	70.0086873813525	pulse	0.0	t		face	adult-100.jpg	0.0	197.11821841670644	
140.0	70.39989151338341	ISI	1.0		0.0	face	adult-100.jpg	0.0	197.50942254873735	0.1583479003420507
141.0	70.55823941372546	adult	0.0		41.0	face	adult-126.jpg	0.0	197.6677704490794	0.34165798582580464
141.0	70.70000431652443	pulse	0.0	t		face	adult-126.jpg	0.0	197.80953535187837	
141.0	70.89989739955126	ISI	1.0		8.0	face	adult-126.jpg	0.0	198.0094284349052	0.11668861654288776
142.0	71.01658601609415	adult	0.0		46.0	face	adult-45.jpg	0.0	198.1261170514481	0.38333055123803206
142.0	71.39991656733218	ISI	1.0		7.0	face	adult-45.jpg	0.0	198.50944760268612	0.11669072952463466
142.0	71.4324770416788	pulse	1.0	t		face	adult-45.jpg	0.0	198.54200807703273	
143.0	71.51660729685682	adult	0.0		46.0	face	adult-22.jpg	0.0	198.62613833221076	0.3832674635832518
143.0	71.89987476044007	ISI	1.0		5.0	face	adult-22.jpg	0.0	199.009405795794	0.11668710726917197
144.0	72.01656186770924	word	0.0		46.0	character	word-74.jpg	0.0	199.12609290306318	0.38330157317614066
144.0	72.09998548078329	pulse	0.0	t		character	word-74.jpg	0.0	199.20951651613723	
144.0	72.39986344088538	ISI	1.0		7.0	character	word-74.jpg	0.0	199.50939447623932	0.11667442936595762
145.0	72.51653787025134	word	0.0		46.0	character	word-21.jpg	0.0	199.62606890560528	0.38331606220708636
145.0	72.79997078045562	pulse	0.0	t		character	word-21.jpg	0.0	199.90950181580956	
145.0	72.89985393245843	ISI	1.0		7.0	character	word-21.jpg	0.0	200.00938496781237	0.11668589984947175
146.0	73.0165398323079	word	0.0		46.0	character	word-45.jpg	0.0	200.12607086766184	0.38330368615970656
146.0	73.3998435184676	ISI	1.0		5.0	character	word-45.jpg	0.0	200.50937455382154	0.11667986275278963
147.0	73.5165233812204	word	0.0		45.0	character	word-38.jpg	0.0	200.62605441657433	0.383308817692523
147.0	73.50859335357927	pulse	0.0	t		character	word-38.jpg	0.0	200.6181243889332	
147.0	73.89983219891292	ISI	1.0		7.0	character	word-38.jpg	0.0	201.00936323426686	0.11668650355932186
148.0	74.01651870247224	word	0.0		46.0	character	word-26.jpg	0.0	201.12604973782618	0.38330368615970656
148.0	74.19994500205394	pulse	0.0	t		character	word-26.jpg	0.0	201.30947603740788	
148.0	74.39982238863195	ISI	1.0		7.0	character	word-26.jpg	0.0	201.50935342398589	0.11667412751194206
149.0	74.51649651614389	word	0.0		46.0	character	word-7.jpg	0.0	201.62602755149783	0.38331757148080214
149.0	74.89981408762469	ISI	1.0		4.0	character	word-7.jpg	0.0	202.00934512297863	0.11668408871992142
149.0	74.96534887925918	pulse	1.0	t		character	word-7.jpg	0.0	202.07487991461312	
150.0	75.01649817634461	word	0.0		46.0	character	word-56.jpg	0.0	202.12602921169855	0.38330308244985645
150.0	75.39980125879447	ISI	1.0		7.0	character	word-56.jpg	0.0	202.5093322941484	0.11668529613962164
151.0	75.51648655493409	word	0.0		46.0	character	word-77.jpg	0.0	202.62601759028803	0.3833045917253912
151.0	75.59991348841322	pulse	0.0	t		character	word-77.jpg	0.0	202.70944452376716	
151.0	75.89979114665948	ISI	1.0		6.0	character	word-77.jpg	0.0	203.00932218201342	0.1083525941849075
152.0	76.00814374084439	word	0.0		47.0	character	word-125.jpg	0.0	203.11767477619833	0.3916385010979866
152.0	76.29989727881002	pulse	0.0	t		character	word-125.jpg	0.0	203.40942831416396	
152.0	76.39978224194238	ISI	1.0		6.0	character	word-125.jpg	0.0	203.50931327729631	0.10834414225064393
153.0	76.50812638419302	word	0.0		47.0	character	word-3.jpg	0.0	203.61765741954696	0.3916451419045188
153.0	76.89977152609754	ISI	1.0		5.0	character	word-3.jpg	0.0	204.00930256145148	0.1083450478145096
154.0	77.00811657391205	word	0.0		46.0	character	word-134.jpg	0.0	204.117647609266	0.3916439344848186
154.0	77.00347465068626	pulse	0.0	t		character	word-134.jpg	0.0	204.1130056860402	
154.0	77.39976050839687	ISI	1.0		6.0	character	word-134.jpg	0.0	204.5092915437508	0.10835319789475761
155.0	77.50811370629162	word	0.0		47.0	character	word-41.jpg	0.0	204.61764474164556	0.391667479158059
155.0	77.69990108218008	pulse	0.0	t		character	word-41.jpg	0.0	204.80943211753402	
155.0	77.89978118544968	ISI	1.0		5.0	character	word-41.jpg	0.0	205.00931222080362	0.11668801283303765
156.0	78.01646919828272	house	0.0		46.0	place	house-142.jpg	0.0	205.12600023363666	0.38330308245167544
156.0	78.3997722807344	ISI	1.0		6.0	place	house-142.jpg	0.0	205.50930331608834	0.1166877109772031
156.0	78.44178564022332	pulse	1.0	t		place	house-142.jpg	0.0	205.55131667557725	
157.0	78.5164599917116	house	0.0		46.0	place	house-132.jpg	0.0	205.62599102706554	0.383300667612275
157.0	78.89976065932387	ISI	1.0		5.0	place	house-132.jpg	0.0	206.0092916946778	0.11668861654106877
158.0	79.01644927586494	house	0.0		46.0	place	house-91.jpg	0.0	206.12598031121888	0.3832888952747453
158.0	79.09987168152111	pulse	0.0	t		place	house-91.jpg	0.0	206.20940271687505	
158.0	79.39973817113969	ISI	1.0		6.0	place	house-91.jpg	0.0	206.50926920649363	0.11670189815413323
159.0	79.51644006929382	house	0.0		46.0	place	house-87.jpg	0.0	206.62597110464776	0.3832825563240476
159.0	79.79982196603487	pulse	0.0	t		place	house-87.jpg	0.0	206.9093530013888	
159.0	79.89972262561787	ISI	1.0		7.0	place	house-87.jpg	0.0	207.0092536609718	0.11669948331473279
160.0	80.0164221089326	house	0.0		46.0	place	house-30.jpg	0.0	207.12595314428654	0.3832786322109314
160.0	80.39970074114353	ISI	1.0		6.0	place	house-30.jpg	0.0	207.50923177649747	0.11667503307580773
161.0	80.51637577421934	house	0.0		45.0	place	house-56.jpg	0.0	207.62590680957328	0.38331817519247124
161.0	80.5085024952823	pulse	0.0	t		place	house-56.jpg	0.0	207.61803353063624	
161.0	80.89969394941181	ISI	1.0		7.0	place	house-56.jpg	0.0	208.00922498476575	0.11667956089695508
162.0	81.01637351030877	house	0.0		46.0	place	house-121.jpg	0.0	208.1259045456627	0.38330640285312256
162.0	81.19978018933034	pulse	0.0	t		place	house-121.jpg	0.0	208.30931122468428	
162.0	81.39967991316189	ISI	1.0		7.0	place	house-121.jpg	0.0	208.50921094851583	0.11668801283303765
163.0	81.51636792599493	house	0.0		46.0	place	house-37.jpg	0.0	208.62589896134887	0.3832991583385592
163.0	81.89966708433349	ISI	1.0		5.0	place	house-37.jpg	0.0	209.00919811968743	0.11668439057393698
163.0	81.94689408005434	pulse	1.0	t		place	house-37.jpg	0.0	209.05642511540827	
163.0	81.94706523173045	response	1.0	b		place	house-37.jpg	0.0	209.0565962670844	
164.0	82.01635147490742	house	0.0		46.0	place	house-3.jpg	0.0	209.12588251026136	0.38330428987137566
164.0	82.3996557647788	ISI	1.0		6.0	place	house-3.jpg	0.0	209.50918680013274	0.11668710726735299
165.0	82.51634287204615	house	0.0		46.0	place	house-130.jpg	0.0	209.6258739074001	0.38330368615970656
165.0	82.59976648512202	pulse	0.0	t		place	house-130.jpg	0.0	209.70929752047596	
165.0	82.89964655820586	ISI	1.0		7.0	place	house-130.jpg	0.0	210.0091775935598	0.11669284251001955
166.0	83.01633940071588	house	0.0		46.0	place	house-74.jpg	0.0	210.12587043606982	0.3832949323714274
166.0	83.29974997366298	pulse	0.0	t		place	house-74.jpg	0.0	210.40928100901692	
166.0	83.3996343330873	ISI	1.0		7.0	place	house-74.jpg	0.0	210.50916536844124	0.11669284250820056
166.0	83.48307545374155	response	1.0	b		place	house-74.jpg	0.0	210.5926064890955	
167.0	83.5163271755955	house	0.0		46.0	place	house-111.jpg	0.0	210.62585821094945	0.3832976490648434
167.0	83.89962482466035	ISI	1.0		7.0	place	house-111.jpg	0.0	211.0091558600143	0.11667895718892396
168.0	84.01630378184927	word	0.0		45.0	character	word-62.jpg	0.0	211.1258348172032	0.38329976204659033
168.0	84.00717116465603	pulse	0.0	t		character	word-62.jpg	0.0	211.11670220000997	
168.0	84.39960354389586	ISI	1.0		7.0	character	word-62.jpg	0.0	211.5091345792498	0.11669737033298588
169.0	84.51630091422885	word	0.0		46.0	character	word-79.jpg	0.0	211.6258319495828	0.383303384303872
169.0	84.69970215986177	pulse	0.0	t		character	word-79.jpg	0.0	211.8092331952157	
169.0	84.89960429853272	ISI	1.0		7.0	character	word-79.jpg	0.0	212.00913533388666	0.11668529613962164
170.0	85.01628959467234	word	0.0		46.0	character	word-6.jpg	0.0	212.12582063002628	0.3833076102728228
170.0	85.23304881505464	response	0.0	b		character	word-6.jpg	0.0	212.34257985040858	
170.0	85.39959720494517	ISI	1.0		7.0	character	word-6.jpg	0.0	212.5091282402991	0.11668318315605575
170.0	85.43529183775536	pulse	1.0	t		character	word-6.jpg	0.0	212.5448228731093	
171.0	85.51628038810122	word	0.0		46.0	character	word-2.jpg	0.0	212.62581142345516	0.38330428986955667
171.0	85.89958467797078	ISI	1.0		7.0	character	word-2.jpg	0.0	213.00911571332472	0.11670401113769913
172.0	86.01628868910848	word	0.0		46.0	character	word-2.jpg	1.0	213.12581972446242	0.38331606220708636
172.0	86.09972799863317	pulse	0.0	t		character	word-2.jpg	1.0	213.2092590339871	
172.0	86.39960475131556	ISI	1.0		6.0	character	word-2.jpg	1.0	213.5091357866695	0.11668982396076899
173.0	86.51629457527633	word	0.0		46.0	character	word-60.jpg	0.0	213.62582561063027	0.38329523422726197
173.0	86.60804907917736	response	0.0	b		character	word-60.jpg	0.0	213.7175801145313	
173.0	86.79969458330561	pulse	0.0	t		character	word-60.jpg	0.0	213.90922561865955	
173.0	86.8995898095036	ISI	1.0		7.0	character	word-60.jpg	0.0	214.00912084485753	0.11670038887859846
174.0	87.0162901983822	word	0.0		46.0	character	word-96.jpg	0.0	214.12582123373613	0.383292517532027
174.0	87.39958271591422	ISI	1.0		5.0	character	word-96.jpg	0.0	214.50911375126816	0.11668076831847429
175.0	87.5162634842327	word	0.0		45.0	character	word-119.jpg	0.0	214.62579451958663	0.3833103269644198
175.0	87.50652564815027	pulse	0.0	t		character	word-119.jpg	0.0	214.6160566835042	
175.0	87.89957381119711	ISI	1.0		6.0	character	word-119.jpg	0.0	215.00910484655105	0.11668589984947175
176.0	88.01625971104659	word	0.0		46.0	character	word-25.jpg	0.0	215.12579074640053	0.38330368615970656
176.0	88.19968148280714	pulse	0.0	t		character	word-25.jpg	0.0	215.30921251816108	
176.0	88.3995633972063	ISI	1.0		7.0	character	word-25.jpg	0.0	215.50909443256023	0.1166883146888722
177.0	88.51625171189517	word	0.0		46.0	character	word-14.jpg	0.0	215.6257827472491	0.3833027805958409
177.0	88.899554492491	ISI	1.0		5.0	character	word-14.jpg	0.0	216.00908552784495	0.11668378686408687
177.0	88.95086950786572	pulse	1.0	t		character	word-14.jpg	0.0	216.06040054321966	
178.0	89.0162382793551	word	0.0		46.0	character	word-59.jpg	0.0	216.12576931470903	0.38330519543524133
178.0	89.39954347479033	ISI	1.0		7.0	character	word-59.jpg	0.0	216.50907451014427	0.1166931443640351
179.0	89.51623661915437	word	0.0		46.0	character	word-80.jpg	0.0	216.6257676545083	0.38329402680574276
179.0	89.59965208214999	pulse	0.0	t		character	word-80.jpg	0.0	216.70918311750393	
179.0	89.89953064596011	ISI	1.0		7.0	character	word-80.jpg	0.0	217.00906168131405	0.11669072952645365
180.0	90.01622137548657	word	0.0		46.0	character	word-33.jpg	0.0	217.1257524108405	0.3832674635832518
180.0	90.29960598892103	pulse	0.0	t		character	word-33.jpg	0.0	217.40913702427497	
180.0	90.39948883906982	ISI	1.0		7.0	character	word-33.jpg	0.0	217.50901987442376	0.1166732219462574
181.0	90.51616206101608	word	0.0		46.0	character	word-52.jpg	0.0	217.62569309637001	0.38331666591693647
181.0	90.89947872693301	ISI	1.0		5.0	character	word-52.jpg	0.0	218.00900976228695	0.11668227759219008
182.0	91.0161610045252	word	0.0		45.0	character	word-98.jpg	0.0	218.12569203987914	0.38330851583668846
182.0	91.00647448376003	pulse	0.0	t		character	word-98.jpg	0.0	218.11600551911397	
182.0	91.39946952036189	ISI	1.0		7.0	character	word-98.jpg	0.0	218.50900055571583	0.11667231638239173
183.0	91.51614183674428	word	0.0		46.0	character	word-75.jpg	0.0	218.62567287209822	0.38331545849723625
183.0	91.69957538084236	pulse	0.0	t		character	word-75.jpg	0.0	218.8091064161963	
183.0	91.89945729524152	ISI	1.0		7.0	character	word-75.jpg	0.0	219.00898833059546	0.11669193694615387
184.0	92.01614923218767	word	0.0		45.0	character	word-75.jpg	1.0	219.1256802675416	0.383297950918859
184.0	92.39944718310653	ISI	1.0		7.0	character	word-75.jpg	1.0	219.50897821846047	0.1166855979936372
184.0	92.43814768608718	pulse	1.0	t		character	word-75.jpg	1.0	219.54767872144112	
185.0	92.51613278110017	word	0.0		46.0	character	word-27.jpg	0.0	219.6256638164541	0.3832958379352931
185.0	92.59955579046618	response	0.0	b		character	word-27.jpg	0.0	219.70908682582012	
185.0	92.89942861903546	ISI	1.0		7.0	character	word-27.jpg	0.0	220.0089596543894	0.11671155750809703
186.0	93.01614017654356	word	0.0		46.0	character	word-39.jpg	0.0	220.1256712118975	0.38328648043534486
186.0	93.0995496024425	pulse	0.0	t		character	word-39.jpg	0.0	220.20908063779643	
186.0	93.3994266569789	ISI	1.0		7.0	character	word-39.jpg	0.0	220.50895769233284	0.11668620170348731
187.0	93.51611285868239	word	0.0		46.0	character	word-136.jpg	0.0	220.62564389403633	0.3833048935794068
187.0	93.7995246390492	pulse	0.0	t		character	word-136.jpg	0.0	220.90905567440313	
187.0	93.8994177522618	ISI	1.0		7.0	character	word-136.jpg	0.0	221.00894878761574	0.11668559799545619
188.0	94.01610335025725	word	0.0		46.0	character	word-11.jpg	0.0	221.1256343856112	0.3833021768859908
188.0	94.39940552714324	ISI	1.0		5.0	character	word-11.jpg	0.0	221.50893656249718	0.11668197573635553
189.0	94.5160875028796	word	0.0		45.0	character	word-47.jpg	0.0	221.62561853823354	0.383308817692523
189.0	94.50645682525465	pulse	0.0	t		character	word-47.jpg	0.0	221.61598786060858	
189.0	94.67451237619753	response	0.0	b		character	word-47.jpg	0.0	221.78404341155147	
189.0	94.89939632057212	ISI	1.0		6.0	character	word-47.jpg	0.0	222.00892735592606	0.11668348501007131
190.0	95.0160798055822	word	0.0		46.0	character	word-9.jpg	0.0	222.12561084093613	0.38329946019257477
190.0	95.19950127548691	pulse	0.0	t		character	word-9.jpg	0.0	222.30903231084085	
190.0	95.39937926577477	ISI	1.0		4.0	character	word-9.jpg	0.0	222.5089103011287	0.11672876323063974
191.0	95.51610802900541	word	0.0		46.0	character	word-143.jpg	0.0	222.62563906435935	0.38326776543908636
191.0	95.8993757944445	ISI	1.0		7.0	character	word-143.jpg	0.0	223.00890682979843	0.11666990154481027
191.0	95.93619544012108	pulse	1.0	t		character	word-143.jpg	0.0	223.04572647547502	
192.0	96.0160456959893	car	0.0		46.0	object	car-116.jpg	0.0	223.12557673134324	0.3833474551065592
192.0	96.39939315109586	ISI	1.0		6.0	object	car-116.jpg	0.0	223.5089241864498	0.11669404992790078
193.0	96.51608720102377	car	0.0		46.0	object	car-56.jpg	0.0	223.6256182363777	0.3832378818133293
193.0	96.5994697618462	pulse	0.0	t		object	car-56.jpg	0.0	223.70900079720013	
193.0	96.8993250828371	ISI	1.0		7.0	object	car-56.jpg	0.0	224.00885611819103	0.11671427419969405
194.0	97.01603935703679	car	0.0		46.0	object	car-23.jpg	0.0	224.12557039239073	0.3832985546287091
194.0	97.29945294853314	pulse	0.0	t		object	car-23.jpg	0.0	224.40898398388708	
194.0	97.3993379116655	ISI	1.0		7.0	object	car-23.jpg	0.0	224.50886894701944	0.11669193694615387
195.0	97.51602984861165	car	0.0		46.0	object	car-50.jpg	0.0	224.6255608839656	0.3833136473676859
195.0	97.89934349597934	ISI	1.0		7.0	object	car-50.jpg	0.0	225.00887453133328	0.11665209211059846
196.0	98.01599558808994	car	0.0		45.0	object	car-59.jpg	0.0	225.12552662344387	0.38332843825446616
196.0	98.00657047358982	pulse	0.0	t		object	car-59.jpg	0.0	225.11610150894376	
196.0	98.3993240263444	ISI	1.0		7.0	object	car-59.jpg	0.0	225.50885506169834	0.11668589984947175
197.0	98.51600992619387	car	0.0		46.0	object	car-62.jpg	0.0	225.6255409615478	0.38330157317614066
197.0	98.69942898126101	pulse	0.0	t		object	car-62.jpg	0.0	225.80896001661495	
197.0	98.89931149937001	ISI	1.0		7.0	object	car-62.jpg	0.0	226.00884253472395	0.11667503307580773
198.0	99.01598653244582	car	0.0		46.0	object	car-62.jpg	1.0	226.12551756779976	0.38331545849905524
198.0	99.29941883894026	response	0.0	b		object	car-62.jpg	1.0	226.4089498742942	
198.0	99.39930199094488	ISI	1.0		6.0	object	car-62.jpg	1.0	226.50883302629882	0.11668378686408687
198.0	99.44438823237215	pulse	1.0	t		object	car-62.jpg	1.0	226.5539192677261	
199.0	99.51598577780896	car	0.0		46.0	object	car-140.jpg	0.0	226.6255168131629	0.3833048935794068
199.0	99.89929067138837	ISI	1.0		7.0	object	car-140.jpg	0.0	227.0088217067423	0.11668680541333742
200.0	100.01597747680171	car	0.0		46.0	object	car-96.jpg	0.0	227.12550851215565	0.3833045917253912
200.0	100.09948802406143	pulse	0.0	t		object	car-96.jpg	0.0	227.20901905941537	
200.0	100.3992820685271	ISI	1.0		5.0	object	car-96.jpg	0.0	227.50881310388104	0.11668529613962164
201.0	100.51596736466672	car	0.0		46.0	object	car-30.jpg	0.0	227.62549840002066	0.38329131011232676
201.0	100.79938850253166	pulse	0.0	t		object	car-30.jpg	0.0	227.9089195378856	
201.0	100.89925867477905	ISI	1.0		7.0	object	car-30.jpg	0.0	228.008789710133	0.11668137202650541
202.0	101.01594004680555	car	0.0		46.0	object	car-72.jpg	0.0	228.1254710821595	0.383319684466187
202.0	101.39925973127174	ISI	1.0		7.0	object	car-72.jpg	0.0	228.50879076662568	0.11668107017067086
203.0	101.51594080144241	car	0.0		45.0	object	car-134.jpg	0.0	228.62547183679635	0.38330851583850745
203.0	101.50634151671875	pulse	0.0	t		object	car-134.jpg	0.0	228.6158725520727	
203.0	101.89924931728092	ISI	1.0		7.0	object	car-134.jpg	0.0	229.00878035263486	0.11668589984765276
204.0	102.01593521712857	car	0.0		46.0	object	car-11.jpg	0.0	229.1254662524825	0.38330519543524133
204.0	102.19935759259897	pulse	0.0	t		object	car-11.jpg	0.0	229.3088886279529	
204.0	102.39924041256381	ISI	1.0		6.0	object	car-11.jpg	0.0	229.50877144791775	0.11668620170348731
205.0	102.5159266142673	car	0.0		46.0	object	car-103.jpg	0.0	229.62545764962124	0.3833335697854636
205.0	102.89926018405276	ISI	1.0		7.0	object	car-103.jpg	0.0	230.0087912194067	0.11668740912318754
205.0	102.93536624496664	pulse	1.0	t		object	car-103.jpg	0.0	230.04489728032058	
206.0	103.01594759317595	car	0.0		46.0	object	car-63.jpg	0.0	230.1254786285299	0.383303384305691
206.0	103.39925097748164	ISI	1.0		7.0	object	car-63.jpg	0.0	230.50878201283558	0.11669012581660354
207.0	103.51594110329825	car	0.0		46.0	object	car-46.jpg	0.0	230.62547213865219	0.38329885648272466
207.0	103.5994534616857	pulse	0.0	t		object	car-46.jpg	0.0	230.70898449703964	
207.0	103.89923995978097	ISI	1.0		7.0	object	car-46.jpg	0.0	231.0087709951349	0.11668710726735299
208.0	104.01592706704832	car	0.0		46.0	object	car-10.jpg	0.0	231.12545810240226	0.38330428987137566
208.0	104.2993445826578	pulse	0.0	t		object	car-10.jpg	0.0	231.40887561801173	
208.0	104.3992313569197	ISI	1.0		6.0	object	car-10.jpg	0.0	231.50876239227364	0.11667231638239173
209.0	104.51590367330209	car	0.0		46.0	object	car-114.jpg	0.0	231.62543470865603	0.3832825563240476
209.0	104.89918622962614	ISI	1.0		7.0	object	car-114.jpg	0.0	232.00871726498008	0.11670793524899636
210.0	105.01589416487514	car	0.0		45.0	object	car-112.jpg	0.0	232.12542520022907	0.3832852730174636
210.0	105.00628129668439	pulse	0.0	t		object	car-112.jpg	0.0	232.11581233203833	
210.0	105.3991794378926	ISI	1.0		7.0	object	car-112.jpg	0.0	232.50871047324654	0.11668439057393698
211.0	105.51586382846654	car	0.0		46.0	object	car-112.jpg	1.0	232.62539486382047	0.3833048935794068
211.0	105.69928378909935	pulse	0.0	t		object	car-112.jpg	1.0	232.8088148244533	
211.0	105.89916872204594	ISI	1.0		5.0	object	car-112.jpg	1.0	233.00869975739988	0.11668740912318754
212.0	106.01585613116913	car	0.0		46.0	object	car-1.jpg	0.0	233.12538716652307	0.383300667612275
212.0	106.07427469572394	response	0.0	b		object	car-1.jpg	0.0	233.18380573107788	
212.0	106.3991567987814	ISI	1.0		7.0	object	car-1.jpg	0.0	233.50868783413534	0.11668439057575597
212.0	106.43702176765692	pulse	1.0	t		object	car-1.jpg	0.0	233.54655280301085	
213.0	106.51584118935716	car	0.0		46.0	object	car-6.jpg	0.0	233.6253722247111	0.38330519543342234
213.0	106.89914638479058	ISI	1.0		7.0	object	car-6.jpg	0.0	234.00867742014452	0.11668650355932186
214.0	107.0158328883499	car	0.0		46.0	object	car-91.jpg	0.0	234.12536392370384	0.3833039880137221
214.0	107.09926133110093	pulse	0.0	t		object	car-91.jpg	0.0	234.20879236645487	
214.0	107.39913687636363	ISI	1.0		7.0	object	car-91.jpg	0.0	234.50866791171757	0.11668288130204019
215.0	107.51581975766567	car	0.0		46.0	object	car-79.jpg	0.0	234.6253507930196	0.38330579914327245
215.0	107.79924029182075	pulse	0.0	t		object	car-79.jpg	0.0	234.9087713271747	
215.0	107.89912555680894	ISI	1.0		12.0	object	car-79.jpg	0.0	235.00865659216288	0.10831848459201865
216.0	108.00744404140096	baseline	0.0		48.0		baseline	0.0	235.1169750767549	0.4000044070799049
216.0	108.40744844848086	ISI	1.0		11.0		baseline	0.0	235.5169794838348	0.10001083658789867
216.0	108.49922861004052	pulse	1.0	t			baseline	0.0	235.60875964539446	
217.0	108.50745928506876	baseline	0.0		48.0		baseline	0.0	235.6169903204227	0.3999769382935483
217.0	108.90743622336231	ISI	1.0		11.0		baseline	0.0	236.01696725871625	0.09999906425036897
218.0	109.00743528761268	baseline	0.0		48.0		baseline	0.0	236.11696632296662	0.39998297538841143
218.0	109.19921149487345	pulse	0.0	t			baseline	0.0	236.3087425302274	
218.0	109.40741826300109	ISI	1.0		10.0		baseline	0.0	236.51694929835503	0.09167179568248685
219.0	109.49909005868358	baseline	0.0		49.0		baseline	0.0	236.60862109403752	0.40831990331025736
219.0	109.89920071865708	pulse	0.0	t			baseline	0.0	237.00873175401102	
219.0	109.90740996199384	ISI	1.0		11.0		baseline	0.0	237.01694099734777	0.10000449763720098
220.0	110.00741445963104	baseline	0.0		48.0		baseline	0.0	237.11694549498498	0.39999323845222534
220.0	110.40740769808326	ISI	1.0		11.0		baseline	0.0	237.5169387334372	0.09999302715368685
221.0	110.50740072523695	baseline	0.0		48.0		baseline	0.0	237.6169317605909	0.4000499871563079
221.0	110.5992569542068	pulse	0.0	t			baseline	0.0	237.70878798956073	
221.0	110.90745071239326	ISI	1.0		11.0		baseline	0.0	238.0169817477472	0.09999846054051886
222.0	111.00744917293378	baseline	0.0		48.0		baseline	0.0	238.1169802082877	0.4000047089339205
222.0	111.29923591492661	pulse	0.0	t			baseline	0.0	238.40876695028055	
222.0	111.4074538818677	ISI	1.0		11.0		baseline	0.0	238.51698491722163	0.09999363086353696
223.0	111.50744751273123	baseline	0.0		48.0		baseline	0.0	238.61697854808517	0.3999838809540961
223.0	111.90743139368533	ISI	1.0		11.0		baseline	0.0	239.01696242903927	0.1000051013452321
223.0	111.99927464289794	pulse	1.0	t			baseline	0.0	239.10880567825188	
224.0	112.00743649503056	baseline	0.0		48.0		baseline	0.0	239.1169675303845	0.39999414401791
224.0	112.40743063904847	ISI	1.0		11.0		baseline	0.0	239.5169616744024	0.09999604570111842
225.0	112.50742668474959	baseline	0.0		48.0		baseline	0.0	239.61695772010353	0.3999865976475121
225.0	112.69920681612348	pulse	0.0	t			baseline	0.0	239.80873785147742	
225.0	112.9074132823971	ISI	1.0		10.0		baseline	0.0	240.01694431775104	0.09165730665154115
226.0	112.99907058904864	baseline	0.0		49.0		baseline	0.0	240.10860162440258	0.40832895895437105
226.0	113.39918396571375	pulse	0.0	t			baseline	0.0	240.50871500106769	
226.0	113.40739954800301	ISI	1.0		11.0		baseline	0.0	240.51693058335695	0.10000479949121654
227.0	113.50740434749423	baseline	0.0		48.0		baseline	0.0	240.61693538284817	0.3999844846639462
227.0	113.90738883215818	ISI	1.0		11.0		baseline	0.0	241.01691986751212	0.1000051013452321
228.0	114.00739393350341	baseline	0.0		48.0		baseline	0.0	241.11692496885735	0.39998297538841143
228.0	114.09918647110862	pulse	0.0	t			baseline	0.0	241.20871750646256	
228.0	114.40737690889182	ISI	1.0		11.0		baseline	0.0	241.51690794424576	0.10000208279961953
229.0	114.50737899169144	baseline	0.0		48.0		baseline	0.0	241.61691002704538	0.3999920310325251
229.0	114.79916965779739	pulse	0.0	t			baseline	0.0	241.90870069315133	
229.0	114.90737102272396	ISI	1.0		11.0		baseline	0.0	242.0169020580779	0.10000661062076688
230.0	115.00737763334473	baseline	0.0		48.0		baseline	0.0	242.11690866869867	0.3999899180489592
230.0	115.40736755139369	ISI	1.0		11.0		baseline	0.0	242.51689858674763	0.10000540320106666
230.0	115.49924883431231	pulse	1.0	t			baseline	0.0	242.60877986966625	
231.0	115.50737295459476	baseline	0.0		48.0		baseline	0.0	242.6169039899487	0.39997935313112976
231.0	115.90735230772589	ISI	1.0		11.0		baseline	0.0	243.01688334307983	0.10000479949121654
232.0	116.0073571072171	baseline	0.0		48.0		baseline	0.0	243.11688814257104	0.3999838809540961
232.0	116.19912908851074	pulse	0.0	t			baseline	0.0	243.30866012386468	
232.0	116.4073409881712	ISI	1.0		11.0		baseline	0.0	243.51687202352514	0.09999393271755252
233.0	116.50733492088875	baseline	0.0		48.0		baseline	0.0	243.6168659562427	0.399996860709507
233.0	116.89912525495492	pulse	0.0	t			baseline	0.0	244.00865629030886	
233.0	116.90733178159826	ISI	1.0		11.0		baseline	0.0	244.0168628169522	0.09999212158982118
234.0	117.00732390318808	baseline	0.0		48.0		baseline	0.0	244.11685493854202	0.4000047089357395
234.0	117.40732861212382	ISI	1.0		11.0		baseline	0.0	244.51685964747776	0.09999785683066875
235.0	117.50732646895449	baseline	0.0		48.0		baseline	0.0	244.61685750430843	0.3999920310325251
235.0	117.59910421567474	pulse	0.0	t			baseline	0.0	244.70863525102868	
235.0	117.90731849998701	ISI	1.0		11.0		baseline	0.0	245.01684953534095	0.10004585174465319
236.0	118.00736435173167	baseline	0.0		48.0		baseline	0.0	245.1168953870856	0.39993739531382744
236.0	118.29909102461897	pulse	0.0	t			baseline	0.0	245.4086220599729	
236.0	118.4073017470455	ISI	1.0		11.0		baseline	0.0	245.51683278239943	0.0999906123161054
237.0	118.5072923593616	baseline	0.0		48.0		baseline	0.0	245.61682339471554	0.39999655885367247
237.0	118.90728891821527	ISI	1.0		11.0		baseline	0.0	246.0168199535692	0.10000419578318542
237.0	118.99912733775272	pulse	1.0	t			baseline	0.0	246.10865837310666	
238.0	119.00729311399846	baseline	0.0		48.0		baseline	0.0	246.1168241493524	0.399991427322675
238.0	119.40728454132113	ISI	1.0		11.0		baseline	0.0	246.51681557667507	0.09998457521942328
239.0	119.50726911654056	baseline	0.0		48.0		baseline	0.0	246.6168001518945	0.3999850883719773
239.0	119.69906132210599	pulse	0.0	t			baseline	0.0	246.80859235745993	
239.0	119.90725420491253	ISI	1.0		7.0		baseline	0.0	247.01678524026647	0.11667442936595762
240.0	120.02392863427849	car	0.0		46.0	object	car-120.jpg	0.0	247.13345966963243	0.3833103269662388
240.0	120.39900738065262	pulse	0.0	t		object	car-120.jpg	0.0	247.50853841600656	
240.0	120.40723896124473	ISI	1.0		7.0	object	car-120.jpg	0.0	247.51676999659867	0.11671336863764736
241.0	120.52395232988238	car	0.0		46.0	object	car-48.jpg	0.0	247.63348336523632	0.3832559930997377
241.0	120.90720832298211	ISI	1.0		7.0	object	car-48.jpg	0.0	248.01673935833605	0.1166973703311669
242.0	121.02390569331328	car	0.0		46.0	object	car-128.jpg	0.0	248.13343672866722	0.3832991583385592
242.0	121.09900203782126	pulse	0.0	t		object	car-128.jpg	0.0	248.2085330731752	
242.0	121.40720485165184	ISI	1.0		6.0	object	car-128.jpg	0.0	248.51673588700578	0.11669586105745111
243.0	121.52390071270929	car	0.0		46.0	object	car-43.jpg	0.0	248.63343174806323	0.3832572005212569
243.0	121.7989468889482	pulse	0.0	t		object	car-43.jpg	0.0	248.90847792430213	
243.0	121.90715791323055	ISI	1.0		7.0	object	car-43.jpg	0.0	249.0166889485845	0.11669344621805067
244.0	122.0238513594486	car	0.0		46.0	object	car-15.jpg	0.0	249.13338239480254	0.3832970453549933
244.0	122.40714840480359	ISI	1.0		7.0	object	car-15.jpg	0.0	249.51667944015753	0.11669223880016943
244.0	122.49893852757123	pulse	1.0	t		object	car-15.jpg	0.0	249.60846956292517	
245.0	122.52384064360376	car	0.0		46.0	object	car-76.jpg	0.0	249.6333716789577	0.38330428986955667
245.0	122.90714493347332	ISI	1.0		7.0	object	car-76.jpg	0.0	250.01667596882726	0.11666990154299128
246.0	123.02381483501631	car	0.0		46.0	object	car-144.jpg	0.0	250.13334587037025	0.3833094214023731
246.0	123.19891084748451	pulse	0.0	t		object	car-144.jpg	0.0	250.30844188283845	
246.0	123.40712425641868	ISI	1.0		7.0	object	car-144.jpg	0.0	250.51665529177262	0.11667895718892396
247.0	123.52380321360761	car	0.0		46.0	object	car-102.jpg	0.0	250.63333424896155	0.3833178733348177
247.0	123.89890459909111	pulse	0.0	t		object	car-102.jpg	0.0	251.00843563444505	
247.0	123.90712108694242	ISI	1.0		7.0	object	car-102.jpg	0.0	251.01665212229636	0.11669042767243809
248.0	124.02381151461486	car	0.0		46.0	object	car-113.jpg	0.0	251.1333425499688	0.38329402680574276
248.0	124.4071055414206	ISI	1.0		7.0	object	car-113.jpg	0.0	251.51663657677454	0.11669555920343555
249.0	124.52380110062404	car	0.0		46.0	object	car-37.jpg	0.0	251.63333213597798	0.38330428986955667
249.0	124.59889110618133	pulse	0.0	t		object	car-37.jpg	0.0	251.70842214153527	
249.0	124.9071053904936	ISI	1.0		7.0	object	car-37.jpg	0.0	252.01663642584754	0.11668469242977153
250.0	125.02379008292337	car	0.0		46.0	object	car-51.jpg	0.0	252.1333211182773	0.3833027805958409
250.0	125.29887912254526	pulse	0.0	t		object	car-51.jpg	0.0	252.4084101578992	
250.0	125.40709286351921	ISI	1.0		6.0	object	car-51.jpg	0.0	252.51662389887315	0.11668529613962164
251.0	125.52377815965883	car	0.0		46.0	object	car-2.jpg	0.0	252.63330919501277	0.383306100997288
251.0	125.90708426065612	ISI	1.0		6.0	object	car-2.jpg	0.0	253.01661529601006	0.11668318315605575
251.0	125.99885627213553	pulse	1.0	t		object	car-2.jpg	0.0	253.10838730748947	
252.0	126.02376744381218	body	0.0		46.0	body	body-117.jpg	0.0	253.13329847916611	0.383306100999107
252.0	126.40707354481128	ISI	1.0		7.0	body	body-117.jpg	0.0	253.51660458016522	0.11668378686408687
253.0	126.52375733167537	body	0.0		46.0	body	body-93.jpg	0.0	253.6332883670293	0.3833039880155411
253.0	126.69884942003227	pulse	0.0	t		body	body-93.jpg	0.0	253.8083804553862	
253.0	126.90706131969091	ISI	1.0		6.0	body	body-93.jpg	0.0	254.01659235504485	0.11668620170348731
254.0	127.0237475213944	body	0.0		46.0	body	body-99.jpg	0.0	254.13327855674834	0.38329825277469354
254.0	127.39883351228309	pulse	0.0	t		body	body-99.jpg	0.0	254.50836454763703	
254.0	127.40704577416909	ISI	1.0		7.0	body	body-99.jpg	0.0	254.51657680952303	0.11669495549358544
255.0	127.52374072966268	body	0.0		46.0	body	body-88.jpg	0.0	254.63327176501662	0.38333115494788217
255.0	127.90707188461056	ISI	1.0		7.0	body	body-88.jpg	0.0	255.0166029199645	0.11668891839508433
256.0	128.02376080300564	body	0.0		46.0	body	body-64.jpg	0.0	255.13329183835958	0.3833012713221251
256.0	128.09885382711218	pulse	0.0	t		body	body-64.jpg	0.0	255.20838486246612	
256.0	128.40706207432777	ISI	1.0		7.0	body	body-64.jpg	0.0	255.5165931096817	0.11668891839690332
257.0	128.52375099272467	body	0.0		46.0	body	body-70.jpg	0.0	255.6332820280786	0.38330096946810954
257.0	128.79883520266958	pulse	0.0	t		body	body-70.jpg	0.0	255.90836623802352	
257.0	128.90705196219278	ISI	1.0		5.0	body	body-70.jpg	0.0	256.0165829975467	0.11668589984765276
258.0	129.02373786204043	body	0.0		46.0	body	body-27.jpg	0.0	256.1332688973944	0.38329553608127753
258.0	129.4070333981217	ISI	1.0		7.0	body	body-27.jpg	0.0	256.51656443347565	0.12503007228588103
258.0	129.49885551749867	pulse	1.0	t		body	body-27.jpg	0.0	256.6083865528526	
259.0	129.5320634704076	body	0.0		45.0	body	body-120.jpg	0.0	256.64159450576153	0.3749688712232455
259.0	129.90703234163084	ISI	1.0		6.0	body	body-120.jpg	0.0	257.0165633769848	0.11671306677999382
260.0	130.02374540841083	body	0.0		46.0	body	body-104.jpg	0.0	257.13327644376477	0.3832674635832518
260.0	130.198807914996	pulse	0.0	t		body	body-104.jpg	0.0	257.30833895034993	
260.0	130.40701287199408	ISI	1.0		7.0	body	body-104.jpg	0.0	257.516543907348	0.11669404992971977
261.0	130.5237069219238	body	0.0		46.0	body	body-2.jpg	0.0	257.63323795727774	0.38330428986955667
261.0	130.8987563883802	pulse	0.0	t		body	body-2.jpg	0.0	258.00828742373415	
261.0	130.90701121179336	ISI	1.0		7.0	body	body-2.jpg	0.0	258.0165422471473	0.11666567557767848
262.0	131.02367688737104	body	0.0		46.0	body	body-119.jpg	0.0	258.133207922725	0.3832937249499082
262.0	131.40697061232095	ISI	1.0		7.0	body	body-119.jpg	0.0	258.5165016476749	0.1166765423513425
263.0	131.5236471546723	body	0.0		46.0	body	body-12.jpg	0.0	258.63317819002623	0.38330942140055413
263.0	131.59874289547042	pulse	0.0	t		body	body-12.jpg	0.0	258.70827393082436	
263.0	131.90695657607284	ISI	1.0		6.0	body	body-12.jpg	0.0	259.0164876114268	0.11667201452837617
264.0	132.02362859060122	body	0.0		46.0	body	body-5.jpg	0.0	259.13315962595516	0.38331817519065225
264.0	132.29873121368837	pulse	0.0	t		body	body-5.jpg	0.0	259.4082622490423	
264.0	132.40694676579187	ISI	1.0		7.0	body	body-5.jpg	0.0	259.5164778011458	0.11666899597912561
265.0	132.523615761771	body	0.0		46.0	body	body-139.jpg	0.0	259.63314679712494	0.3833130436596548
265.0	132.90692880543065	ISI	1.0		3.0	body	body-139.jpg	0.0	260.0164598407846	0.11669103138046921
265.0	132.99872255045557	pulse	1.0	t		body	body-139.jpg	0.0	260.1082535858095	
266.0	133.02361983681112	body	0.0		46.0	body	body-141.jpg	0.0	260.13315087216506	0.3832964416451432
266.0	133.40691627845626	ISI	1.0		7.0	body	body-141.jpg	0.0	260.5164473138102	0.11671427420151304
267.0	133.52363055265778	body	0.0		46.0	body	body-65.jpg	0.0	260.6331615880117	0.38327682108138106
267.0	133.69870452972464	pulse	0.0	t		body	body-65.jpg	0.0	260.8082355650786	
267.0	133.90690737373916	ISI	1.0		7.0	body	body-65.jpg	0.0	261.0164384090931	0.11669284251001955
268.0	134.02360021624918	body	0.0		46.0	body	body-15.jpg	0.0	261.1331312516031	0.38330851583668846
268.0	134.3986853015722	pulse	0.0	t		body	body-15.jpg	0.0	261.5082163369261	
268.0	134.40690873208587	ISI	1.0		7.0	body	body-15.jpg	0.0	261.5164397674398	0.11668318315605575
269.0	134.52359191524192	body	0.0		46.0	body	body-95.jpg	0.0	261.63312295059586	0.38329553608127753
269.0	134.9068874513232	ISI	1.0		5.0	body	body-95.jpg	0.0	262.01641848667714	0.11669133323448477
270.0	135.02357878455769	body	0.0		46.0	body	body-83.jpg	0.0	262.1331098199116	0.38330640285312256
270.0	135.09869142922616	pulse	0.0	t		body	body-83.jpg	0.0	262.2082224645801	
270.0	135.4068851874108	ISI	1.0		7.0	body	body-83.jpg	0.0	262.51641622276475	0.11668589984947175
271.0	135.52357108726028	body	0.0		46.0	body	body-83.jpg	1.0	262.6331021226142	0.38329885648272466
271.0	135.79865952317232	pulse	0.0	t		body	body-83.jpg	1.0	262.90819055852626	
271.0	135.906869943743	ISI	1.0		7.0	body	body-83.jpg	1.0	263.01640097909694	0.11667261823822628
272.0	136.02354256198123	body	0.0		46.0	body	body-121.jpg	0.0	263.13307359733517	0.3833136473695049
272.0	136.14039508568385	response	0.0	b		body	body-121.jpg	0.0	263.2499261210378	
272.0	136.40685620935074	ISI	1.0		7.0	body	body-121.jpg	0.0	263.5163872447047	0.11669435178191634
272.0	136.49863757832827	pulse	1.0	t		body	body-121.jpg	0.0	263.6081686136822	
273.0	136.52355056113265	body	0.0		46.0	body	body-114.jpg	0.0	263.6330815964866	0.3832894989845954
273.0	136.90684006011725	ISI	1.0		7.0	body	body-114.jpg	0.0	264.0163710954712	0.11669948331473279
274.0	137.02353954343198	body	0.0		46.0	body	body-110.jpg	0.0	264.1330705787859	0.38333538091683295
274.0	137.19866000614093	pulse	0.0	t		body	body-110.jpg	0.0	264.30819104149487	
274.0	137.4068749243488	ISI	1.0		7.0	body	body-110.jpg	0.0	264.51640595970275	0.11668952210493444
275.0	137.52356444645375	body	0.0		46.0	body	body-55.jpg	0.0	264.6330954818077	0.38325750237527245
275.0	137.89860606468574	pulse	0.0	t		body	body-55.jpg	0.0	265.0081371000397	
275.0	137.90682194882902	ISI	1.0		5.0	body	body-55.jpg	0.0	265.01635298418296	0.11669676662131678
276.0	138.02351871545034	adult	0.0		46.0	face	adult-121.jpg	0.0	265.1330497508043	0.3832904045502801
276.0	138.40680912000062	ISI	1.0		6.0	face	adult-121.jpg	0.0	265.51634015535456	0.11669827589503257
277.0	138.52350739589565	adult	0.0		46.0	face	adult-57.jpg	0.0	265.6330384312496	0.3833054972892569
277.0	138.5986007218562	pulse	0.0	t		face	adult-57.jpg	0.0	265.70813175721014	
277.0	138.9068128931849	ISI	1.0		7.0	face	adult-57.jpg	0.0	266.01634392853884	0.11668257944620564
278.0	139.0234954726311	adult	0.0		46.0	face	adult-38.jpg	0.0	266.13302650798505	0.3832882915648952
278.0	139.2985983975741	pulse	0.0	t		face	adult-38.jpg	0.0	266.40812943292804	
278.0	139.406783764196	ISI	1.0		6.0	face	adult-38.jpg	0.0	266.51631479954995	0.11674717637470167
279.0	139.5235309405707	adult	0.0		46.0	face	adult-104.jpg	0.0	266.63306197592465	0.3832593135030038
279.0	139.9067902540737	ISI	1.0		6.0	face	adult-104.jpg	0.0	267.01632128942765	0.12501829994835134
279.0	139.99856860450382	pulse	1.0	t		face	adult-104.jpg	0.0	267.10809963985776	
280.0	140.03180855402206	adult	0.0		45.0	face	adult-133.jpg	0.0	267.141339589376	0.3749634378364135
280.0	140.40677199185848	ISI	1.0		7.0	face	adult-133.jpg	0.0	267.5163030272124	0.1166855979936372
281.0	140.52345758985211	adult	0.0		46.0	face	adult-119.jpg	0.0	267.63298862520605	0.383303384305691
281.0	140.69855782828745	pulse	0.0	t		face	adult-119.jpg	0.0	267.8080888636414	
281.0	140.9067609741578	ISI	1.0		6.0	face	adult-119.jpg	0.0	268.01629200951174	0.11669374807388522
282.0	141.0234547222317	adult	0.0		46.0	face	adult-5.jpg	0.0	268.13298575758563	0.3832985546287091
282.0	141.39854192054008	pulse	0.0	t		face	adult-5.jpg	0.0	268.508072955894	
282.0	141.4067532768604	ISI	1.0		7.0	face	adult-5.jpg	0.0	268.51628431221434	0.11669133323630376
283.0	141.5234446100967	adult	0.0		46.0	face	adult-74.jpg	0.0	268.63297564545064	0.38330308244985645
283.0	141.90674769254656	ISI	1.0		7.0	face	adult-74.jpg	0.0	269.0162787279005	0.1166711089626915
284.0	142.02341880150925	adult	0.0		46.0	face	adult-33.jpg	0.0	269.1329498368632	0.3833211937399028
284.0	142.09853084246788	pulse	0.0	t		face	adult-33.jpg	0.0	269.2080618778218	
284.0	142.40673999524915	ISI	1.0		7.0	face	adult-33.jpg	0.0	269.5162710306031	0.11668348501007131
285.0	142.52342348025923	adult	0.0		46.0	face	adult-142.jpg	0.0	269.63295451561316	0.3832922156780114
285.0	142.79850799205997	pulse	0.0	t		face	adult-142.jpg	0.0	269.9080390274139	
285.0	142.90671569593724	ISI	1.0		7.0	face	adult-142.jpg	0.0	270.0162467312912	0.11672272613577661
286.0	143.023438422073	adult	0.0		46.0	face	adult-12.jpg	0.0	270.13296945742695	0.3832704821306834
286.0	143.4067089042037	ISI	1.0		7.0	face	adult-12.jpg	0.0	270.51623993955764	0.11669404992971977
286.0	143.49849419729435	pulse	1.0	t		face	adult-12.jpg	0.0	270.6080252326483	
287.0	143.52340295413342	adult	0.0		46.0	face	adult-55.jpg	0.0	270.63293398948736	0.3833239104314998
287.0	143.90672686456492	ISI	1.0		11.0	face	adult-55.jpg	0.0	271.01625789991886	0.10003589053667383
288.0	144.0067627551016	baseline	0.0		48.0		baseline	0.0	271.11629379045553	0.3999908236146439
288.0	144.19855164026376	pulse	0.0	t			baseline	0.0	271.3080826756177	
288.0	144.40675357871623	ISI	1.0		11.0		baseline	0.0	271.5162846140702	0.09999785683066875
289.0	144.5067514355469	baseline	0.0		48.0		baseline	0.0	271.61628247090084	0.3999950495799567
289.0	144.8985345250967	pulse	0.0	t			baseline	0.0	272.00806556045063	
289.0	144.90674648512686	ISI	1.0		11.0		baseline	0.0	272.0162775204808	0.0999933290095214
290.0	145.00673981413638	baseline	0.0		48.0		baseline	0.0	272.1162708494903	0.3999935403062409
290.0	145.40673335444262	ISI	1.0		11.0		baseline	0.0	272.51626438979656	0.1000078180404671
291.0	145.5067411724831	baseline	0.0		48.0		baseline	0.0	272.616272207837	0.39998206982454576
291.0	145.59852314517047	pulse	0.0	t			baseline	0.0	272.7080541805244	
291.0	145.90672324230763	ISI	1.0		11.0		baseline	0.0	273.0162542776616	0.09999695126680308
292.0	146.00672019357444	baseline	0.0		48.0		baseline	0.0	273.1162512289284	0.39999655885367247
292.0	146.29849637064945	pulse	0.0	t			baseline	0.0	273.4080274060034	
292.0	146.4067167524281	ISI	1.0		11.0		baseline	0.0	273.51624778778205	0.10003890908592439
293.0	146.50675566151403	baseline	0.0		48.0		baseline	0.0	273.616286696868	0.39994554539225646
293.0	146.9067012069063	ISI	1.0		11.0		baseline	0.0	274.01623224226023	0.09999876239453442
293.0	146.99848257588383	pulse	1.0	t			baseline	0.0	274.10801361123777	
294.0	147.00669996930083	baseline	0.0		48.0		baseline	0.0	274.11623100465476	0.3999902199047938
294.0	147.40669018920562	ISI	1.0		11.0		baseline	0.0	274.51622122455956	0.09999966796021909
295.0	147.50668985716584	baseline	0.0		48.0		baseline	0.0	274.6162208925198	0.3999899180489592
295.0	147.69848327015097	pulse	0.0	t			baseline	0.0	274.8080143055049	
295.0	147.9066797752148	ISI	1.0		11.0		baseline	0.0	275.01621081056874	0.09999695126680308
296.0	148.0066767264816	baseline	0.0		48.0		baseline	0.0	275.11620776183554	0.399996860709507
296.0	148.39846192901496	pulse	0.0	t			baseline	0.0	275.5079929643689	
296.0	148.4066735871911	ISI	1.0		11.0		baseline	0.0	275.51620462254505	0.09999453642922163
297.0	148.50666812362033	baseline	0.0		48.0		baseline	0.0	275.61619915897427	0.3999947477259411
297.0	148.90666287134627	ISI	1.0		11.0		baseline	0.0	276.0161939067002	0.10000661062076688
298.0	149.00666948196704	baseline	0.0		48.0		baseline	0.0	276.116200517321	0.39999052175880934
298.0	149.09844783239532	pulse	0.0	t			baseline	0.0	276.20797886774926	
298.0	149.40666000372585	ISI	1.0		11.0		baseline	0.0	276.5161910390798	0.09998759376685484
299.0	149.5066475974927	baseline	0.0		48.0		baseline	0.0	276.61617863284664	0.39999444587192556
299.0	149.79843705617895	pulse	0.0	t			baseline	0.0	276.9079680915329	
299.0	149.90664204336463	ISI	1.0		6.0		baseline	0.0	277.01617307871857	0.11666446815615927
300.0	150.0233065115208	house	0.0		46.0	place	house-105.jpg	0.0	277.1328375468747	0.38325810608512256
300.0	150.4065646176059	ISI	1.0		7.0	place	house-105.jpg	0.0	277.51609565295985	0.11669284251001955
300.0	150.4983493069867	pulse	1.0	t		place	house-105.jpg	0.0	277.60788034234065	
301.0	150.52325746011593	house	0.0		46.0	place	house-77.jpg	0.0	277.63278849546987	0.38329553607945854
301.0	150.9065529961954	ISI	1.0		7.0	place	house-77.jpg	0.0	278.0160840315493	0.11668046646263974
302.0	151.02323346265803	house	0.0		46.0	place	house-69.jpg	0.0	278.13276449801197	0.3833163640629209
302.0	151.19830321375775	pulse	0.0	t		place	house-69.jpg	0.0	278.3078342491117	
302.0	151.40654982672095	ISI	1.0		5.0	place	house-69.jpg	0.0	278.5160808620749	0.11667141081852606
303.0	151.52322123753947	house	0.0		46.0	place	house-83.jpg	0.0	278.6327522728934	0.38331606220708636
303.0	151.89831869890986	pulse	0.0	t		place	house-83.jpg	0.0	279.0078497342638	
303.0	151.90653729974656	ISI	1.0		7.0	place	house-83.jpg	0.0	279.0160683351005	0.11667261823640729
304.0	152.02320991798297	house	0.0		46.0	place	house-48.jpg	0.0	279.1327409533369	0.3833094214023731
304.0	152.40651933938534	ISI	1.0		7.0	place	house-48.jpg	0.0	279.5160503747393	0.11670069073443301
305.0	152.52322003011977	house	0.0		46.0	place	house-39.jpg	0.0	279.6327510654737	0.38330791212683835
305.0	152.59830731898364	pulse	0.0	t		place	house-39.jpg	0.0	279.7078383543376	
305.0	152.9065279422466	ISI	1.0		7.0	place	house-39.jpg	0.0	280.01605897760055	0.11666326073827804
306.0	153.0231912029849	house	0.0		46.0	place	house-4.jpg	0.0	280.13272223833883	0.3833048935794068
306.0	153.29829533534758	pulse	0.0	t		place	house-4.jpg	0.0	280.4078263707015	
306.0	153.4064960965643	ISI	1.0		7.0	place	house-4.jpg	0.0	280.51602713191824	0.11668439057575597
307.0	153.52318048714005	house	0.0		46.0	place	house-9.jpg	0.0	280.632711522494	0.3832991583385592
307.0	153.9064796454786	ISI	1.0		7.0	place	house-9.jpg	0.0	281.01601068083255	0.11670461484573025
307.0	153.99827489977724	pulse	1.0	t		place	house-9.jpg	0.0	281.1078059351312	
308.0	154.02318426032434	house	0.0		46.0	place	house-64.jpg	0.0	281.1327152956783	0.38331123253010446
308.0	154.40649549285445	ISI	1.0		7.0	place	house-64.jpg	0.0	281.5160265282084	0.11666386444812815
309.0	154.52315935730257	house	0.0		46.0	place	house-106.jpg	0.0	281.6326903926565	0.38331817519247124
309.0	154.69826533097876	pulse	0.0	t		place	house-106.jpg	0.0	281.8077963663327	
309.0	154.90647753249505	ISI	1.0		7.0	place	house-106.jpg	0.0	282.016008567849	0.11665269581862958
310.0	155.02313022831368	house	0.0		46.0	place	house-15.jpg	0.0	282.1326612636676	0.3833377957544144
310.0	155.39824549911827	pulse	0.0	t		place	house-15.jpg	0.0	282.5077765344722	
310.0	155.4064680240681	ISI	1.0		6.0	place	house-15.jpg	0.0	282.51599905942203	0.11667171267254162
311.0	155.52313973674063	house	0.0		46.0	place	house-62.jpg	0.0	282.63267077209457	0.3833067047089571
311.0	155.9064464414496	ISI	1.0		7.0	place	house-62.jpg	0.0	283.0159774768035	0.11668499428378709
312.0	156.02313143573338	car	0.0		46.0	object	car-45.jpg	0.0	283.1326624710873	0.3833480588164093
312.0	156.09826702136706	pulse	0.0	t		object	car-45.jpg	0.0	283.207798056721	
312.0	156.40647949454979	ISI	1.0		7.0	object	car-45.jpg	0.0	283.5160105299037	0.11667201452837617
313.0	156.52315150907816	car	0.0		46.0	object	car-135.jpg	0.0	283.6326825444321	0.38327259511606826
313.0	156.79821881515454	pulse	0.0	t		object	car-135.jpg	0.0	283.9077498505085	
313.0	156.90642410419423	ISI	1.0		5.0	object	car-135.jpg	0.0	284.01595513954817	0.11668318315423676
314.0	157.02310728734847	car	0.0		46.0	object	car-61.jpg	0.0	284.1326383227024	0.38331334551548935
314.0	157.40642063286396	ISI	1.0		7.0	object	car-61.jpg	0.0	284.5159516682179	0.11668952210493444
314.0	157.4982023036955	pulse	1.0	t		object	car-61.jpg	0.0	284.60773333904945	
315.0	157.5231101549689	car	0.0		46.0	object	car-40.jpg	0.0	284.63264119032283	0.3832937249517272
315.0	157.90640387992062	ISI	1.0		5.0	object	car-40.jpg	0.0	285.01593491527456	0.11668046646263974
316.0	158.02308434638326	car	0.0		46.0	object	car-36.jpg	0.0	285.1326153817372	0.3833109306760889
316.0	158.19819152747914	pulse	0.0	t		object	car-36.jpg	0.0	285.3077225628331	
316.0	158.40639527705935	ISI	1.0		7.0	object	car-36.jpg	0.0	285.5159263124133	0.11669646476730122
317.0	158.52309174182665	car	0.0		46.0	object	car-36.jpg	1.0	285.6326227771806	0.383292517532027
317.0	158.8981632436844	pulse	0.0	t		object	car-36.jpg	1.0	286.00769427903833	
317.0	158.90638425935867	ISI	1.0		7.0	object	car-36.jpg	1.0	286.0159152947126	0.11669646476730122
318.0	159.02308072412598	car	0.0		46.0	object	car-9.jpg	0.0	286.1326117594799	0.38329553608127753
318.0	159.40637626020725	ISI	1.0		5.0	object	car-9.jpg	0.0	286.5159072955612	0.11667956089695508
319.0	159.5230558211042	car	0.0		46.0	object	car-77.jpg	0.0	286.63258685645815	0.38331877890050237
319.0	159.59816303238586	pulse	0.0	t		object	car-77.jpg	0.0	286.7076940677398	
319.0	159.9063746000047	ISI	1.0		7.0	object	car-77.jpg	0.0	287.01590563535865	0.11666959968897572
320.0	160.0230441996937	car	0.0		46.0	object	car-65.jpg	0.0	287.1325752350476	0.3833163640629209
320.0	160.2981435023794	pulse	0.0	t		object	car-65.jpg	0.0	287.4076745377333	
320.0	160.4063605637566	ISI	1.0		7.0	object	car-65.jpg	0.0	287.51589159911055	0.11667261823640729
321.0	160.52303318199301	car	0.0		46.0	object	car-124.jpg	0.0	287.63256421734695	0.38332240115960303
321.0	160.90635558315262	ISI	1.0		7.0	object	car-124.jpg	0.0	288.01588661850656	0.11666114775471215
321.0	160.99812819834005	pulse	1.0	t		object	car-124.jpg	0.0	288.107659233694	
322.0	161.02301673090733	car	0.0		46.0	object	car-49.jpg	0.0	288.13254776626127	0.38332723083476594
322.0	161.4063439617421	ISI	1.0		6.0	object	car-49.jpg	0.0	288.51587499709603	0.11666990154481027
323.0	161.5230138632869	car	0.0		46.0	object	car-89.jpg	0.0	288.63254489864084	0.3833039880137221
323.0	161.69811802583354	pulse	0.0	t		object	car-89.jpg	0.0	288.8076490611875	
323.0	161.90631785130063	ISI	1.0		7.0	object	car-89.jpg	0.0	289.01584888665457	0.11671336863764736
324.0	162.02303121993828	word	0.0		46.0	character	word-19.jpg	0.0	289.1325622552922	0.383292517532027
324.0	162.39809849582707	pulse	0.0	t		character	word-19.jpg	0.0	289.507629531181	
324.0	162.4063237374703	ISI	1.0		7.0	character	word-19.jpg	0.0	289.51585477282424	0.11668439057393698
325.0	162.52300812804424	word	0.0		46.0	character	word-35.jpg	0.0	289.6325391633982	0.3833233067234687
325.0	162.9063314347677	ISI	1.0		7.0	character	word-35.jpg	0.0	290.01586247012165	0.11668529613962164
326.0	163.02301673090733	word	0.0		46.0	character	word-71.jpg	0.0	290.13254776626127	0.3832840655977634
326.0	163.09809073815995	pulse	0.0	t		character	word-71.jpg	0.0	290.2076217735139	
326.0	163.4063007965051	ISI	1.0		4.0	character	word-71.jpg	0.0	290.51583183185903	0.11667382565610751
327.0	163.5229746221612	word	0.0		46.0	character	word-130.jpg	0.0	290.63250565751514	0.38330579914327245
327.0	163.79807090629765	pulse	0.0	t		character	word-130.jpg	0.0	290.9076019416516	
327.0	163.90628042130447	ISI	1.0		2.0	character	word-130.jpg	0.0	291.0158114566584	0.11668227759219008
328.0	164.02296269889666	word	0.0		46.0	character	word-104.jpg	0.0	291.1324937342506	0.38330791212683835
328.0	164.4062706110235	ISI	1.0		7.0	character	word-104.jpg	0.0	291.51580164637744	0.11670159629829868
328.0	164.4980537911306	pulse	1.0	t		character	word-104.jpg	0.0	291.6075848264845	
329.0	164.5229722073218	word	0.0		46.0	character	word-87.jpg	0.0	291.63250324267574	0.38329825277469354
329.0	164.9062704600965	ISI	1.0		6.0	character	word-87.jpg	0.0	292.01580149545043	0.11665480880401446
330.0	165.0229252689005	word	0.0		46.0	character	word-8.jpg	0.0	292.13245630425445	0.3833227030136186
330.0	165.19803335556026	pulse	0.0	t		character	word-8.jpg	0.0	292.3075643909142	
330.0	165.40624797191413	ISI	1.0		7.0	character	word-8.jpg	0.0	292.51577900726807	0.11670099258844857
331.0	165.52294896450258	word	0.0		46.0	character	word-112.jpg	0.0	292.6324799998565	0.3833012713221251
331.0	165.89805034998608	pulse	0.0	t		character	word-112.jpg	0.0	293.00758138534	
331.0	165.9062502358247	ISI	1.0		7.0	character	word-112.jpg	0.0	293.01578127117864	0.11667442936595762
332.0	166.02292466519066	word	0.0		46.0	character	word-112.jpg	1.0	293.1324557005446	0.38330368615970656
332.0	166.40622835135036	ISI	1.0		7.0	character	word-112.jpg	1.0	293.5157593867043	0.11669465363956988
333.0	166.52292300498993	word	0.0		46.0	character	word-133.jpg	0.0	293.6324540403439	0.38330459172357223
333.0	166.59811322634232	pulse	0.0	t		character	word-133.jpg	0.0	293.70764426169626	
333.0	166.7646498438953	response	0.0	b		character	word-133.jpg	0.0	293.87418087924925	
333.0	166.9062275967135	ISI	1.0		4.0	character	word-133.jpg	0.0	294.01575863206745	0.11668378686590586
334.0	167.0229113835794	word	0.0		46.0	character	word-43.jpg	0.0	294.13244241893335	0.3832958379352931
334.0	167.29797808594412	pulse	0.0	t		character	word-43.jpg	0.0	294.40750912129806	
334.0	167.4062072215147	ISI	1.0		7.0	character	word-43.jpg	0.0	294.51573825686864	0.11669495549176645
335.0	167.52290217700647	word	0.0		46.0	character	word-83.jpg	0.0	294.6324332123604	0.3832867822911794
335.0	167.90618895929765	ISI	1.0		6.0	character	word-83.jpg	0.0	295.0157199946516	0.11671910387849493
335.0	167.99797998763097	pulse	1.0	t		character	word-83.jpg	0.0	295.1075110229849	
336.0	168.02290806317615	body	0.0		46.0	body	body-36.jpg	0.0	295.1324390985301	0.3832813489043474
336.0	168.4061894120805	ISI	1.0		7.0	body	body-36.jpg	0.0	295.51572044743443	0.11669133323630376
337.0	168.5228807453168	body	0.0		46.0	body	body-135.jpg	0.0	295.63241178067074	0.38329674349915877
337.0	168.69797283367188	pulse	0.0	t		body	body-135.jpg	0.0	295.8075038690258	
337.0	168.90617748881596	ISI	1.0		6.0	body	body-135.jpg	0.0	296.0157085241699	0.11669435178373533
338.0	169.0228718405997	body	0.0		46.0	body	body-94.jpg	0.0	296.13240287595363	0.3833377957525954
338.0	169.3979846965649	pulse	0.0	t		body	body-94.jpg	0.0	296.50751573191883	
338.0	169.4062096363523	ISI	1.0		6.0	body	body-94.jpg	0.0	296.5157406717062	0.11668318315605575
339.0	169.52289281950834	body	0.0		46.0	body	body-24.jpg	0.0	296.6324238548623	0.38329825277469354
339.0	169.90619107228304	ISI	1.0		7.0	body	body-24.jpg	0.0	297.015722107637	0.116695257347601
340.0	170.02288632963064	body	0.0		46.0	body	body-38.jpg	0.0	297.1324173649846	0.38330157317614066
340.0	170.09806779719293	pulse	0.0	t		body	body-38.jpg	0.0	297.20759883254686	
340.0	170.40618790280678	ISI	1.0		7.0	body	body-38.jpg	0.0	297.5157189381607	0.1166877109772031
341.0	170.52287561378398	body	0.0		46.0	body	body-126.jpg	0.0	297.6324066491379	0.38328436745359795
341.0	170.79795771074532	pulse	0.0	t		body	body-126.jpg	0.0	297.90748874609926	
341.0	170.90615998123758	ISI	1.0		6.0	body	body-126.jpg	0.0	298.0156910165915	0.11670370928186458
342.0	171.02286369051944	body	0.0		46.0	body	body-129.jpg	0.0	298.1323947258734	0.3832641431799857
342.0	171.40612783369943	ISI	1.0		7.0	body	body-129.jpg	0.0	298.51565886905337	0.11668076831847429
342.0	171.49790890082295	pulse	1.0	t		body	body-129.jpg	0.0	298.6074399361769	
343.0	171.5228086020179	body	0.0		46.0	body	body-129.jpg	1.0	298.63233963737184	0.3833067047071381
343.0	171.90611530672504	ISI	1.0		6.0	body	body-129.jpg	1.0	299.015646342079	0.11669193694615387
344.0	172.0228072436712	body	0.0		46.0	body	body-124.jpg	0.0	299.13233827902513	0.3833076102728228
344.0	172.1978996338803	pulse	0.0	t		body	body-124.jpg	0.0	299.30743066923424	
344.0	172.27285471033974	response	0.0	b		body	body-124.jpg	0.0	299.3823857456937	
344.0	172.40611485394402	ISI	1.0		7.0	body	body-124.jpg	0.0	299.51564588929796	0.11668439057393698
345.0	172.52279924451796	body	0.0		46.0	body	body-23.jpg	0.0	299.6323302798719	0.38330519543524133
345.0	172.89788010387383	pulse	0.0	t		body	body-23.jpg	0.0	300.00741113922777	
345.0	172.9061044399532	ISI	1.0		7.0	body	body-23.jpg	0.0	300.01563547530714	0.11668167388052098
346.0	173.02278611383372	body	0.0		46.0	body	body-111.jpg	0.0	300.13231714918766	0.3832970453549933
346.0	173.4060831591887	ISI	1.0		6.0	body	body-111.jpg	0.0	300.51561419454265	0.11667925904293952
347.0	173.52276241823165	body	0.0		46.0	body	body-71.jpg	0.0	300.6322934535856	0.38331485478738614
347.0	173.59792335966813	pulse	0.0	t		body	body-71.jpg	0.0	300.70745439502207	
347.0	173.90607727301904	ISI	1.0		7.0	body	body-71.jpg	0.0	301.015608308373	0.11669374807388522
348.0	174.02277102109292	house	0.0		46.0	place	house-88.jpg	0.0	301.13230205644686	0.38328648043716385
348.0	174.29785432547396	pulse	0.0	t		place	house-88.jpg	0.0	301.4073853608279	
348.0	174.40605750153009	ISI	1.0		7.0	place	house-88.jpg	0.0	301.515588536884	0.11669767218700144
349.0	174.5227551737171	house	0.0		46.0	place	house-6.jpg	0.0	301.632286209071	0.38329493236960843
349.0	174.9060501060867	ISI	1.0		5.0	place	house-6.jpg	0.0	302.01558114144063	0.11669616291328566
349.0	174.9978372103069	pulse	1.0	t		place	house-6.jpg	0.0	302.10736824566084	
350.0	175.02274626899998	house	0.0		46.0	place	house-47.jpg	0.0	302.1322773043539	0.38329493236960843
350.0	175.4060412013696	ISI	1.0		6.0	place	house-47.jpg	0.0	302.51557223672353	0.11669284251001955
351.0	175.5227340438796	house	0.0		46.0	place	house-103.jpg	0.0	302.63226507923355	0.383295234225443
351.0	175.6978225099774	pulse	0.0	t		place	house-103.jpg	0.0	302.80735354533135	
351.0	175.90602927810505	ISI	1.0		6.0	place	house-103.jpg	0.0	303.015560313459	0.11667141081852606
352.0	176.02270068892358	house	0.0		46.0	place	house-95.jpg	0.0	303.1322317242775	0.3833323623675824
352.0	176.3978087152118	pulse	0.0	t		place	house-95.jpg	0.0	303.50733975056573	
352.0	176.40603305129116	ISI	1.0		7.0	place	house-95.jpg	0.0	303.5155640866451	0.11668016460680519
353.0	176.52271321589797	house	0.0		46.0	place	house-46.jpg	0.0	303.6322442512519	0.38330519543524133
353.0	176.9060184113332	ISI	1.0		7.0	place	house-46.jpg	0.0	304.01554944668715	0.1166828813002212
354.0	177.02270129263343	house	0.0		46.0	place	house-27.jpg	0.0	304.13223232798737	0.3833387013182801
354.0	177.09783476528173	pulse	0.0	t		place	house-27.jpg	0.0	304.20736580063567	
354.0	177.4060399939517	ISI	1.0		7.0	place	house-27.jpg	0.0	304.51557102930565	0.11668650355750287
355.0	177.5227264975092	house	0.0		46.0	place	house-27.jpg	1.0	304.63225753286315	0.38329402680756175
355.0	177.79781070745412	pulse	0.0	t		place	house-27.jpg	1.0	304.90734174280806	
355.0	177.90602052431677	ISI	1.0		7.0	place	house-27.jpg	1.0	305.0155515596707	0.11669676662131678
355.0	177.942704033474	response	1.0	b		place	house-27.jpg	1.0	305.05223506882794	
356.0	178.0227172909381	house	0.0		46.0	place	house-50.jpg	0.0	305.13224832629203	0.383292517532027
356.0	178.40600980847012	ISI	1.0		5.0	place	house-50.jpg	0.0	305.51554084382406	0.12501739438266668
356.0	178.497894109938	pulse	1.0	t		place	house-50.jpg	0.0	305.6074251452919	
357.0	178.53102720285278	house	0.0		45.0	place	house-79.jpg	0.0	305.6405582382067	0.37498154912645987
357.0	178.90600875197924	ISI	1.0		5.0	place	house-79.jpg	0.0	306.0155397873332	0.11668680541333742
358.0	179.02269555739258	house	0.0		46.0	place	house-36.jpg	0.0	306.1322265927465	0.3832620301964198
358.0	179.19774961204166	pulse	0.0	t		place	house-36.jpg	0.0	306.3072806473956	
358.0	179.405957587589	ISI	1.0		6.0	place	house-36.jpg	0.0	306.51548862294294	0.1166931443640351
359.0	179.52265073195304	house	0.0		46.0	place	house-34.jpg	0.0	306.632181767307	0.3832997620484093
359.0	179.89773732655158	pulse	0.0	t		place	house-34.jpg	0.0	307.0072683619055	
359.0	179.90595049400144	ISI	1.0		11.0	place	house-34.jpg	0.0	307.0154815293554	0.09999302715368685
360.0	180.00594352115513	baseline	0.0		48.0		baseline	0.0	307.11547455650907	0.40000138853247336
360.0	180.4059449096876	ISI	1.0		11.0		baseline	0.0	307.51547594504154	0.09998759376685484
361.0	180.50593250345446	baseline	0.0		48.0		baseline	0.0	307.6154635388084	0.399994144016091
361.0	180.59772685218923	pulse	0.0	t			baseline	0.0	307.70725788754316	
361.0	180.90592664747055	ISI	1.0		11.0		baseline	0.0	308.0154576828245	0.09999272529967129
362.0	181.00591937277022	baseline	0.0		48.0		baseline	0.0	308.11545040812416	0.40000501078975503
362.0	181.2977000776682	pulse	0.0	t			baseline	0.0	308.40723111302214	
362.0	181.40592438355998	ISI	1.0		11.0		baseline	0.0	308.5154554189139	0.09999936610438453
363.0	181.50592374966436	baseline	0.0		48.0		baseline	0.0	308.6154547850183	0.39998146611469565
363.0	181.90590521577906	ISI	1.0		11.0		baseline	0.0	309.015436251133	0.10000268650765065
363.0	181.99778106531267	pulse	1.0	t			baseline	0.0	309.1073121006666	
364.0	182.0059079022867	baseline	0.0		48.0		baseline	0.0	309.11543893764065	0.3999974644211761
364.0	182.40590536670788	ISI	1.0		11.0		baseline	0.0	309.5154364020618	0.09999695126498409
365.0	182.50590231797287	baseline	0.0		48.0		baseline	0.0	309.6154333533268	0.39998146611469565
365.0	182.69767973265334	pulse	0.0	t			baseline	0.0	309.8072107680073	
365.0	182.90588378408756	ISI	1.0		11.0		baseline	0.0	310.0154148194415	0.1000002716700692
366.0	183.00588405575763	baseline	0.0		48.0		baseline	0.0	310.1154150911116	0.39999233288835967
366.0	183.39766503232386	pulse	0.0	t			baseline	0.0	310.5071960676778	
366.0	183.405876388646	ISI	1.0		11.0		baseline	0.0	310.51540742399993	0.10000540320106666
367.0	183.50588179184706	baseline	0.0		48.0		baseline	0.0	310.615412827201	0.3999920310325251
367.0	183.90587382287958	ISI	1.0		11.0		baseline	0.0	311.0154048582335	0.09999846054051886
368.0	184.0058722834201	baseline	0.0		48.0		baseline	0.0	311.11540331877404	0.39998689950152766
368.0	184.09765968949432	pulse	0.0	t			baseline	0.0	311.20719072484826	
368.0	184.40585918292163	ISI	1.0		11.0		baseline	0.0	311.51539021827557	0.10000087537810032
369.0	184.50586005829973	baseline	0.0		48.0		baseline	0.0	311.61539109365367	0.39998206982454576
369.0	184.7976332168273	pulse	0.0	t			baseline	0.0	311.90716425218125	
369.0	184.90584212812428	ISI	1.0		11.0		baseline	0.0	312.0153731634782	0.09999363086353696
370.0	185.0058357589878	baseline	0.0		48.0		baseline	0.0	312.11536679434175	0.4000729281215172
370.0	185.40590868710933	ISI	1.0		11.0		baseline	0.0	312.51543972246327	0.10000329021750076
370.0	185.49777185874154	pulse	1.0	t			baseline	0.0	312.6073028940955	
371.0	185.50591197732683	baseline	0.0		48.0		baseline	0.0	312.61544301268077	0.39997512716399797
371.0	185.90588710449083	ISI	1.0		5.0		baseline	0.0	313.01541813984477	0.11664786614346667
372.0	186.0225349706343	word	0.0		46.0	character	word-81.jpg	0.0	313.13206600598824	0.3832958379352931
372.0	186.19763913318275	pulse	0.0	t		character	word-81.jpg	0.0	313.3071701685367	
372.0	186.4058308085696	ISI	1.0		7.0	character	word-81.jpg	0.0	313.51536184392353	0.11669193694433488
373.0	186.52252274551392	word	0.0		46.0	character	word-29.jpg	0.0	313.63205378086786	0.38330217688780976
373.0	186.8976286588204	pulse	0.0	t		character	word-29.jpg	0.0	314.00715969417433	
373.0	186.90582492240173	ISI	1.0		6.0	character	word-29.jpg	0.0	314.0153559577557	0.1167097463785467
374.0	187.02253466878028	word	0.0		46.0	character	word-10.jpg	0.0	314.1320657041342	0.38329342309589265
374.0	187.40582809187617	ISI	1.0		7.0	character	word-10.jpg	0.0	314.5153591272301	0.1166759386396734
375.0	187.52250403051585	word	0.0		46.0	character	word-15.jpg	0.0	314.6320350658698	0.38327531180948426
375.0	187.59758135817174	pulse	0.0	t		character	word-15.jpg	0.0	314.7071123935257	
375.0	187.90577934232533	ISI	1.0		7.0	character	word-15.jpg	0.0	315.01531037767927	0.11668227759037109
376.0	188.0224616199157	word	0.0		46.0	character	word-15.jpg	1.0	315.13199265526964	0.3833178733366367
376.0	188.2975597151817	pulse	0.0	t		character	word-15.jpg	1.0	315.40709075053564	
376.0	188.40577949325234	ISI	1.0		7.0	character	word-15.jpg	1.0	315.5153105286063	0.11666688299555972
376.0	188.47255520999897	response	1.0	b		character	word-15.jpg	1.0	315.5820862453529	
377.0	188.5224463762479	word	0.0		46.0	character	word-114.jpg	0.0	315.63197741160184	0.38330791212865734
377.0	188.90575428837656	ISI	1.0		5.0	character	word-114.jpg	0.0	316.0152853237305	0.116697974041017
377.0	188.997559805739	pulse	1.0	t		character	word-114.jpg	0.0	316.10709084109294	
378.0	189.02245226241757	word	0.0		46.0	character	word-113.jpg	0.0	316.1319832977715	0.3832958379352931
378.0	189.40574810035287	ISI	1.0		6.0	character	word-113.jpg	0.0	316.5152791357068	0.1166780516232393
379.0	189.5224261519761	word	0.0		46.0	character	word-129.jpg	0.0	316.63195718733004	0.3833130436596548
379.0	189.69753182379827	pulse	0.0	t		character	word-129.jpg	0.0	316.8070628591522	
379.0	189.90573919563576	ISI	1.0		6.0	character	word-129.jpg	0.0	317.0152702309897	0.11667925904293952
380.0	190.0224184546787	word	0.0		46.0	character	word-122.jpg	0.0	317.13194949003264	0.3833039880155411
380.0	190.39751380306552	pulse	0.0	t		character	word-122.jpg	0.0	317.50704483841946	
380.0	190.40572244269424	ISI	1.0		7.0	character	word-122.jpg	0.0	317.5152534780482	0.1167194057325105
381.0	190.52244184842675	word	0.0		46.0	character	word-5.jpg	0.0	317.6319728837807	0.38327682108138106
381.0	190.90571866950813	ISI	1.0		5.0	character	word-5.jpg	0.0	318.0152497048621	0.11667805162505829
382.0	191.0223967211332	word	0.0		46.0	character	word-31.jpg	0.0	318.13192775648713	0.3833097232563887
382.0	191.09750695096227	pulse	0.0	t		character	word-31.jpg	0.0	318.2070379863162	
382.0	191.40570644438958	ISI	1.0		6.0	character	word-31.jpg	0.0	318.5152374797435	0.11668137202650541
383.0	191.52238781641609	word	0.0		46.0	character	word-30.jpg	0.0	318.63191885177	0.3833076102728228
383.0	191.7974862135361	pulse	0.0	t		character	word-30.jpg	0.0	318.90701724889004	
383.0	191.9056954266889	ISI	1.0		11.0	character	word-30.jpg	0.0	319.01522646204285	0.10000751618463255
384.0	192.00570294287354	baseline	0.0		48.0		baseline	0.0	319.1152339782275	0.39998418280811165
384.0	192.40568712568165	ISI	1.0		11.0		baseline	0.0	319.5152181610356	0.10000721433061699
384.0	192.4974763428836	pulse	1.0	t			baseline	0.0	319.60700737823754	
385.0	192.50569434001227	baseline	0.0		48.0		baseline	0.0	319.6152253753662	0.3999784475654451
385.0	192.9056727875777	ISI	1.0		11.0		baseline	0.0	320.01520382293165	0.1000105347338831
386.0	193.0056833223116	baseline	0.0		48.0		baseline	0.0	320.11521435766554	0.39999052175880934
386.0	193.1974610388461	pulse	0.0	t			baseline	0.0	320.3069920742	
386.0	193.4056738440704	ISI	1.0		11.0		baseline	0.0	320.51520487942435	0.0999975549748342
387.0	193.50567139904524	baseline	0.0		48.0		baseline	0.0	320.6152024343992	0.4000623632036877
387.0	193.89752542447604	pulse	0.0	t			baseline	0.0	321.00705645983	
387.0	193.90573376224893	ISI	1.0		11.0		baseline	0.0	321.01526479760287	0.1000174773944309
388.0	194.00575123964336	baseline	0.0		48.0		baseline	0.0	321.1152822749973	0.39996969377716596
388.0	194.40572093342053	ISI	1.0		11.0		baseline	0.0	321.51525196877446	0.09999664941096853
389.0	194.5057175828315	baseline	0.0		48.0		baseline	0.0	321.61524861818543	0.3999802586949954
389.0	194.59750076293858	pulse	0.0	t			baseline	0.0	321.7070317982925	
389.0	194.9056978415265	ISI	1.0		11.0		baseline	0.0	322.0152288768804	0.10000147908976942
390.0	195.00569932061626	baseline	0.0		48.0		baseline	0.0	322.1152303559702	0.40000078482262325
390.0	195.29748183664196	pulse	0.0	t			baseline	0.0	322.4070128719959	
390.0	195.40570010543888	ISI	1.0		11.0		baseline	0.0	322.5152311407928	0.09999725312081864
