trial_nr	onset	event_type	phase	response	nr_frames	face_age	face_sex	face_eth	attractiveness	expression	face_id	sub_id	ses	run	trial_type	catch	rating_type	onset_abs	duration
-1.0	0.06278360974511088	fix	0.0		713													28.96164988011924	5.957862832570299
-1.0	0.704260443585099	pulse	0.0	t														29.603126713959227	
-1.0	1.4042297451364902	pulse	0.0	t														30.30309601551062	
-1.0	2.1042126300721975	pulse	0.0	t														31.003078900446326	
-1.0	2.8041876668303303	pulse	0.0	t														31.70305393720446	
-1.0	3.504165420265508	pulse	0.0	t														32.40303169063964	
-1.0	4.204160681173562	pulse	0.0	t														33.10302695154769	
-1.0	4.904132095695786	pulse	0.0	t														33.802998366069914	
-1.0	5.60412343251528	pulse	0.0	t														34.50298970288941	
0.0	6.02064644231541	face	0.0		144	40.0	male	white	1.868682849184242	neutral	172	sub-14	2.0	4.0	172_neutral	0.0		34.91951271268954	1.2333350740191236
0.0	6.304112052657729	pulse	0.0	t		40.0	male	white	1.868682849184242	neutral	172	sub-14	2.0	4.0	172_neutral	0.0		35.20297832303186	
0.0	7.00410399318298	pulse	0.0	t		40.0	male	white	1.868682849184242	neutral	172	sub-14	2.0	4.0	172_neutral	0.0		35.90297026355711	
0.0	7.253981516334534	fix	1.0		444	40.0	male	white	1.868682849184242	neutral	172	sub-14	2.0	4.0	172_neutral	0.0		36.15284778670866	3.766525469901808
0.0	7.704064842851039	pulse	1.0	t		40.0	male	white	1.868682849184242	neutral	172	sub-14	2.0	4.0	172_neutral	0.0		36.60293111322517	
0.0	8.40404742593364	pulse	1.0	t		40.0	male	white	1.868682849184242	neutral	172	sub-14	2.0	4.0	172_neutral	0.0		37.30291369630777	
0.0	9.104027292339651	pulse	1.0	t		40.0	male	white	1.868682849184242	neutral	172	sub-14	2.0	4.0	172_neutral	0.0		38.00289356271378	
0.0	9.804009875422253	pulse	1.0	t		40.0	male	white	1.868682849184242	neutral	172	sub-14	2.0	4.0	172_neutral	0.0		38.70287614579638	
0.0	10.504018116008865	pulse	1.0	t		40.0	male	white	1.868682849184242	neutral	172	sub-14	2.0	4.0	172_neutral	0.0		39.40288438638299	
1.0	11.020506986236342	face	0.0		145	22.0	female	west_asian	3.8205332272184642	neutral	066	sub-14	2.0	4.0	066_neutral	0.0		39.91937325661047	1.2333187739577625
1.0	11.20398198420662	pulse	0.0	t		22.0	female	west_asian	3.8205332272184642	neutral	066	sub-14	2.0	4.0	066_neutral	0.0		40.10284825458075	
1.0	11.903934985696651	pulse	0.0	t		22.0	female	west_asian	3.8205332272184642	neutral	066	sub-14	2.0	4.0	066_neutral	0.0		40.80280125607078	
1.0	12.253825760194104	fix	1.0		445	22.0	female	west_asian	3.8205332272184642	neutral	066	sub-14	2.0	4.0	066_neutral	0.0		41.15269203056823	3.7582172683451063
1.0	12.60393990590046	pulse	1.0	t		22.0	female	west_asian	3.8205332272184642	neutral	066	sub-14	2.0	4.0	066_neutral	0.0		41.50280617627459	
1.0	13.303921281571093	pulse	1.0	t		22.0	female	west_asian	3.8205332272184642	neutral	066	sub-14	2.0	4.0	066_neutral	0.0		42.20278755194522	
1.0	14.003915033214525	pulse	1.0	t		22.0	female	west_asian	3.8205332272184642	neutral	066	sub-14	2.0	4.0	066_neutral	0.0		42.902781303588654	
1.0	14.703879505118039	pulse	1.0	t		22.0	female	west_asian	3.8205332272184642	neutral	066	sub-14	2.0	4.0	066_neutral	0.0		43.60274577549217	
1.0	15.403866615995867	pulse	1.0	t		22.0	female	west_asian	3.8205332272184642	neutral	066	sub-14	2.0	4.0	066_neutral	0.0		44.302732886369995	
2.0	16.01204302853921	face	0.0		146	24.0	male	white	3.1153999204138483	smiling	012	sub-14	2.0	4.0	012_smiling	0.0		44.91090929891334	1.2416631978730948
2.0	16.103839841635818	pulse	0.0	t		24.0	male	white	3.1153999204138483	smiling	012	sub-14	2.0	4.0	012_smiling	0.0		45.002706112009946	
2.0	16.803835706250084	pulse	0.0	t		24.0	male	white	3.1153999204138483	smiling	012	sub-14	2.0	4.0	012_smiling	0.0		45.70270197662421	
2.0	17.253706226412305	fix	1.0		444	24.0	male	white	3.1153999204138483	smiling	012	sub-14	2.0	4.0	012_smiling	0.0		46.15257249678643	3.7582181739039697
2.0	17.503810743008216	pulse	1.0	t		24.0	male	white	3.1153999204138483	smiling	012	sub-14	2.0	4.0	012_smiling	0.0		46.402677013382345	
2.0	18.203781553824683	pulse	1.0	t		24.0	male	white	3.1153999204138483	smiling	012	sub-14	2.0	4.0	012_smiling	0.0		47.10264782419881	
2.0	18.903769872114026	pulse	1.0	t		24.0	male	white	3.1153999204138483	smiling	012	sub-14	2.0	4.0	012_smiling	0.0		47.802636142488154	
2.0	19.603754870020566	pulse	1.0	t		24.0	male	white	3.1153999204138483	smiling	012	sub-14	2.0	4.0	012_smiling	0.0		48.502621140394695	
2.0	20.30374258460415	pulse	1.0	t		24.0	male	white	3.1153999204138483	smiling	012	sub-14	2.0	4.0	012_smiling	0.0		49.20260885497828	
3.0	21.011924400316275	face	0.0		146	28.0	male	white	3.9076800636689217	smiling	033	sub-14	2.0	4.0	033_smiling	0.0		49.9107906706904	1.2416526330184752
3.0	21.005053622673586	pulse	0.0	t		28.0	male	white	3.9076800636689217	smiling	033	sub-14	2.0	4.0	033_smiling	0.0		49.903919893047714	
3.0	21.703702015563067	pulse	0.0	t		28.0	male	white	3.9076800636689217	smiling	033	sub-14	2.0	4.0	033_smiling	0.0		50.602568285937195	
3.0	22.25357703333475	fix	1.0		443	28.0	male	white	3.9076800636689217	smiling	033	sub-14	2.0	4.0	033_smiling	0.0		51.15244330370888	3.766550221846501
3.0	22.4036707134087	pulse	1.0	t		28.0	male	white	3.9076800636689217	smiling	033	sub-14	2.0	4.0	033_smiling	0.0		51.30253698378283	
3.0	23.10366325763971	pulse	1.0	t		28.0	male	white	3.9076800636689217	smiling	033	sub-14	2.0	4.0	033_smiling	0.0		52.00252952801384	
3.0	23.803627729543223	pulse	1.0	t		28.0	male	white	3.9076800636689217	smiling	033	sub-14	2.0	4.0	033_smiling	0.0		52.70249399991735	
3.0	24.50361967006893	pulse	1.0	t		28.0	male	white	3.9076800636689217	smiling	033	sub-14	2.0	4.0	033_smiling	0.0		53.40248594044306	
3.0	25.20360104573956	pulse	1.0	t		28.0	male	white	3.9076800636689217	smiling	033	sub-14	2.0	4.0	033_smiling	0.0		54.10246731611369	
3.0	25.903585138087237	pulse	1.0	t		28.0	male	white	3.9076800636689217	smiling	033	sub-14	2.0	4.0	033_smiling	0.0		54.802451408461366	
4.0	26.02012725518125	face	0.0		146	19.0	female	white	4.298846000795861	neutral	100	sub-14	2.0	4.0	100_neutral	0.0		54.91899352555538	1.2333169628400356
4.0	26.603572550817717	pulse	0.0	t		19.0	female	white	4.298846000795861	neutral	100	sub-14	2.0	4.0	100_neutral	0.0		55.502438821191845	
4.0	27.253444218021286	fix	1.0		443	19.0	female	white	4.298846000795861	neutral	100	sub-14	2.0	4.0	100_neutral	0.0		56.152310488395415	3.7665496181407434
4.0	27.303560265401302	pulse	1.0	t		19.0	female	white	4.298846000795861	neutral	100	sub-14	2.0	4.0	100_neutral	0.0		56.20242653577543	
4.0	28.00353379289436	pulse	1.0	t		19.0	female	white	4.298846000795861	neutral	100	sub-14	2.0	4.0	100_neutral	0.0		56.90240006326849	
4.0	28.703501283328023	pulse	1.0	t		19.0	female	white	4.298846000795861	neutral	100	sub-14	2.0	4.0	100_neutral	0.0		57.60236755370215	
4.0	29.403489601617366	pulse	1.0	t		19.0	female	white	4.298846000795861	neutral	100	sub-14	2.0	4.0	100_neutral	0.0		58.302355871991494	
4.0	30.103469468023377	pulse	1.0	t		19.0	female	white	4.298846000795861	neutral	100	sub-14	2.0	4.0	100_neutral	0.0		59.002335738397505	
4.0	30.803446014046585	pulse	1.0	t		19.0	female	white	4.298846000795861	neutral	100	sub-14	2.0	4.0	100_neutral	0.0		59.702312284420714	
5.0	31.01999383616203	face	0.0		145	36.0	female	white	2.7548746518105847	smiling	011	sub-14	2.0	4.0	011_smiling	0.0		59.91886010653616	1.2333163591338234
5.0	31.503442784219715	pulse	0.0	t		36.0	female	white	2.7548746518105847	smiling	011	sub-14	2.0	4.0	011_smiling	0.0		60.40230905459384	
5.0	32.20342174506641	pulse	0.0	t		36.0	female	white	2.7548746518105847	smiling	011	sub-14	2.0	4.0	011_smiling	0.0		61.102288015440536	
5.0	32.25331019529585	fix	1.0		445	36.0	female	white	2.7548746518105847	smiling	011	sub-14	2.0	4.0	011_smiling	0.0		61.15217646566998	3.766551429258925
5.0	32.90340281888439	pulse	1.0	t		36.0	female	white	2.7548746518105847	smiling	011	sub-14	2.0	4.0	011_smiling	0.0		61.802269089258516	
5.0	33.60336970561184	pulse	1.0	t		36.0	female	white	2.7548746518105847	smiling	011	sub-14	2.0	4.0	011_smiling	0.0		62.50223597598597	
5.0	34.303355005371486	pulse	1.0	t		36.0	female	white	2.7548746518105847	smiling	011	sub-14	2.0	4.0	011_smiling	0.0		63.202221275745615	
5.0	35.00332883471765	pulse	1.0	t		36.0	female	white	2.7548746518105847	smiling	011	sub-14	2.0	4.0	011_smiling	0.0		63.90219510509178	
5.0	35.70332288821419	pulse	1.0	t		36.0	female	white	2.7548746518105847	smiling	011	sub-14	2.0	4.0	011_smiling	0.0		64.60218915858832	
6.0	36.01986162455478	face	0.0		145	22.0	male	black	2.767608436132113	smiling	044	sub-14	2.0	4.0	044_smiling	0.0		64.9187278949289	1.2333033794552648
6.0	36.403301245355124	pulse	0.0	t		22.0	male	black	2.767608436132113	smiling	044	sub-14	2.0	4.0	044_smiling	0.0		65.30216751572925	
6.0	37.10329107290954	pulse	0.0	t		22.0	male	black	2.767608436132113	smiling	044	sub-14	2.0	4.0	044_smiling	0.0		66.00215734328367	
6.0	37.25316500401004	fix	1.0		444	22.0	male	black	2.767608436132113	smiling	044	sub-14	2.0	4.0	044_smiling	0.0		66.15203127438417	3.76654478849332
6.0	37.803285730111384	pulse	1.0	t		22.0	male	black	2.767608436132113	smiling	044	sub-14	2.0	4.0	044_smiling	0.0		66.70215200048551	
6.0	38.50325563536899	pulse	1.0	t		22.0	male	black	2.767608436132113	smiling	044	sub-14	2.0	4.0	044_smiling	0.0		67.40212190574312	
6.0	39.20323067212712	pulse	1.0	t		22.0	male	black	2.767608436132113	smiling	044	sub-14	2.0	4.0	044_smiling	0.0		68.10209694250125	
6.0	39.903199369972754	pulse	1.0	t		22.0	male	black	2.767608436132113	smiling	044	sub-14	2.0	4.0	044_smiling	0.0		68.80206564034688	
6.0	40.603192517909974	pulse	1.0	t		22.0	male	black	2.767608436132113	smiling	044	sub-14	2.0	4.0	044_smiling	0.0		69.5020587882841	
7.0	41.01970979250336	face	0.0		145	40.0	female	west_asian	1.5777954635893354	neutral	038	sub-14	2.0	4.0	038_neutral	1.0	attractiveness	69.91857606287749	1.2333368851368505
7.0	41.30316212131402	pulse	0.0	t		40.0	female	west_asian	1.5777954635893354	neutral	038	sub-14	2.0	4.0	038_neutral	1.0	attractiveness	70.20202839168815	
7.0	42.00315526925124	pulse	0.0	t		40.0	female	west_asian	1.5777954635893354	neutral	038	sub-14	2.0	4.0	038_neutral	1.0	attractiveness	70.90202153962537	
7.0	42.253046677640214	fix	1.0		177	40.0	female	west_asian	1.5777954635893354	neutral	038	sub-14	2.0	4.0	038_neutral	1.0	attractiveness	71.15191294801434	1.508315898807723
7.0	42.70314419124679	pulse	1.0	t		40.0	female	west_asian	1.5777954635893354	neutral	038	sub-14	2.0	4.0	038_neutral	1.0	attractiveness	71.60201046162092	
7.0	43.40311319094553	pulse	1.0	t		40.0	female	west_asian	1.5777954635893354	neutral	038	sub-14	2.0	4.0	038_neutral	1.0	attractiveness	72.30197946131966	
7.0	43.76136257644794	rating	2.0		293	40.0	female	west_asian	1.5777954635893354	neutral	038	sub-14	2.0	4.0	038_neutral	1.0	attractiveness	72.66022884682206	2.4915609451741147
7.0	44.103112074089495	pulse	2.0	t		40.0	female	west_asian	1.5777954635893354	neutral	038	sub-14	2.0	4.0	038_neutral	1.0	attractiveness	73.00197834446362	
7.0	44.8030883182596	pulse	2.0	t		40.0	female	west_asian	1.5777954635893354	neutral	038	sub-14	2.0	4.0	038_neutral	1.0	attractiveness	73.70195458863373	
7.0	45.494738249693455	response	2.0	w		40.0	female	west_asian	1.5777954635893354	neutral	038	sub-14	2.0	4.0	038_neutral	1.0	attractiveness	74.39360452006758	
7.0	45.50580780235623	pulse	2.0	t		40.0	female	west_asian	1.5777954635893354	neutral	038	sub-14	2.0	4.0	038_neutral	1.0	attractiveness	74.40467407273036	
7.0	46.203032354716015	pulse	2.0	t		40.0	female	west_asian	1.5777954635893354	neutral	038	sub-14	2.0	4.0	038_neutral	1.0	attractiveness	75.10189862509014	
7.0	46.25292352162205	fix	3.0		443	40.0	female	west_asian	1.5777954635893354	neutral	038	sub-14	2.0	4.0	038_neutral	1.0	attractiveness	75.15178979199618	3.766549919994304
7.0	46.903033048977704	pulse	3.0	t		40.0	female	west_asian	1.5777954635893354	neutral	038	sub-14	2.0	4.0	038_neutral	1.0	attractiveness	75.80189931935183	
7.0	47.603007783883186	pulse	3.0	t		40.0	female	west_asian	1.5777954635893354	neutral	038	sub-14	2.0	4.0	038_neutral	1.0	attractiveness	76.50187405425731	
7.0	48.302992781789726	pulse	3.0	t		40.0	female	west_asian	1.5777954635893354	neutral	038	sub-14	2.0	4.0	038_neutral	1.0	attractiveness	77.20185905216385	
7.0	48.544647829631685	response	3.0	n		40.0	female	west_asian	1.5777954635893354	neutral	038	sub-14	2.0	4.0	038_neutral	1.0	attractiveness	77.44351410000581	
7.0	49.00296721484165	pulse	3.0	t		40.0	female	west_asian	1.5777954635893354	neutral	038	sub-14	2.0	4.0	038_neutral	1.0	attractiveness	77.90183348521577	
7.0	49.70293772380501	pulse	3.0	t		40.0	female	west_asian	1.5777954635893354	neutral	038	sub-14	2.0	4.0	038_neutral	1.0	attractiveness	78.60180399417914	
8.0	50.019473441616356	face	0.0		145	47.0	male	east_asian	2.171110226820533	smiling	024	sub-14	2.0	4.0	024_smiling	0.0		78.91833971199048	1.2333220943401102
8.0	50.40293026803647	pulse	0.0	t		47.0	male	east_asian	2.171110226820533	smiling	024	sub-14	2.0	4.0	024_smiling	0.0		79.3017965384106	
8.0	51.102911040001345	pulse	0.0	t		47.0	male	east_asian	2.171110226820533	smiling	024	sub-14	2.0	4.0	024_smiling	0.0		80.00177731037547	
8.0	51.252795535956466	fix	1.0		445	47.0	male	east_asian	2.171110226820533	smiling	024	sub-14	2.0	4.0	024_smiling	0.0		80.1516618063306	3.758312050182667
8.0	51.80289422679016	pulse	1.0	t		47.0	male	east_asian	2.171110226820533	smiling	024	sub-14	2.0	4.0	024_smiling	0.0		80.70176049716429	
8.0	52.50287530060814	pulse	1.0	t		47.0	male	east_asian	2.171110226820533	smiling	024	sub-14	2.0	4.0	024_smiling	0.0		81.40174157098227	
8.0	53.2028618077793	pulse	1.0	t		47.0	male	east_asian	2.171110226820533	smiling	024	sub-14	2.0	4.0	024_smiling	0.0		82.10172807815343	
8.0	53.902825374124404	pulse	1.0	t		47.0	male	east_asian	2.171110226820533	smiling	024	sub-14	2.0	4.0	024_smiling	0.0		82.80169164449853	
8.0	54.602817314649656	pulse	1.0	t		47.0	male	east_asian	2.171110226820533	smiling	024	sub-14	2.0	4.0	024_smiling	0.0		83.50168358502378	
9.0	55.01110758613913	face	0.0		146	28.0	female	white	5.676880222841227	smiling	124	sub-14	2.0	4.0	124_smiling	0.0		83.90997385651326	1.2415512104153095
9.0	55.3028122737046	pulse	0.0	t		28.0	female	white	5.676880222841227	smiling	124	sub-14	2.0	4.0	124_smiling	0.0		84.20167854407873	
9.0	56.0027851974919	pulse	0.0	t		28.0	female	white	5.676880222841227	smiling	124	sub-14	2.0	4.0	124_smiling	0.0		84.90165146786603	
9.0	56.25265879655444	fix	1.0		444	28.0	female	white	5.676880222841227	smiling	124	sub-14	2.0	4.0	124_smiling	0.0		85.15152506692857	3.76656742746718
9.0	56.702770799104655	pulse	1.0	t		28.0	female	white	5.676880222841227	smiling	124	sub-14	2.0	4.0	124_smiling	0.0		85.60163706947878	
9.0	57.40274734512741	pulse	1.0	t		28.0	female	white	5.676880222841227	smiling	124	sub-14	2.0	4.0	124_smiling	0.0		86.30161361550154	
9.0	58.1027257022688	pulse	1.0	t		28.0	female	white	5.676880222841227	smiling	124	sub-14	2.0	4.0	124_smiling	0.0		87.00159197264293	
9.0	58.80270345570352	pulse	1.0	t		28.0	female	white	5.676880222841227	smiling	124	sub-14	2.0	4.0	124_smiling	0.0		87.70156972607765	
9.0	59.50268845361006	pulse	1.0	t		28.0	female	white	5.676880222841227	smiling	124	sub-14	2.0	4.0	124_smiling	0.0		88.40155472398419	
10.0	60.01922622402162	face	0.0		145	25.0	female	black	3.858336649423	smiling	126	sub-14	2.0	4.0	126_smiling	0.0		88.91809249439575	1.2333157554276113
10.0	60.20268129969463	pulse	0.0	t		25.0	female	black	3.858336649423	smiling	126	sub-14	2.0	4.0	126_smiling	0.0		89.10154757006876	
10.0	60.902659053129355	pulse	0.0	t		25.0	female	black	3.858336649423	smiling	126	sub-14	2.0	4.0	126_smiling	0.0		89.80152532350348	
10.0	61.252541979449234	fix	1.0		444	25.0	female	black	3.858336649423	smiling	126	sub-14	2.0	4.0	126_smiling	0.0		90.15140824982336	3.7665387514334725
10.0	61.60264646586029	pulse	1.0	t		25.0	female	black	3.858336649423	smiling	126	sub-14	2.0	4.0	126_smiling	0.0		90.50151273623442	
10.0	62.30261848408827	pulse	1.0	t		25.0	female	black	3.858336649423	smiling	126	sub-14	2.0	4.0	126_smiling	0.0		91.2014847544624	
10.0	63.00260710423072	pulse	1.0	t		25.0	female	black	3.858336649423	smiling	126	sub-14	2.0	4.0	126_smiling	0.0		91.90147337460485	
10.0	63.70257761319408	pulse	1.0	t		25.0	female	black	3.858336649423	smiling	126	sub-14	2.0	4.0	126_smiling	0.0		92.60144388356821	
10.0	64.40255898886517	pulse	1.0	t		25.0	female	black	3.858336649423	smiling	126	sub-14	2.0	4.0	126_smiling	0.0		93.3014252592393	
11.0	65.0190807308827	face	0.0		145	40.0	male	black	2.408674890569041	smiling	061	sub-14	2.0	4.0	061_smiling	0.0		93.91794700125683	1.2333142461629905
11.0	65.10255304236125	pulse	0.0	t		40.0	male	black	2.408674890569041	smiling	061	sub-14	2.0	4.0	061_smiling	0.0		94.00141931273538	
11.0	65.80251389202931	pulse	0.0	t		40.0	male	black	2.408674890569041	smiling	061	sub-14	2.0	4.0	061_smiling	0.0		94.70138016240344	
11.0	66.2523949770457	fix	1.0		444	40.0	male	black	2.408674890569041	smiling	061	sub-14	2.0	4.0	061_smiling	0.0		95.15126124741982	3.766555655200591
11.0	66.50251337887903	pulse	1.0	t		40.0	male	black	2.408674890569041	smiling	061	sub-14	2.0	4.0	061_smiling	0.0		95.40137964925316	
11.0	67.20250139531572	pulse	1.0	t		40.0	male	black	2.408674890569041	smiling	061	sub-14	2.0	4.0	061_smiling	0.0		96.10136766568985	
11.0	67.90247130057287	pulse	1.0	t		40.0	male	black	2.408674890569041	smiling	061	sub-14	2.0	4.0	061_smiling	0.0		96.801337570947	
11.0	68.60245146883199	pulse	1.0	t		40.0	male	black	2.408674890569041	smiling	061	sub-14	2.0	4.0	061_smiling	0.0		97.50131773920612	
11.0	69.30243133523754	pulse	1.0	t		40.0	male	black	2.408674890569041	smiling	061	sub-14	2.0	4.0	061_smiling	0.0		98.20129760561167	
12.0	70.01895063224629	face	0.0		146	25.0	female	black	3.858336649423	neutral	126	sub-14	2.0	4.0	126_neutral	0.0		98.91781690262042	1.2333115294859454
12.0	70.00541162031368	pulse	0.0	t		25.0	female	black	3.858336649423	neutral	126	sub-14	2.0	4.0	126_neutral	0.0		98.90427789068781	
12.0	70.70239076619646	pulse	0.0	t		25.0	female	black	3.858336649423	neutral	126	sub-14	2.0	4.0	126_neutral	0.0		99.60125703657059	
12.0	71.25226216173223	fix	1.0		443	25.0	female	black	3.858336649423	neutral	126	sub-14	2.0	4.0	126_neutral	0.0		100.15112843210636	3.758279751913051
12.0	71.4023694251905	pulse	1.0	t		25.0	female	black	3.858336649423	neutral	126	sub-14	2.0	4.0	126_neutral	0.0		100.30123569556463	
12.0	72.10235864903916	pulse	1.0	t		25.0	female	black	3.858336649423	neutral	126	sub-14	2.0	4.0	126_neutral	0.0		101.00122491941329	
12.0	72.80234153397487	pulse	1.0	t		25.0	female	black	3.858336649423	neutral	126	sub-14	2.0	4.0	126_neutral	0.0		101.701207804349	
12.0	73.50232079667467	pulse	1.0	t		25.0	female	black	3.858336649423	neutral	126	sub-14	2.0	4.0	126_neutral	0.0		102.4011870670488	
12.0	74.20229975752181	pulse	1.0	t		25.0	female	black	3.858336649423	neutral	126	sub-14	2.0	4.0	126_neutral	0.0		103.10116602789594	
12.0	74.90228052948623	pulse	1.0	t		25.0	female	black	3.858336649423	neutral	126	sub-14	2.0	4.0	126_neutral	0.0		103.80114679986036	
13.0	75.01054191364528	face	0.0		147	25.0	female	west_asian	2.6756864305610826	smiling	064	sub-14	2.0	4.0	064_smiling	0.0		103.90940818401941	1.2416052420999222
13.0	75.60225435883285	pulse	0.0	t		25.0	female	west_asian	2.6756864305610826	smiling	064	sub-14	2.0	4.0	064_smiling	0.0		104.50112062920698	
13.0	76.2521471557452	fix	1.0		443	25.0	female	west_asian	2.6756864305610826	smiling	064	sub-14	2.0	4.0	064_smiling	0.0		105.15101342611933	3.766548410728774
13.0	76.30225414753568	pulse	1.0	t		25.0	female	west_asian	2.6756864305610826	smiling	064	sub-14	2.0	4.0	064_smiling	0.0		105.2011204179098	
13.0	77.00223099541154	pulse	1.0	t		25.0	female	west_asian	2.6756864305610826	smiling	064	sub-14	2.0	4.0	064_smiling	0.0		105.90109726578567	
13.0	77.70221388034724	pulse	1.0	t		25.0	female	west_asian	2.6756864305610826	smiling	064	sub-14	2.0	4.0	064_smiling	0.0		106.60108015072137	
13.0	78.40218046522205	pulse	1.0	t		25.0	female	west_asian	2.6756864305610826	smiling	064	sub-14	2.0	4.0	064_smiling	0.0		107.30104673559617	
13.0	79.10217451871813	pulse	1.0	t		25.0	female	west_asian	2.6756864305610826	smiling	064	sub-14	2.0	4.0	064_smiling	0.0		108.00104078909226	
13.0	79.80215076288823	pulse	1.0	t		25.0	female	west_asian	2.6756864305610826	smiling	064	sub-14	2.0	4.0	064_smiling	0.0		108.70101703326236	
14.0	80.01869556647398	face	0.0		145	31.0	female	white	2.1822522881018704	neutral	102	sub-14	2.0	4.0	102_neutral	0.0		108.91756183684811	1.2333000590724623
14.0	80.50213696820674	pulse	0.0	t		31.0	female	white	2.1822522881018704	neutral	102	sub-14	2.0	4.0	102_neutral	0.0		109.40100323858087	
14.0	81.20210989199404	pulse	0.0	t		31.0	female	white	2.1822522881018704	neutral	102	sub-14	2.0	4.0	102_neutral	0.0		110.10097616236817	
14.0	81.25199562554644	fix	1.0		445	31.0	female	white	2.1822522881018704	neutral	102	sub-14	2.0	4.0	102_neutral	0.0		110.15086189592057	3.766567125614074
14.0	81.90210032325467	pulse	1.0	t		31.0	female	white	2.1822522881018704	neutral	102	sub-14	2.0	4.0	102_neutral	0.0		110.8009665936288	
14.0	82.6020816989253	pulse	1.0	t		31.0	female	white	2.1822522881018704	neutral	102	sub-14	2.0	4.0	102_neutral	0.0		111.50094796929943	
14.0	83.30206367830215	pulse	1.0	t		31.0	female	white	2.1822522881018704	neutral	102	sub-14	2.0	4.0	102_neutral	0.0		112.20092994867628	
14.0	84.00204082803111	pulse	1.0	t		31.0	female	white	2.1822522881018704	neutral	102	sub-14	2.0	4.0	102_neutral	0.0		112.90090709840524	
14.0	84.70201888331894	pulse	1.0	t		31.0	female	white	2.1822522881018704	neutral	102	sub-14	2.0	4.0	102_neutral	0.0		113.60088515369307	
15.0	85.01856275116052	face	0.0		145	24.0	female	black	3.0955033824114606	neutral	099	sub-14	2.0	4.0	099_neutral	0.0		113.91742902153464	1.2333172646926869
15.0	85.40201263496238	pulse	0.0	t		24.0	female	black	3.0955033824114606	neutral	099	sub-14	2.0	4.0	099_neutral	0.0		114.3008789053365	
15.0	86.10198857727937	pulse	0.0	t		24.0	female	black	3.0955033824114606	neutral	099	sub-14	2.0	4.0	099_neutral	0.0		115.0008548476535	
15.0	86.2518800158532	fix	1.0		444	24.0	female	black	3.0955033824114606	neutral	099	sub-14	2.0	4.0	099_neutral	0.0		115.15074628622733	3.7665348273449126
15.0	86.80197448074523	pulse	1.0	t		24.0	female	black	3.0955033824114606	neutral	099	sub-14	2.0	4.0	099_neutral	0.0		115.70084075111936	
15.0	87.5019483100914	pulse	1.0	t		24.0	female	black	3.0955033824114606	neutral	099	sub-14	2.0	4.0	099_neutral	0.0		116.40081458046552	
15.0	88.20193572282187	pulse	1.0	t		24.0	female	black	3.0955033824114606	neutral	099	sub-14	2.0	4.0	099_neutral	0.0		117.100801993196	
15.0	88.90190230769622	pulse	1.0	t		24.0	female	black	3.0955033824114606	neutral	099	sub-14	2.0	4.0	099_neutral	0.0		117.80076857807035	
15.0	89.60188790930897	pulse	1.0	t		24.0	female	black	3.0955033824114606	neutral	099	sub-14	2.0	4.0	099_neutral	0.0		118.5007541796831	
16.0	90.01841484319812	face	0.0		145	34.0	male	white	2.651014723438122	smiling	121	sub-14	2.0	4.0	121_smiling	0.0		118.91728111357224	1.233331149930109
16.0	90.30187079424468	pulse	0.0	t		34.0	male	white	2.651014723438122	smiling	121	sub-14	2.0	4.0	121_smiling	0.0		119.2007370646188	
16.0	91.00185941438713	pulse	0.0	t		34.0	male	white	2.651014723438122	smiling	121	sub-14	2.0	4.0	121_smiling	0.0		119.90072568476126	
16.0	91.25174599312822	fix	1.0		444	34.0	male	white	2.651014723438122	smiling	121	sub-14	2.0	4.0	121_smiling	0.0		120.15061226350235	3.758298164945245
16.0	91.70184561970564	pulse	1.0	t		34.0	male	white	2.651014723438122	smiling	121	sub-14	2.0	4.0	121_smiling	0.0		120.60071189007976	
16.0	92.40180858234453	pulse	1.0	t		34.0	male	white	2.651014723438122	smiling	121	sub-14	2.0	4.0	121_smiling	0.0		121.30067485271866	
16.0	93.10180203213486	pulse	1.0	t		34.0	male	white	2.651014723438122	smiling	121	sub-14	2.0	4.0	121_smiling	0.0		122.00066830250898	
16.0	93.80177827630496	pulse	1.0	t		34.0	male	white	2.651014723438122	smiling	121	sub-14	2.0	4.0	121_smiling	0.0		122.70064454667909	
16.0	94.50175844456362	pulse	1.0	t		34.0	male	white	2.651014723438122	smiling	121	sub-14	2.0	4.0	121_smiling	0.0		123.40062471493775	
17.0	95.01004415807347	face	0.0		146	28.0	female	white	5.676880222841227	neutral	124	sub-14	2.0	4.0	124_neutral	0.0		123.9089104284476	1.2415690197412914
17.0	95.20175430917789	pulse	0.0	t		28.0	female	white	5.676880222841227	neutral	124	sub-14	2.0	4.0	124_neutral	0.0		124.10062057955201	
17.0	95.90172994964178	pulse	0.0	t		28.0	female	white	5.676880222841227	neutral	124	sub-14	2.0	4.0	124_neutral	0.0		124.8005962200159	
17.0	96.25161317781476	fix	1.0		444	28.0	female	white	5.676880222841227	neutral	124	sub-14	2.0	4.0	124_neutral	0.0		125.15047944818889	3.7583470651288735
17.0	96.60170196787021	pulse	1.0	t		28.0	female	white	5.676880222841227	neutral	124	sub-14	2.0	4.0	124_neutral	0.0		125.50056823824434	
17.0	97.30169692692562	pulse	1.0	t		28.0	female	white	5.676880222841227	neutral	124	sub-14	2.0	4.0	124_neutral	0.0		126.20056319729974	
17.0	98.00167015256557	pulse	1.0	t		28.0	female	white	5.676880222841227	neutral	124	sub-14	2.0	4.0	124_neutral	0.0		126.9005364229397	
17.0	98.701642170794	pulse	1.0	t		28.0	female	white	5.676880222841227	neutral	124	sub-14	2.0	4.0	124_neutral	0.0		127.60050844116813	
17.0	99.40163139464221	pulse	1.0	t		28.0	female	white	5.676880222841227	neutral	124	sub-14	2.0	4.0	124_neutral	0.0		128.30049766501634	
18.0	100.00996024294363	face	0.0		146	40.0	male	black	2.408674890569041	neutral	061	sub-14	2.0	4.0	061_neutral	0.0		128.90882651331776	1.2415219306758445
18.0	100.10162092034398	pulse	0.0	t		40.0	male	black	2.408674890569041	neutral	061	sub-14	2.0	4.0	061_neutral	0.0		129.0004871907181	
18.0	100.80159082560112	pulse	0.0	t		40.0	male	black	2.408674890569041	neutral	061	sub-14	2.0	4.0	061_neutral	0.0		129.70045709597525	
18.0	101.25148217361948	fix	1.0		444	40.0	male	black	2.408674890569041	neutral	061	sub-14	2.0	4.0	061_neutral	0.0		130.1503484439936	3.7665538440824093
18.0	101.5015815587144	pulse	1.0	t		40.0	male	black	2.408674890569041	neutral	061	sub-14	2.0	4.0	061_neutral	0.0		130.40044782908853	
18.0	102.20156263253239	pulse	1.0	t		40.0	male	black	2.408674890569041	neutral	061	sub-14	2.0	4.0	061_neutral	0.0		131.10042890290651	
18.0	102.9015461211743	pulse	1.0	t		40.0	male	black	2.408674890569041	neutral	061	sub-14	2.0	4.0	061_neutral	0.0		131.80041239154843	
18.0	103.6015220634913	pulse	1.0	t		40.0	male	black	2.408674890569041	neutral	061	sub-14	2.0	4.0	061_neutral	0.0		132.50038833386543	
18.0	104.301501024338	pulse	1.0	t		40.0	male	black	2.408674890569041	neutral	061	sub-14	2.0	4.0	061_neutral	0.0		133.20036729471212	
19.0	105.01803601770189	face	0.0		146	24.0	female	east_asian	4.409868682849185	smiling	030	sub-14	2.0	4.0	030_smiling	0.0		133.91690228807602	1.233311227633294
19.0	105.00427363456038	pulse	0.0	t		24.0	female	east_asian	4.409868682849185	smiling	030	sub-14	2.0	4.0	030_smiling	0.0		133.9031399049345	
19.0	105.70147947203486	pulse	0.0	t		24.0	female	east_asian	4.409868682849185	smiling	030	sub-14	2.0	4.0	030_smiling	0.0		134.600345742409	
19.0	106.25134724533518	fix	1.0		443	24.0	female	east_asian	4.409868682849185	smiling	030	sub-14	2.0	4.0	030_smiling	0.0		135.1502135157093	3.7665520329646824
19.0	106.40145269767527	pulse	1.0	t		24.0	female	east_asian	4.409868682849185	smiling	030	sub-14	2.0	4.0	030_smiling	0.0		135.3003189680494	
19.0	107.10143226222817	pulse	1.0	t		24.0	female	east_asian	4.409868682849185	smiling	030	sub-14	2.0	4.0	030_smiling	0.0		136.0002985326023	
19.0	107.80141393975191	pulse	1.0	t		24.0	female	east_asian	4.409868682849185	smiling	030	sub-14	2.0	4.0	030_smiling	0.0		136.70028021012604	
19.0	108.50140437101254	pulse	1.0	t		24.0	female	east_asian	4.409868682849185	smiling	030	sub-14	2.0	4.0	030_smiling	0.0		137.40027064138667	
19.0	109.20137186144575	pulse	1.0	t		24.0	female	east_asian	4.409868682849185	smiling	030	sub-14	2.0	4.0	030_smiling	0.0		138.10023813181988	
19.0	109.90134055929138	pulse	1.0	t		24.0	female	east_asian	4.409868682849185	smiling	030	sub-14	2.0	4.0	030_smiling	0.0		138.8002068296655	
20.0	110.01789927829986	face	0.0		146	21.0	male	black	2.969757262236371	smiling	137	sub-14	2.0	4.0	137_smiling	0.0		138.916765548674	1.2333166609869295
20.0	110.60135302581966	pulse	0.0	t		21.0	male	black	2.969757262236371	smiling	137	sub-14	2.0	4.0	137_smiling	0.0		139.5002192961938	
20.0	111.2512159392868	fix	1.0		1184	21.0	male	black	2.969757262236371	smiling	137	sub-14	2.0	4.0	137_smiling	0.0		140.15008220966092	10.016376429990487
20.0	111.30132293107727	pulse	1.0	t		21.0	male	black	2.969757262236371	smiling	137	sub-14	2.0	4.0	137_smiling	0.0		140.2001892014514	
20.0	112.00130008080623	pulse	1.0	t		21.0	male	black	2.969757262236371	smiling	137	sub-14	2.0	4.0	137_smiling	0.0		140.90016635118036	
20.0	112.70128326759504	pulse	1.0	t		21.0	male	black	2.969757262236371	smiling	137	sub-14	2.0	4.0	137_smiling	0.0		141.60014953796917	
20.0	113.40126162473598	pulse	1.0	t		21.0	male	black	2.969757262236371	smiling	137	sub-14	2.0	4.0	137_smiling	0.0		142.3001278951101	
20.0	114.10124662264252	pulse	1.0	t		21.0	male	black	2.969757262236371	smiling	137	sub-14	2.0	4.0	137_smiling	0.0		143.00011289301665	
20.0	114.80121954642982	pulse	1.0	t		21.0	male	black	2.969757262236371	smiling	137	sub-14	2.0	4.0	137_smiling	0.0		143.70008581680395	
20.0	115.50121903327954	pulse	1.0	t		21.0	male	black	2.969757262236371	smiling	137	sub-14	2.0	4.0	137_smiling	0.0		144.40008530365367	
20.0	116.20118712741896	pulse	1.0	t		21.0	male	black	2.969757262236371	smiling	137	sub-14	2.0	4.0	137_smiling	0.0		145.1000533977931	
20.0	116.90117423829679	pulse	1.0	t		21.0	male	black	2.969757262236371	smiling	137	sub-14	2.0	4.0	137_smiling	0.0		145.80004050867092	
20.0	117.6011574250856	pulse	1.0	t		21.0	male	black	2.969757262236371	smiling	137	sub-14	2.0	4.0	137_smiling	0.0		146.50002369545973	
20.0	118.30113729149116	pulse	1.0	t		21.0	male	black	2.969757262236371	smiling	137	sub-14	2.0	4.0	137_smiling	0.0		147.2000035618653	
20.0	119.00111112083778	pulse	1.0	t		21.0	male	black	2.969757262236371	smiling	137	sub-14	2.0	4.0	137_smiling	0.0		147.8999773912119	
20.0	119.70109883542091	pulse	1.0	t		21.0	male	black	2.969757262236371	smiling	137	sub-14	2.0	4.0	137_smiling	0.0		148.59996510579504	
20.0	120.40107598515033	pulse	1.0	t		21.0	male	black	2.969757262236371	smiling	137	sub-14	2.0	4.0	137_smiling	0.0		149.29994225552446	
20.0	121.10106188861573	pulse	1.0	t		21.0	male	black	2.969757262236371	smiling	137	sub-14	2.0	4.0	137_smiling	0.0		149.99992815898986	
21.0	121.26759236927728	face	0.0		146	31.0	female	east_asian	3.395941106247513	smiling	087	sub-14	2.0	4.0	087_smiling	1.0	trustworthiness	150.1664586396514	1.2333251128702614
21.0	121.80104598096341	pulse	0.0	t		31.0	female	east_asian	3.395941106247513	smiling	087	sub-14	2.0	4.0	087_smiling	1.0	trustworthiness	150.69991225133754	
21.0	122.50091748214754	fix	1.0		176	31.0	female	east_asian	3.395941106247513	smiling	087	sub-14	2.0	4.0	087_smiling	1.0	trustworthiness	151.39978375252167	1.499947930360122
21.0	122.50897876796307	pulse	1.0	t		31.0	female	east_asian	3.395941106247513	smiling	087	sub-14	2.0	4.0	087_smiling	1.0	trustworthiness	151.4078450383372	
21.0	123.20100843045202	pulse	1.0	t		31.0	female	east_asian	3.395941106247513	smiling	087	sub-14	2.0	4.0	087_smiling	1.0	trustworthiness	152.09987470082615	
21.0	123.90097260050288	pulse	1.0	t		31.0	female	east_asian	3.395941106247513	smiling	087	sub-14	2.0	4.0	087_smiling	1.0	trustworthiness	152.799838870877	
21.0	124.00086541250766	rating	2.0		295	31.0	female	east_asian	3.395941106247513	smiling	087	sub-14	2.0	4.0	087_smiling	1.0	trustworthiness	152.8997316828818	2.4999111042961886
21.0	124.60097691700048	pulse	2.0	t		31.0	female	east_asian	3.395941106247513	smiling	087	sub-14	2.0	4.0	087_smiling	1.0	trustworthiness	153.4998431873746	
21.0	125.21235598971407	response	2.0	y		31.0	female	east_asian	3.395941106247513	smiling	087	sub-14	2.0	4.0	087_smiling	1.0	trustworthiness	154.1112222600882	
21.0	125.30093444628528	pulse	2.0	t		31.0	female	east_asian	3.395941106247513	smiling	087	sub-14	2.0	4.0	087_smiling	1.0	trustworthiness	154.1998007166594	
21.0	126.00091280342667	pulse	2.0	t		31.0	female	east_asian	3.395941106247513	smiling	087	sub-14	2.0	4.0	087_smiling	1.0	trustworthiness	154.8997790738008	
21.0	126.50077651680385	fix	3.0		443	31.0	female	east_asian	3.395941106247513	smiling	087	sub-14	2.0	4.0	087_smiling	1.0	trustworthiness	155.39964278717798	3.7665879534697524
21.0	126.7008974994801	pulse	3.0	t		31.0	female	east_asian	3.395941106247513	smiling	087	sub-14	2.0	4.0	087_smiling	1.0	trustworthiness	155.59976376985423	
21.0	127.40089638262407	pulse	3.0	t		31.0	female	east_asian	3.395941106247513	smiling	087	sub-14	2.0	4.0	087_smiling	1.0	trustworthiness	156.2997626529982	
21.0	128.10087292864728	pulse	3.0	t		31.0	female	east_asian	3.395941106247513	smiling	087	sub-14	2.0	4.0	087_smiling	1.0	trustworthiness	156.9997391990214	
21.0	128.80085581358298	pulse	3.0	t		31.0	female	east_asian	3.395941106247513	smiling	087	sub-14	2.0	4.0	087_smiling	1.0	trustworthiness	157.6997220839571	
21.0	129.5008320577531	pulse	3.0	t		31.0	female	east_asian	3.395941106247513	smiling	087	sub-14	2.0	4.0	087_smiling	1.0	trustworthiness	158.39969832812722	
21.0	130.20081947048357	pulse	3.0	t		31.0	female	east_asian	3.395941106247513	smiling	087	sub-14	2.0	4.0	087_smiling	1.0	trustworthiness	159.0996857408577	
22.0	130.2673644702736	face	0.0		146	24.0	female	black	3.0955033824114606	smiling	099	sub-14	2.0	4.0	099_smiling	0.0		159.16623074064773	1.233313340604127
22.0	130.90081050544995	pulse	0.0	t		24.0	female	black	3.0955033824114606	smiling	099	sub-14	2.0	4.0	099_smiling	0.0		159.79967677582408	
22.0	131.50067781087773	fix	1.0		443	24.0	female	black	3.0955033824114606	smiling	099	sub-14	2.0	4.0	099_smiling	0.0		160.39954408125186	3.7583422354809954
22.0	131.60078524035498	pulse	1.0	t		24.0	female	black	3.0955033824114606	smiling	099	sub-14	2.0	4.0	099_smiling	0.0		160.4996515107291	
22.0	132.30076148452508	pulse	1.0	t		24.0	female	black	3.0955033824114606	smiling	099	sub-14	2.0	4.0	099_smiling	0.0		161.1996277548992	
22.0	133.0007485954029	pulse	1.0	t		24.0	female	black	3.0955033824114606	smiling	099	sub-14	2.0	4.0	099_smiling	0.0		161.89961486577704	
22.0	133.70072242474907	pulse	1.0	t		24.0	female	black	3.0955033824114606	smiling	099	sub-14	2.0	4.0	099_smiling	0.0		162.5995886951232	
22.0	134.4006941411244	pulse	1.0	t		24.0	female	black	3.0955033824114606	smiling	099	sub-14	2.0	4.0	099_smiling	0.0		163.29956041149853	
22.0	135.10068095014867	pulse	1.0	t		24.0	female	black	3.0955033824114606	smiling	099	sub-14	2.0	4.0	099_smiling	0.0		163.9995472205228	
23.0	135.25902004635873	face	0.0		147	27.0	male	black	3.5523278949462798	neutral	042	sub-14	2.0	4.0	042_neutral	0.0		164.15788631673286	1.2415270621763739
23.0	135.8006647406437	pulse	0.0	t		27.0	male	black	3.5523278949462798	neutral	042	sub-14	2.0	4.0	042_neutral	0.0		164.69953101101783	
23.0	136.5005471085351	fix	1.0		444	27.0	male	black	3.5523278949462798	neutral	042	sub-14	2.0	4.0	042_neutral	0.0		165.39941337890923	3.7665342236387005
23.0	136.50794401593066	pulse	1.0	t		27.0	male	black	3.5523278949462798	neutral	042	sub-14	2.0	4.0	042_neutral	0.0		165.4068102863048	
23.0	137.2006305105151	pulse	1.0	t		27.0	male	black	3.5523278949462798	neutral	042	sub-14	2.0	4.0	042_neutral	0.0		166.09949678088924	
23.0	137.90061701768673	pulse	1.0	t		27.0	male	black	3.5523278949462798	neutral	042	sub-14	2.0	4.0	042_neutral	0.0		166.79948328806086	
23.0	138.60059960076933	pulse	1.0	t		27.0	male	black	3.5523278949462798	neutral	042	sub-14	2.0	4.0	042_neutral	0.0		167.49946587114346	
23.0	139.30057282640973	pulse	1.0	t		27.0	male	black	3.5523278949462798	neutral	042	sub-14	2.0	4.0	042_neutral	0.0		168.19943909678386	
23.0	140.00055118355067	pulse	1.0	t		27.0	male	black	3.5523278949462798	neutral	042	sub-14	2.0	4.0	042_neutral	0.0		168.8994174539248	
24.0	140.2670813321738	face	0.0		145	31.0	male	west_asian	1.9538400318344609	smiling	070	sub-14	2.0	4.0	070_smiling	0.0		169.16594760254793	1.233310925780188
24.0	140.70055036854728	pulse	0.0	t		31.0	male	west_asian	1.9538400318344609	smiling	070	sub-14	2.0	4.0	070_smiling	0.0		169.5994166389214	
24.0	141.40050759597943	pulse	0.0	t		31.0	male	west_asian	1.9538400318344609	smiling	070	sub-14	2.0	4.0	070_smiling	0.0		170.29937386635356	
24.0	141.500392257954	fix	1.0		444	31.0	male	west_asian	1.9538400318344609	smiling	070	sub-14	2.0	4.0	070_smiling	0.0		170.39925852832812	3.7665731626739216
24.0	142.10050798838847	pulse	1.0	t		31.0	male	west_asian	1.9538400318344609	smiling	070	sub-14	2.0	4.0	070_smiling	0.0		170.9993742587626	
24.0	142.8004866473825	pulse	1.0	t		31.0	male	west_asian	1.9538400318344609	smiling	070	sub-14	2.0	4.0	070_smiling	0.0		171.69935291775664	
24.0	143.50046289155262	pulse	1.0	t		31.0	male	west_asian	1.9538400318344609	smiling	070	sub-14	2.0	4.0	070_smiling	0.0		172.39932916192674	
24.0	144.20044788945916	pulse	1.0	t		31.0	male	west_asian	1.9538400318344609	smiling	070	sub-14	2.0	4.0	070_smiling	0.0		173.09931415983328	
24.0	144.9004368114547	pulse	1.0	t		31.0	male	west_asian	1.9538400318344609	smiling	070	sub-14	2.0	4.0	070_smiling	0.0		173.79930308182884	
25.0	145.2669654206279	face	0.0		145	27.0	female	white	3.504576203740549	smiling	144	sub-14	2.0	4.0	144_smiling	0.0		174.16583169100204	1.2333136424567783
25.0	145.60041547044875	pulse	0.0	t		27.0	female	white	3.504576203740549	smiling	144	sub-14	2.0	4.0	144_smiling	0.0		174.49928174082288	
25.0	146.30038960164757	pulse	0.0	t		27.0	female	white	3.504576203740549	smiling	144	sub-14	2.0	4.0	144_smiling	0.0		175.1992558720217	
25.0	146.5002790630847	fix	1.0		444	27.0	female	white	3.504576203740549	smiling	144	sub-14	2.0	4.0	144_smiling	0.0		175.39914533345882	3.7583651763079615
25.0	147.00037822179002	pulse	1.0	t		27.0	female	white	3.504576203740549	smiling	144	sub-14	2.0	4.0	144_smiling	0.0		175.89924449216414	
25.0	147.70039189573026	pulse	1.0	t		27.0	female	white	3.504576203740549	smiling	144	sub-14	2.0	4.0	144_smiling	0.0		176.5992581661044	
25.0	148.40033463421923	pulse	1.0	t		27.0	female	white	3.504576203740549	smiling	144	sub-14	2.0	4.0	144_smiling	0.0		177.29920090459336	
25.0	149.10031570803721	pulse	1.0	t		27.0	female	white	3.504576203740549	smiling	144	sub-14	2.0	4.0	144_smiling	0.0		177.99918197841134	
25.0	149.80028591514747	pulse	1.0	t		27.0	female	white	3.504576203740549	smiling	144	sub-14	2.0	4.0	144_smiling	0.0		178.6991521855216	
26.0	150.25864423939265	face	0.0		146	27.0	female	white	3.504576203740549	neutral	144	sub-14	2.0	4.0	144_neutral	0.0		179.15751050976678	1.2415056306144834
26.0	150.50028691126226	pulse	0.0	t		27.0	female	white	3.504576203740549	neutral	144	sub-14	2.0	4.0	144_neutral	0.0		179.3991531816364	
26.0	151.2002556091079	pulse	0.0	t		27.0	female	white	3.504576203740549	neutral	144	sub-14	2.0	4.0	144_neutral	0.0		180.09912187948203	
26.0	151.50014987000714	fix	1.0		444	27.0	female	white	3.504576203740549	neutral	144	sub-14	2.0	4.0	144_neutral	0.0		180.39901614038126	3.7665296958439285
26.0	151.90023758848474	pulse	1.0	t		27.0	female	white	3.504576203740549	neutral	144	sub-14	2.0	4.0	144_neutral	0.0		180.79910385885887	
26.0	152.6002144363606	pulse	1.0	t		27.0	female	white	3.504576203740549	neutral	144	sub-14	2.0	4.0	144_neutral	0.0		181.49908070673473	
26.0	153.3002057731801	pulse	1.0	t		27.0	female	white	3.504576203740549	neutral	144	sub-14	2.0	4.0	144_neutral	0.0		182.19907204355422	
26.0	154.00017598029035	pulse	1.0	t		27.0	female	white	3.504576203740549	neutral	144	sub-14	2.0	4.0	144_neutral	0.0		182.89904225066448	
26.0	154.7001609781969	pulse	1.0	t		27.0	female	white	3.504576203740549	neutral	144	sub-14	2.0	4.0	144_neutral	0.0		183.59902724857102	
27.0	155.26667956585106	face	0.0		145	34.0	male	white	2.651014723438122	neutral	121	sub-14	2.0	4.0	121_neutral	1.0	trustworthiness	184.1655458362252	1.2333350740186688
27.0	155.4001474853685	pulse	0.0	t		34.0	male	white	2.651014723438122	neutral	121	sub-14	2.0	4.0	121_neutral	1.0	trustworthiness	184.29901375574264	
27.0	156.10013067215732	pulse	0.0	t		34.0	male	white	2.651014723438122	neutral	121	sub-14	2.0	4.0	121_neutral	1.0	trustworthiness	184.99899694253145	
27.0	156.50001463986973	fix	1.0		177	34.0	male	white	2.651014723438122	neutral	121	sub-14	2.0	4.0	121_neutral	1.0	trustworthiness	185.39888091024386	1.499948232213228
27.0	156.8001214052706	pulse	1.0	t		34.0	male	white	2.651014723438122	neutral	121	sub-14	2.0	4.0	121_neutral	1.0	trustworthiness	185.69898767564473	
27.0	157.50009312164593	pulse	1.0	t		34.0	male	white	2.651014723438122	neutral	121	sub-14	2.0	4.0	121_neutral	1.0	trustworthiness	186.39895939202006	
27.0	157.99996287208296	rating	2.0		294	34.0	male	white	2.651014723438122	neutral	121	sub-14	2.0	4.0	121_neutral	1.0	trustworthiness	186.8988291424571	2.4999443081242134
27.0	158.20009079737792	pulse	2.0	t		34.0	male	white	2.651014723438122	neutral	121	sub-14	2.0	4.0	121_neutral	1.0	trustworthiness	187.09895706775205	
27.0	158.9000564766934	pulse	2.0	t		34.0	male	white	2.651014723438122	neutral	121	sub-14	2.0	4.0	121_neutral	1.0	trustworthiness	187.79892274706754	
27.0	159.4917073438719	response	2.0	e		34.0	male	white	2.651014723438122	neutral	121	sub-14	2.0	4.0	121_neutral	1.0	trustworthiness	188.39057361424602	
27.0	159.60002758936298	pulse	2.0	t		34.0	male	white	2.651014723438122	neutral	121	sub-14	2.0	4.0	121_neutral	1.0	trustworthiness	188.4988938597371	
27.0	160.30003009474285	pulse	2.0	t		34.0	male	white	2.651014723438122	neutral	121	sub-14	2.0	4.0	121_neutral	1.0	trustworthiness	189.19889636511698	
27.0	160.49990718020717	fix	3.0		444	34.0	male	white	2.651014723438122	neutral	121	sub-14	2.0	4.0	121_neutral	1.0	trustworthiness	189.3987734505813	3.766553542229758
27.0	160.99998279437978	pulse	3.0	t		34.0	male	white	2.651014723438122	neutral	121	sub-14	2.0	4.0	121_neutral	1.0	trustworthiness	189.8988490647539	
27.0	161.6999729237873	pulse	3.0	t		34.0	male	white	2.651014723438122	neutral	121	sub-14	2.0	4.0	121_neutral	1.0	trustworthiness	190.59883919416143	
27.0	162.3999591291058	pulse	3.0	t		34.0	male	white	2.651014723438122	neutral	121	sub-14	2.0	4.0	121_neutral	1.0	trustworthiness	191.29882539947994	
27.0	163.0999471455425	pulse	3.0	t		34.0	male	white	2.651014723438122	neutral	121	sub-14	2.0	4.0	121_neutral	1.0	trustworthiness	191.99881341591663	
27.0	163.79992399341836	pulse	3.0	t		34.0	male	white	2.651014723438122	neutral	121	sub-14	2.0	4.0	121_neutral	1.0	trustworthiness	192.6987902637925	
28.0	164.26646072243693	face	0.0		145	28.0	male	east_asian	1.5563072025467568	neutral	005	sub-14	2.0	4.0	005_neutral	0.0		193.16532699281106	1.2333148498687478
28.0	164.49990718020717	pulse	0.0	t		28.0	male	east_asian	1.5563072025467568	neutral	005	sub-14	2.0	4.0	005_neutral	0.0		193.3987734505813	
28.0	165.19989006514288	pulse	0.0	t		28.0	male	east_asian	1.5563072025467568	neutral	005	sub-14	2.0	4.0	005_neutral	0.0		194.098756335517	
28.0	165.49977557230568	fix	1.0		444	28.0	male	east_asian	1.5563072025467568	neutral	005	sub-14	2.0	4.0	005_neutral	0.0		194.3986418426798	3.76655414593597
28.0	165.8998771760207	pulse	1.0	t		28.0	male	east_asian	1.5563072025467568	neutral	005	sub-14	2.0	4.0	005_neutral	0.0		194.79874344639484	
28.0	166.59984074236536	pulse	1.0	t		28.0	male	east_asian	1.5563072025467568	neutral	005	sub-14	2.0	4.0	005_neutral	0.0		195.4987070127395	
28.0	167.29983721068538	pulse	1.0	t		28.0	male	east_asian	1.5563072025467568	neutral	005	sub-14	2.0	4.0	005_neutral	0.0		196.1987034810595	
28.0	167.99980922891382	pulse	1.0	t		28.0	male	east_asian	1.5563072025467568	neutral	005	sub-14	2.0	4.0	005_neutral	0.0		196.89867549928795	
28.0	168.69981143244058	pulse	1.0	t		28.0	male	east_asian	1.5563072025467568	neutral	005	sub-14	2.0	4.0	005_neutral	0.0		197.5986777028147	
29.0	169.26632971824165	face	0.0		145	23.0	male	white	2.6275368085953046	smiling	141	sub-14	2.0	4.0	141_smiling	0.0		198.16519598861578	1.2333018701901892
29.0	169.39978465808053	pulse	0.0	t		23.0	male	white	2.6275368085953046	smiling	141	sub-14	2.0	4.0	141_smiling	0.0		198.29865092845466	
29.0	170.09975818557405	pulse	0.0	t		23.0	male	white	2.6275368085953046	smiling	141	sub-14	2.0	4.0	141_smiling	0.0		198.99862445594817	
29.0	170.49963158843184	fix	1.0		444	23.0	male	white	2.6275368085953046	smiling	141	sub-14	2.0	4.0	141_smiling	0.0		199.39849785880597	3.7665641070843776
29.0	170.7997383538327	pulse	1.0	t		23.0	male	white	2.6275368085953046	smiling	141	sub-14	2.0	4.0	141_smiling	0.0		199.69860462420684	
29.0	171.4997179183856	pulse	1.0	t		23.0	male	white	2.6275368085953046	smiling	141	sub-14	2.0	4.0	141_smiling	0.0		200.39858418875974	
29.0	172.19971831079465	pulse	1.0	t		23.0	male	white	2.6275368085953046	smiling	141	sub-14	2.0	4.0	141_smiling	0.0		201.09858458116878	
29.0	172.89969727164134	pulse	1.0	t		23.0	male	white	2.6275368085953046	smiling	141	sub-14	2.0	4.0	141_smiling	0.0		201.79856354201547	
29.0	173.59966023428024	pulse	1.0	t		23.0	male	white	2.6275368085953046	smiling	141	sub-14	2.0	4.0	141_smiling	0.0		202.49852650465436	
30.0	174.26619569551622	face	0.0		145	23.0	male	white	2.6275368085953046	neutral	141	sub-14	2.0	4.0	141_neutral	0.0		203.16506196589035	1.2333136424567783
30.0	174.2996597211304	pulse	0.0	t		23.0	male	white	2.6275368085953046	neutral	141	sub-14	2.0	4.0	141_neutral	0.0		203.19852599150454	
30.0	174.99962238191574	pulse	0.0	t		23.0	male	white	2.6275368085953046	neutral	141	sub-14	2.0	4.0	141_neutral	0.0		203.89848865228987	
30.0	175.499509337973	fix	1.0		443	23.0	male	white	2.6275368085953046	neutral	141	sub-14	2.0	4.0	141_neutral	0.0		204.39837560834712	3.7665574663187726
30.0	175.6996149261472	pulse	1.0	t		23.0	male	white	2.6275368085953046	neutral	141	sub-14	2.0	4.0	141_neutral	0.0		204.59848119652133	
30.0	176.39958181287466	pulse	1.0	t		23.0	male	white	2.6275368085953046	neutral	141	sub-14	2.0	4.0	141_neutral	0.0		205.2984480832488	
30.0	177.099579186754	pulse	1.0	t		23.0	male	white	2.6275368085953046	neutral	141	sub-14	2.0	4.0	141_neutral	0.0		205.99844545712813	
30.0	177.79954788459918	pulse	1.0	t		23.0	male	white	2.6275368085953046	neutral	141	sub-14	2.0	4.0	141_neutral	0.0		206.6984141549733	
30.0	178.49953076953489	pulse	1.0	t		23.0	male	white	2.6275368085953046	neutral	141	sub-14	2.0	4.0	141_neutral	0.0		207.398397039909	
30.0	179.1995178804127	pulse	1.0	t		23.0	male	white	2.6275368085953046	neutral	141	sub-14	2.0	4.0	141_neutral	0.0		208.09838415078684	
31.0	179.26606680429177	face	0.0		146	24.0	female	east_asian	2.9076800636689217	smiling	034	sub-14	2.0	4.0	034_smiling	0.0		208.1649330746659	1.2333012664844318
31.0	179.8995055949963	pulse	0.0	t		24.0	female	east_asian	2.9076800636689217	smiling	034	sub-14	2.0	4.0	034_smiling	0.0		208.79837186537043	
31.0	180.4993680707762	fix	1.0		443	24.0	female	east_asian	2.9076800636689217	smiling	034	sub-14	2.0	4.0	034_smiling	0.0		209.39823434115033	3.76656742746718
31.0	180.599484555843	pulse	1.0	t		24.0	female	east_asian	2.9076800636689217	smiling	034	sub-14	2.0	4.0	034_smiling	0.0		209.49835082621712	
31.0	181.2994611018662	pulse	1.0	t		24.0	female	east_asian	2.9076800636689217	smiling	034	sub-14	2.0	4.0	034_smiling	0.0		210.19832737224033	
31.0	181.9994433830957	pulse	1.0	t		24.0	female	east_asian	2.9076800636689217	smiling	034	sub-14	2.0	4.0	034_smiling	0.0		210.89830965346982	
31.0	182.69942264579595	pulse	1.0	t		24.0	female	east_asian	2.9076800636689217	smiling	034	sub-14	2.0	4.0	034_smiling	0.0		211.59828891617008	
31.0	183.3994043233197	pulse	1.0	t		24.0	female	east_asian	2.9076800636689217	smiling	034	sub-14	2.0	4.0	034_smiling	0.0		212.29827059369381	
31.0	184.09937845451896	pulse	1.0	t		24.0	female	east_asian	2.9076800636689217	smiling	034	sub-14	2.0	4.0	034_smiling	0.0		212.99824472489308	
32.0	184.26593549824338	face	0.0		146	24.0	female	east_asian	4.409868682849185	neutral	030	sub-14	2.0	4.0	030_neutral	0.0		213.1648017686175	1.2332985498073867
32.0	184.79936405613125	pulse	0.0	t		24.0	female	east_asian	4.409868682849185	neutral	030	sub-14	2.0	4.0	030_neutral	0.0		213.69823032650538	
32.0	185.49923404805077	fix	1.0		444	24.0	female	east_asian	4.409868682849185	neutral	030	sub-14	2.0	4.0	030_neutral	0.0		214.3981003184249	3.766529092138171
32.0	185.5068368191819	pulse	1.0	t		24.0	female	east_asian	4.409868682849185	neutral	030	sub-14	2.0	4.0	030_neutral	0.0		214.40570308955603	
32.0	186.19933857973956	pulse	1.0	t		24.0	female	east_asian	4.409868682849185	neutral	030	sub-14	2.0	4.0	030_neutral	0.0		215.0982048501137	
32.0	186.8993069757321	pulse	1.0	t		24.0	female	east_asian	4.409868682849185	neutral	030	sub-14	2.0	4.0	030_neutral	0.0		215.79817324610622	
32.0	187.59929831255113	pulse	1.0	t		24.0	female	east_asian	4.409868682849185	neutral	030	sub-14	2.0	4.0	030_neutral	0.0		216.49816458292526	
32.0	188.2992778771045	pulse	1.0	t		24.0	female	east_asian	4.409868682849185	neutral	030	sub-14	2.0	4.0	030_neutral	0.0		217.19814414747862	
32.0	188.99925713980429	pulse	1.0	t		24.0	female	east_asian	4.409868682849185	neutral	030	sub-14	2.0	4.0	030_neutral	0.0		217.8981234101784	
33.0	189.26576314018894	face	0.0		146	40.0	female	west_asian	1.5777954635893354	smiling	038	sub-14	2.0	4.0	038_smiling	1.0	dominance	218.16462941056307	1.2416707441971084
33.0	189.69924394882855	pulse	0.0	t		40.0	female	west_asian	1.5777954635893354	smiling	038	sub-14	2.0	4.0	038_smiling	1.0	dominance	218.59811021920268	
33.0	190.39923709676623	pulse	0.0	t		40.0	female	west_asian	1.5777954635893354	smiling	038	sub-14	2.0	4.0	038_smiling	1.0	dominance	219.29810336714036	
33.0	190.50743388438605	fix	1.0		177	40.0	female	west_asian	1.5777954635893354	smiling	038	sub-14	2.0	4.0	038_smiling	1.0	dominance	219.40630015476017	1.499961815597544
33.0	191.09920941684732	pulse	1.0	t		40.0	female	west_asian	1.5777954635893354	smiling	038	sub-14	2.0	4.0	038_smiling	1.0	dominance	219.99807568722144	
33.0	191.79917992581068	pulse	1.0	t		40.0	female	west_asian	1.5777954635893354	smiling	038	sub-14	2.0	4.0	038_smiling	1.0	dominance	220.6980461961848	
33.0	192.0073956999836	rating	2.0		295	40.0	female	west_asian	1.5777954635893354	smiling	038	sub-14	2.0	4.0	038_smiling	1.0	dominance	220.90626197035772	2.4999449118304256
33.0	192.49917548857184	pulse	2.0	t		40.0	female	west_asian	1.5777954635893354	smiling	038	sub-14	2.0	4.0	038_smiling	1.0	dominance	221.39804175894596	
33.0	193.19915686424247	pulse	2.0	t		40.0	female	west_asian	1.5777954635893354	smiling	038	sub-14	2.0	4.0	038_smiling	1.0	dominance	222.0980231346166	
33.0	193.8991319010006	pulse	2.0	t		40.0	female	west_asian	1.5777954635893354	smiling	038	sub-14	2.0	4.0	038_smiling	1.0	dominance	222.79799817137473	
33.0	193.92409665211835	response	2.0	w		40.0	female	west_asian	1.5777954635893354	smiling	038	sub-14	2.0	4.0	038_smiling	1.0	dominance	222.82296292249248	
33.0	194.50734061181402	fix	3.0		443	40.0	female	west_asian	1.5777954635893354	smiling	038	sub-14	2.0	4.0	038_smiling	1.0	dominance	223.40620688218814	3.7665538440824093
33.0	194.59911720076025	pulse	3.0	t		40.0	female	west_asian	1.5777954635893354	smiling	038	sub-14	2.0	4.0	038_smiling	1.0	dominance	223.49798347113438	
33.0	195.29906839113255	pulse	3.0	t		40.0	female	west_asian	1.5777954635893354	smiling	038	sub-14	2.0	4.0	038_smiling	1.0	dominance	224.19793466150668	
33.0	195.99907421689522	pulse	3.0	t		40.0	female	west_asian	1.5777954635893354	smiling	038	sub-14	2.0	4.0	038_smiling	1.0	dominance	224.89794048726935	
33.0	196.69904925365336	pulse	3.0	t		40.0	female	west_asian	1.5777954635893354	smiling	038	sub-14	2.0	4.0	038_smiling	1.0	dominance	225.59791552402748	
33.0	197.3990318367364	pulse	3.0	t		40.0	female	west_asian	1.5777954635893354	smiling	038	sub-14	2.0	4.0	038_smiling	1.0	dominance	226.29789810711054	
33.0	198.09901955132	pulse	3.0	t		40.0	female	west_asian	1.5777954635893354	smiling	038	sub-14	2.0	4.0	038_smiling	1.0	dominance	226.99788582169413	
34.0	198.27389445589642	face	0.0		146	22.0	male	black	2.767608436132113	neutral	044	sub-14	2.0	4.0	044_neutral	0.0		227.17276072627055	1.241647803370597
34.0	198.79900726590313	pulse	0.0	t		22.0	male	black	2.767608436132113	neutral	044	sub-14	2.0	4.0	044_neutral	0.0		227.69787353627726	
34.0	199.49897747301384	pulse	0.0	t		22.0	male	black	2.767608436132113	neutral	044	sub-14	2.0	4.0	044_neutral	0.0		228.39784374338797	
34.0	199.51554225926702	fix	1.0		443	22.0	male	black	2.767608436132113	neutral	044	sub-14	2.0	4.0	044_neutral	0.0		228.41440852964115	3.758203081255033
34.0	200.19896216906727	pulse	1.0	t		22.0	male	black	2.767608436132113	neutral	044	sub-14	2.0	4.0	044_neutral	0.0		229.0978284394414	
34.0	200.89895018550396	pulse	1.0	t		22.0	male	black	2.767608436132113	neutral	044	sub-14	2.0	4.0	044_neutral	0.0		229.7978164558781	
34.0	201.59892099632043	pulse	1.0	t		22.0	male	black	2.767608436132113	neutral	044	sub-14	2.0	4.0	044_neutral	0.0		230.49778726669456	
34.0	202.298904786815	pulse	1.0	t		22.0	male	black	2.767608436132113	neutral	044	sub-14	2.0	4.0	044_neutral	0.0		231.19777105718913	
34.0	202.99887982357313	pulse	1.0	t		22.0	male	black	2.767608436132113	neutral	044	sub-14	2.0	4.0	044_neutral	0.0		231.89774609394726	
35.0	203.27374534052205	face	0.0		145	24.0	male	white	3.1153999204138483	neutral	012	sub-14	2.0	4.0	012_neutral	1.0	dominance	232.17261161089618	1.2333299425181394
35.0	203.69886482147967	pulse	0.0	t		24.0	male	white	3.1153999204138483	neutral	012	sub-14	2.0	4.0	012_neutral	1.0	dominance	232.5977310918538	
35.0	204.3988464990034	pulse	0.0	t		24.0	male	white	3.1153999204138483	neutral	012	sub-14	2.0	4.0	012_neutral	1.0	dominance	233.29771276937754	
35.0	204.5070752830402	fix	1.0		177	24.0	male	white	3.1153999204138483	neutral	012	sub-14	2.0	4.0	012_neutral	1.0	dominance	233.40594155341432	1.499961513744438
35.0	205.0988348172932	pulse	1.0	t		24.0	male	white	3.1153999204138483	neutral	012	sub-14	2.0	4.0	012_neutral	1.0	dominance	233.99770108766734	
35.0	205.7988007984618	pulse	1.0	t		24.0	male	white	3.1153999204138483	neutral	012	sub-14	2.0	4.0	012_neutral	1.0	dominance	234.69766706883593	
35.0	206.00703679678463	rating	2.0		296	24.0	male	white	3.1153999204138483	neutral	012	sub-14	2.0	4.0	012_neutral	1.0	dominance	234.90590306715876	2.499922574709217
35.0	206.4988014927235	pulse	2.0	t		24.0	male	white	3.1153999204138483	neutral	012	sub-14	2.0	4.0	012_neutral	1.0	dominance	235.39766776309762	
35.0	207.19877562392276	pulse	2.0	t		24.0	male	white	3.1153999204138483	neutral	012	sub-14	2.0	4.0	012_neutral	1.0	dominance	236.09764189429688	
35.0	207.89876635703604	pulse	2.0	t		24.0	male	white	3.1153999204138483	neutral	012	sub-14	2.0	4.0	012_neutral	1.0	dominance	236.79763262741017	
35.0	208.50695937149385	fix	3.0		442	24.0	male	white	3.1153999204138483	neutral	012	sub-14	2.0	4.0	012_neutral	1.0	dominance	237.40582564186798	3.7665414681105176
35.0	208.5987432049119	pulse	3.0	t		24.0	male	white	3.1153999204138483	neutral	012	sub-14	2.0	4.0	012_neutral	1.0	dominance	237.49760947528603	
35.0	209.023723531644	response	3.0	w		24.0	male	white	3.1153999204138483	neutral	012	sub-14	2.0	4.0	012_neutral	1.0	dominance	237.92258980201814	
35.0	209.29871552499344	pulse	3.0	t		24.0	male	white	3.1153999204138483	neutral	012	sub-14	2.0	4.0	012_neutral	1.0	dominance	238.19758179536757	
35.0	209.99869690066407	pulse	3.0	t		24.0	male	white	3.1153999204138483	neutral	012	sub-14	2.0	4.0	012_neutral	1.0	dominance	238.8975631710382	
35.0	210.69867495595236	pulse	3.0	t		24.0	male	white	3.1153999204138483	neutral	012	sub-14	2.0	4.0	012_neutral	1.0	dominance	239.59754122632648	
35.0	211.39868380024473	pulse	3.0	t		24.0	male	white	3.1153999204138483	neutral	012	sub-14	2.0	4.0	012_neutral	1.0	dominance	240.29755007061885	
35.0	212.09864706473627	pulse	3.0	t		24.0	male	white	3.1153999204138483	neutral	012	sub-14	2.0	4.0	012_neutral	1.0	dominance	240.9975133351104	
36.0	212.27350083960437	face	0.0		146	25.0	female	west_asian	2.6756864305610826	neutral	064	sub-14	2.0	4.0	064_neutral	0.0		241.1723671099785	1.241670140491351
36.0	212.79862844040736	pulse	0.0	t		25.0	female	west_asian	2.6756864305610826	neutral	064	sub-14	2.0	4.0	064_neutral	0.0		241.69749471078148	
36.0	213.49860438272435	pulse	0.0	t		25.0	female	west_asian	2.6756864305610826	neutral	064	sub-14	2.0	4.0	064_neutral	0.0		242.39747065309848	
36.0	213.51517098009572	fix	1.0		443	25.0	female	west_asian	2.6756864305610826	neutral	064	sub-14	2.0	4.0	064_neutral	0.0		242.41403725046985	3.7582172683451063
36.0	214.1985930028668	pulse	1.0	t		25.0	female	west_asian	2.6756864305610826	neutral	064	sub-14	2.0	4.0	064_neutral	0.0		243.09745927324093	
36.0	214.89855958774115	pulse	1.0	t		25.0	female	west_asian	2.6756864305610826	neutral	064	sub-14	2.0	4.0	064_neutral	0.0		243.79742585811528	
36.0	215.59855786717935	pulse	1.0	t		25.0	female	west_asian	2.6756864305610826	neutral	064	sub-14	2.0	4.0	064_neutral	0.0		244.49742413755348	
36.0	216.2985313946724	pulse	1.0	t		25.0	female	west_asian	2.6756864305610826	neutral	064	sub-14	2.0	4.0	064_neutral	0.0		245.19739766504654	
36.0	216.99851156293153	pulse	1.0	t		25.0	female	west_asian	2.6756864305610826	neutral	064	sub-14	2.0	4.0	064_neutral	0.0		245.89737783330565	
37.0	217.27338824844082	face	0.0		145	47.0	male	east_asian	2.171110226820533	neutral	024	sub-14	2.0	4.0	024_neutral	0.0		246.17225451881495	1.2333073035442794
37.0	217.69850652198647	pulse	0.0	t		47.0	male	east_asian	2.171110226820533	neutral	024	sub-14	2.0	4.0	024_neutral	0.0		246.5973727923606	
37.0	218.39847974762688	pulse	0.0	t		47.0	male	east_asian	2.171110226820533	neutral	024	sub-14	2.0	4.0	024_neutral	0.0		247.297346018001	
37.0	218.5066955519851	fix	1.0		444	47.0	male	east_asian	2.171110226820533	neutral	024	sub-14	2.0	4.0	024_neutral	0.0		247.40556182235923	3.7665475051699104
37.0	219.09845689735585	pulse	1.0	t		47.0	male	east_asian	2.171110226820533	neutral	024	sub-14	2.0	4.0	024_neutral	0.0		247.99732316772997	
37.0	219.7984292174374	pulse	1.0	t		47.0	male	east_asian	2.171110226820533	neutral	024	sub-14	2.0	4.0	024_neutral	0.0		248.69729548781152	
37.0	220.49842296908037	pulse	1.0	t		47.0	male	east_asian	2.171110226820533	neutral	024	sub-14	2.0	4.0	024_neutral	0.0		249.3972892394545	
37.0	221.1983983076916	pulse	1.0	t		47.0	male	east_asian	2.171110226820533	neutral	024	sub-14	2.0	4.0	024_neutral	0.0		250.09726457806573	
37.0	221.89838511671587	pulse	1.0	t		47.0	male	east_asian	2.171110226820533	neutral	024	sub-14	2.0	4.0	024_neutral	0.0		250.79725138709	
38.0	222.273243057155	face	0.0		145	21.0	male	east_asian/white	3.501790688420215	neutral	036	sub-14	2.0	4.0	036_neutral	0.0		251.17210932752914	1.2333184721046564
38.0	222.5983749442703	pulse	0.0	t		21.0	male	east_asian/white	3.501790688420215	neutral	036	sub-14	2.0	4.0	036_neutral	0.0		251.49724121464442	
38.0	223.2983514902935	pulse	0.0	t		21.0	male	east_asian/white	3.501790688420215	neutral	036	sub-14	2.0	4.0	036_neutral	0.0		252.19721776066763	
38.0	223.50656152925967	fix	1.0		444	21.0	male	east_asian/white	3.501790688420215	neutral	036	sub-14	2.0	4.0	036_neutral	0.0		252.4054277996338	3.758354611453342
38.0	223.99833286596458	pulse	1.0	t		21.0	male	east_asian/white	3.501790688420215	neutral	036	sub-14	2.0	4.0	036_neutral	0.0		252.8971991363387	
38.0	224.69830880828158	pulse	1.0	t		21.0	male	east_asian/white	3.501790688420215	neutral	036	sub-14	2.0	4.0	036_neutral	0.0		253.5971750786557	
38.0	225.3982919950704	pulse	1.0	t		21.0	male	east_asian/white	3.501790688420215	neutral	036	sub-14	2.0	4.0	036_neutral	0.0		254.29715826544452	
38.0	226.09827216332906	pulse	1.0	t		21.0	male	east_asian/white	3.501790688420215	neutral	036	sub-14	2.0	4.0	036_neutral	0.0		254.99713843370319	
38.0	226.7982541427059	pulse	1.0	t		21.0	male	east_asian/white	3.501790688420215	neutral	036	sub-14	2.0	4.0	036_neutral	0.0		255.69712041308003	
39.0	227.264916140713	face	0.0		146	20.0	male	black	3.1070433744528456	smiling	082	sub-14	2.0	4.0	082_smiling	0.0		256.16378241108714	1.241486613876532
39.0	227.49824246099524	pulse	0.0	t		20.0	male	black	3.1070433744528456	smiling	082	sub-14	2.0	4.0	082_smiling	0.0		256.39710873136937	
39.0	228.1982150829299	pulse	0.0	t		20.0	male	black	3.1070433744528456	smiling	082	sub-14	2.0	4.0	082_smiling	0.0		257.097081353304	
39.0	228.50640275458954	fix	1.0		444	20.0	male	black	3.1070433744528456	smiling	082	sub-14	2.0	4.0	082_smiling	0.0		257.4052690249637	3.7499157075540097
39.0	228.89820521233696	pulse	1.0	t		20.0	male	black	3.1070433744528456	smiling	082	sub-14	2.0	4.0	082_smiling	0.0		257.7970714827111	
39.0	229.59816153421025	pulse	1.0	t		20.0	male	black	3.1070433744528456	smiling	082	sub-14	2.0	4.0	082_smiling	0.0		258.4970278045844	
39.0	230.29816705811982	pulse	1.0	t		20.0	male	black	3.1070433744528456	smiling	082	sub-14	2.0	4.0	082_smiling	0.0		259.19703332849394	
39.0	230.99814360414302	pulse	1.0	t		20.0	male	black	3.1070433744528456	smiling	082	sub-14	2.0	4.0	082_smiling	0.0		259.89700987451715	
39.0	231.69811622607722	pulse	1.0	t		20.0	male	black	3.1070433744528456	smiling	082	sub-14	2.0	4.0	082_smiling	0.0		260.59698249645135	
40.0	232.25631846214355	fix	0.0		720													261.1551847325177	5.999852997596463
40.0	232.39809096098224	pulse	0.0	t														261.2969572313564	
40.0	233.09809105153818	pulse	0.0	t														261.9969573219123	
40.0	233.7980591456776	pulse	0.0	t														262.6969254160517	
40.0	234.49804836952626	pulse	0.0	t														263.3969146399004	
40.0	235.1980330655797	pulse	0.0	t														264.0968993359538	
40.0	235.89800840419093	pulse	0.0	t														264.79687467456506	
40.0	236.5979918928324	pulse	0.0	t														265.4968581632065	
40.0	237.29796421291394	pulse	0.0	t														266.19683048328807	
40.0	237.99796158679283	pulse	0.0	t														266.89682785716695	
