trial_nr	onset	event_type	phase	response	nr_frames	face_age	face_sex	face_eth	attractiveness	expression	face_id	sub_id	ses	run	trial_type	catch	rating_type	onset_abs	duration
-1.0	0.06027195306978683	fix	0.0		713													23.139281845154073	5.957935325192921
-1.0	0.7017689597269055	pulse	0.0	t														23.780778851811192	
-1.0	1.4017500334302895	pulse	0.0	t														24.480759925514576	
-1.0	2.101725070037901	pulse	0.0	t														25.180734962122187	
-1.0	2.801713991966608	pulse	0.0	t														25.880723884050894	
-1.0	3.5017014046206896	pulse	0.0	t														26.580711296704976	
-1.0	4.201681572760208	pulse	0.0	t														27.280691464844494	
-1.0	4.901656005657969	pulse	0.0	t														27.980665897742256	
-1.0	5.601667264842035	pulse	0.0	t														28.680677156926322	
0.0	6.018207278262707	face	0.0		144	30.0	female	black	2.7345801830481498	smiling	062	sub-05	2.0	6.0	062_smiling	0.0		29.097217170346994	1.2333108250268197
0.0	6.301654677497027	pulse	0.0	t		30.0	female	black	2.7345801830481498	smiling	062	sub-05	2.0	6.0	062_smiling	0.0		29.380664569581313	
0.0	7.001620356605599	pulse	0.0	t		30.0	female	black	2.7345801830481498	smiling	062	sub-05	2.0	6.0	062_smiling	0.0		30.080630248689886	
0.0	7.251518103289527	fix	1.0		444	30.0	female	black	2.7345801830481498	smiling	062	sub-05	2.0	6.0	062_smiling	0.0		30.330527995373814	3.758247805289102
0.0	7.701611693371888	pulse	1.0	t		30.0	female	black	2.7345801830481498	smiling	062	sub-05	2.0	6.0	062_smiling	0.0		30.780621585456174	
0.0	8.401591257801556	pulse	1.0	t		30.0	female	black	2.7345801830481498	smiling	062	sub-05	2.0	6.0	062_smiling	0.0		31.480601149885842	
0.0	9.101593159487493	pulse	1.0	t		30.0	female	black	2.7345801830481498	smiling	062	sub-05	2.0	6.0	062_smiling	0.0		32.18060305157178	
0.0	9.80156910165897	pulse	1.0	t		30.0	female	black	2.7345801830481498	smiling	062	sub-05	2.0	6.0	062_smiling	0.0		32.880578993743256	
0.0	10.501548062378788	pulse	1.0	t		30.0	female	black	2.7345801830481498	smiling	062	sub-05	2.0	6.0	062_smiling	0.0		33.580557954463075	
1.0	11.009765908578629	face	0.0		146	21.0	male	east_asian/white	3.501790688420215	smiling	036	sub-05	2.0	6.0	036_smiling	0.0		34.088775800662916	1.2416465455280559
1.0	11.201549964063815	pulse	0.0	t		21.0	male	east_asian/white	3.501790688420215	smiling	036	sub-05	2.0	6.0	036_smiling	0.0		34.2805598561481	
1.0	11.901531943331975	pulse	0.0	t		21.0	male	east_asian/white	3.501790688420215	smiling	036	sub-05	2.0	6.0	036_smiling	0.0		34.98054183541626	
1.0	12.251412454106685	fix	1.0		444	21.0	male	east_asian/white	3.501790688420215	smiling	036	sub-05	2.0	6.0	036_smiling	0.0		35.33042234619097	3.7582333162581563
1.0	12.60151905413204	pulse	1.0	t		21.0	male	east_asian/white	3.501790688420215	smiling	036	sub-05	2.0	6.0	036_smiling	0.0		35.68052894621633	
1.0	13.301494090739652	pulse	1.0	t		21.0	male	east_asian/white	3.501790688420215	smiling	036	sub-05	2.0	6.0	036_smiling	0.0		36.38050398282394	
1.0	14.00148663492564	pulse	1.0	t		21.0	male	east_asian/white	3.501790688420215	smiling	036	sub-05	2.0	6.0	036_smiling	0.0		37.08049652700993	
1.0	14.701460765968477	pulse	1.0	t		21.0	male	east_asian/white	3.501790688420215	smiling	036	sub-05	2.0	6.0	036_smiling	0.0		37.780470658052764	
1.0	15.401462667654414	pulse	1.0	t		21.0	male	east_asian/white	3.501790688420215	smiling	036	sub-05	2.0	6.0	036_smiling	0.0		38.4804725597387	
2.0	16.00964577036484	face	0.0		146	22.0	female	white	4.614007162753682	neutral	009	sub-05	2.0	6.0	009_neutral	0.0		39.08865566244913	1.2416537900444382
2.0	16.10144977845357	pulse	0.0	t		22.0	female	white	4.614007162753682	neutral	009	sub-05	2.0	6.0	009_neutral	0.0		39.18045967053786	
2.0	16.801420287239125	pulse	0.0	t		22.0	female	white	4.614007162753682	neutral	009	sub-05	2.0	6.0	009_neutral	0.0		39.88043017932341	
2.0	17.25129956040928	fix	1.0		444	22.0	female	white	4.614007162753682	neutral	009	sub-05	2.0	6.0	009_neutral	0.0		40.330309452493566	3.7582641054486885
2.0	17.50141796295702	pulse	1.0	t		22.0	female	white	4.614007162753682	neutral	009	sub-05	2.0	6.0	009_neutral	0.0		40.58042785504131	
2.0	18.20140114964397	pulse	1.0	t		22.0	female	white	4.614007162753682	neutral	009	sub-05	2.0	6.0	009_neutral	0.0		41.28041104172826	
2.0	18.90137497883279	pulse	1.0	t		22.0	female	white	4.614007162753682	neutral	009	sub-05	2.0	6.0	009_neutral	0.0		41.98038487091708	
2.0	19.601360278503307	pulse	1.0	t		22.0	female	white	4.614007162753682	neutral	009	sub-05	2.0	6.0	009_neutral	0.0		42.680370170587594	
2.0	20.30134829486724	pulse	1.0	t		22.0	female	white	4.614007162753682	neutral	009	sub-05	2.0	6.0	009_neutral	0.0		43.380358186951526	
3.0	21.009563665857968	face	0.0		147	24.0	female	east_asian	4.409868682849185	neutral	030	sub-05	2.0	6.0	030_neutral	0.0		44.088573557942254	1.2416329620618853
3.0	21.002200823400017	pulse	0.0	t		24.0	female	east_asian	4.409868682849185	neutral	030	sub-05	2.0	6.0	030_neutral	0.0		44.0812107154843	
3.0	21.701295651389046	pulse	0.0	t		24.0	female	east_asian	4.409868682849185	neutral	030	sub-05	2.0	6.0	030_neutral	0.0		44.78030554347333	
3.0	22.251196627919853	fix	1.0		443	24.0	female	east_asian	4.409868682849185	neutral	030	sub-05	2.0	6.0	030_neutral	0.0		45.33020652000414	3.758233014403231
3.0	22.401322003313908	pulse	1.0	t		24.0	female	east_asian	4.409868682849185	neutral	030	sub-05	2.0	6.0	030_neutral	0.0		45.480331895398194	
3.0	23.10128768242248	pulse	1.0	t		24.0	female	east_asian	4.409868682849185	neutral	030	sub-05	2.0	6.0	030_neutral	0.0		46.18029757450677	
3.0	23.801271170964355	pulse	1.0	t		24.0	female	east_asian	4.409868682849185	neutral	030	sub-05	2.0	6.0	030_neutral	0.0		46.88028106304864	
3.0	24.501257376199646	pulse	1.0	t		24.0	female	east_asian	4.409868682849185	neutral	030	sub-05	2.0	6.0	030_neutral	0.0		47.58026726828393	
3.0	25.20124841111192	pulse	1.0	t		24.0	female	east_asian	4.409868682849185	neutral	030	sub-05	2.0	6.0	030_neutral	0.0		48.280258303196206	
3.0	25.901221334735965	pulse	1.0	t		24.0	female	east_asian	4.409868682849185	neutral	030	sub-05	2.0	6.0	030_neutral	0.0		48.98023122682025	
4.0	26.009429642323084	face	0.0		147	22.0	female	white	4.614007162753682	smiling	009	sub-05	2.0	6.0	009_smiling	1.0	trustworthiness	49.08843953440737	1.2416574123017199
4.0	26.601211765938388	pulse	0.0	t		22.0	female	white	4.614007162753682	smiling	009	sub-05	2.0	6.0	009_smiling	1.0	trustworthiness	49.680221658022674	
4.0	27.251087054624804	fix	1.0		176	22.0	female	white	4.614007162753682	smiling	009	sub-05	2.0	6.0	009_smiling	1.0	trustworthiness	50.33009694670909	1.5083349658643783
4.0	27.301300903663105	pulse	1.0	t		22.0	female	white	4.614007162753682	smiling	009	sub-05	2.0	6.0	009_smiling	1.0	trustworthiness	50.38031079574739	
4.0	28.00118296898927	pulse	1.0	t		22.0	female	white	4.614007162753682	smiling	009	sub-05	2.0	6.0	009_smiling	1.0	trustworthiness	51.080192861073556	
4.0	28.7011734001926	pulse	1.0	t		22.0	female	white	4.614007162753682	smiling	009	sub-05	2.0	6.0	009_smiling	1.0	trustworthiness	51.78018329227689	
4.0	28.759422020489183	rating	2.0		294	22.0	female	white	4.614007162753682	smiling	009	sub-05	2.0	6.0	009_smiling	1.0	trustworthiness	51.83843191257347	2.491570855435384
4.0	29.401158398008192	pulse	2.0	t		22.0	female	white	4.614007162753682	smiling	009	sub-05	2.0	6.0	009_smiling	1.0	trustworthiness	52.48016829009248	
4.0	30.10113675501907	pulse	2.0	t		22.0	female	white	4.614007162753682	smiling	009	sub-05	2.0	6.0	009_smiling	1.0	trustworthiness	53.180146647103356	
4.0	30.170876987826887	response	2.0	y		22.0	female	white	4.614007162753682	smiling	009	sub-05	2.0	6.0	009_smiling	1.0	trustworthiness	53.24988687991117	
4.0	30.80111631944783	pulse	2.0	t		22.0	female	white	4.614007162753682	smiling	009	sub-05	2.0	6.0	009_smiling	1.0	trustworthiness	53.880126211532115	
4.0	31.250992875924567	fix	3.0		444	22.0	female	white	4.614007162753682	smiling	009	sub-05	2.0	6.0	009_smiling	1.0	trustworthiness	54.33000276800885	3.7665883554682296
4.0	31.501113391456784	pulse	3.0	t		22.0	female	white	4.614007162753682	smiling	009	sub-05	2.0	6.0	009_smiling	1.0	trustworthiness	54.58012328354107	
4.0	32.20109687999866	pulse	3.0	t		22.0	female	white	4.614007162753682	smiling	009	sub-05	2.0	6.0	009_smiling	1.0	trustworthiness	55.280106772082945	
4.0	32.90107010547763	pulse	3.0	t		22.0	female	white	4.614007162753682	smiling	009	sub-05	2.0	6.0	009_smiling	1.0	trustworthiness	55.980079997561916	
4.0	33.60106295151854	pulse	3.0	t		22.0	female	white	4.614007162753682	smiling	009	sub-05	2.0	6.0	009_smiling	1.0	trustworthiness	56.68007284360283	
4.0	34.30105368457589	pulse	3.0	t		22.0	female	white	4.614007162753682	smiling	009	sub-05	2.0	6.0	009_smiling	1.0	trustworthiness	57.38006357666018	
5.0	35.017581231392796	face	0.0		146	47.0	male	east_asian	2.171110226820533	neutral	024	sub-05	2.0	6.0	024_neutral	0.0		58.09659112347708	1.233320786234799
5.0	35.00402312087044	pulse	0.0	t		47.0	male	east_asian	2.171110226820533	neutral	024	sub-05	2.0	6.0	024_neutral	0.0		58.08303301295473	
5.0	35.70102609504647	pulse	0.0	t		47.0	male	east_asian	2.171110226820533	neutral	024	sub-05	2.0	6.0	024_neutral	0.0		58.78003598713076	
5.0	36.250902017627595	fix	1.0		443	47.0	male	east_asian	2.171110226820533	neutral	024	sub-05	2.0	6.0	024_neutral	0.0		59.32991190971188	3.7583893751943833
5.0	36.401014715120255	pulse	1.0	t		47.0	male	east_asian	2.171110226820533	neutral	024	sub-05	2.0	6.0	024_neutral	0.0		59.48002460720454	
5.0	37.100986733179525	pulse	1.0	t		47.0	male	east_asian	2.171110226820533	neutral	024	sub-05	2.0	6.0	024_neutral	0.0		60.17999662526381	
5.0	37.80098501260727	pulse	1.0	t		47.0	male	east_asian	2.171110226820533	neutral	024	sub-05	2.0	6.0	024_neutral	0.0		60.87999490469156	
5.0	38.500966690020505	pulse	1.0	t		47.0	male	east_asian	2.171110226820533	neutral	024	sub-05	2.0	6.0	024_neutral	0.0		61.57997658210479	
5.0	39.20094716001404	pulse	1.0	t		47.0	male	east_asian	2.171110226820533	neutral	024	sub-05	2.0	6.0	024_neutral	0.0		62.279957052098325	
5.0	39.900937289362446	pulse	1.0	t		47.0	male	east_asian	2.171110226820533	neutral	024	sub-05	2.0	6.0	024_neutral	0.0		62.97994718144673	
6.0	40.00929139282198	face	0.0		147	19.0	male	white	3.2522881018702745	neutral	018	sub-05	2.0	6.0	018_neutral	1.0	trustworthiness	63.088301284906265	1.2415007496556427
6.0	40.60092681500009	pulse	0.0	t		19.0	male	white	3.2522881018702745	neutral	018	sub-05	2.0	6.0	018_neutral	1.0	trustworthiness	63.67993670708438	
6.0	41.25079214247762	fix	1.0		176	19.0	male	white	3.2522881018702745	neutral	018	sub-05	2.0	6.0	018_neutral	1.0	trustworthiness	64.32980203456191	1.4999953212509354
6.0	41.30090728499454	pulse	1.0	t		19.0	male	white	3.2522881018702745	neutral	018	sub-05	2.0	6.0	018_neutral	1.0	trustworthiness	64.37991717707882	
6.0	42.00088986797164	pulse	1.0	t		19.0	male	white	3.2522881018702745	neutral	018	sub-05	2.0	6.0	018_neutral	1.0	trustworthiness	65.07989976005592	
6.0	42.70099772069443	pulse	1.0	t		19.0	male	white	3.2522881018702745	neutral	018	sub-05	2.0	6.0	018_neutral	1.0	trustworthiness	65.78000761277872	
6.0	42.75078746372856	rating	2.0		295	19.0	male	white	3.2522881018702745	neutral	018	sub-05	2.0	6.0	018_neutral	1.0	trustworthiness	65.82979735581284	2.499927102064248
6.0	43.400863787716844	pulse	2.0	t		19.0	male	white	3.2522881018702745	neutral	018	sub-05	2.0	6.0	018_neutral	1.0	trustworthiness	66.47987367980113	
6.0	44.09251034833778	response	2.0	g		19.0	male	white	3.2522881018702745	neutral	018	sub-05	2.0	6.0	018_neutral	1.0	trustworthiness	67.17152024042207	
6.0	44.10375232692331	pulse	2.0	t		19.0	male	white	3.2522881018702745	neutral	018	sub-05	2.0	6.0	018_neutral	1.0	trustworthiness	67.1827622190076	
6.0	44.80082865181703	pulse	2.0	t		19.0	male	white	3.2522881018702745	neutral	018	sub-05	2.0	6.0	018_neutral	1.0	trustworthiness	67.87983854390131	
6.0	45.250714565792805	fix	3.0		444	19.0	male	white	3.2522881018702745	neutral	018	sub-05	2.0	6.0	018_neutral	1.0	trustworthiness	68.32972445787709	3.75821761980842
6.0	45.50082602568	pulse	3.0	t		19.0	male	white	3.2522881018702745	neutral	018	sub-05	2.0	6.0	018_neutral	1.0	trustworthiness	68.57983591776429	
6.0	46.200800760432685	pulse	3.0	t		19.0	male	white	3.2522881018702745	neutral	018	sub-05	2.0	6.0	018_neutral	1.0	trustworthiness	69.27981065251697	
6.0	46.90078183413607	pulse	3.0	t		19.0	male	white	3.2522881018702745	neutral	018	sub-05	2.0	6.0	018_neutral	1.0	trustworthiness	69.97979172622036	
6.0	47.600794300739835	pulse	3.0	t		19.0	male	white	3.2522881018702745	neutral	018	sub-05	2.0	6.0	018_neutral	1.0	trustworthiness	70.67980419282412	
6.0	48.30082125637455	pulse	3.0	t		19.0	male	white	3.2522881018702745	neutral	018	sub-05	2.0	6.0	018_neutral	1.0	trustworthiness	71.37983114845883	
7.0	49.008932185601225	face	0.0		147	24.0	female	black	3.0955033824114606	neutral	099	sub-05	2.0	6.0	099_neutral	0.0		72.08794207768551	1.2416703920580403
7.0	49.00145101605813	pulse	0.0	t		24.0	female	black	3.0955033824114606	neutral	099	sub-05	2.0	6.0	099_neutral	0.0		72.08046090814241	
7.0	49.700735107012406	pulse	0.0	t		24.0	female	black	3.0955033824114606	neutral	099	sub-05	2.0	6.0	099_neutral	0.0		72.77974499909669	
7.0	50.250602577659265	fix	1.0		443	24.0	female	black	3.0955033824114606	neutral	099	sub-05	2.0	6.0	099_neutral	0.0		73.32961246974355	3.758235731096647
7.0	50.40071135103881	pulse	1.0	t		24.0	female	black	3.0955033824114606	neutral	099	sub-05	2.0	6.0	099_neutral	0.0		73.4797212431231	
7.0	51.100690311758626	pulse	1.0	t		24.0	female	black	3.0955033824114606	neutral	099	sub-05	2.0	6.0	099_neutral	0.0		74.17970020384291	
7.0	51.800685270783106	pulse	1.0	t		24.0	female	black	3.0955033824114606	neutral	099	sub-05	2.0	6.0	099_neutral	0.0		74.87969516286739	
7.0	52.50067540013151	pulse	1.0	t		24.0	female	black	3.0955033824114606	neutral	099	sub-05	2.0	6.0	099_neutral	0.0		75.5796852922158	
7.0	53.2006564738349	pulse	1.0	t		24.0	female	black	3.0955033824114606	neutral	099	sub-05	2.0	6.0	099_neutral	0.0		76.27966636591918	
7.0	53.90063181229743	pulse	1.0	t		24.0	female	black	3.0955033824114606	neutral	099	sub-05	2.0	6.0	099_neutral	0.0		76.97964170438172	
8.0	54.00883830875591	face	0.0		147	20.0	female	white	3.9502586549940313	smiling	091	sub-05	2.0	6.0	091_smiling	0.0		77.0878482008402	1.2416628456876424
8.0	54.60062556390221	pulse	0.0	t		20.0	female	white	3.9502586549940313	smiling	091	sub-05	2.0	6.0	091_smiling	0.0		77.6796354559865	
8.0	55.250501154443555	fix	1.0		443	20.0	female	white	3.9502586549940313	smiling	091	sub-05	2.0	6.0	091_smiling	0.0		78.32951104652784	3.766578997969191
8.0	55.300599393091034	pulse	1.0	t		20.0	female	white	3.9502586549940313	smiling	091	sub-05	2.0	6.0	091_smiling	0.0		78.37960928517532	
8.0	56.00059103171225	pulse	1.0	t		20.0	female	white	3.9502586549940313	smiling	091	sub-05	2.0	6.0	091_smiling	0.0		79.07960092379653	
8.0	56.70057693509352	pulse	1.0	t		20.0	female	white	3.9502586549940313	smiling	091	sub-05	2.0	6.0	091_smiling	0.0		79.77958682717781	
8.0	57.40056223476404	pulse	1.0	t		20.0	female	white	3.9502586549940313	smiling	091	sub-05	2.0	6.0	091_smiling	0.0		80.47957212684832	
8.0	58.10055477895003	pulse	1.0	t		20.0	female	white	3.9502586549940313	smiling	091	sub-05	2.0	6.0	091_smiling	0.0		81.17956467103431	
8.0	58.8005382674919	pulse	1.0	t		20.0	female	white	3.9502586549940313	smiling	091	sub-05	2.0	6.0	091_smiling	0.0		81.87954815957619	
9.0	59.017080152412746	face	0.0		145	40.0	female	west_asian	1.5777954635893354	neutral	038	sub-05	2.0	6.0	038_neutral	0.0		82.09609004449703	1.2333108250268197
9.0	59.50106479283295	pulse	0.0	t		40.0	female	west_asian	1.5777954635893354	neutral	038	sub-05	2.0	6.0	038_neutral	0.0		82.58007468491724	
9.0	60.200505546431486	pulse	0.0	t		40.0	female	west_asian	1.5777954635893354	neutral	038	sub-05	2.0	6.0	038_neutral	0.0		83.27951543851577	
9.0	60.250390977439565	fix	1.0		445	40.0	female	west_asian	1.5777954635893354	neutral	038	sub-05	2.0	6.0	038_neutral	0.0		83.32940086952385	3.7665744701462245
9.0	60.90049024239215	pulse	1.0	t		40.0	female	west_asian	1.5777954635893354	neutral	038	sub-05	2.0	6.0	038_neutral	0.0		83.97950013447644	
9.0	61.6004758439185	pulse	1.0	t		40.0	female	west_asian	1.5777954635893354	neutral	038	sub-05	2.0	6.0	038_neutral	0.0		84.67948573600279	
9.0	62.30046295471766	pulse	1.0	t		40.0	female	west_asian	1.5777954635893354	neutral	038	sub-05	2.0	6.0	038_neutral	0.0		85.37947284680195	
9.0	63.000447650679234	pulse	1.0	t		40.0	female	west_asian	1.5777954635893354	neutral	038	sub-05	2.0	6.0	038_neutral	0.0		86.07945754276352	
9.0	63.700420876158205	pulse	1.0	t		40.0	female	west_asian	1.5777954635893354	neutral	038	sub-05	2.0	6.0	038_neutral	0.0		86.77943076824249	
10.0	64.01696544758579	face	0.0		145	19.0	female	white	4.298846000795861	neutral	100	sub-05	2.0	6.0	100_neutral	0.0		87.09597533967008	1.233326219621631
10.0	64.40042519268172	pulse	0.0	t		19.0	female	white	4.298846000795861	neutral	100	sub-05	2.0	6.0	100_neutral	0.0		87.47943508476601	
10.0	65.10039298477386	pulse	0.0	t		19.0	female	white	4.298846000795861	neutral	100	sub-05	2.0	6.0	100_neutral	0.0		88.17940287685815	
10.0	65.25029166720742	fix	1.0		444	19.0	female	white	4.298846000795861	neutral	100	sub-05	2.0	6.0	100_neutral	0.0		88.32930155929171	3.7582248643238927
10.0	65.8003861326697	pulse	1.0	t		19.0	female	white	4.298846000795861	neutral	100	sub-05	2.0	6.0	100_neutral	0.0		88.87939602475399	
10.0	66.50036660266323	pulse	1.0	t		19.0	female	white	4.298846000795861	neutral	100	sub-05	2.0	6.0	100_neutral	0.0		89.57937649474752	
10.0	67.20036729692947	pulse	1.0	t		19.0	female	white	4.298846000795861	neutral	100	sub-05	2.0	6.0	100_neutral	0.0		90.27937718901376	
10.0	67.90033690015025	pulse	1.0	t		19.0	female	white	4.298846000795861	neutral	100	sub-05	2.0	6.0	100_neutral	0.0		90.97934679223454	
10.0	68.60033457586815	pulse	1.0	t		19.0	female	white	4.298846000795861	neutral	100	sub-05	2.0	6.0	100_neutral	0.0		91.67934446795243	
11.0	69.00851653153131	face	0.0		146	37.0	male	white	3.898925586947871	smiling	101	sub-05	2.0	6.0	101_smiling	0.0		92.0875264236156	1.2416622419787018
11.0	69.30032259223299	pulse	0.0	t		37.0	male	white	3.898925586947871	smiling	101	sub-05	2.0	6.0	101_smiling	0.0		92.37933248431727	
11.0	70.00030366593637	pulse	0.0	t		37.0	male	white	3.898925586947871	smiling	101	sub-05	2.0	6.0	101_smiling	0.0		93.07931355802066	
11.0	70.25017877351002	fix	1.0		444	37.0	male	white	3.898925586947871	smiling	101	sub-05	2.0	6.0	101_smiling	0.0		93.3291886655943	3.7665693386143175
11.0	70.70029258786508	pulse	1.0	t		37.0	male	white	3.898925586947871	smiling	101	sub-05	2.0	6.0	101_smiling	0.0		93.77930247994937	
11.0	71.40026520963329	pulse	1.0	t		37.0	male	white	3.898925586947871	smiling	101	sub-05	2.0	6.0	101_smiling	0.0		94.47927510171758	
11.0	72.10026228164224	pulse	1.0	t		37.0	male	white	3.898925586947871	smiling	101	sub-05	2.0	6.0	101_smiling	0.0		95.17927217372653	
11.0	72.80022584776725	pulse	1.0	t		37.0	male	white	3.898925586947871	smiling	101	sub-05	2.0	6.0	101_smiling	0.0		95.87923573985154	
11.0	73.5002217123556	pulse	1.0	t		37.0	male	white	3.898925586947871	smiling	101	sub-05	2.0	6.0	101_smiling	0.0		96.57923160443988	
12.0	74.01674811212433	face	0.0		145	27.0	female	white	4.181058495821727	smiling	039	sub-05	2.0	6.0	039_smiling	1.0	attractiveness	97.09575800420862	1.2333334641371039
12.0	74.20022180291198	pulse	0.0	t		27.0	female	white	4.181058495821727	smiling	039	sub-05	2.0	6.0	039_smiling	1.0	attractiveness	97.27923169499627	
12.0	74.90111055402122	pulse	0.0	t		27.0	female	white	4.181058495821727	smiling	039	sub-05	2.0	6.0	039_smiling	1.0	attractiveness	97.9801204461055	
12.0	75.25008157626144	fix	1.0		177	27.0	female	white	4.181058495821727	smiling	039	sub-05	2.0	6.0	039_smiling	1.0	attractiveness	98.32909146834572	1.499958796818646
12.0	75.60018213919102	pulse	1.0	t		27.0	female	white	4.181058495821727	smiling	039	sub-05	2.0	6.0	039_smiling	1.0	attractiveness	98.6791920312753	
12.0	76.30017015555495	pulse	1.0	t		27.0	female	white	4.181058495821727	smiling	039	sub-05	2.0	6.0	039_smiling	1.0	attractiveness	99.37918004763924	
12.0	76.75004037308008	rating	2.0		294	27.0	female	white	4.181058495821727	smiling	039	sub-05	2.0	6.0	039_smiling	1.0	attractiveness	99.82905026516437	2.4999560801261396
12.0	77.00015485151653	pulse	2.0	t		27.0	female	white	4.181058495821727	smiling	039	sub-05	2.0	6.0	039_smiling	1.0	attractiveness	100.07916474360081	
12.0	77.7001383400584	pulse	2.0	t		27.0	female	white	4.181058495821727	smiling	039	sub-05	2.0	6.0	039_smiling	1.0	attractiveness	100.77914823214269	
12.0	77.84496374874743	response	2.0	y		27.0	female	white	4.181058495821727	smiling	039	sub-05	2.0	6.0	039_smiling	1.0	attractiveness	100.92397364083172	
12.0	78.40011850819701	pulse	2.0	t		27.0	female	white	4.181058495821727	smiling	039	sub-05	2.0	6.0	039_smiling	1.0	attractiveness	101.4791284002813	
12.0	79.10010682641678	pulse	2.0	t		27.0	female	white	4.181058495821727	smiling	039	sub-05	2.0	6.0	039_smiling	1.0	attractiveness	102.17911671850106	
12.0	79.24999645320622	fix	3.0		444	27.0	female	white	4.181058495821727	smiling	039	sub-05	2.0	6.0	039_smiling	1.0	attractiveness	102.32900634529051	3.766569338615227
12.0	79.80009031495865	pulse	3.0	t		27.0	female	white	4.181058495821727	smiling	039	sub-05	2.0	6.0	039_smiling	1.0	attractiveness	102.87910020704294	
12.0	80.50008316099957	pulse	3.0	t		27.0	female	white	4.181058495821727	smiling	039	sub-05	2.0	6.0	039_smiling	1.0	attractiveness	103.57909305308385	
12.0	81.20006815881516	pulse	3.0	t		27.0	female	white	4.181058495821727	smiling	039	sub-05	2.0	6.0	039_smiling	1.0	attractiveness	104.27907805089944	
12.0	81.9000486288096	pulse	3.0	t		27.0	female	white	4.181058495821727	smiling	039	sub-05	2.0	6.0	039_smiling	1.0	attractiveness	104.97905852089389	
12.0	82.6000272876745	pulse	3.0	t		27.0	female	white	4.181058495821727	smiling	039	sub-05	2.0	6.0	039_smiling	1.0	attractiveness	105.67903717975878	
13.0	83.01656579182145	face	0.0		145	40.0	male	white	1.868682849184242	neutral	172	sub-05	2.0	6.0	172_neutral	0.0		106.09557568390574	1.2333144472841013
13.0	83.30001651145813	pulse	0.0	t		40.0	male	white	1.868682849184242	neutral	172	sub-05	2.0	6.0	172_neutral	0.0		106.37902640354241	
13.0	83.99999577403287	pulse	0.0	t		40.0	male	white	1.868682849184242	neutral	172	sub-05	2.0	6.0	172_neutral	0.0		107.07900566611715	
13.0	84.24988023910555	fix	1.0		444	40.0	male	white	1.868682849184242	neutral	172	sub-05	2.0	6.0	172_neutral	0.0		107.32889013118984	3.7665702441790927
13.0	84.69999224233106	pulse	1.0	t		40.0	male	white	1.868682849184242	neutral	172	sub-05	2.0	6.0	172_neutral	0.0		107.77900213441535	
13.0	85.39998508837289	pulse	1.0	t		40.0	male	white	1.868682849184242	neutral	172	sub-05	2.0	6.0	172_neutral	0.0		108.47899498045717	
13.0	86.09996495465657	pulse	1.0	t		40.0	male	white	1.868682849184242	neutral	172	sub-05	2.0	6.0	172_neutral	0.0		109.17897484674086	
13.0	86.79992821892665	pulse	1.0	t		40.0	male	white	1.868682849184242	neutral	172	sub-05	2.0	6.0	172_neutral	0.0		109.87893811101094	
13.0	87.49993495028866	pulse	1.0	t		40.0	male	white	1.868682849184242	neutral	172	sub-05	2.0	6.0	172_neutral	0.0		110.57894484237295	
14.0	88.01645048328464	face	0.0		145	32.0	male	white	2.389176283326701	smiling	092	sub-05	2.0	6.0	092_smiling	0.0		111.09546037536893	1.2333147491390264
14.0	88.19992719262063	pulse	0.0	t		32.0	male	white	2.389176283326701	smiling	092	sub-05	2.0	6.0	092_smiling	0.0		111.27893708470492	
14.0	88.89988230681047	pulse	0.0	t		32.0	male	white	2.389176283326701	smiling	092	sub-05	2.0	6.0	092_smiling	0.0		111.97889219889475	
14.0	89.24976523242367	fix	1.0		444	32.0	male	white	2.389176283326701	smiling	092	sub-05	2.0	6.0	092_smiling	0.0		112.32877512450796	3.7665832239363226
14.0	89.59988058623821	pulse	1.0	t		32.0	male	white	2.389176283326701	smiling	092	sub-05	2.0	6.0	092_smiling	0.0		112.6788904783225	
14.0	90.29986528219979	pulse	1.0	t		32.0	male	white	2.389176283326701	smiling	092	sub-05	2.0	6.0	092_smiling	0.0		113.37887517428408	
14.0	90.99984484662946	pulse	1.0	t		32.0	male	white	2.389176283326701	smiling	092	sub-05	2.0	6.0	092_smiling	0.0		114.07885473871374	
14.0	91.6998494650079	pulse	1.0	t		32.0	male	white	2.389176283326701	smiling	092	sub-05	2.0	6.0	092_smiling	0.0		114.77885935709219	
14.0	92.39983084056621	pulse	1.0	t		32.0	male	white	2.389176283326701	smiling	092	sub-05	2.0	6.0	092_smiling	0.0		115.4788407326505	
15.0	93.01634845635999	face	0.0		145	24.0	female	east_asian	2.9076800636689217	smiling	034	sub-05	2.0	6.0	034_smiling	0.0		116.09535834844428	1.2333201825258584
15.0	93.09985689063615	pulse	0.0	t		24.0	female	east_asian	2.9076800636689217	smiling	034	sub-05	2.0	6.0	034_smiling	0.0		116.17886678272043	
15.0	93.79979389353775	pulse	0.0	t		24.0	female	east_asian	2.9076800636689217	smiling	034	sub-05	2.0	6.0	034_smiling	0.0		116.87880378562204	
15.0	94.24966863888585	fix	1.0		444	24.0	female	east_asian	2.9076800636689217	smiling	034	sub-05	2.0	6.0	034_smiling	0.0		117.32867853097014	3.7582529368200994
15.0	94.49978372103033	pulse	1.0	t		24.0	female	east_asian	2.9076800636689217	smiling	034	sub-05	2.0	6.0	034_smiling	0.0		117.57879361311461	
15.0	95.19976479473462	pulse	1.0	t		24.0	female	east_asian	2.9076800636689217	smiling	034	sub-05	2.0	6.0	034_smiling	0.0		118.2787746868189	
15.0	95.89974405730936	pulse	1.0	t		24.0	female	east_asian	2.9076800636689217	smiling	034	sub-05	2.0	6.0	034_smiling	0.0		118.97875394939365	
15.0	96.59973569593058	pulse	1.0	t		24.0	female	east_asian	2.9076800636689217	smiling	034	sub-05	2.0	6.0	034_smiling	0.0		119.67874558801486	
15.0	97.29972310858557	pulse	1.0	t		24.0	female	east_asian	2.9076800636689217	smiling	034	sub-05	2.0	6.0	034_smiling	0.0		120.37873300066985	
16.0	98.00792157570595	face	0.0		147	32.0	male	white	2.389176283326701	neutral	092	sub-05	2.0	6.0	092_neutral	0.0		121.08693146779024	1.2416462436740403
16.0	98.00180720473054	pulse	0.0	t		32.0	male	white	2.389176283326701	neutral	092	sub-05	2.0	6.0	092_neutral	0.0		121.08081709681483	
16.0	98.69970155615192	pulse	0.0	t		32.0	male	white	2.389176283326701	neutral	092	sub-05	2.0	6.0	092_neutral	0.0		121.77871144823621	
16.0	99.24956781937999	fix	1.0		443	32.0	male	white	2.389176283326701	neutral	092	sub-05	2.0	6.0	092_neutral	0.0		122.32857771146428	3.7583238727002026
16.0	99.39967689461446	pulse	1.0	t		32.0	male	white	2.389176283326701	neutral	092	sub-05	2.0	6.0	092_neutral	0.0		122.47868678669874	
16.0	100.09966732581688	pulse	1.0	t		32.0	male	white	2.389176283326701	neutral	092	sub-05	2.0	6.0	092_neutral	0.0		123.17867721790117	
16.0	100.79965654960051	pulse	1.0	t		32.0	male	white	2.389176283326701	neutral	092	sub-05	2.0	6.0	092_neutral	0.0		123.8786664416848	
16.0	101.49963400104662	pulse	1.0	t		32.0	male	white	2.389176283326701	neutral	092	sub-05	2.0	6.0	092_neutral	0.0		124.5786438931309	
16.0	102.19961628216879	pulse	1.0	t		32.0	male	white	2.389176283326701	neutral	092	sub-05	2.0	6.0	092_neutral	0.0		125.27862617425308	
16.0	102.89960550595242	pulse	1.0	t		32.0	male	white	2.389176283326701	neutral	092	sub-05	2.0	6.0	092_neutral	0.0		125.97861539803671	
17.0	103.0078916920802	face	0.0		147	37.0	male	white	3.898925586947871	neutral	101	sub-05	2.0	6.0	101_neutral	1.0	dominance	126.08690158416448	1.2415689688432394
17.0	103.59960016312198	pulse	0.0	t		37.0	male	white	3.898925586947871	neutral	101	sub-05	2.0	6.0	101_neutral	1.0	dominance	126.67861005520626	
17.0	104.24946066092343	fix	1.0		176	37.0	male	white	3.898925586947871	neutral	101	sub-05	2.0	6.0	101_neutral	1.0	dominance	127.32847055300772	1.4999726821397417
17.0	104.29958938690561	pulse	1.0	t		37.0	male	white	3.898925586947871	neutral	101	sub-05	2.0	6.0	101_neutral	1.0	dominance	127.3785992789899	
17.0	104.99956049940101	pulse	1.0	t		37.0	male	white	3.898925586947871	neutral	101	sub-05	2.0	6.0	101_neutral	1.0	dominance	128.0785703914853	
17.0	105.6995454972166	pulse	1.0	t		37.0	male	white	3.898925586947871	neutral	101	sub-05	2.0	6.0	101_neutral	1.0	dominance	128.7785553893009	
17.0	105.74943334306317	rating	2.0		295	37.0	male	white	3.898925586947871	neutral	101	sub-05	2.0	6.0	101_neutral	1.0	dominance	128.82844323514746	2.499939176256703
17.0	106.39951419487352	pulse	2.0	t		37.0	male	white	3.898925586947871	neutral	101	sub-05	2.0	6.0	101_neutral	1.0	dominance	129.4785240869578	
17.0	107.05784866267732	response	2.0	g		37.0	male	white	3.898925586947871	neutral	101	sub-05	2.0	6.0	101_neutral	1.0	dominance	130.1368585547616	
17.0	107.09949828712524	pulse	2.0	t		37.0	male	white	3.898925586947871	neutral	101	sub-05	2.0	6.0	101_neutral	1.0	dominance	130.17850817920953	
17.0	107.799491736876	pulse	2.0	t		37.0	male	white	3.898925586947871	neutral	101	sub-05	2.0	6.0	101_neutral	1.0	dominance	130.8785016289603	
17.0	108.24937251931988	fix	3.0		444	37.0	male	white	3.898925586947871	neutral	101	sub-05	2.0	6.0	101_neutral	1.0	dominance	131.32838241140416	3.7582610869003474
17.0	108.49949605339953	pulse	3.0	t		37.0	male	white	3.898925586947871	neutral	101	sub-05	2.0	6.0	101_neutral	1.0	dominance	131.5785059454838	
17.0	109.19947501411934	pulse	3.0	t		37.0	male	white	3.898925586947871	neutral	101	sub-05	2.0	6.0	101_neutral	1.0	dominance	132.27848490620363	
17.0	109.89946303048328	pulse	3.0	t		37.0	male	white	3.898925586947871	neutral	101	sub-05	2.0	6.0	101_neutral	1.0	dominance	132.97847292256756	
17.0	110.59944018007445	pulse	3.0	t		37.0	male	white	3.898925586947871	neutral	101	sub-05	2.0	6.0	101_neutral	1.0	dominance	133.67845007215874	
17.0	111.29943061127688	pulse	3.0	t		37.0	male	white	3.898925586947871	neutral	101	sub-05	2.0	6.0	101_neutral	1.0	dominance	134.37844050336116	
18.0	112.00763360622022	face	0.0		147	23.0	male	white	2.6275368085953046	neutral	141	sub-05	2.0	6.0	141_neutral	0.0		135.0866434983045	1.2416459418191153
18.0	112.00178215078176	pulse	0.0	t		23.0	male	white	2.6275368085953046	neutral	141	sub-05	2.0	6.0	141_neutral	0.0		135.08079204286605	
18.0	112.69940785142444	pulse	0.0	t		23.0	male	white	2.6275368085953046	neutral	141	sub-05	2.0	6.0	141_neutral	0.0		135.77841774350873	
18.0	113.24927954803934	fix	1.0		443	23.0	male	white	2.6275368085953046	neutral	141	sub-05	2.0	6.0	141_neutral	0.0		136.32828944012363	3.7665802053879816
18.0	113.39938741585411	pulse	1.0	t		23.0	male	white	2.6275368085953046	neutral	141	sub-05	2.0	6.0	141_neutral	0.0		136.4783973079384	
18.0	114.09936818770348	pulse	1.0	t		23.0	male	white	2.6275368085953046	neutral	141	sub-05	2.0	6.0	141_neutral	0.0		137.17837807978776	
18.0	114.79934654471344	pulse	1.0	t		23.0	male	white	2.6275368085953046	neutral	141	sub-05	2.0	6.0	141_neutral	0.0		137.87835643679773	
18.0	115.4993348629323	pulse	1.0	t		23.0	male	white	2.6275368085953046	neutral	141	sub-05	2.0	6.0	141_neutral	0.0		138.5783447550166	
18.0	116.19932408671593	pulse	1.0	t		23.0	male	white	2.6275368085953046	neutral	141	sub-05	2.0	6.0	141_neutral	0.0		139.27833397880022	
18.0	116.89930123630711	pulse	1.0	t		23.0	male	white	2.6275368085953046	neutral	141	sub-05	2.0	6.0	141_neutral	0.0		139.9783111283914	
19.0	117.01585975342732	face	0.0		146	19.0	male	white	3.2522881018702745	smiling	018	sub-05	2.0	6.0	018_smiling	0.0		140.0948696455116	1.2333062972038533
19.0	117.59929619533159	pulse	0.0	t		19.0	male	white	3.2522881018702745	smiling	018	sub-05	2.0	6.0	018_smiling	0.0		140.67830608741588	
19.0	118.24916605063117	fix	1.0		444	19.0	male	white	3.2522881018702745	smiling	018	sub-05	2.0	6.0	018_smiling	0.0		141.32817594271546	3.7749213592769593
19.0	118.2992902487922	pulse	1.0	t		19.0	male	white	3.2522881018702745	smiling	018	sub-05	2.0	6.0	018_smiling	0.0		141.3783001408765	
19.0	118.99925622975479	pulse	1.0	t		19.0	male	white	3.2522881018702745	smiling	018	sub-05	2.0	6.0	018_smiling	0.0		142.07826612183908	
19.0	119.6992566221661	pulse	1.0	t		19.0	male	white	3.2522881018702745	smiling	018	sub-05	2.0	6.0	018_smiling	0.0		142.7782665142504	
19.0	120.39922954579015	pulse	1.0	t		19.0	male	white	3.2522881018702745	smiling	018	sub-05	2.0	6.0	018_smiling	0.0		143.47823943787444	
19.0	121.0992242029597	pulse	1.0	t		19.0	male	white	3.2522881018702745	smiling	018	sub-05	2.0	6.0	018_smiling	0.0		144.178234095044	
19.0	121.7992116156147	pulse	1.0	t		19.0	male	white	3.2522881018702745	smiling	018	sub-05	2.0	6.0	018_smiling	0.0		144.87822150769898	
20.0	122.02408740990813	face	0.0		145	27.0	male	black	3.5523278949462798	smiling	042	sub-05	2.0	6.0	042_smiling	0.0		145.10309730199242	1.233312938009476
20.0	122.4992068764941	pulse	0.0	t		27.0	male	black	3.5523278949462798	smiling	042	sub-05	2.0	6.0	042_smiling	0.0		145.5782167685784	
20.0	123.19919881697115	pulse	0.0	t		27.0	male	black	3.5523278949462798	smiling	042	sub-05	2.0	6.0	042_smiling	0.0		146.27820870905543	
20.0	123.25740034791761	fix	1.0		1185	27.0	male	black	3.5523278949462798	smiling	042	sub-05	2.0	6.0	042_smiling	0.0		146.3364102400019	10.016429655303
20.0	123.89917536285247	pulse	1.0	t		27.0	male	black	3.5523278949462798	smiling	042	sub-05	2.0	6.0	042_smiling	0.0		146.97818525493676	
20.0	124.59917183115067	pulse	1.0	t		27.0	male	black	3.5523278949462798	smiling	042	sub-05	2.0	6.0	042_smiling	0.0		147.67818172323496	
20.0	125.29912694534141	pulse	1.0	t		27.0	male	black	3.5523278949462798	smiling	042	sub-05	2.0	6.0	042_smiling	0.0		148.3781368374257	
20.0	125.99910771718987	pulse	1.0	t		27.0	male	black	3.5523278949462798	smiling	042	sub-05	2.0	6.0	042_smiling	0.0		149.07811760927416	
20.0	126.69914433217764	pulse	1.0	t		27.0	male	black	3.5523278949462798	smiling	042	sub-05	2.0	6.0	042_smiling	0.0		149.77815422426193	
20.0	127.39908495733744	pulse	1.0	t		27.0	male	black	3.5523278949462798	smiling	042	sub-05	2.0	6.0	042_smiling	0.0		150.47809484942172	
20.0	128.09906663475067	pulse	1.0	t		27.0	male	black	3.5523278949462798	smiling	042	sub-05	2.0	6.0	042_smiling	0.0		151.17807652683496	
20.0	128.79905283998596	pulse	1.0	t		27.0	male	black	3.5523278949462798	smiling	042	sub-05	2.0	6.0	042_smiling	0.0		151.87806273207025	
20.0	129.49902727288372	pulse	1.0	t		27.0	male	black	3.5523278949462798	smiling	042	sub-05	2.0	6.0	042_smiling	0.0		152.578037164968	
20.0	130.19903008013353	pulse	1.0	t		27.0	male	black	3.5523278949462798	smiling	042	sub-05	2.0	6.0	042_smiling	0.0		153.2780399722178	
20.0	130.89900179633787	pulse	1.0	t		27.0	male	black	3.5523278949462798	smiling	042	sub-05	2.0	6.0	042_smiling	0.0		153.97801168842216	
20.0	131.59899343496	pulse	1.0	t		27.0	male	black	3.5523278949462798	smiling	042	sub-05	2.0	6.0	042_smiling	0.0		154.67800332704428	
20.0	132.29901344793325	pulse	1.0	t		27.0	male	black	3.5523278949462798	smiling	042	sub-05	2.0	6.0	042_smiling	0.0		155.37802334001753	
20.0	132.99896222317238	pulse	1.0	t		27.0	male	black	3.5523278949462798	smiling	042	sub-05	2.0	6.0	042_smiling	0.0		156.07797211525667	
21.0	133.2738300032206	face	0.0		145	21.0	male	black	2.969757262236371	neutral	137	sub-05	2.0	6.0	137_neutral	0.0		156.3528398953049	1.2333271251864062
21.0	133.6989550692142	pulse	0.0	t		21.0	male	black	2.969757262236371	neutral	137	sub-05	2.0	6.0	137_neutral	0.0		156.7779649612985	
21.0	134.39893644477252	pulse	0.0	t		21.0	male	black	2.969757262236371	neutral	137	sub-05	2.0	6.0	137_neutral	0.0		157.4779463368568	
21.0	134.50715712840702	fix	1.0		444	21.0	male	black	2.969757262236371	neutral	137	sub-05	2.0	6.0	137_neutral	0.0		157.5861670204913	3.7665874499034544
21.0	135.09892295186273	pulse	1.0	t		21.0	male	black	2.969757262236371	neutral	137	sub-05	2.0	6.0	137_neutral	0.0		158.17793284394702	
21.0	135.79890402556612	pulse	1.0	t		21.0	male	black	2.969757262236371	neutral	137	sub-05	2.0	6.0	137_neutral	0.0		158.8779139176504	
21.0	136.49890079571924	pulse	1.0	t		21.0	male	black	2.969757262236371	neutral	137	sub-05	2.0	6.0	137_neutral	0.0		159.57791068780352	
21.0	137.19888005829398	pulse	1.0	t		21.0	male	black	2.969757262236371	neutral	137	sub-05	2.0	6.0	137_neutral	0.0		160.27788995037827	
21.0	137.89885539675652	pulse	1.0	t		21.0	male	black	2.969757262236371	neutral	137	sub-05	2.0	6.0	137_neutral	0.0		160.9778652888408	
22.0	138.27374457831047	face	0.0		145	31.0	female	white	2.1822522881018704	smiling	102	sub-05	2.0	6.0	102_smiling	0.0		161.35275447039476	1.2333138435742512
22.0	138.59886454295702	pulse	0.0	t		31.0	female	white	2.1822522881018704	smiling	102	sub-05	2.0	6.0	102_smiling	0.0		161.6778744350413	
22.0	139.29883233504916	pulse	0.0	t		31.0	female	white	2.1822522881018704	smiling	102	sub-05	2.0	6.0	102_smiling	0.0		162.37784222713344	
22.0	139.50705842188472	fix	1.0		444	31.0	female	white	2.1822522881018704	smiling	102	sub-05	2.0	6.0	102_smiling	0.0		162.586068313969	3.7665608866809634
22.0	139.99882608665484	pulse	1.0	t		31.0	female	white	2.1822522881018704	smiling	102	sub-05	2.0	6.0	102_smiling	0.0		163.07783597873913	
22.0	140.69879327503713	pulse	1.0	t		31.0	female	white	2.1822522881018704	smiling	102	sub-05	2.0	6.0	102_smiling	0.0		163.77780316712142	
22.0	141.39880393051226	pulse	1.0	t		31.0	female	white	2.1822522881018704	smiling	102	sub-05	2.0	6.0	102_smiling	0.0		164.47781382259654	
22.0	142.0987795708288	pulse	1.0	t		31.0	female	white	2.1822522881018704	smiling	102	sub-05	2.0	6.0	102_smiling	0.0		165.1777894629131	
22.0	142.79876788904767	pulse	1.0	t		31.0	female	white	2.1822522881018704	smiling	102	sub-05	2.0	6.0	102_smiling	0.0		165.87777778113195	
23.0	143.27361930856569	face	0.0		145	25.0	female	west_asian	2.6756864305610826	neutral	064	sub-05	2.0	6.0	064_neutral	0.0		166.35262920064997	1.233333765992029
23.0	143.49875741468622	pulse	0.0	t		25.0	female	west_asian	2.6756864305610826	neutral	064	sub-05	2.0	6.0	064_neutral	0.0		166.5777673067705	
23.0	144.19873396056755	pulse	0.0	t		25.0	female	west_asian	2.6756864305610826	neutral	064	sub-05	2.0	6.0	064_neutral	0.0		167.27774385265184	
23.0	144.5069530745577	fix	1.0		444	25.0	female	west_asian	2.6756864305610826	neutral	064	sub-05	2.0	6.0	064_neutral	0.0		167.585962966642	3.758247805289102
23.0	144.89871111015873	pulse	1.0	t		25.0	female	west_asian	2.6756864305610826	neutral	064	sub-05	2.0	6.0	064_neutral	0.0		167.97772100224302	
23.0	145.59869731539402	pulse	1.0	t		25.0	female	west_asian	2.6756864305610826	neutral	064	sub-05	2.0	6.0	064_neutral	0.0		168.6777072074783	
23.0	146.29869378369312	pulse	1.0	t		25.0	female	west_asian	2.6756864305610826	neutral	064	sub-05	2.0	6.0	064_neutral	0.0		169.3777036757774	
23.0	146.99867002771953	pulse	1.0	t		25.0	female	west_asian	2.6756864305610826	neutral	064	sub-05	2.0	6.0	064_neutral	0.0		170.0776799198038	
23.0	147.69866377932522	pulse	1.0	t		25.0	female	west_asian	2.6756864305610826	neutral	064	sub-05	2.0	6.0	064_neutral	0.0		170.7776736714095	
24.0	148.26520087984682	face	0.0		146	19.0	female	white	4.298846000795861	smiling	100	sub-05	2.0	6.0	100_smiling	0.0		171.3442107719311	1.2416350750454512
24.0	148.39864515488352	pulse	0.0	t		19.0	female	white	4.298846000795861	smiling	100	sub-05	2.0	6.0	100_smiling	0.0		171.4776550469678	
24.0	149.0986235118935	pulse	0.0	t		19.0	female	white	4.298846000795861	smiling	100	sub-05	2.0	6.0	100_smiling	0.0		172.17763340397778	
24.0	149.50683595489227	fix	1.0		444	19.0	female	white	4.298846000795861	smiling	100	sub-05	2.0	6.0	100_smiling	0.0		172.58584584697655	3.7665922795804363
24.0	149.79861575422547	pulse	1.0	t		19.0	female	white	4.298846000795861	smiling	100	sub-05	2.0	6.0	100_smiling	0.0		172.87762564630975	
24.0	150.4985910926871	pulse	1.0	t		19.0	female	white	4.298846000795861	smiling	100	sub-05	2.0	6.0	100_smiling	0.0		173.57760098477138	
24.0	151.19857910905102	pulse	1.0	t		19.0	female	white	4.298846000795861	smiling	100	sub-05	2.0	6.0	100_smiling	0.0		174.2775890011353	
24.0	151.89856440872245	pulse	1.0	t		19.0	female	white	4.298846000795861	smiling	100	sub-05	2.0	6.0	100_smiling	0.0		174.97757430080674	
24.0	152.5985512176676	pulse	1.0	t		19.0	female	white	4.298846000795861	smiling	100	sub-05	2.0	6.0	100_smiling	0.0		175.67756110975188	
25.0	153.2734282344727	face	0.0		145	25.0	female	west_asian	2.6756864305610826	smiling	064	sub-05	2.0	6.0	064_smiling	0.0		176.352438126557	1.2333020712367215
25.0	153.29855764717468	pulse	0.0	t		25.0	female	west_asian	2.6756864305610826	smiling	064	sub-05	2.0	6.0	064_smiling	0.0		176.37756753925896	
25.0	153.99851789289642	pulse	0.0	t		25.0	female	west_asian	2.6756864305610826	smiling	064	sub-05	2.0	6.0	064_smiling	0.0		177.0775277849807	
25.0	154.50673030570943	fix	1.0		443	25.0	female	west_asian	2.6756864305610826	smiling	064	sub-05	2.0	6.0	064_smiling	0.0		177.5857401977937	3.766574772002059
25.0	154.69851949272743	pulse	1.0	t		25.0	female	west_asian	2.6756864305610826	smiling	064	sub-05	2.0	6.0	064_smiling	0.0		177.77752938481171	
25.0	155.39849332191534	pulse	1.0	t		25.0	female	west_asian	2.6756864305610826	smiling	064	sub-05	2.0	6.0	064_smiling	0.0		178.47750321399963	
25.0	156.09848646981118	pulse	1.0	t		25.0	female	west_asian	2.6756864305610826	smiling	064	sub-05	2.0	6.0	064_smiling	0.0		179.17749636189546	
25.0	156.79846965649813	pulse	1.0	t		25.0	female	west_asian	2.6756864305610826	smiling	064	sub-05	2.0	6.0	064_smiling	0.0		179.87747954858241	
25.0	157.4984416745574	pulse	1.0	t		25.0	female	west_asian	2.6756864305610826	smiling	064	sub-05	2.0	6.0	064_smiling	0.0		180.57745156664168	
25.0	158.19843391688937	pulse	1.0	t		25.0	female	west_asian	2.6756864305610826	smiling	064	sub-05	2.0	6.0	064_smiling	0.0		181.27744380897366	
26.0	158.27330507771148	face	0.0		146	22.0	male	black	2.767608436132113	smiling	044	sub-05	2.0	6.0	044_smiling	0.0		181.35231496979577	1.233320786234799
26.0	158.89842404623687	pulse	0.0	t		22.0	male	black	2.767608436132113	smiling	044	sub-05	2.0	6.0	044_smiling	0.0		181.97743393832116	
26.0	159.50662586394628	fix	1.0		443	22.0	male	black	2.767608436132113	smiling	044	sub-05	2.0	6.0	044_smiling	0.0		182.58563575603057	3.766591374015661
26.0	159.59842021268105	pulse	1.0	t		22.0	male	black	2.767608436132113	smiling	044	sub-05	2.0	6.0	044_smiling	0.0		182.67743010476534	
26.0	160.29839223074032	pulse	1.0	t		22.0	male	black	2.767608436132113	smiling	044	sub-05	2.0	6.0	044_smiling	0.0		183.3774021228246	
26.0	160.9983733044437	pulse	1.0	t		22.0	male	black	2.767608436132113	smiling	044	sub-05	2.0	6.0	044_smiling	0.0		184.077383196528	
26.0	161.69836132080763	pulse	1.0	t		22.0	male	black	2.767608436132113	smiling	044	sub-05	2.0	6.0	044_smiling	0.0		184.77737121289192	
26.0	162.3983460167692	pulse	1.0	t		22.0	male	black	2.767608436132113	smiling	044	sub-05	2.0	6.0	044_smiling	0.0		185.4773559088535	
26.0	163.09832890160214	pulse	1.0	t		22.0	male	black	2.767608436132113	smiling	044	sub-05	2.0	6.0	044_smiling	0.0		186.17733879368643	
27.0	163.27321723796194	face	0.0		146	24.0	female	black	3.0955033824114606	smiling	099	sub-05	2.0	6.0	099_smiling	0.0		186.35222713004623	1.2416389991585675
27.0	163.7983326144158	pulse	0.0	t		24.0	female	black	3.0955033824114606	smiling	099	sub-05	2.0	6.0	099_smiling	0.0		186.8773425065001	
27.0	164.4983085565873	pulse	0.0	t		24.0	female	black	3.0955033824114606	smiling	099	sub-05	2.0	6.0	099_smiling	0.0		187.57731844867158	
27.0	164.5148562371205	fix	1.0		443	24.0	female	black	3.0955033824114606	smiling	099	sub-05	2.0	6.0	099_smiling	0.0		187.5938661292048	3.758235429241722
27.0	165.1982986859357	pulse	1.0	t		24.0	female	black	3.0955033824114606	smiling	099	sub-05	2.0	6.0	099_smiling	0.0		188.27730857801998	
27.0	165.8982646668992	pulse	1.0	t		24.0	female	black	3.0955033824114606	smiling	099	sub-05	2.0	6.0	099_smiling	0.0		188.97727455898348	
27.0	166.5982674741481	pulse	1.0	t		24.0	female	black	3.0955033824114606	smiling	099	sub-05	2.0	6.0	099_smiling	0.0		189.67727736623237	
27.0	167.2982461330139	pulse	1.0	t		24.0	female	black	3.0955033824114606	smiling	099	sub-05	2.0	6.0	099_smiling	0.0		190.37725602509818	
27.0	167.99822962155577	pulse	1.0	t		24.0	female	black	3.0955033824114606	smiling	099	sub-05	2.0	6.0	099_smiling	0.0		191.07723951364005	
28.0	168.27309166636223	face	0.0		145	26.0	female	white	4.854755272582572	neutral	027	sub-05	2.0	6.0	027_neutral	0.0		191.35210155844652	1.2333225973643493
28.0	168.6982152230812	pulse	0.0	t		26.0	female	white	4.854755272582572	neutral	027	sub-05	2.0	6.0	027_neutral	0.0		191.7772251151655	
28.0	169.39819539122072	pulse	0.0	t		26.0	female	white	4.854755272582572	neutral	027	sub-05	2.0	6.0	027_neutral	0.0		192.477205283305	
28.0	169.50641426372658	fix	1.0		444	26.0	female	white	4.854755272582572	neutral	027	sub-05	2.0	6.0	027_neutral	0.0		192.58542415581087	3.766592883289377
28.0	170.09818370943958	pulse	1.0	t		26.0	female	white	4.854755272582572	neutral	027	sub-05	2.0	6.0	027_neutral	0.0		193.17719360152387	
28.0	170.79815904790212	pulse	1.0	t		26.0	female	white	4.854755272582572	neutral	027	sub-05	2.0	6.0	027_neutral	0.0		193.8771689399864	
28.0	171.4981552143454	pulse	1.0	t		26.0	female	white	4.854755272582572	neutral	027	sub-05	2.0	6.0	027_neutral	0.0		194.57716510642967	
28.0	172.19816919022287	pulse	1.0	t		26.0	female	white	4.854755272582572	neutral	027	sub-05	2.0	6.0	027_neutral	0.0		195.27717908230716	
28.0	172.89811615433337	pulse	1.0	t		26.0	female	white	4.854755272582572	neutral	027	sub-05	2.0	6.0	027_neutral	0.0		195.97712604641765	
29.0	173.27300714701596	face	0.0		145	21.0	male	east_asian/white	3.501790688420215	neutral	036	sub-05	2.0	6.0	036_neutral	0.0		196.35201703910025	1.2333032786564218
29.0	173.59811594303483	pulse	0.0	t		21.0	male	east_asian/white	3.501790688420215	neutral	036	sub-05	2.0	6.0	036_neutral	0.0		196.6771258351191	
29.0	174.29809128149736	pulse	0.0	t		21.0	male	east_asian/white	3.501790688420215	neutral	036	sub-05	2.0	6.0	036_neutral	0.0		197.37710117358165	
29.0	174.50631042567238	fix	1.0		444	21.0	male	east_asian/white	3.501790688420215	neutral	036	sub-05	2.0	6.0	036_neutral	0.0		197.58532031775667	3.7665895628870203
29.0	174.99808412753828	pulse	1.0	t		21.0	male	east_asian/white	3.501790688420215	neutral	036	sub-05	2.0	6.0	036_neutral	0.0		198.07709401962256	
29.0	175.69806218269423	pulse	1.0	t		21.0	male	east_asian/white	3.501790688420215	neutral	036	sub-05	2.0	6.0	036_neutral	0.0		198.77707207477852	
29.0	176.39805110462294	pulse	1.0	t		21.0	male	east_asian/white	3.501790688420215	neutral	036	sub-05	2.0	6.0	036_neutral	0.0		199.47706099670722	
29.0	177.09805300630796	pulse	1.0	t		21.0	male	east_asian/white	3.501790688420215	neutral	036	sub-05	2.0	6.0	036_neutral	0.0		200.17706289839225	
29.0	177.7980220058189	pulse	1.0	t		21.0	male	east_asian/white	3.501790688420215	neutral	036	sub-05	2.0	6.0	036_neutral	0.0		200.87703189790318	
30.0	178.2728999885594	face	0.0		145	40.0	male	black	2.408674890569041	smiling	061	sub-05	2.0	6.0	061_smiling	0.0		201.3519098806437	1.233293921157383
30.0	178.49801032403775	pulse	0.0	t		40.0	male	black	2.408674890569041	smiling	061	sub-05	2.0	6.0	061_smiling	0.0		201.57702021612204	
30.0	179.19799139774204	pulse	0.0	t		40.0	male	black	2.408674890569041	smiling	061	sub-05	2.0	6.0	061_smiling	0.0		202.27700128982633	
30.0	179.50619390971679	fix	1.0		444	40.0	male	black	2.408674890569041	smiling	061	sub-05	2.0	6.0	061_smiling	0.0		202.58520380180107	3.758297913187562
30.0	179.89798696047637	pulse	1.0	t		40.0	male	black	2.408674890569041	smiling	061	sub-05	2.0	6.0	061_smiling	0.0		202.97699685256066	
30.0	180.59796682676006	pulse	1.0	t		40.0	male	black	2.408674890569041	smiling	061	sub-05	2.0	6.0	061_smiling	0.0		203.67697671884434	
30.0	181.29794669304465	pulse	1.0	t		40.0	male	black	2.408674890569041	smiling	061	sub-05	2.0	6.0	061_smiling	0.0		204.37695658512894	
30.0	181.99793953908556	pulse	1.0	t		40.0	male	black	2.408674890569041	smiling	061	sub-05	2.0	6.0	061_smiling	0.0		205.07694943116985	
30.0	182.69792604617578	pulse	1.0	t		40.0	male	black	2.408674890569041	smiling	061	sub-05	2.0	6.0	061_smiling	0.0		205.77693593826007	
31.0	183.26449182290435	face	0.0		146	27.0	female	white	4.181058495821727	neutral	039	sub-05	2.0	6.0	039_neutral	0.0		206.34350171498863	1.241617567467074
31.0	183.39789957350968	pulse	0.0	t		27.0	female	white	4.181058495821727	neutral	039	sub-05	2.0	6.0	039_neutral	0.0		206.47690946559396	
31.0	184.09787008229432	pulse	0.0	t		27.0	female	white	4.181058495821727	neutral	039	sub-05	2.0	6.0	039_neutral	0.0		207.1768799743786	
31.0	184.50610939037142	fix	1.0		444	27.0	female	white	4.181058495821727	neutral	039	sub-05	2.0	6.0	039_neutral	0.0		207.5851192824557	3.7665799035330565
31.0	184.7978852655915	pulse	1.0	t		27.0	female	white	4.181058495821727	neutral	039	sub-05	2.0	6.0	039_neutral	0.0		207.8768951576758	
31.0	185.49786241518268	pulse	1.0	t		27.0	female	white	4.181058495821727	neutral	039	sub-05	2.0	6.0	039_neutral	0.0		208.57687230726697	
31.0	186.1978489222729	pulse	1.0	t		27.0	female	white	4.181058495821727	neutral	039	sub-05	2.0	6.0	039_neutral	0.0		209.27685881435718	
31.0	186.89782727928286	pulse	1.0	t		27.0	female	white	4.181058495821727	neutral	039	sub-05	2.0	6.0	039_neutral	0.0		209.97683717136715	
31.0	187.59781378637308	pulse	1.0	t		27.0	female	white	4.181058495821727	neutral	039	sub-05	2.0	6.0	039_neutral	0.0		210.67682367845737	
32.0	188.27268929390448	face	0.0		145	28.0	female	white	5.676880222841227	neutral	124	sub-05	2.0	6.0	124_neutral	0.0		211.35169918598876	1.2333150509939514
32.0	188.29781870660645	pulse	0.0	t		28.0	female	white	5.676880222841227	neutral	124	sub-05	2.0	6.0	124_neutral	0.0		211.37682859869074	
32.0	188.99778197087653	pulse	0.0	t		28.0	female	white	5.676880222841227	neutral	124	sub-05	2.0	6.0	124_neutral	0.0		212.07679186296082	
32.0	189.50600434489843	fix	1.0		443	28.0	female	white	5.676880222841227	neutral	124	sub-05	2.0	6.0	124_neutral	0.0		212.58501423698272	3.7665774886945655
32.0	189.69777330764373	pulse	1.0	t		28.0	female	white	5.676880222841227	neutral	124	sub-05	2.0	6.0	124_neutral	0.0		212.77678319972802	
32.0	190.39775226836355	pulse	1.0	t		28.0	female	white	5.676880222841227	neutral	124	sub-05	2.0	6.0	124_neutral	0.0		213.47676216044783	
32.0	191.09772247529418	pulse	1.0	t		28.0	female	white	5.676880222841227	neutral	124	sub-05	2.0	6.0	124_neutral	0.0		214.17673236737846	
32.0	191.79772528254398	pulse	1.0	t		28.0	female	white	5.676880222841227	neutral	124	sub-05	2.0	6.0	124_neutral	0.0		214.87673517462827	
32.0	192.49770907294078	pulse	1.0	t		28.0	female	white	5.676880222841227	neutral	124	sub-05	2.0	6.0	124_neutral	0.0		215.57671896502507	
32.0	193.1976982967235	pulse	1.0	t		28.0	female	white	5.676880222841227	neutral	124	sub-05	2.0	6.0	124_neutral	0.0		216.2767081888078	
33.0	193.272581833593	face	0.0		146	28.0	male	white	3.9076800636689217	neutral	033	sub-05	2.0	6.0	033_neutral	1.0	dominance	216.35159172567728	1.2333213899446491
33.0	193.8976805778466	pulse	0.0	t		28.0	male	white	3.9076800636689217	neutral	033	sub-05	2.0	6.0	033_neutral	1.0	dominance	216.97669046993087	
33.0	194.50590322353764	fix	1.0		177	28.0	male	white	3.9076800636689217	neutral	033	sub-05	2.0	6.0	033_neutral	1.0	dominance	217.58491311562193	1.5082999507076238
33.0	194.59768187582267	pulse	1.0	t		28.0	male	white	3.9076800636689217	neutral	033	sub-05	2.0	6.0	033_neutral	1.0	dominance	217.67669176790696	
33.0	195.29765661057536	pulse	1.0	t		28.0	male	white	3.9076800636689217	neutral	033	sub-05	2.0	6.0	033_neutral	1.0	dominance	218.37666650265965	
33.0	195.9976370805689	pulse	1.0	t		28.0	male	white	3.9076800636689217	neutral	033	sub-05	2.0	6.0	033_neutral	1.0	dominance	219.07664697265318	
33.0	196.01420317424527	rating	2.0		294	28.0	male	white	3.9076800636689217	neutral	033	sub-05	2.0	6.0	033_neutral	1.0	dominance	219.09321306632955	2.491603455754557
33.0	196.69762630435253	pulse	2.0	t		28.0	male	white	3.9076800636689217	neutral	033	sub-05	2.0	6.0	033_neutral	1.0	dominance	219.7766361964368	
33.0	197.1476223953323	response	2.0	g		28.0	male	white	3.9076800636689217	neutral	033	sub-05	2.0	6.0	033_neutral	1.0	dominance	220.22663228741658	
33.0	197.39758745563904	pulse	2.0	t		28.0	male	white	3.9076800636689217	neutral	033	sub-05	2.0	6.0	033_neutral	1.0	dominance	220.47659734772333	
33.0	198.09759931853296	pulse	2.0	t		28.0	male	white	3.9076800636689217	neutral	033	sub-05	2.0	6.0	033_neutral	1.0	dominance	221.17660921061724	
33.0	198.50580662999982	fix	3.0		444	28.0	male	white	3.9076800636689217	neutral	033	sub-05	2.0	6.0	033_neutral	1.0	dominance	221.5848165220841	3.7665868461936043
33.0	198.7975797885265	pulse	3.0	t		28.0	male	white	3.9076800636689217	neutral	033	sub-05	2.0	6.0	033_neutral	1.0	dominance	221.87658968061078	
33.0	199.4975536177144	pulse	3.0	t		28.0	male	white	3.9076800636689217	neutral	033	sub-05	2.0	6.0	033_neutral	1.0	dominance	222.5765635097987	
33.0	200.1975549156905	pulse	3.0	t		28.0	male	white	3.9076800636689217	neutral	033	sub-05	2.0	6.0	033_neutral	1.0	dominance	223.27656480777478	
33.0	200.8975378005225	pulse	3.0	t		28.0	male	white	3.9076800636689217	neutral	033	sub-05	2.0	6.0	033_neutral	1.0	dominance	223.9765476926068	
33.0	201.59752611874228	pulse	3.0	t		28.0	male	white	3.9076800636689217	neutral	033	sub-05	2.0	6.0	033_neutral	1.0	dominance	224.67653601082657	
34.0	202.27239347619343	face	0.0		145	28.0	male	east_asian	1.5563072025467568	neutral	005	sub-05	2.0	6.0	005_neutral	0.0		225.35140336827772	1.2333065990587784
34.0	202.29752319075033	pulse	0.0	t		28.0	male	east_asian	1.5563072025467568	neutral	005	sub-05	2.0	6.0	005_neutral	0.0		225.3765330828346	
34.0	202.99749460509975	pulse	0.0	t		28.0	male	east_asian	1.5563072025467568	neutral	005	sub-05	2.0	6.0	005_neutral	0.0		226.07650449718403	
34.0	203.5057000752522	fix	1.0		443	28.0	male	east_asian	1.5563072025467568	neutral	005	sub-05	2.0	6.0	005_neutral	0.0		226.5847099673365	3.7665895628870203
34.0	203.6974777917876	pulse	1.0	t		28.0	male	east_asian	1.5563072025467568	neutral	005	sub-05	2.0	6.0	005_neutral	0.0		226.7764876838719	
34.0	204.39745614879757	pulse	1.0	t		28.0	male	east_asian	1.5563072025467568	neutral	005	sub-05	2.0	6.0	005_neutral	0.0		227.47646604088186	
34.0	205.09744476887136	pulse	1.0	t		28.0	male	east_asian	1.5563072025467568	neutral	005	sub-05	2.0	6.0	005_neutral	0.0		228.17645466095564	
34.0	205.79742704999444	pulse	1.0	t		28.0	male	east_asian	1.5563072025467568	neutral	005	sub-05	2.0	6.0	005_neutral	0.0		228.87643694207873	
34.0	206.49742261272877	pulse	1.0	t		28.0	male	east_asian	1.5563072025467568	neutral	005	sub-05	2.0	6.0	005_neutral	0.0		229.57643250481306	
34.0	207.1974205903016	pulse	1.0	t		28.0	male	east_asian	1.5563072025467568	neutral	005	sub-05	2.0	6.0	005_neutral	0.0		230.27643048238588	
35.0	207.27228963813923	face	0.0		146	20.0	male	black	3.1070433744528456	smiling	082	sub-05	2.0	6.0	082_smiling	0.0		230.3512995302235	1.2333053916399876
35.0	207.89736695070224	pulse	0.0	t		20.0	male	black	3.1070433744528456	smiling	082	sub-05	2.0	6.0	082_smiling	0.0		230.97637684278652	
35.0	208.50559502977922	fix	1.0		443	20.0	male	black	3.1070433744528456	smiling	082	sub-05	2.0	6.0	082_smiling	0.0		231.5846049218635	3.7665877517583795
35.0	208.59737760617645	pulse	1.0	t		20.0	male	black	3.1070433744528456	smiling	082	sub-05	2.0	6.0	082_smiling	0.0		231.67638749826074	
35.0	209.2973517372202	pulse	1.0	t		20.0	male	black	3.1070433744528456	smiling	082	sub-05	2.0	6.0	082_smiling	0.0		232.37636162930448	
35.0	209.99734126285784	pulse	1.0	t		20.0	male	black	3.1070433744528456	smiling	082	sub-05	2.0	6.0	082_smiling	0.0		233.07635115494213	
35.0	210.69732867551284	pulse	1.0	t		20.0	male	black	3.1070433744528456	smiling	082	sub-05	2.0	6.0	082_smiling	0.0		233.77633856759712	
35.0	211.39787874552803	pulse	1.0	t		20.0	male	black	3.1070433744528456	smiling	082	sub-05	2.0	6.0	082_smiling	0.0		234.47688863761232	
35.0	212.09729867114493	pulse	1.0	t		20.0	male	black	3.1070433744528456	smiling	082	sub-05	2.0	6.0	082_smiling	0.0		235.1763085632292	
36.0	212.2721827815376	face	0.0		146	30.0	female	black	2.7345801830481498	neutral	062	sub-05	2.0	6.0	062_neutral	0.0		235.35119267362188	1.2416386973036424
36.0	212.79729906355624	pulse	0.0	t		30.0	female	black	2.7345801830481498	neutral	062	sub-05	2.0	6.0	062_neutral	0.0		235.87630895564052	
36.0	213.49727410016294	pulse	0.0	t		30.0	female	black	2.7345801830481498	neutral	062	sub-05	2.0	6.0	062_neutral	0.0		236.57628399224723	
36.0	213.51382147884124	fix	1.0		443	30.0	female	black	2.7345801830481498	neutral	062	sub-05	2.0	6.0	062_neutral	0.0		236.59283137092552	3.758237542225288
36.0	214.19726151281793	pulse	1.0	t		30.0	female	black	2.7345801830481498	neutral	062	sub-05	2.0	6.0	062_neutral	0.0		237.27627140490222	
36.0	214.89723715313448	pulse	1.0	t		30.0	female	black	2.7345801830481498	neutral	062	sub-05	2.0	6.0	062_neutral	0.0		237.97624704521877	
36.0	215.59722758433782	pulse	1.0	t		30.0	female	black	2.7345801830481498	neutral	062	sub-05	2.0	6.0	062_neutral	0.0		238.6762374764221	
36.0	216.29722103408858	pulse	1.0	t		30.0	female	black	2.7345801830481498	neutral	062	sub-05	2.0	6.0	062_neutral	0.0		239.37623092617287	
36.0	216.99719093916428	pulse	1.0	t		30.0	female	black	2.7345801830481498	neutral	062	sub-05	2.0	6.0	062_neutral	0.0		240.07620083124857	
37.0	217.27205902106653	face	0.0		145	20.0	male	black	2.609629924393156	smiling	043	sub-05	2.0	6.0	043_smiling	0.0		240.3510689131508	1.233334671556804
37.0	217.69718167222163	pulse	0.0	t		20.0	male	black	2.609629924393156	smiling	043	sub-05	2.0	6.0	043_smiling	0.0		240.77619156430592	
37.0	218.39717089600435	pulse	0.0	t		20.0	male	black	2.609629924393156	smiling	043	sub-05	2.0	6.0	043_smiling	0.0		241.47618078808864	
37.0	218.50539369262333	fix	1.0		444	20.0	male	black	2.609629924393156	smiling	043	sub-05	2.0	6.0	043_smiling	0.0		241.58440358470762	3.7665759794208498
37.0	219.09715046043402	pulse	1.0	t		20.0	male	black	2.609629924393156	smiling	043	sub-05	2.0	6.0	043_smiling	0.0		242.1761603525183	
37.0	219.79714330647494	pulse	1.0	t		20.0	male	black	2.609629924393156	smiling	043	sub-05	2.0	6.0	043_smiling	0.0		242.87615319855922	
37.0	220.4971216634858	pulse	1.0	t		20.0	male	black	2.609629924393156	smiling	043	sub-05	2.0	6.0	043_smiling	0.0		243.5761315555701	
37.0	221.19712869670275	pulse	1.0	t		20.0	male	black	2.609629924393156	smiling	043	sub-05	2.0	6.0	043_smiling	0.0		244.27613858878703	
37.0	221.89709588508504	pulse	1.0	t		20.0	male	black	2.609629924393156	smiling	043	sub-05	2.0	6.0	043_smiling	0.0		244.97610577716932	
38.0	222.27196967204418	face	0.0		145	40.0	female	west_asian	1.5777954635893354	smiling	038	sub-05	2.0	6.0	038_smiling	0.0		245.35097956412847	1.2333165602676672
38.0	222.597088127417	pulse	0.0	t		40.0	female	west_asian	1.5777954635893354	smiling	038	sub-05	2.0	6.0	038_smiling	0.0		245.6760980195013	
38.0	223.29706225845985	pulse	0.0	t		40.0	female	west_asian	1.5777954635893354	smiling	038	sub-05	2.0	6.0	038_smiling	0.0		246.37607215054413	
38.0	223.50528623231185	fix	1.0		444	40.0	female	west_asian	1.5777954635893354	smiling	038	sub-05	2.0	6.0	038_smiling	0.0		246.58429612439613	3.7665796016781314
38.0	223.99706144345146	pulse	1.0	t		40.0	female	west_asian	1.5777954635893354	smiling	038	sub-05	2.0	6.0	038_smiling	0.0		247.07607133553574	
38.0	224.69704372457454	pulse	1.0	t		40.0	female	west_asian	1.5777954635893354	smiling	038	sub-05	2.0	6.0	038_smiling	0.0		247.77605361665883	
38.0	225.39700578142492	pulse	1.0	t		40.0	female	west_asian	1.5777954635893354	smiling	038	sub-05	2.0	6.0	038_smiling	0.0		248.4760156735092	
38.0	226.0970007404503	pulse	1.0	t		40.0	female	west_asian	1.5777954635893354	smiling	038	sub-05	2.0	6.0	038_smiling	0.0		249.1760106325346	
38.0	226.79698271971756	pulse	1.0	t		40.0	female	west_asian	1.5777954635893354	smiling	038	sub-05	2.0	6.0	038_smiling	0.0		249.87599261180185	
39.0	227.27186583398998	face	0.0		145	21.0	male	black	2.969757262236371	smiling	137	sub-05	2.0	6.0	137_smiling	0.0		250.35087572607426	1.2333144472841013
39.0	227.49697647132325	pulse	0.0	t		21.0	male	black	2.969757262236371	smiling	137	sub-05	2.0	6.0	137_smiling	0.0		250.57598636340754	
39.0	228.19696267655854	pulse	0.0	t		21.0	male	black	2.969757262236371	smiling	137	sub-05	2.0	6.0	137_smiling	0.0		251.27597256864283	
39.0	228.50518028127408	fix	1.0		444	21.0	male	black	2.969757262236371	smiling	137	sub-05	2.0	6.0	137_smiling	0.0		251.58419017335837	3.7499138959165066
39.0	228.89698570808014	pulse	1.0	t		21.0	male	black	2.969757262236371	smiling	137	sub-05	2.0	6.0	137_smiling	0.0		251.97599560016442	
39.0	229.59692935178828	pulse	1.0	t		21.0	male	black	2.969757262236371	smiling	137	sub-05	2.0	6.0	137_smiling	0.0		252.67593924387256	
39.0	230.29691344404	pulse	1.0	t		21.0	male	black	2.969757262236371	smiling	137	sub-05	2.0	6.0	137_smiling	0.0		253.3759233361243	
39.0	230.99688908435655	pulse	1.0	t		21.0	male	black	2.969757262236371	smiling	137	sub-05	2.0	6.0	137_smiling	0.0		254.07589897644084	
39.0	231.69688313781717	pulse	1.0	t		21.0	male	black	2.969757262236371	smiling	137	sub-05	2.0	6.0	137_smiling	0.0		254.77589302990145	
40.0	232.25509417719059	fix	0.0		720													255.33410406927487	5.999880465496062
40.0	232.3968838320834	pulse	0.0	t														255.4758937241677	
40.0	233.09686158538352	pulse	0.0	t														256.1758714774678	
40.0	233.7968375275559	pulse	0.0	t														256.8758474196402	
40.0	234.49683037359682	pulse	0.0	t														257.5758402656811	
40.0	235.19683318084662	pulse	0.0	t														258.2758430729309	
40.0	235.8967873894726	pulse	0.0	t														258.9757972815569	
40.0	236.59678295220692	pulse	0.0	t														259.6757928442912	
40.0	237.29677579824784	pulse	0.0	t														260.3757856903321	
40.0	237.9967517404193	pulse	0.0	t														261.0757616325036	
