trial_nr	onset	event_type	phase	response	nr_frames	face_age	face_sex	face_eth	attractiveness	expression	face_id	sub_id	ses	run	trial_type	catch	rating_type	onset_abs	duration
-1.0	0.05867544299326255	fix	0.0		713													23.953884131822633	5.957907554551639
-1.0	0.7001630921513424	pulse	0.0	t														24.595371780980713	
-1.0	1.4001453732744267	pulse	0.0	t														25.295354062103797	
-1.0	2.1001237302843947	pulse	0.0	t														25.995332419113765	
-1.0	2.800112048504161	pulse	0.0	t														26.69532073733353	
-1.0	3.5000943296272453	pulse	0.0	t														27.395303018456616	
-1.0	4.200075705184645	pulse	0.0	t														28.095284394014016	
-1.0	4.900058590017579	pulse	0.0	t														28.79526727884695	
-1.0	5.6000408711406635	pulse	0.0	t														29.495249559970034	
0.0	6.0165829975449014	face	0.0		144	20.0	male	black	2.609629924393156	neutral	043	sub-08	2.0	4.0	043_neutral	0.0		29.911791686374272	1.233321088089724
0.0	6.300046998792823	pulse	0.0	t		20.0	male	black	2.609629924393156	neutral	043	sub-08	2.0	4.0	043_neutral	0.0		30.195255687622193	
0.0	7.000030185479773	pulse	0.0	t		20.0	male	black	2.609629924393156	neutral	043	sub-08	2.0	4.0	043_neutral	0.0		30.895238874309143	
0.0	7.2499040856346255	fix	1.0		444	20.0	male	black	2.609629924393156	neutral	043	sub-08	2.0	4.0	043_neutral	0.0		31.145112774463996	3.758232410693381
0.0	7.700004920232459	pulse	1.0	t		20.0	male	black	2.609629924393156	neutral	043	sub-08	2.0	4.0	043_neutral	0.0		31.59521360906183	
0.0	8.399984182808112	pulse	1.0	t		20.0	male	black	2.609629924393156	neutral	043	sub-08	2.0	4.0	043_neutral	0.0		32.29519287163748	
0.0	9.09998849933072	pulse	1.0	t		20.0	male	black	2.609629924393156	neutral	043	sub-08	2.0	4.0	043_neutral	0.0		32.99519718816009	
0.0	9.799957196986725	pulse	1.0	t		20.0	male	black	2.609629924393156	neutral	043	sub-08	2.0	4.0	043_neutral	0.0		33.695165885816095	
0.0	10.49995487270644	pulse	1.0	t		20.0	male	black	2.609629924393156	neutral	043	sub-08	2.0	4.0	043_neutral	0.0		34.39516356153581	
1.0	11.008136496328007	face	0.0		146	27.0	female	white	4.181058495821727	neutral	039	sub-08	2.0	4.0	039_neutral	0.0		34.90334518515738	1.241663449398402
1.0	11.199935342699973	pulse	0.0	t		27.0	female	white	4.181058495821727	neutral	039	sub-08	2.0	4.0	039_neutral	0.0		35.095144031529344	
1.0	11.89992366091792	pulse	0.0	t		27.0	female	white	4.181058495821727	neutral	039	sub-08	2.0	4.0	039_neutral	0.0		35.79513234974729	
1.0	12.249799945726409	fix	1.0		444	27.0	female	white	4.181058495821727	neutral	039	sub-08	2.0	4.0	039_neutral	0.0		36.14500863455578	3.7582381459342287
1.0	12.59990503647714	pulse	1.0	t		27.0	female	white	4.181058495821727	neutral	039	sub-08	2.0	4.0	039_neutral	0.0		36.49511372530651	
1.0	13.299886713890373	pulse	1.0	t		27.0	female	white	4.181058495821727	neutral	039	sub-08	2.0	4.0	039_neutral	0.0		37.195095402719744	
1.0	13.999882880334553	pulse	1.0	t		27.0	female	white	4.181058495821727	neutral	039	sub-08	2.0	4.0	039_neutral	0.0		37.895091569163924	
1.0	14.69987180226235	pulse	1.0	t		27.0	female	white	4.181058495821727	neutral	039	sub-08	2.0	4.0	039_neutral	0.0		38.59508049109172	
1.0	15.399846838870872	pulse	1.0	t		27.0	female	white	4.181058495821727	neutral	039	sub-08	2.0	4.0	039_neutral	0.0		39.29505552770024	
1.0	15.89984698979788	response	1.0	b		27.0	female	white	4.181058495821727	neutral	039	sub-08	2.0	4.0	039_neutral	0.0		39.79505567862725	
2.0	16.008038091660637	face	0.0		146	20.0	female	white	3.9502586549940313	neutral	091	sub-08	2.0	4.0	091_neutral	0.0		39.90324678049001	1.241631452789079
2.0	16.099817951364457	pulse	0.0	t		20.0	female	white	3.9502586549940313	neutral	091	sub-08	2.0	4.0	091_neutral	0.0		39.99502664019383	
2.0	16.79981774006592	pulse	0.0	t		20.0	female	white	3.9502586549940313	neutral	091	sub-08	2.0	4.0	091_neutral	0.0		40.69502642889529	
2.0	17.249669544449716	fix	1.0		444	20.0	female	white	3.9502586549940313	neutral	091	sub-08	2.0	4.0	091_neutral	0.0		41.14487823327909	3.7582764814960683
2.0	17.499791267400724	pulse	1.0	t		20.0	female	white	3.9502586549940313	neutral	091	sub-08	2.0	4.0	091_neutral	0.0		41.394999956230095	
2.0	18.19977777449094	pulse	1.0	t		20.0	female	white	3.9502586549940313	neutral	091	sub-08	2.0	4.0	091_neutral	0.0		42.09498646332031	
2.0	18.899785411416815	pulse	1.0	t		20.0	female	white	3.9502586549940313	neutral	091	sub-08	2.0	4.0	091_neutral	0.0		42.794994100246186	
2.0	19.599767994393915	pulse	1.0	t		20.0	female	white	3.9502586549940313	neutral	091	sub-08	2.0	4.0	091_neutral	0.0		43.494976683223285	
2.0	20.29973910688932	pulse	1.0	t		20.0	female	white	3.9502586549940313	neutral	091	sub-08	2.0	4.0	091_neutral	0.0		44.19494779571869	
3.0	21.007946025945785	face	0.0		146	25.0	female	black	3.858336649423	smiling	126	sub-08	2.0	4.0	126_smiling	1.0	trustworthiness	44.903154714775155	1.2416371880281076
3.0	21.00141237864227	pulse	0.0	t		25.0	female	black	3.858336649423	smiling	126	sub-08	2.0	4.0	126_smiling	1.0	trustworthiness	44.89662106747164	
3.0	21.69971091365005	pulse	0.0	t		25.0	female	black	3.858336649423	smiling	126	sub-08	2.0	4.0	126_smiling	1.0	trustworthiness	45.59491960247942	
3.0	22.249583213973892	fix	1.0		177	25.0	female	black	3.858336649423	smiling	126	sub-08	2.0	4.0	126_smiling	1.0	trustworthiness	46.14479190280326	1.508332852881722
3.0	22.399691383643585	pulse	1.0	t		25.0	female	black	3.858336649423	smiling	126	sub-08	2.0	4.0	126_smiling	1.0	trustworthiness	46.294900072472956	
3.0	23.099696907587713	pulse	1.0	t		25.0	female	black	3.858336649423	smiling	126	sub-08	2.0	4.0	126_smiling	1.0	trustworthiness	46.994905596417084	
3.0	23.757916066855614	rating	2.0		293	25.0	female	black	3.858336649423	smiling	126	sub-08	2.0	4.0	126_smiling	1.0	trustworthiness	47.653124755684985	2.4915919852719526
3.0	23.799668020083118	pulse	2.0	t		25.0	female	black	3.858336649423	smiling	126	sub-08	2.0	4.0	126_smiling	1.0	trustworthiness	47.69487670891249	
3.0	24.499663280961613	pulse	2.0	t		25.0	female	black	3.858336649423	smiling	126	sub-08	2.0	4.0	126_smiling	1.0	trustworthiness	48.394871969790984	
3.0	25.199644354664997	pulse	2.0	t		25.0	female	black	3.858336649423	smiling	126	sub-08	2.0	4.0	126_smiling	1.0	trustworthiness	49.09485304349437	
3.0	25.294362469063344	response	2.0	g		25.0	female	black	3.858336649423	smiling	126	sub-08	2.0	4.0	126_smiling	1.0	trustworthiness	49.189571157892715	
3.0	25.899628145061797	pulse	2.0	t		25.0	female	black	3.858336649423	smiling	126	sub-08	2.0	4.0	126_smiling	1.0	trustworthiness	49.79483683389117	
3.0	26.249508052127567	fix	3.0		444	25.0	female	black	3.858336649423	smiling	126	sub-08	2.0	4.0	126_smiling	1.0	trustworthiness	50.14471674095694	3.7582484089980426
3.0	26.599611331748747	pulse	3.0	t		25.0	female	black	3.858336649423	smiling	126	sub-08	2.0	4.0	126_smiling	1.0	trustworthiness	50.49482002057812	
3.0	27.299619874240307	pulse	3.0	t		25.0	female	black	3.858336649423	smiling	126	sub-08	2.0	4.0	126_smiling	1.0	trustworthiness	51.19482856306968	
3.0	27.99957679955878	pulse	3.0	t		25.0	female	black	3.858336649423	smiling	126	sub-08	2.0	4.0	126_smiling	1.0	trustworthiness	51.89478548838815	
3.0	28.699601642210837	pulse	3.0	t		25.0	female	black	3.858336649423	smiling	126	sub-08	2.0	4.0	126_smiling	1.0	trustworthiness	52.59481033104021	
3.0	29.399561887932578	pulse	3.0	t		25.0	female	black	3.858336649423	smiling	126	sub-08	2.0	4.0	126_smiling	1.0	trustworthiness	53.29477057676195	
4.0	30.00775646112561	face	0.0		146	28.0	male	white	3.9076800636689217	neutral	033	sub-08	2.0	4.0	033_neutral	0.0		53.90296514995498	1.2416809569767793
4.0	30.099557450666907	pulse	0.0	t		28.0	male	white	3.9076800636689217	neutral	033	sub-08	2.0	4.0	033_neutral	0.0		53.99476613949628	
4.0	30.799620628877165	pulse	0.0	t		28.0	male	white	3.9076800636689217	neutral	033	sub-08	2.0	4.0	033_neutral	0.0		54.694829317706535	
4.0	31.24943741810239	fix	1.0		444	28.0	male	white	3.9076800636689217	neutral	033	sub-08	2.0	4.0	033_neutral	0.0		55.14464610693176	3.766549718053284
4.0	31.49961649346733	pulse	1.0	t		28.0	male	white	3.9076800636689217	neutral	033	sub-08	2.0	4.0	033_neutral	0.0		55.3948251822967	
4.0	32.19950187919676	pulse	1.0	t		28.0	male	white	3.9076800636689217	neutral	033	sub-08	2.0	4.0	033_neutral	0.0		56.09471056802613	
4.0	32.89948446217386	pulse	1.0	t		28.0	male	white	3.9076800636689217	neutral	033	sub-08	2.0	4.0	033_neutral	0.0		56.79469315100323	
4.0	33.59947459152136	pulse	1.0	t		28.0	male	white	3.9076800636689217	neutral	033	sub-08	2.0	4.0	033_neutral	0.0		57.49468328035073	
4.0	34.29944751514631	pulse	1.0	t		28.0	male	white	3.9076800636689217	neutral	033	sub-08	2.0	4.0	033_neutral	0.0		58.19465620397568	
5.0	35.01598713615567	face	0.0		146	27.0	female	white	4.181058495821727	smiling	039	sub-08	2.0	4.0	039_smiling	0.0		58.91119582498504	1.2333084101865097
5.0	35.002408801361526	pulse	0.0	t		27.0	female	white	4.181058495821727	smiling	039	sub-08	2.0	4.0	039_smiling	0.0		58.897617490190896	
5.0	35.69943562206572	pulse	0.0	t		27.0	female	white	4.181058495821727	smiling	039	sub-08	2.0	4.0	039_smiling	0.0		59.59464431089509	
5.0	36.24929554634218	fix	1.0		443	27.0	female	white	4.181058495821727	smiling	039	sub-08	2.0	4.0	039_smiling	0.0		60.14450423517155	3.766572659018493
5.0	36.3994254495592	pulse	1.0	t		27.0	female	white	4.181058495821727	smiling	039	sub-08	2.0	4.0	039_smiling	0.0		60.294634138388574	
5.0	37.099402901005305	pulse	1.0	t		27.0	female	white	4.181058495821727	smiling	039	sub-08	2.0	4.0	039_smiling	0.0		60.994611589834676	
5.0	37.7993918229331	pulse	1.0	t		27.0	female	white	4.181058495821727	smiling	039	sub-08	2.0	4.0	039_smiling	0.0		61.694600511762474	
5.0	38.49936323728252	pulse	1.0	t		27.0	female	white	4.181058495821727	smiling	039	sub-08	2.0	4.0	039_smiling	0.0		62.394571926111894	
5.0	39.19935276292199	pulse	1.0	t		27.0	female	white	4.181058495821727	smiling	039	sub-08	2.0	4.0	039_smiling	0.0		63.09456145175136	
5.0	39.89934711823662	pulse	1.0	t		27.0	female	white	4.181058495821727	smiling	039	sub-08	2.0	4.0	039_smiling	0.0		63.79455580706599	
6.0	40.015868205360675	face	0.0		146	20.0	male	black	3.1070433744528456	neutral	082	sub-08	2.0	4.0	082_neutral	0.0		63.911076894190046	1.2333256159126904
6.0	40.59933332347282	pulse	0.0	t		20.0	male	black	3.1070433744528456	neutral	082	sub-08	2.0	4.0	082_neutral	0.0		64.49454201230219	
6.0	41.249193821273366	fix	1.0		442	20.0	male	black	3.1070433744528456	neutral	082	sub-08	2.0	4.0	082_neutral	0.0		65.14440251010274	3.7583347394738666
6.0	41.29931590644992	pulse	1.0	t		20.0	male	black	3.1070433744528456	neutral	082	sub-08	2.0	4.0	082_neutral	0.0		65.19452459527929	
6.0	41.99929486716974	pulse	1.0	t		20.0	male	black	3.1070433744528456	neutral	082	sub-08	2.0	4.0	082_neutral	0.0		65.89450355599911	
6.0	42.6992895243402	pulse	1.0	t		20.0	male	black	3.1070433744528456	neutral	082	sub-08	2.0	4.0	082_neutral	0.0		66.59449821316957	
6.0	43.39926003312394	pulse	1.0	t		20.0	male	black	3.1070433744528456	neutral	082	sub-08	2.0	4.0	082_neutral	0.0		67.29446872195331	
6.0	44.0992685756155	pulse	1.0	t		20.0	male	black	3.1070433744528456	neutral	082	sub-08	2.0	4.0	082_neutral	0.0		67.99447726444487	
6.0	44.49923796753865	response	1.0	g		20.0	male	black	3.1070433744528456	neutral	082	sub-08	2.0	4.0	082_neutral	0.0		68.39444665636802	
6.0	44.799225802789806	pulse	1.0	t		20.0	male	black	3.1070433744528456	neutral	082	sub-08	2.0	4.0	082_neutral	0.0		68.69443449161918	
7.0	45.00752856074723	face	0.0		147	24.0	female	east_asian	2.9076800636689217	smiling	034	sub-08	2.0	4.0	034_smiling	0.0		68.9027372495766	1.2498868799102638
7.0	45.49922559149127	pulse	0.0	t		24.0	female	east_asian	2.9076800636689217	smiling	034	sub-08	2.0	4.0	034_smiling	0.0		69.39443428032064	
7.0	46.199216324548615	pulse	0.0	t		24.0	female	east_asian	2.9076800636689217	smiling	034	sub-08	2.0	4.0	034_smiling	0.0		70.09442501337799	
7.0	46.257415440657496	fix	1.0		444	24.0	female	east_asian	2.9076800636689217	smiling	034	sub-08	2.0	4.0	034_smiling	0.0		70.15262412948687	3.7665799035330565
7.0	46.89920343534868	pulse	1.0	t		24.0	female	east_asian	2.9076800636689217	smiling	034	sub-08	2.0	4.0	034_smiling	0.0		70.79441212417805	
7.0	47.599172133004686	pulse	1.0	t		24.0	female	east_asian	2.9076800636689217	smiling	034	sub-08	2.0	4.0	034_smiling	0.0		71.49438082183406	
7.0	48.29916256420802	pulse	1.0	t		24.0	female	east_asian	2.9076800636689217	smiling	034	sub-08	2.0	4.0	034_smiling	0.0		72.19437125303739	
7.0	48.99915812694235	pulse	1.0	t		24.0	female	east_asian	2.9076800636689217	smiling	034	sub-08	2.0	4.0	034_smiling	0.0		72.89436681577172	
7.0	49.699133465404884	pulse	1.0	t		24.0	female	east_asian	2.9076800636689217	smiling	034	sub-08	2.0	4.0	034_smiling	0.0		73.59434215423425	
8.0	50.02399534419055	face	0.0		144	31.0	female	east_asian	3.395941106247513	smiling	087	sub-08	2.0	4.0	087_smiling	0.0		73.91920403301992	1.2333141454291763
8.0	50.132558633031294	response	0.0	b		31.0	female	east_asian	3.395941106247513	smiling	087	sub-08	2.0	4.0	087_smiling	0.0		74.02776732186067	
8.0	50.39911152055902	pulse	0.0	t		31.0	female	east_asian	3.395941106247513	smiling	087	sub-08	2.0	4.0	087_smiling	0.0		74.29432020938839	
8.0	51.09910074434265	pulse	0.0	t		31.0	female	east_asian	3.395941106247513	smiling	087	sub-08	2.0	4.0	087_smiling	0.0		74.99430943317202	
8.0	51.25730948961973	fix	1.0		444	31.0	female	east_asian	3.395941106247513	smiling	087	sub-08	2.0	4.0	087_smiling	0.0		75.1525181784491	3.766585638775723
8.0	51.79909117554598	pulse	1.0	t		31.0	female	east_asian	3.395941106247513	smiling	087	sub-08	2.0	4.0	087_smiling	0.0		75.69429986437535	
8.0	52.499068626992084	pulse	1.0	t		31.0	female	east_asian	3.395941106247513	smiling	087	sub-08	2.0	4.0	087_smiling	0.0		76.39427731582145	
8.0	53.199062378596864	pulse	1.0	t		31.0	female	east_asian	3.395941106247513	smiling	087	sub-08	2.0	4.0	087_smiling	0.0		77.09427106742623	
8.0	53.89904465971995	pulse	1.0	t		31.0	female	east_asian	3.395941106247513	smiling	087	sub-08	2.0	4.0	087_smiling	0.0		77.79425334854932	
8.0	54.59904203358383	pulse	1.0	t		31.0	female	east_asian	3.395941106247513	smiling	087	sub-08	2.0	4.0	087_smiling	0.0		78.4942507224132	
9.0	55.02389512839545	face	0.0		145	31.0	female	west_asian	2.364902506963788	smiling	006	sub-08	2.0	4.0	006_smiling	0.0		78.91910381722482	1.2333213899437396
9.0	55.29904514268674	pulse	0.0	t		31.0	female	west_asian	2.364902506963788	smiling	006	sub-08	2.0	4.0	006_smiling	0.0		79.19425383151611	
9.0	55.99901021808546	pulse	0.0	t		31.0	female	west_asian	2.364902506963788	smiling	006	sub-08	2.0	4.0	006_smiling	0.0		79.89421890691483	
9.0	56.25721651833919	fix	1.0		444	31.0	female	west_asian	2.364902506963788	smiling	006	sub-08	2.0	4.0	006_smiling	0.0		80.15242520716856	3.7665711497447774
9.0	56.69899068808081	pulse	1.0	t		31.0	female	west_asian	2.364902506963788	smiling	006	sub-08	2.0	4.0	006_smiling	0.0		80.59419937691018	
9.0	57.39897447847761	pulse	1.0	t		31.0	female	west_asian	2.364902506963788	smiling	006	sub-08	2.0	4.0	006_smiling	0.0		81.29418316730698	
9.0	58.098966720808676	pulse	1.0	t		31.0	female	west_asian	2.364902506963788	smiling	006	sub-08	2.0	4.0	006_smiling	0.0		81.99417540963805	
9.0	58.79894839822191	pulse	1.0	t		31.0	female	west_asian	2.364902506963788	smiling	006	sub-08	2.0	4.0	006_smiling	0.0		82.69415708705128	
9.0	59.49893098119901	pulse	1.0	t		31.0	female	west_asian	2.364902506963788	smiling	006	sub-08	2.0	4.0	006_smiling	0.0		83.39413967002838	
10.0	60.02378766808397	face	0.0		145	27.0	female	white	3.504576203740549	smiling	144	sub-08	2.0	4.0	144_smiling	0.0		83.91899635691334	1.233328634460122
10.0	60.19892714764319	pulse	0.0	t		27.0	female	white	3.504576203740549	smiling	144	sub-08	2.0	4.0	144_smiling	0.0		84.09413583647256	
10.0	60.898911843603855	pulse	0.0	t		27.0	female	white	3.504576203740549	smiling	144	sub-08	2.0	4.0	144_smiling	0.0		84.79412053243323	
10.0	61.25711630254409	fix	1.0		444	27.0	female	white	3.504576203740549	smiling	144	sub-08	2.0	4.0	144_smiling	0.0		85.15232499137346	3.7665684330495424
10.0	61.59888899319594	pulse	1.0	t		27.0	female	white	3.504576203740549	smiling	144	sub-08	2.0	4.0	144_smiling	0.0		85.49409768202531	
10.0	62.298877009559874	pulse	1.0	t		27.0	female	white	3.504576203740549	smiling	144	sub-08	2.0	4.0	144_smiling	0.0		86.19408569838924	
10.0	62.99885174431256	pulse	1.0	t		27.0	female	white	3.504576203740549	smiling	144	sub-08	2.0	4.0	144_smiling	0.0		86.89406043314193	
10.0	63.69884126995021	pulse	1.0	t		27.0	female	white	3.504576203740549	smiling	144	sub-08	2.0	4.0	144_smiling	0.0		87.59404995877958	
10.0	64.39883019187982	pulse	1.0	t		27.0	female	white	3.504576203740549	smiling	144	sub-08	2.0	4.0	144_smiling	0.0		88.2940388807092	
11.0	65.02368473559363	face	0.0		145	23.0	male	white	2.6275368085953046	smiling	141	sub-08	2.0	4.0	141_smiling	0.0		88.918893424423	1.2333283326061064
11.0	65.09882062308134	pulse	0.0	t		23.0	male	white	2.6275368085953046	smiling	141	sub-08	2.0	4.0	141_smiling	0.0		88.99402931191071	
11.0	65.79880803573724	pulse	0.0	t		23.0	male	white	2.6275368085953046	smiling	141	sub-08	2.0	4.0	141_smiling	0.0		89.69401672456661	
11.0	66.25701306819974	fix	1.0		444	23.0	male	white	2.6275368085953046	smiling	141	sub-08	2.0	4.0	141_smiling	0.0		90.15222175702911	3.766584431354204
11.0	66.49878548718152	pulse	1.0	t		23.0	male	white	2.6275368085953046	smiling	141	sub-08	2.0	4.0	141_smiling	0.0		90.39399417601089	
11.0	67.19876595717687	pulse	1.0	t		23.0	male	white	2.6275368085953046	smiling	141	sub-08	2.0	4.0	141_smiling	0.0		91.09397464600625	
11.0	67.89875880321779	pulse	1.0	t		23.0	male	white	2.6275368085953046	smiling	141	sub-08	2.0	4.0	141_smiling	0.0		91.79396749204716	
11.0	68.59874742329157	pulse	1.0	t		23.0	male	white	2.6275368085953046	smiling	141	sub-08	2.0	4.0	141_smiling	0.0		92.49395611212094	
11.0	69.2987342322358	pulse	1.0	t		23.0	male	white	2.6275368085953046	smiling	141	sub-08	2.0	4.0	141_smiling	0.0		93.19394292106517	
11.0	69.99871017440819	pulse	1.0	t		23.0	male	white	2.6275368085953046	smiling	141	sub-08	2.0	4.0	141_smiling	0.0		93.89391886323756	
12.0	70.02359749955394	face	0.0		146	19.0	male	white	3.2522881018702745	neutral	018	sub-08	2.0	4.0	018_neutral	0.0		93.91880618838331	1.2333253140586748
12.0	70.6987144909308	pulse	0.0	t		19.0	male	white	3.2522881018702745	neutral	018	sub-08	2.0	4.0	018_neutral	0.0		94.59392317976017	
12.0	71.25692281361262	fix	1.0		443	19.0	male	white	3.2522881018702745	neutral	018	sub-08	2.0	4.0	018_neutral	0.0		95.15213150244199	3.7665717534528085
12.0	71.39869828132942	pulse	1.0	t		19.0	male	white	3.2522881018702745	neutral	018	sub-08	2.0	4.0	018_neutral	0.0		95.29390697015879	
12.0	72.09866788454929	pulse	1.0	t		19.0	male	white	3.2522881018702745	neutral	018	sub-08	2.0	4.0	018_neutral	0.0		95.99387657337866	
12.0	72.79865529720337	pulse	1.0	t		19.0	male	white	3.2522881018702745	neutral	018	sub-08	2.0	4.0	018_neutral	0.0		96.69386398603274	
12.0	73.49864723768042	pulse	1.0	t		19.0	male	white	3.2522881018702745	neutral	018	sub-08	2.0	4.0	018_neutral	0.0		97.39385592650979	
12.0	74.19862529283637	pulse	1.0	t		19.0	male	white	3.2522881018702745	neutral	018	sub-08	2.0	4.0	018_neutral	0.0		98.09383398166574	
12.0	74.8986121017806	pulse	1.0	t		19.0	male	white	3.2522881018702745	neutral	018	sub-08	2.0	4.0	018_neutral	0.0		98.79382079060997	
13.0	75.02349456706543	face	0.0		146	21.0	male	east_asian/white	3.501790688420215	neutral	036	sub-08	2.0	4.0	036_neutral	1.0	attractiveness	98.9187032558948	1.2333216917995742
13.0	75.5986034385478	pulse	0.0	t		21.0	male	east_asian/white	3.501790688420215	neutral	036	sub-08	2.0	4.0	036_neutral	1.0	attractiveness	99.49381212737717	
13.0	76.256816258865	fix	1.0		176	21.0	male	east_asian/white	3.501790688420215	neutral	036	sub-08	2.0	4.0	036_neutral	1.0	attractiveness	100.15202494769437	1.4999597023834212
13.0	76.29859205862158	pulse	1.0	t		21.0	male	east_asian/white	3.501790688420215	neutral	036	sub-08	2.0	4.0	036_neutral	1.0	attractiveness	100.19380074745095	
13.0	76.99858067869536	pulse	1.0	t		21.0	male	east_asian/white	3.501790688420215	neutral	036	sub-08	2.0	4.0	036_neutral	1.0	attractiveness	100.89378936752473	
13.0	77.69855782828745	pulse	1.0	t		21.0	male	east_asian/white	3.501790688420215	neutral	036	sub-08	2.0	4.0	036_neutral	1.0	attractiveness	101.59376651711682	
13.0	77.75677596124842	rating	2.0		295	21.0	male	east_asian/white	3.501790688420215	neutral	036	sub-08	2.0	4.0	036_neutral	1.0	attractiveness	101.6519846500778	2.4999467226261913
13.0	78.39852109255662	pulse	2.0	t		21.0	male	east_asian/white	3.501790688420215	neutral	036	sub-08	2.0	4.0	036_neutral	1.0	attractiveness	102.29372978138599	
13.0	79.09853446472516	pulse	2.0	t		21.0	male	east_asian/white	3.501790688420215	neutral	036	sub-08	2.0	4.0	036_neutral	1.0	attractiveness	102.99374315355453	
13.0	79.43185763561269	response	2.0	e		21.0	male	east_asian/white	3.501790688420215	neutral	036	sub-08	2.0	4.0	036_neutral	1.0	attractiveness	103.32706632444206	
13.0	79.79851282173513	pulse	2.0	t		21.0	male	east_asian/white	3.501790688420215	neutral	036	sub-08	2.0	4.0	036_neutral	1.0	attractiveness	103.6937215105645	
13.0	80.25672268387461	fix	3.0		444	21.0	male	east_asian/white	3.501790688420215	neutral	036	sub-08	2.0	4.0	036_neutral	1.0	attractiveness	104.15193137270398	3.7666568765089323
13.0	80.49850476221218	pulse	3.0	t		21.0	male	east_asian/white	3.501790688420215	neutral	036	sub-08	2.0	4.0	036_neutral	1.0	attractiveness	104.39371345104155	
13.0	81.19847708212546	pulse	3.0	t		21.0	male	east_asian/white	3.501790688420215	neutral	036	sub-08	2.0	4.0	036_neutral	1.0	attractiveness	105.09368577095483	
13.0	81.89846358921568	pulse	3.0	t		21.0	male	east_asian/white	3.501790688420215	neutral	036	sub-08	2.0	4.0	036_neutral	1.0	attractiveness	105.79367227804505	
13.0	82.59845462412886	pulse	3.0	t		21.0	male	east_asian/white	3.501790688420215	neutral	036	sub-08	2.0	4.0	036_neutral	1.0	attractiveness	106.49366331295823	
13.0	83.29843599968626	pulse	3.0	t		21.0	male	east_asian/white	3.501790688420215	neutral	036	sub-08	2.0	4.0	036_neutral	1.0	attractiveness	107.19364468851563	
13.0	83.99842794016331	pulse	3.0	t		21.0	male	east_asian/white	3.501790688420215	neutral	036	sub-08	2.0	4.0	036_neutral	1.0	attractiveness	107.89363662899268	
14.0	84.02337956038355	face	0.0		146	40.0	male	white	1.868682849184242	smiling	172	sub-08	2.0	4.0	172_smiling	0.0		107.91858824921292	1.233251057774396
14.0	84.69841052314041	pulse	0.0	t		40.0	male	white	1.868682849184242	smiling	172	sub-08	2.0	4.0	172_smiling	0.0		108.59361921196978	
14.0	85.25663061815794	fix	1.0		442	40.0	male	white	1.868682849184242	smiling	172	sub-08	2.0	4.0	172_smiling	0.0		109.15183930698731	3.7665723571644776
14.0	85.39837922079641	pulse	1.0	t		40.0	male	white	1.868682849184242	smiling	172	sub-08	2.0	4.0	172_smiling	0.0		109.29358790962578	
14.0	86.09839470594852	pulse	1.0	t		40.0	male	white	1.868682849184242	smiling	172	sub-08	2.0	4.0	172_smiling	0.0		109.99360339477789	
14.0	86.79836974255704	pulse	1.0	t		40.0	male	white	1.868682849184242	smiling	172	sub-08	2.0	4.0	172_smiling	0.0		110.69357843138641	
14.0	87.49835564593741	pulse	1.0	t		40.0	male	white	1.868682849184242	smiling	172	sub-08	2.0	4.0	172_smiling	0.0		111.39356433476678	
14.0	88.04001266582782	response	1.0	b		40.0	male	white	1.868682849184242	smiling	172	sub-08	2.0	4.0	172_smiling	0.0		111.93522135465719	
14.0	88.19833822891451	pulse	1.0	t		40.0	male	white	1.868682849184242	smiling	172	sub-08	2.0	4.0	172_smiling	0.0		112.09354691774388	
14.0	88.89832020818176	pulse	1.0	t		40.0	male	white	1.868682849184242	smiling	172	sub-08	2.0	4.0	172_smiling	0.0		112.79352889701113	
15.0	89.02320297532242	face	0.0		146	27.0	male	black	3.5523278949462798	neutral	042	sub-08	2.0	4.0	042_neutral	0.0		112.91841166415179	1.233312938009476
15.0	89.5983109412391	pulse	0.0	t		27.0	male	black	3.5523278949462798	neutral	042	sub-08	2.0	4.0	042_neutral	0.0		113.49351963006848	
15.0	90.2565159133319	fix	1.0		443	27.0	male	black	3.5523278949462798	neutral	042	sub-08	2.0	4.0	042_neutral	0.0		114.15172460216127	3.766567225631661
15.0	90.29829050566877	pulse	1.0	t		27.0	male	black	3.5523278949462798	neutral	042	sub-08	2.0	4.0	042_neutral	0.0		114.19349919449814	
15.0	90.99827520163126	pulse	1.0	t		27.0	male	black	3.5523278949462798	neutral	042	sub-08	2.0	4.0	042_neutral	0.0		114.89348389046063	
15.0	91.6982635198492	pulse	1.0	t		27.0	male	black	3.5523278949462798	neutral	042	sub-08	2.0	4.0	042_neutral	0.0		115.59347220867858	
15.0	92.39823855645773	pulse	1.0	t		27.0	male	black	3.5523278949462798	neutral	042	sub-08	2.0	4.0	042_neutral	0.0		116.2934472452871	
15.0	93.09823200620849	pulse	1.0	t		27.0	male	black	3.5523278949462798	neutral	042	sub-08	2.0	4.0	042_neutral	0.0		116.99344069503786	
15.0	93.79822062628227	pulse	1.0	t		27.0	male	black	3.5523278949462798	neutral	042	sub-08	2.0	4.0	042_neutral	0.0		117.69342931511164	
16.0	94.02308313896356	face	0.0		145	24.0	male	white	3.1153999204138483	neutral	012	sub-08	2.0	4.0	012_neutral	1.0	attractiveness	117.91829182779293	1.2333310492977034
16.0	94.49820894450022	pulse	0.0	t		24.0	male	white	3.1153999204138483	neutral	012	sub-08	2.0	4.0	012_neutral	1.0	attractiveness	118.39341763332959	
16.0	95.19819605530029	pulse	0.0	t		24.0	male	white	3.1153999204138483	neutral	012	sub-08	2.0	4.0	012_neutral	1.0	attractiveness	119.09340474412966	
16.0	95.25641418826126	fix	1.0		177	24.0	male	white	3.1153999204138483	neutral	012	sub-08	2.0	4.0	012_neutral	1.0	attractiveness	119.15162287709063	1.4999678524636693
16.0	95.89818618464778	pulse	1.0	t		24.0	male	white	3.1153999204138483	neutral	012	sub-08	2.0	4.0	012_neutral	1.0	attractiveness	119.79339487347715	
16.0	96.59816725835117	pulse	1.0	t		24.0	male	white	3.1153999204138483	neutral	012	sub-08	2.0	4.0	012_neutral	1.0	attractiveness	120.49337594718054	
16.0	96.75638204072493	rating	2.0		295	24.0	male	white	3.1153999204138483	neutral	012	sub-08	2.0	4.0	012_neutral	1.0	attractiveness	120.6515907295543	2.499946118916341
16.0	97.29815044503812	pulse	2.0	t		24.0	male	white	3.1153999204138483	neutral	012	sub-08	2.0	4.0	012_neutral	1.0	attractiveness	121.19335913386749	
16.0	97.99814540406442	pulse	2.0	t		24.0	male	white	3.1153999204138483	neutral	012	sub-08	2.0	4.0	012_neutral	1.0	attractiveness	121.89335409289379	
16.0	98.29813263560573	response	2.0	w		24.0	male	white	3.1153999204138483	neutral	012	sub-08	2.0	4.0	012_neutral	1.0	attractiveness	122.1933413244351	
16.0	98.69809448115848	pulse	2.0	t		24.0	male	white	3.1153999204138483	neutral	012	sub-08	2.0	4.0	012_neutral	1.0	attractiveness	122.59330316998785	
16.0	99.25632815964127	fix	3.0		443	24.0	male	white	3.1153999204138483	neutral	012	sub-08	2.0	4.0	012_neutral	1.0	attractiveness	123.15153684847064	3.766568734905377
16.0	99.39810634405148	pulse	3.0	t		24.0	male	white	3.1153999204138483	neutral	012	sub-08	2.0	4.0	012_neutral	1.0	attractiveness	123.29331503288086	
16.0	100.09809013444828	pulse	3.0	t		24.0	male	white	3.1153999204138483	neutral	012	sub-08	2.0	4.0	012_neutral	1.0	attractiveness	123.99329882327766	
16.0	100.79808147121548	pulse	3.0	t		24.0	male	white	3.1153999204138483	neutral	012	sub-08	2.0	4.0	012_neutral	1.0	attractiveness	124.69329016004485	
16.0	101.49807009128926	pulse	3.0	t		24.0	male	white	3.1153999204138483	neutral	012	sub-08	2.0	4.0	012_neutral	1.0	attractiveness	125.39327878011864	
16.0	102.19804029821898	pulse	3.0	t		24.0	male	white	3.1153999204138483	neutral	012	sub-08	2.0	4.0	012_neutral	1.0	attractiveness	126.09324898704836	
16.0	102.89805125554994	pulse	3.0	t		24.0	male	white	3.1153999204138483	neutral	012	sub-08	2.0	4.0	012_neutral	1.0	attractiveness	126.79325994437932	
17.0	103.02289689454665	face	0.0		146	20.0	male	black	2.609629924393156	smiling	043	sub-08	2.0	4.0	043_smiling	0.0		126.91810558337602	1.2333228992192744
17.0	103.59803051812378	pulse	0.0	t		20.0	male	black	2.609629924393156	smiling	043	sub-08	2.0	4.0	043_smiling	0.0		127.49323920695315	
17.0	104.25621979376592	fix	1.0		443	20.0	male	black	2.609629924393156	smiling	043	sub-08	2.0	4.0	043_smiling	0.0		128.1514284825953	3.758243277467045
17.0	104.29801098811731	pulse	1.0	t		20.0	male	black	2.609629924393156	smiling	043	sub-08	2.0	4.0	043_smiling	0.0		128.19321967694668	
17.0	104.99798572287	pulse	1.0	t		20.0	male	black	2.609629924393156	smiling	043	sub-08	2.0	4.0	043_smiling	0.0		128.89319441169937	
17.0	105.69799154866814	pulse	1.0	t		20.0	male	black	2.609629924393156	smiling	043	sub-08	2.0	4.0	043_smiling	0.0		129.5932002374975	
17.0	106.39795903890627	pulse	1.0	t		20.0	male	black	2.609629924393156	smiling	043	sub-08	2.0	4.0	043_smiling	0.0		130.29316772773564	
17.0	107.09793890518995	pulse	1.0	t		20.0	male	black	2.609629924393156	smiling	043	sub-08	2.0	4.0	043_smiling	0.0		130.99314759401932	
17.0	107.7979220918769	pulse	1.0	t		20.0	male	black	2.609629924393156	smiling	043	sub-08	2.0	4.0	043_smiling	0.0		131.69313078070627	
18.0	108.01446307123297	face	0.0		146	26.0	female	white	4.854755272582572	neutral	027	sub-08	2.0	4.0	027_neutral	0.0		131.90967176006234	1.2416583178655856
18.0	108.4979122212244	pulse	0.0	t		26.0	female	white	4.854755272582572	neutral	027	sub-08	2.0	4.0	027_neutral	0.0		132.39312091005377	
18.0	109.19789540791317	pulse	0.0	t		26.0	female	white	4.854755272582572	neutral	027	sub-08	2.0	4.0	027_neutral	0.0		133.09310409674254	
18.0	109.25612138909855	fix	1.0		445	26.0	female	white	4.854755272582572	neutral	027	sub-08	2.0	4.0	027_neutral	0.0		133.15133007792792	3.766587751759289
18.0	109.89788915951794	pulse	1.0	t		26.0	female	white	4.854755272582572	neutral	027	sub-08	2.0	4.0	027_neutral	0.0		133.79309784834732	
18.0	110.59786268685093	pulse	1.0	t		26.0	female	white	4.854755272582572	neutral	027	sub-08	2.0	4.0	027_neutral	0.0		134.4930713756803	
18.0	111.29785523103783	pulse	1.0	t		26.0	female	white	4.854755272582572	neutral	027	sub-08	2.0	4.0	027_neutral	0.0		135.1930639198672	
18.0	111.99783962514448	pulse	1.0	t		26.0	female	white	4.854755272582572	neutral	027	sub-08	2.0	4.0	027_neutral	0.0		135.89304831397385	
18.0	112.69783941384594	pulse	1.0	t		26.0	female	white	4.854755272582572	neutral	027	sub-08	2.0	4.0	027_neutral	0.0		136.5930481026753	
19.0	113.02270914085784	face	0.0		145	27.0	male	black	3.5523278949462798	smiling	042	sub-08	2.0	4.0	042_smiling	0.0		136.9179178296872	1.2333056934949127
19.0	113.39781143190521	pulse	0.0	t		27.0	male	black	3.5523278949462798	smiling	042	sub-08	2.0	4.0	042_smiling	0.0		137.29302012073458	
19.0	114.09779884455929	pulse	0.0	t		27.0	male	black	3.5523278949462798	smiling	042	sub-08	2.0	4.0	042_smiling	0.0		137.99300753338866	
19.0	114.25601483435275	fix	1.0		444	27.0	male	black	3.5523278949462798	smiling	042	sub-08	2.0	4.0	042_smiling	0.0		138.15122352318213	3.76658714804762
19.0	114.79778595535936	pulse	1.0	t		27.0	male	black	3.5523278949462798	smiling	042	sub-08	2.0	4.0	042_smiling	0.0		138.69299464418873	
19.0	115.49776401051531	pulse	1.0	t		27.0	male	black	3.5523278949462798	smiling	042	sub-08	2.0	4.0	042_smiling	0.0		139.39297269934468	
19.0	116.19776379921677	pulse	1.0	t		27.0	male	black	3.5523278949462798	smiling	042	sub-08	2.0	4.0	042_smiling	0.0		140.09297248804614	
19.0	116.89775241929055	pulse	1.0	t		27.0	male	black	3.5523278949462798	smiling	042	sub-08	2.0	4.0	042_smiling	0.0		140.79296110811993	
19.0	117.59771809839913	pulse	1.0	t		27.0	male	black	3.5523278949462798	smiling	042	sub-08	2.0	4.0	042_smiling	0.0		141.4929267872285	
20.0	118.02260198240037	face	0.0		145	28.0	female	white	5.676880222841227	neutral	124	sub-08	2.0	4.0	124_neutral	0.0		141.91781067122974	1.233307504624463
20.0	118.2977118500039	pulse	0.0	t		28.0	female	white	5.676880222841227	neutral	124	sub-08	2.0	4.0	124_neutral	0.0		142.19292053883328	
20.0	118.99769986636784	pulse	0.0	t		28.0	female	white	5.676880222841227	neutral	124	sub-08	2.0	4.0	124_neutral	0.0		142.8929085551972	
20.0	119.25590948702484	fix	1.0		1185	28.0	female	white	5.676880222841227	neutral	124	sub-08	2.0	4.0	124_neutral	0.0		143.1511181758542	10.016463463040054
20.0	119.69768607160404	pulse	1.0	t		28.0	female	white	5.676880222841227	neutral	124	sub-08	2.0	4.0	124_neutral	0.0		143.5928947604334	
20.0	120.3976707675647	pulse	1.0	t		28.0	female	white	5.676880222841227	neutral	124	sub-08	2.0	4.0	124_neutral	0.0		144.29287945639408	
20.0	121.09766572658918	pulse	1.0	t		28.0	female	white	5.676880222841227	neutral	124	sub-08	2.0	4.0	124_neutral	0.0		144.99287441541856	
20.0	121.79765132811553	pulse	1.0	t		28.0	female	white	5.676880222841227	neutral	124	sub-08	2.0	4.0	124_neutral	0.0		145.6928600169449	
20.0	122.49763119439922	pulse	1.0	t		28.0	female	white	5.676880222841227	neutral	124	sub-08	2.0	4.0	124_neutral	0.0		146.3928398832286	
20.0	123.19760864584532	pulse	1.0	t		28.0	female	white	5.676880222841227	neutral	124	sub-08	2.0	4.0	124_neutral	0.0		147.0928173346747	
20.0	123.89759303995197	pulse	1.0	t		28.0	female	white	5.676880222841227	neutral	124	sub-08	2.0	4.0	124_neutral	0.0		147.79280172878134	
20.0	124.59758256558962	pulse	1.0	t		28.0	female	white	5.676880222841227	neutral	124	sub-08	2.0	4.0	124_neutral	0.0		148.492791254419	
20.0	125.29756092259959	pulse	1.0	t		28.0	female	white	5.676880222841227	neutral	124	sub-08	2.0	4.0	124_neutral	0.0		149.19276961142896	
20.0	125.9975625224306	pulse	1.0	t		28.0	female	white	5.676880222841227	neutral	124	sub-08	2.0	4.0	124_neutral	0.0		149.89277121125997	
20.0	126.69754359613398	pulse	1.0	t		28.0	female	white	5.676880222841227	neutral	124	sub-08	2.0	4.0	124_neutral	0.0		150.59275228496335	
20.0	127.39751802903265	pulse	1.0	t		28.0	female	white	5.676880222841227	neutral	124	sub-08	2.0	4.0	124_neutral	0.0		151.29272671786202	
20.0	128.0975277789421	pulse	1.0	t		28.0	female	white	5.676880222841227	neutral	124	sub-08	2.0	4.0	124_neutral	0.0		151.99273646777146	
20.0	128.79749526918022	pulse	1.0	t		28.0	female	white	5.676880222841227	neutral	124	sub-08	2.0	4.0	124_neutral	0.0		152.6927039580096	
21.0	129.2723729500649	face	0.0		145	25.0	female	black	3.858336649423	neutral	126	sub-08	2.0	4.0	126_neutral	0.0		153.16758163889426	1.2333087120441633
21.0	129.49748207812445	pulse	0.0	t		25.0	female	black	3.858336649423	neutral	126	sub-08	2.0	4.0	126_neutral	0.0		153.39269076695382	
21.0	130.19746284997382	pulse	0.0	t		25.0	female	black	3.858336649423	neutral	126	sub-08	2.0	4.0	126_neutral	0.0		154.0926715388032	
21.0	130.50568166210905	fix	1.0		444	25.0	female	black	3.858336649423	neutral	126	sub-08	2.0	4.0	126_neutral	0.0		154.40089035093843	3.7665880536133045
21.0	130.8974680720621	pulse	1.0	t		25.0	female	black	3.858336649423	neutral	126	sub-08	2.0	4.0	126_neutral	0.0		154.79267676089148	
21.0	131.59744491979836	pulse	1.0	t		25.0	female	black	3.858336649423	neutral	126	sub-08	2.0	4.0	126_neutral	0.0		155.49265360862773	
21.0	132.2974166360018	pulse	1.0	t		25.0	female	black	3.858336649423	neutral	126	sub-08	2.0	4.0	126_neutral	0.0		156.19262532483117	
21.0	132.99743906381445	pulse	1.0	t		25.0	female	black	3.858336649423	neutral	126	sub-08	2.0	4.0	126_neutral	0.0		156.89264775264382	
21.0	133.69740474292303	pulse	1.0	t		25.0	female	black	3.858336649423	neutral	126	sub-08	2.0	4.0	126_neutral	0.0		157.5926134317524	
22.0	134.27226971572236	face	0.0		145	36.0	female	white	2.7548746518105847	neutral	011	sub-08	2.0	4.0	011_neutral	0.0		158.16747840455173	1.2333081083324942
22.0	134.3973846092067	pulse	0.0	t		36.0	female	white	2.7548746518105847	neutral	011	sub-08	2.0	4.0	011_neutral	0.0		158.29259329803608	
22.0	135.09736719218563	pulse	0.0	t		36.0	female	white	2.7548746518105847	neutral	011	sub-08	2.0	4.0	011_neutral	0.0		158.992575881015	
22.0	135.50557782405485	fix	1.0		444	36.0	female	white	2.7548746518105847	neutral	011	sub-08	2.0	4.0	011_neutral	0.0		159.40078651288422	3.766568734905377
22.0	135.79735007701674	pulse	1.0	t		36.0	female	white	2.7548746518105847	neutral	011	sub-08	2.0	4.0	011_neutral	0.0		159.69255876584612	
22.0	136.49732360435155	pulse	1.0	t		36.0	female	white	2.7548746518105847	neutral	011	sub-08	2.0	4.0	011_neutral	0.0		160.39253229318092	
22.0	137.19731554482678	pulse	1.0	t		36.0	female	white	2.7548746518105847	neutral	011	sub-08	2.0	4.0	011_neutral	0.0		161.09252423365615	
22.0	137.89731503167422	pulse	1.0	t		36.0	female	white	2.7548746518105847	neutral	011	sub-08	2.0	4.0	011_neutral	0.0		161.7925237205036	
22.0	138.5972885590072	pulse	1.0	t		36.0	female	white	2.7548746518105847	neutral	011	sub-08	2.0	4.0	011_neutral	0.0		162.49249724783658	
23.0	139.27214655896023	face	0.0		145	28.0	female	white	5.676880222841227	smiling	124	sub-08	2.0	4.0	124_smiling	0.0		163.1673552477896	1.2333277288962563
23.0	139.29730162932174	pulse	0.0	t		28.0	female	white	5.676880222841227	smiling	124	sub-08	2.0	4.0	124_smiling	0.0		163.1925103181511	
23.0	139.99732466084242	pulse	0.0	t		28.0	female	white	5.676880222841227	smiling	124	sub-08	2.0	4.0	124_smiling	0.0		163.8925333496718	
23.0	140.5054742878565	fix	1.0		443	28.0	female	white	5.676880222841227	smiling	124	sub-08	2.0	4.0	124_smiling	0.0		164.40068297668586	3.7665841295001883
23.0	140.69729969745094	pulse	1.0	t		28.0	female	white	5.676880222841227	smiling	124	sub-08	2.0	4.0	124_smiling	0.0		164.59250838628031	
23.0	141.3972312669648	pulse	1.0	t		28.0	female	white	5.676880222841227	smiling	124	sub-08	2.0	4.0	124_smiling	0.0		165.29243995579418	
23.0	142.09724252614978	pulse	1.0	t		28.0	female	white	5.676880222841227	smiling	124	sub-08	2.0	4.0	124_smiling	0.0		165.99245121497916	
23.0	142.79720065888796	pulse	1.0	t		28.0	female	white	5.676880222841227	smiling	124	sub-08	2.0	4.0	124_smiling	0.0		166.69240934771733	
23.0	143.49720920137952	pulse	1.0	t		28.0	female	white	5.676880222841227	smiling	124	sub-08	2.0	4.0	124_smiling	0.0		167.3924178902089	
23.0	144.19719299177632	pulse	1.0	t		28.0	female	white	5.676880222841227	smiling	124	sub-08	2.0	4.0	124_smiling	0.0		168.0924016806057	
24.0	144.27205841735667	face	0.0		146	31.0	female	white	2.1822522881018704	neutral	102	sub-08	2.0	4.0	102_neutral	0.0		168.16726710618605	1.2333093157521944
24.0	144.89718583781723	pulse	0.0	t		31.0	female	white	2.1822522881018704	neutral	102	sub-08	2.0	4.0	102_neutral	0.0		168.7923945266466	
24.0	145.50536773310887	fix	1.0		443	31.0	female	white	2.1822522881018704	neutral	102	sub-08	2.0	4.0	102_neutral	0.0		169.40057642193824	3.7665874499034544
24.0	145.59714970579626	pulse	1.0	t		31.0	female	white	2.1822522881018704	neutral	102	sub-08	2.0	4.0	102_neutral	0.0		169.49235839462563	
24.0	146.29712957207994	pulse	1.0	t		31.0	female	white	2.1822522881018704	neutral	102	sub-08	2.0	4.0	102_neutral	0.0		170.1923382609093	
24.0	146.9971040049786	pulse	1.0	t		31.0	female	white	2.1822522881018704	neutral	102	sub-08	2.0	4.0	102_neutral	0.0		170.89231269380798	
24.0	147.6970862861017	pulse	1.0	t		31.0	female	white	2.1822522881018704	neutral	102	sub-08	2.0	4.0	102_neutral	0.0		171.59229497493106	
24.0	148.39707490617548	pulse	1.0	t		31.0	female	white	2.1822522881018704	neutral	102	sub-08	2.0	4.0	102_neutral	0.0		172.29228359500485	
24.0	149.09707710971452	pulse	1.0	t		31.0	female	white	2.1822522881018704	neutral	102	sub-08	2.0	4.0	102_neutral	0.0		172.9922857985439	
25.0	149.27195518301232	face	0.0		146	25.0	female	west_asian	2.6756864305610826	neutral	064	sub-08	2.0	4.0	064_neutral	0.0		173.1671638718417	1.2416429232707742
25.0	149.79706240938685	pulse	0.0	t		25.0	female	west_asian	2.6756864305610826	neutral	064	sub-08	2.0	4.0	064_neutral	0.0		173.69227109821622	
25.0	150.497035634864	pulse	0.0	t		25.0	female	west_asian	2.6756864305610826	neutral	064	sub-08	2.0	4.0	064_neutral	0.0		174.39224432369338	
25.0	150.5135981062831	fix	1.0		443	25.0	female	west_asian	2.6756864305610826	neutral	064	sub-08	2.0	4.0	064_neutral	0.0		174.40880679511247	3.758237844080213
25.0	151.19703210316402	pulse	1.0	t		25.0	female	west_asian	2.6756864305610826	neutral	064	sub-08	2.0	4.0	064_neutral	0.0		175.0922407919934	
25.0	151.89698872662848	pulse	1.0	t		25.0	female	west_asian	2.6756864305610826	neutral	064	sub-08	2.0	4.0	064_neutral	0.0		175.79219741545785	
25.0	152.5969954579905	pulse	1.0	t		25.0	female	west_asian	2.6756864305610826	neutral	064	sub-08	2.0	4.0	064_neutral	0.0		176.49220414681986	
25.0	153.29699675596567	pulse	1.0	t		25.0	female	west_asian	2.6756864305610826	neutral	064	sub-08	2.0	4.0	064_neutral	0.0		177.19220544479504	
25.0	153.99698084821648	pulse	1.0	t		25.0	female	west_asian	2.6756864305610826	neutral	064	sub-08	2.0	4.0	064_neutral	0.0		177.89218953704585	
26.0	154.2718359503633	face	0.0		145	36.0	female	white	2.7548746518105847	smiling	011	sub-08	2.0	4.0	011_smiling	1.0	trustworthiness	178.16704463919268	1.2333250122028403
26.0	154.69696433675927	pulse	0.0	t		36.0	female	white	2.7548746518105847	smiling	011	sub-08	2.0	4.0	011_smiling	1.0	trustworthiness	178.59217302558864	
26.0	155.39694390118893	pulse	0.0	t		36.0	female	white	2.7548746518105847	smiling	011	sub-08	2.0	4.0	011_smiling	1.0	trustworthiness	179.2921525900183	
26.0	155.50516096256615	fix	1.0		177	36.0	female	white	2.7548746518105847	smiling	011	sub-08	2.0	4.0	011_smiling	1.0	trustworthiness	179.40036965139552	1.4999838507683307
26.0	156.09693071013317	pulse	1.0	t		36.0	female	white	2.7548746518105847	smiling	011	sub-08	2.0	4.0	011_smiling	1.0	trustworthiness	179.99213939896254	
26.0	156.79691299125625	pulse	1.0	t		36.0	female	white	2.7548746518105847	smiling	011	sub-08	2.0	4.0	011_smiling	1.0	trustworthiness	180.69212168008562	
26.0	157.00514481333448	rating	2.0		295	36.0	female	white	2.7548746518105847	smiling	011	sub-08	2.0	4.0	011_smiling	1.0	trustworthiness	180.90035350216385	2.4999376669820776
26.0	157.49692243931167	pulse	2.0	t		36.0	female	white	2.7548746518105847	smiling	011	sub-08	2.0	4.0	011_smiling	1.0	trustworthiness	181.39213112814105	
26.0	158.1968875147104	pulse	2.0	t		36.0	female	white	2.7548746518105847	smiling	011	sub-08	2.0	4.0	011_smiling	1.0	trustworthiness	182.09209620353977	
26.0	158.57186272488434	response	2.0	y		36.0	female	white	2.7548746518105847	smiling	011	sub-08	2.0	4.0	011_smiling	1.0	trustworthiness	182.4670714137137	
26.0	158.89688066260715	pulse	2.0	t		36.0	female	white	2.7548746518105847	smiling	011	sub-08	2.0	4.0	011_smiling	1.0	trustworthiness	182.79208935143652	
26.0	159.50508248031656	fix	3.0		443	36.0	female	white	2.7548746518105847	smiling	011	sub-08	2.0	4.0	011_smiling	1.0	trustworthiness	183.40029116914593	3.766583525790338
26.0	159.59687109380866	pulse	3.0	t		36.0	female	white	2.7548746518105847	smiling	011	sub-08	2.0	4.0	011_smiling	1.0	trustworthiness	183.49207978263803	
26.0	160.2968452248533	pulse	3.0	t		36.0	female	white	2.7548746518105847	smiling	011	sub-08	2.0	4.0	011_smiling	1.0	trustworthiness	184.19205391368268	
26.0	160.99683505234498	pulse	3.0	t		36.0	female	white	2.7548746518105847	smiling	011	sub-08	2.0	4.0	011_smiling	1.0	trustworthiness	184.89204374117435	
26.0	161.69681944645163	pulse	3.0	t		36.0	female	white	2.7548746518105847	smiling	011	sub-08	2.0	4.0	011_smiling	1.0	trustworthiness	185.592028135281	
26.0	162.3968017275747	pulse	3.0	t		36.0	female	white	2.7548746518105847	smiling	011	sub-08	2.0	4.0	011_smiling	1.0	trustworthiness	186.29201041640408	
26.0	163.0967915550682	pulse	3.0	t		36.0	female	white	2.7548746518105847	smiling	011	sub-08	2.0	4.0	011_smiling	1.0	trustworthiness	186.99200024389756	
27.0	163.2716660061069	face	0.0		146	20.0	female	white	3.9502586549940313	smiling	091	sub-08	2.0	4.0	091_smiling	0.0		187.16687469493627	1.241639602867508
27.0	163.7967844011091	pulse	0.0	t		20.0	female	white	3.9502586549940313	smiling	091	sub-08	2.0	4.0	091_smiling	0.0		187.69199308993848	
27.0	164.4967527969111	pulse	0.0	t		20.0	female	white	3.9502586549940313	smiling	091	sub-08	2.0	4.0	091_smiling	0.0		188.39196148574047	
27.0	164.5133056089744	fix	1.0		443	20.0	female	white	3.9502586549940313	smiling	091	sub-08	2.0	4.0	091_smiling	0.0		188.40851429780378	3.758243277467045
27.0	165.19675258561256	pulse	1.0	t		20.0	female	white	3.9502586549940313	smiling	091	sub-08	2.0	4.0	091_smiling	0.0		189.09196127444193	
27.0	165.89673547044367	pulse	1.0	t		20.0	female	white	3.9502586549940313	smiling	091	sub-08	2.0	4.0	091_smiling	0.0		189.79194415927304	
27.0	166.59671473301933	pulse	1.0	t		20.0	female	white	3.9502586549940313	smiling	091	sub-08	2.0	4.0	091_smiling	0.0		190.4919234218487	
27.0	167.29670637164054	pulse	1.0	t		20.0	female	white	3.9502586549940313	smiling	091	sub-08	2.0	4.0	091_smiling	0.0		191.1919150604699	
27.0	167.99668171010308	pulse	1.0	t		20.0	female	white	3.9502586549940313	smiling	091	sub-08	2.0	4.0	091_smiling	0.0		191.89189039893245	
28.0	168.27154888644145	face	0.0		145	37.0	male	white	3.898925586947871	neutral	101	sub-08	2.0	4.0	101_neutral	1.0	dominance	192.16675757527082	1.2333355771206698
28.0	168.6966709338867	pulse	0.0	t		37.0	male	white	3.898925586947871	neutral	101	sub-08	2.0	4.0	101_neutral	1.0	dominance	192.59187962271608	
28.0	169.39666317621777	pulse	0.0	t		37.0	male	white	3.898925586947871	neutral	101	sub-08	2.0	4.0	101_neutral	1.0	dominance	193.29187186504714	
28.0	169.50488446356212	fix	1.0		176	37.0	male	white	3.898925586947871	neutral	101	sub-08	2.0	4.0	101_neutral	1.0	dominance	193.4000931523915	1.4999726821406512
28.0	169.76331202338952	response	1.0	b		37.0	male	white	3.898925586947871	neutral	101	sub-08	2.0	4.0	101_neutral	1.0	dominance	193.6585207122189	
28.0	170.0966333831493	pulse	1.0	t		37.0	male	white	3.898925586947871	neutral	101	sub-08	2.0	4.0	101_neutral	1.0	dominance	193.99184207197868	
28.0	170.79662502177052	pulse	1.0	t		37.0	male	white	3.898925586947871	neutral	101	sub-08	2.0	4.0	101_neutral	1.0	dominance	194.6918337105999	
28.0	171.00485714570277	rating	2.0		296	37.0	male	white	3.898925586947871	neutral	101	sub-08	2.0	4.0	101_neutral	1.0	dominance	194.90006583453214	2.4999440059327753
28.0	171.49663235684238	pulse	2.0	t		37.0	male	white	3.898925586947871	neutral	101	sub-08	2.0	4.0	101_neutral	1.0	dominance	195.39184104567175	
28.0	172.19659682853126	pulse	2.0	t		37.0	male	white	3.898925586947871	neutral	101	sub-08	2.0	4.0	101_neutral	1.0	dominance	196.09180551736063	
28.0	172.8965860523149	pulse	2.0	t		37.0	male	white	3.898925586947871	neutral	101	sub-08	2.0	4.0	101_neutral	1.0	dominance	196.79179474114426	
28.0	173.50480115163555	fix	3.0		443	37.0	male	white	3.898925586947871	neutral	101	sub-08	2.0	4.0	101_neutral	1.0	dominance	197.40000984046492	3.766559075551413
28.0	173.59657920021164	pulse	3.0	t		37.0	male	white	3.898925586947871	neutral	101	sub-08	2.0	4.0	101_neutral	1.0	dominance	197.491787889041	
28.0	174.2965551423822	pulse	3.0	t		37.0	male	white	3.898925586947871	neutral	101	sub-08	2.0	4.0	101_neutral	1.0	dominance	198.19176383121157	
28.0	174.99654104576257	pulse	3.0	t		37.0	male	white	3.898925586947871	neutral	101	sub-08	2.0	4.0	101_neutral	1.0	dominance	198.89174973459194	
28.0	175.6965378159166	pulse	3.0	t		37.0	male	white	3.898925586947871	neutral	101	sub-08	2.0	4.0	101_neutral	1.0	dominance	199.59174650474597	
28.0	176.39651587107255	pulse	3.0	t		37.0	male	white	3.898925586947871	neutral	101	sub-08	2.0	4.0	101_neutral	1.0	dominance	200.29172455990192	
28.0	177.09650328372663	pulse	3.0	t		37.0	male	white	3.898925586947871	neutral	101	sub-08	2.0	4.0	101_neutral	1.0	dominance	200.991711972556	
29.0	177.27136022718696	face	0.0		146	21.0	male	black	2.969757262236371	neutral	137	sub-08	2.0	4.0	137_neutral	0.0		201.16656891601633	1.2416749198800971
29.0	177.79649190380042	pulse	0.0	t		21.0	male	black	2.969757262236371	neutral	137	sub-08	2.0	4.0	137_neutral	0.0		201.6917005926298	
29.0	178.4964678459728	pulse	0.0	t		21.0	male	black	2.969757262236371	neutral	137	sub-08	2.0	4.0	137_neutral	0.0		202.39167653480217	
29.0	178.51303514706706	fix	1.0		443	21.0	male	black	2.969757262236371	neutral	137	sub-08	2.0	4.0	137_neutral	0.0		202.40824383589643	3.7582396552097634
29.0	179.1964718606414	pulse	1.0	t		21.0	male	black	2.969757262236371	neutral	137	sub-08	2.0	4.0	137_neutral	0.0		203.09168054947077	
29.0	179.89643361563685	pulse	1.0	t		21.0	male	black	2.969757262236371	neutral	137	sub-08	2.0	4.0	137_neutral	0.0		203.79164230446622	
29.0	180.59642314127632	pulse	1.0	t		21.0	male	black	2.969757262236371	neutral	137	sub-08	2.0	4.0	137_neutral	0.0		204.4916318301057	
29.0	181.29640512054357	pulse	1.0	t		21.0	male	black	2.969757262236371	neutral	137	sub-08	2.0	4.0	137_neutral	0.0		205.19161380937294	
29.0	181.99639766473047	pulse	1.0	t		21.0	male	black	2.969757262236371	neutral	137	sub-08	2.0	4.0	137_neutral	0.0		205.89160635355984	
30.0	182.27127480227682	face	0.0		145	19.0	female	white	4.298846000795861	smiling	100	sub-08	2.0	4.0	100_smiling	0.0		206.1664834911062	1.2333093157521944
30.0	182.69638145512727	pulse	0.0	t		19.0	female	white	4.298846000795861	smiling	100	sub-08	2.0	4.0	100_smiling	0.0		206.59159014395664	
30.0	183.3963761122959	pulse	0.0	t		19.0	female	white	4.298846000795861	smiling	100	sub-08	2.0	4.0	100_smiling	0.0		207.29158480112528	
30.0	183.50458411802902	fix	1.0		444	19.0	female	white	4.298846000795861	smiling	100	sub-08	2.0	4.0	100_smiling	0.0		207.3997928068584	3.766550925471165
30.0	184.09635265817815	pulse	1.0	t		19.0	female	white	4.298846000795861	smiling	100	sub-08	2.0	4.0	100_smiling	0.0		207.99156134700752	
30.0	184.79633101518812	pulse	1.0	t		19.0	female	white	4.298846000795861	smiling	100	sub-08	2.0	4.0	100_smiling	0.0		208.6915397040175	
30.0	185.49631390002105	pulse	1.0	t		19.0	female	white	4.298846000795861	smiling	100	sub-08	2.0	4.0	100_smiling	0.0		209.39152258885042	
30.0	186.19630282194885	pulse	1.0	t		19.0	female	white	4.298846000795861	smiling	100	sub-08	2.0	4.0	100_smiling	0.0		210.09151151077822	
30.0	186.89629959210288	pulse	1.0	t		19.0	female	white	4.298846000795861	smiling	100	sub-08	2.0	4.0	100_smiling	0.0		210.79150828093225	
31.0	187.27113504350018	face	0.0		145	19.0	female	white	4.298846000795861	neutral	100	sub-08	2.0	4.0	100_neutral	0.0		211.16634373232955	1.2333539902647317
31.0	187.59626134709833	pulse	0.0	t		19.0	female	white	4.298846000795861	neutral	100	sub-08	2.0	4.0	100_neutral	0.0		211.4914700359277	
31.0	188.2962686821702	pulse	0.0	t		19.0	female	white	4.298846000795861	neutral	100	sub-08	2.0	4.0	100_neutral	0.0		212.19147737099956	
31.0	188.5044890337649	fix	1.0		444	19.0	female	white	4.298846000795861	neutral	100	sub-08	2.0	4.0	100_neutral	0.0		212.39969772259428	3.7582423719031794
31.0	188.99624945401956	pulse	1.0	t		19.0	female	white	4.298846000795861	neutral	100	sub-08	2.0	4.0	100_neutral	0.0		212.89145814284893	
31.0	189.69623445183606	pulse	1.0	t		19.0	female	white	4.298846000795861	neutral	100	sub-08	2.0	4.0	100_neutral	0.0		213.59144314066543	
31.0	190.39621129957231	pulse	1.0	t		19.0	female	white	4.298846000795861	neutral	100	sub-08	2.0	4.0	100_neutral	0.0		214.29141998840169	
31.0	191.09621803093432	pulse	1.0	t		19.0	female	white	4.298846000795861	neutral	100	sub-08	2.0	4.0	100_neutral	0.0		214.9914267197637	
31.0	191.79618853971988	pulse	1.0	t		19.0	female	white	4.298846000795861	neutral	100	sub-08	2.0	4.0	100_neutral	0.0		215.69139722854925	
32.0	192.2627314056681	face	0.0		146	47.0	male	east_asian	2.171110226820533	neutral	024	sub-08	2.0	4.0	024_neutral	0.0		216.15794009449746	1.2416652605261334
32.0	192.4961880265655	pulse	0.0	t		47.0	male	east_asian	2.171110226820533	neutral	024	sub-08	2.0	4.0	024_neutral	0.0		216.39139671539488	
32.0	193.19615461123976	pulse	0.0	t		47.0	male	east_asian	2.171110226820533	neutral	024	sub-08	2.0	4.0	024_neutral	0.0		217.09136330006913	
32.0	193.50439666619422	fix	1.0		444	47.0	male	east_asian	2.171110226820533	neutral	024	sub-08	2.0	4.0	024_neutral	0.0		217.3996053550236	3.7665663200659765
32.0	193.89615953147222	pulse	1.0	t		47.0	male	east_asian	2.171110226820533	neutral	024	sub-08	2.0	4.0	024_neutral	0.0		217.7913682203016	
32.0	194.59614090703144	pulse	1.0	t		47.0	male	east_asian	2.171110226820533	neutral	024	sub-08	2.0	4.0	024_neutral	0.0		218.4913495958608	
32.0	195.296111717671	pulse	1.0	t		47.0	male	east_asian	2.171110226820533	neutral	024	sub-08	2.0	4.0	024_neutral	0.0		219.19132040650038	
32.0	195.9961015451645	pulse	1.0	t		47.0	male	east_asian	2.171110226820533	neutral	024	sub-08	2.0	4.0	024_neutral	0.0		219.89131023399386	
32.0	196.69609408934957	pulse	1.0	t		47.0	male	east_asian	2.171110226820533	neutral	024	sub-08	2.0	4.0	024_neutral	0.0		220.59130277817894	
33.0	197.2709629862602	face	0.0		145	19.0	male	white	2.243931555909272	smiling	130	sub-08	2.0	4.0	130_smiling	0.0		221.16617167508957	1.233321088091543
33.0	197.39608753910034	pulse	0.0	t		19.0	male	white	2.243931555909272	smiling	130	sub-08	2.0	4.0	130_smiling	0.0		221.2912962279297	
33.0	198.0960746499004	pulse	0.0	t		19.0	male	white	2.243931555909272	smiling	130	sub-08	2.0	4.0	130_smiling	0.0		221.99128333872977	
33.0	198.50428407435174	fix	1.0		444	19.0	male	white	2.243931555909272	smiling	130	sub-08	2.0	4.0	130_smiling	0.0		222.39949276318112	3.7665744701462245
33.0	198.7960457623958	pulse	1.0	t		19.0	male	white	2.243931555909272	smiling	130	sub-08	2.0	4.0	130_smiling	0.0		222.69125445122518	
33.0	199.49603679730717	pulse	1.0	t		19.0	male	white	2.243931555909272	smiling	130	sub-08	2.0	4.0	130_smiling	0.0		223.39124548613654	
33.0	200.19601545617297	pulse	1.0	t		19.0	male	white	2.243931555909272	smiling	130	sub-08	2.0	4.0	130_smiling	0.0		224.09122414500234	
33.0	200.89599803915007	pulse	1.0	t		19.0	male	white	2.243931555909272	smiling	130	sub-08	2.0	4.0	130_smiling	0.0		224.79120672797944	
33.0	201.59599118704682	pulse	1.0	t		19.0	male	white	2.243931555909272	smiling	130	sub-08	2.0	4.0	130_smiling	0.0		225.4911998758762	
34.0	202.27085854449797	face	0.0		145	21.0	male	black	2.969757262236371	smiling	137	sub-08	2.0	4.0	137_smiling	0.0		226.16606723332734	1.2333225973634399
34.0	202.29598795719903	pulse	0.0	t		21.0	male	black	2.969757262236371	smiling	137	sub-08	2.0	4.0	137_smiling	0.0		226.1911966460284	
34.0	202.995960880824	pulse	0.0	t		21.0	male	black	2.969757262236371	smiling	137	sub-08	2.0	4.0	137_smiling	0.0		226.89116956965336	
34.0	203.5041811418614	fix	1.0		443	21.0	male	black	2.969757262236371	smiling	137	sub-08	2.0	4.0	137_smiling	0.0		227.39938983069078	3.766574772002059
34.0	203.6959473879142	pulse	1.0	t		21.0	male	black	2.969757262236371	smiling	137	sub-08	2.0	4.0	137_smiling	0.0		227.59115607674357	
34.0	204.39592272637674	pulse	1.0	t		21.0	male	black	2.969757262236371	smiling	137	sub-08	2.0	4.0	137_smiling	0.0		228.2911314152061	
34.0	205.0959074223374	pulse	1.0	t		21.0	male	black	2.969757262236371	smiling	137	sub-08	2.0	4.0	137_smiling	0.0		228.99111611116678	
34.0	205.79589785354074	pulse	1.0	t		21.0	male	black	2.969757262236371	smiling	137	sub-08	2.0	4.0	137_smiling	0.0		229.6911065423701	
34.0	206.49592028135157	pulse	1.0	t		21.0	male	black	2.969757262236371	smiling	137	sub-08	2.0	4.0	137_smiling	0.0		230.39112897018094	
34.0	207.19587479183247	pulse	1.0	t		21.0	male	black	2.969757262236371	smiling	137	sub-08	2.0	4.0	137_smiling	0.0		231.09108348066184	
35.0	207.27075591386347	face	0.0		146	28.0	male	white	3.9076800636689217	smiling	033	sub-08	2.0	4.0	033_smiling	0.0		231.16596460269284	1.2333093157521944
35.0	207.89591080311038	pulse	0.0	t		28.0	male	white	3.9076800636689217	smiling	033	sub-08	2.0	4.0	033_smiling	0.0		231.79111949193975	
35.0	208.50406522961566	fix	1.0		442	28.0	male	white	3.9076800636689217	smiling	033	sub-08	2.0	4.0	033_smiling	0.0		232.39927391844503	3.7665799035330565
35.0	208.59585867278656	pulse	1.0	t		28.0	male	white	3.9076800636689217	smiling	033	sub-08	2.0	4.0	033_smiling	0.0		232.49106736161593	
35.0	209.2958454817308	pulse	1.0	t		28.0	male	white	3.9076800636689217	smiling	033	sub-08	2.0	4.0	033_smiling	0.0		233.19105417056016	
35.0	209.99581055712952	pulse	1.0	t		28.0	male	white	3.9076800636689217	smiling	033	sub-08	2.0	4.0	033_smiling	0.0		233.8910192459589	
35.0	210.0037795240405	response	1.0	b		28.0	male	white	3.9076800636689217	smiling	033	sub-08	2.0	4.0	033_smiling	0.0		233.89898821286988	
35.0	210.69576929357754	pulse	1.0	t		28.0	male	white	3.9076800636689217	smiling	033	sub-08	2.0	4.0	033_smiling	0.0		234.5909779824069	
35.0	211.39579021211648	pulse	1.0	t		28.0	male	white	3.9076800636689217	smiling	033	sub-08	2.0	4.0	033_smiling	0.0		235.29099890094585	
35.0	212.0957691728363	pulse	1.0	t		28.0	male	white	3.9076800636689217	smiling	033	sub-08	2.0	4.0	033_smiling	0.0		235.99097786166567	
36.0	212.27064513314872	face	0.0		146	40.0	female	west_asian	1.5777954635893354	neutral	038	sub-08	2.0	4.0	038_neutral	0.0		236.1658538219781	1.2416468473838904
36.0	212.79575507621666	pulse	0.0	t		40.0	female	west_asian	1.5777954635893354	neutral	038	sub-08	2.0	4.0	038_neutral	0.0		236.69096376504604	
36.0	213.4957430925806	pulse	0.0	t		40.0	female	west_asian	1.5777954635893354	neutral	038	sub-08	2.0	4.0	038_neutral	0.0		237.39095178140997	
36.0	213.5122919805326	fix	1.0		443	40.0	female	west_asian	1.5777954635893354	neutral	038	sub-08	2.0	4.0	038_neutral	0.0		237.40750066936198	3.758256257222456
36.0	214.1957280903971	pulse	1.0	t		40.0	female	west_asian	1.5777954635893354	neutral	038	sub-08	2.0	4.0	038_neutral	0.0		238.09093677922647	
36.0	214.89571761603474	pulse	1.0	t		40.0	female	west_asian	1.5777954635893354	neutral	038	sub-08	2.0	4.0	038_neutral	0.0		238.79092630486412	
36.0	215.59569084151371	pulse	1.0	t		40.0	female	west_asian	1.5777954635893354	neutral	038	sub-08	2.0	4.0	038_neutral	0.0		239.49089953034309	
36.0	216.2956794615875	pulse	1.0	t		40.0	female	west_asian	1.5777954635893354	neutral	038	sub-08	2.0	4.0	038_neutral	0.0		240.19088815041687	
36.0	216.99566928907916	pulse	1.0	t		40.0	female	west_asian	1.5777954635893354	neutral	038	sub-08	2.0	4.0	038_neutral	0.0		240.89087797790853	
37.0	217.27054823775507	face	0.0		145	20.0	male	black	3.1070433744528456	smiling	082	sub-08	2.0	4.0	082_smiling	0.0		241.16575692658444	1.2333247103488247
37.0	217.6956548906055	pulse	0.0	t		20.0	male	black	3.1070433744528456	smiling	082	sub-08	2.0	4.0	082_smiling	0.0		241.59086357943488	
37.0	218.39562570124508	pulse	0.0	t		20.0	male	black	3.1070433744528456	smiling	082	sub-08	2.0	4.0	082_smiling	0.0		242.29083439007445	
37.0	218.5038729481039	fix	1.0		444	20.0	male	black	3.1070433744528456	smiling	082	sub-08	2.0	4.0	082_smiling	0.0		242.39908163693326	3.7665669237758266
37.0	219.09562518809253	pulse	1.0	t		20.0	male	black	3.1070433744528456	smiling	082	sub-08	2.0	4.0	082_smiling	0.0		242.9908338769219	
37.0	219.79560928034334	pulse	1.0	t		20.0	male	black	3.1070433744528456	smiling	082	sub-08	2.0	4.0	082_smiling	0.0		243.6908179691727	
37.0	220.49559276888613	pulse	1.0	t		20.0	male	black	3.1070433744528456	smiling	082	sub-08	2.0	4.0	082_smiling	0.0		244.3908014577155	
37.0	221.19558229452377	pulse	1.0	t		20.0	male	black	3.1070433744528456	smiling	082	sub-08	2.0	4.0	082_smiling	0.0		245.09079098335314	
37.0	221.8955612552436	pulse	1.0	t		20.0	male	black	3.1070433744528456	smiling	082	sub-08	2.0	4.0	082_smiling	0.0		245.79076994407296	
38.0	222.27043987187972	face	0.0		145	21.0	male	east_asian/white	3.501790688420215	smiling	036	sub-08	2.0	4.0	036_smiling	0.0		246.1656485607091	1.2333216917995742
38.0	222.59555742168777	pulse	0.0	t		21.0	male	east_asian/white	3.501790688420215	smiling	036	sub-08	2.0	4.0	036_smiling	0.0		246.49076611051714	
38.0	223.2955351749897	pulse	0.0	t		21.0	male	east_asian/white	3.501790688420215	smiling	036	sub-08	2.0	4.0	036_smiling	0.0		247.19074386381908	
38.0	223.5037615636793	fix	1.0		444	21.0	male	east_asian/white	3.501790688420215	smiling	036	sub-08	2.0	4.0	036_smiling	0.0		247.39897025250866	3.766578997969191
38.0	223.99554251006157	pulse	1.0	t		21.0	male	east_asian/white	3.501790688420215	smiling	036	sub-08	2.0	4.0	036_smiling	0.0		247.89075119889094	
38.0	224.69551754666827	pulse	1.0	t		21.0	male	east_asian/white	3.501790688420215	smiling	036	sub-08	2.0	4.0	036_smiling	0.0		248.59072623549764	
38.0	225.39550224262894	pulse	1.0	t		21.0	male	east_asian/white	3.501790688420215	smiling	036	sub-08	2.0	4.0	036_smiling	0.0		249.2907109314583	
38.0	226.09548452375202	pulse	1.0	t		21.0	male	east_asian/white	3.501790688420215	smiling	036	sub-08	2.0	4.0	036_smiling	0.0		249.9906932125814	
38.0	226.79546318261782	pulse	1.0	t		21.0	male	east_asian/white	3.501790688420215	smiling	036	sub-08	2.0	4.0	036_smiling	0.0		250.6906718714472	
39.0	227.27034056164848	face	0.0		145	24.0	male	white	3.1153999204138483	smiling	012	sub-08	2.0	4.0	012_smiling	0.0		251.16554925047785	1.2333228992192744
39.0	227.49546176389958	pulse	0.0	t		24.0	male	white	3.1153999204138483	smiling	012	sub-08	2.0	4.0	012_smiling	0.0		251.39067045272895	
39.0	228.19543257453915	pulse	0.0	t		24.0	male	white	3.1153999204138483	smiling	012	sub-08	2.0	4.0	012_smiling	0.0		252.09064126336852	
39.0	228.50366346086776	fix	1.0		444	24.0	male	white	3.1153999204138483	smiling	012	sub-08	2.0	4.0	012_smiling	0.0		252.39887214969713	3.749911179222181
39.0	228.89543025025887	pulse	1.0	t		24.0	male	white	3.1153999204138483	smiling	012	sub-08	2.0	4.0	012_smiling	0.0		252.79063893908824	
39.0	229.59541373879983	pulse	1.0	t		24.0	male	white	3.1153999204138483	smiling	012	sub-08	2.0	4.0	012_smiling	0.0		253.4906224276292	
39.0	230.29538485129524	pulse	1.0	t		24.0	male	white	3.1153999204138483	smiling	012	sub-08	2.0	4.0	012_smiling	0.0		254.1905935401246	
39.0	230.9953743769329	pulse	1.0	t		24.0	male	white	3.1153999204138483	smiling	012	sub-08	2.0	4.0	012_smiling	0.0		254.89058306576226	
39.0	231.69536269515265	pulse	1.0	t		24.0	male	white	3.1153999204138483	smiling	012	sub-08	2.0	4.0	012_smiling	0.0		255.59057138398202	
40.0	232.25357464008994	fix	0.0		720													256.1487833289193	5.999884389608269
40.0	232.39536037087055	pulse	0.0	t														256.2905690596999	
40.0	233.09534084086408	pulse	0.0	t														256.99054952969345	
40.0	233.79532372569702	pulse	0.0	t														257.6905324145264	
40.0	234.49531325133466	pulse	0.0	t														258.39052194016404	
40.0	235.19529462689388	pulse	0.0	t														259.09050331572325	
40.0	235.8952735876137	pulse	0.0	t														259.7904822764431	
40.0	236.59525647244482	pulse	0.0	t														260.4904651612742	
40.0	237.2952450925186	pulse	0.0	t														261.19045378134797	
40.0	237.99522737364168	pulse	0.0	t														261.89043606247105	
