trial_nr	onset	event_type	phase	response	nr_frames	trial_type	stim_name	task_probe	onset_abs	duration
0.0	0.054894983837129985	baseline	0.0		701		baseline	0.0	42.74348503156307	5.849599637293522
0.0	0.7047726881000926	pulse	0.0	t			baseline	0.0	43.39336273582603	
0.0	1.4047326322092886	pulse	0.0	t			baseline	0.0	44.09332267993523	
0.0	2.104715517144996	pulse	0.0	t			baseline	0.0	44.793305564870934	
0.0	2.804698703933809	pulse	0.0	t			baseline	0.0	45.49328875165975	
0.0	3.5046767592216383	pulse	0.0	t			baseline	0.0	46.19326680694758	
0.0	4.204653908950604	pulse	0.0	t			baseline	0.0	46.89324395667654	
0.0	4.904647056887825	pulse	0.0	t			baseline	0.0	47.59323710461376	
0.0	5.604620584381337	pulse	0.0	t			baseline	0.0	48.293210632107275	
0.0	5.904494621130652	ISI	1.0		0		baseline	0.0	48.59308466885659	0.17501285139087486
1.0	6.079507472521527	number	0.0		39	character	number-1.jpg	0.0	48.768097520247466	0.32495952906083403
1.0	6.304580226636972	pulse	0.0	t		character	number-1.jpg	0.0	48.99317027436291	
1.0	6.404467001582361	ISI	1.0		235	character	number-1.jpg	0.0	49.0930570493083	2.0166179123789334
1.0	7.004606276549566	pulse	1.0	t		character	number-1.jpg	0.0	49.693196324275505	
1.0	7.704581615160805	pulse	1.0	t		character	number-1.jpg	0.0	50.39317166288674	
2.0	8.421084913961295	number	0.0		45	character	number-2.jpg	0.0	51.10967496168723	0.3833200870180917
2.0	8.412741093752174	pulse	0.0	t		character	number-2.jpg	0.0	51.10133114147811	
2.0	8.804405000979386	ISI	1.0		230	character	number-2.jpg	0.0	51.492995048705325	2.016648097677262
2.0	9.104546479473356	pulse	1.0	t		character	number-2.jpg	0.0	51.793136527199295	
2.0	9.804525742173155	pulse	1.0	t		character	number-2.jpg	0.0	52.49311578989909	
2.0	10.504508928961968	pulse	1.0	t		character	number-2.jpg	0.0	53.19309897668791	
3.0	10.821053098656648	house	0.0		46	place	house-39.jpg	0.0	53.50964314638259	0.38325247194961776
3.0	11.204305570606266	ISI	1.0		353	place	house-39.jpg	0.0	53.892895618332204	3.0166058382592382
3.0	11.258651182010908	pulse	1.0	t		place	house-39.jpg	0.0	53.947241229736846	
3.0	11.904406781911803	pulse	1.0	t		place	house-39.jpg	0.0	54.59299682963774	
3.0	12.604380611257966	pulse	1.0	t		place	house-39.jpg	0.0	55.292970658983904	
3.0	13.304355648016099	pulse	1.0	t		place	house-39.jpg	0.0	55.99294569574204	
3.0	14.004336118128322	pulse	1.0	t		place	house-39.jpg	0.0	56.69292616585426	
4.0	14.220911408865504	adult	0.0		46	face	adult-63.jpg	0.0	56.90950145659144	0.3833104277223356
4.0	14.60422183658784	ISI	1.0		233	face	adult-63.jpg	0.0	57.29281188431378	2.0166447772944593
4.0	14.704347980950388	pulse	1.0	t		face	adult-63.jpg	0.0	57.392938028676326	
4.0	15.404308528765341	pulse	1.0	t		face	adult-63.jpg	0.0	58.09289857649128	
4.0	16.10429080999529	pulse	1.0	t		face	adult-63.jpg	0.0	58.79288085772123	
5.0	16.6208666138823	adult	0.0		46	face	adult-126.jpg	0.0	59.30945666160824	0.38331887960657696
5.0	16.80429271166895	pulse	0.0	t		face	adult-126.jpg	0.0	59.49288275939489	
5.0	17.004185493488876	ISI	1.0		476	face	adult-126.jpg	0.0	59.692775541214814	4.016575049254698
5.0	17.504340796849192	pulse	1.0	t		face	adult-126.jpg	0.0	60.19293084457513	
5.0	18.20429711872248	pulse	1.0	t		face	adult-126.jpg	0.0	60.89288716644842	
5.0	18.904286946276898	pulse	1.0	t		face	adult-126.jpg	0.0	61.592876994002836	
5.0	19.604263794152757	pulse	1.0	t		face	adult-126.jpg	0.0	62.292853841878696	
5.0	20.30424698094157	pulse	1.0	t		face	adult-126.jpg	0.0	62.99283702866751	
6.0	21.020760542743574	adult	0.0		45	face	adult-126.jpg	1.0	63.70935059046951	0.38330620178066965
6.0	21.01249822284035	pulse	0.0	t		face	adult-126.jpg	1.0	63.70108827056629	
6.0	21.404066744524243	ISI	1.0		233	face	adult-126.jpg	1.0	64.09265679225018	2.0166562477079424
6.0	21.704213958224955	pulse	1.0	t		face	adult-126.jpg	1.0	64.3928040059509	
6.0	21.804205174303206	response	1.0	b		face	adult-126.jpg	1.0	64.49279522202914	
6.0	22.404179939393543	pulse	1.0	t		face	adult-126.jpg	1.0	65.09276998711948	
6.0	23.10416946509531	pulse	1.0	t		face	adult-126.jpg	1.0	65.79275951282125	
7.0	23.420722992232186	number	0.0		46	character	number-35.jpg	0.0	66.10931303995812	0.3832533775084812
7.0	23.803976369740667	ISI	1.0		473	character	number-35.jpg	0.0	66.4925664174666	4.016591349316059
7.0	23.85704393560718	pulse	1.0	t		character	number-35.jpg	0.0	66.54563398333312	
7.0	24.504089957019005	pulse	1.0	t		character	number-35.jpg	0.0	67.19268000474494	
7.0	25.20404567518608	pulse	1.0	t		character	number-35.jpg	0.0	67.89263572291202	
7.0	25.904024636033228	pulse	1.0	t		character	number-35.jpg	0.0	68.59261468375917	
7.0	26.604009030233556	pulse	1.0	t		character	number-35.jpg	0.0	69.2925990779595	
7.0	27.30399161331661	pulse	1.0	t		character	number-35.jpg	0.0	69.99258166104255	
8.0	27.820567719056726	number	0.0		46	character	number-107.jpg	0.0	70.50915776678266	0.3832877887489303
8.0	28.00397781863512	pulse	0.0	t		character	number-107.jpg	0.0	70.69256786636106	
8.0	28.203855507805656	ISI	1.0		474	character	number-107.jpg	0.0	70.8924455555316	4.016622440173251
8.0	28.703959798011965	pulse	1.0	t		character	number-107.jpg	0.0	71.3925498457379	
8.0	29.403939966270627	pulse	1.0	t		character	number-107.jpg	0.0	72.09253001399657	
8.0	30.103980806979507	pulse	1.0	t		character	number-107.jpg	0.0	72.79257085470545	
8.0	30.80397093638703	pulse	1.0	t		character	number-107.jpg	0.0	73.49256098411297	
8.0	31.503938426820696	pulse	1.0	t		character	number-107.jpg	0.0	74.19252847454663	
9.0	32.22047794797891	limb	0.0		45	body	limb-76.jpg	0.0	74.90906799570485	0.38329533507339875
9.0	32.212235248519846	pulse	0.0	t		body	limb-76.jpg	0.0	74.90082529624578	
9.0	32.603773283052305	ISI	1.0		233	body	limb-76.jpg	0.0	75.29236333077824	2.016628477233553
9.0	32.90391385598741	pulse	1.0	t		body	limb-76.jpg	0.0	75.59250390371335	
9.0	33.60389160942259	pulse	1.0	t		body	limb-76.jpg	0.0	76.29248165714853	
9.0	34.303890190713446	pulse	1.0	t		body	limb-76.jpg	0.0	76.99248023843938	
10.0	34.62040176028586	number	0.0		46	character	number-93.jpg	0.0	77.3089918080118	0.38327269609953873
10.0	35.0036744563854	ISI	1.0		353	character	number-93.jpg	0.0	77.69226450411134	3.0166203272024177
10.0	35.054076358541806	pulse	1.0	t		character	number-93.jpg	0.0	77.74266640626774	
10.0	35.70377506398518	pulse	1.0	t		character	number-93.jpg	0.0	78.39236511171111	
10.0	36.40374195071263	pulse	1.0	t		character	number-93.jpg	0.0	79.09233199843857	
10.0	37.103736909767576	pulse	1.0	t		character	number-93.jpg	0.0	79.79232695749351	
10.0	37.80370922984912	pulse	1.0	t		character	number-93.jpg	0.0	80.49229927757506	
11.0	38.020294783587815	limb	0.0		46	body	limb-38.jpg	0.0	80.70888483131375	0.3832865813369608
11.0	38.403581364924776	ISI	1.0		228	body	limb-38.jpg	0.0	81.09217141265071	2.0166511162069582
11.0	38.503763653942315	pulse	1.0	t		body	limb-38.jpg	0.0	81.19235370166825	
11.0	39.20367499972053	pulse	1.0	t		body	limb-38.jpg	0.0	81.89226504744647	
11.0	39.903645508683894	pulse	1.0	t		body	limb-38.jpg	0.0	82.59223555640983	
12.0	40.420232481131734	adult	0.0		46	face	adult-144.jpg	0.0	83.10882252885767	0.38331223884051724
12.0	40.60363775106225	pulse	0.0	t		face	adult-144.jpg	0.0	83.29222779878819	
12.0	40.80354471997225	ISI	1.0		233	face	adult-144.jpg	0.0	83.49213476769819	2.0166426643236264
12.0	41.30369187330234	pulse	1.0	t		face	adult-144.jpg	0.0	83.99228192102828	
12.0	42.00366781561934	pulse	1.0	t		face	adult-144.jpg	0.0	84.69225786334528	
12.0	42.70365522835027	pulse	1.0	t		face	adult-144.jpg	0.0	85.39224527607621	
13.0	42.82018738429588	car	0.0		46	object	car-103.jpg	0.0	85.50877743202182	0.38326997942249363
13.0	43.20345736371837	ISI	1.0		472	object	car-103.jpg	0.0	85.89204741144431	4.016606140112344
13.0	43.403567479687354	pulse	1.0	t		object	car-103.jpg	0.0	86.09215752741329	
13.0	44.10353647938564	pulse	1.0	t		object	car-103.jpg	0.0	86.79212652711158	
13.0	44.80352117543953	pulse	1.0	t		object	car-103.jpg	0.0	87.49211122316547	
13.0	45.50350738075804	pulse	1.0	t		object	car-103.jpg	0.0	88.19209742848398	
13.0	46.20348573789897	pulse	1.0	t		object	car-103.jpg	0.0	88.89207578562491	
13.0	46.90353321937346	pulse	1.0	t		object	car-103.jpg	0.0	89.5921232670994	
14.0	47.220063503830715	house	0.0		46	place	house-19.jpg	0.0	89.90865355155665	0.3832654516281764
14.0	47.60332895545889	ISI	1.0		233	place	house-19.jpg	0.0	90.29191900318483	2.0166921682130123
14.0	47.65729906175011	pulse	1.0	t		place	house-19.jpg	0.0	90.34588910947605	
14.0	48.30341265929155	pulse	1.0	t		place	house-19.jpg	0.0	90.99200270701749	
14.0	49.003479459357095	pulse	1.0	t		place	house-19.jpg	0.0	91.69206950708303	
15.0	49.620021123671904	house	0.0		46	place	house-85.jpg	0.0	92.30861117139784	0.3832527738022691
15.0	49.70339593663584	pulse	0.0	t		place	house-85.jpg	0.0	92.39198598436178	
15.0	50.00327389747417	ISI	1.0		354	place	house-85.jpg	0.0	92.69186394520011	3.016603423435299
15.0	50.40337791601269	pulse	1.0	t		place	house-85.jpg	0.0	93.09196796373863	
15.0	51.103356876859834	pulse	1.0	t		place	house-85.jpg	0.0	93.79194692458577	
15.0	51.80338685086099	pulse	1.0	t		place	house-85.jpg	0.0	94.49197689858693	
15.0	52.503321741172385	pulse	1.0	t		place	house-85.jpg	0.0	95.19191178889832	
16.0	53.01987732090947	house	0.0		46	place	house-67.jpg	0.0	95.70846736863541	0.38330650363423047
16.0	53.20330432425499	pulse	0.0	t		place	house-67.jpg	0.0	95.89189437198092	
16.0	53.4031838245437	ISI	1.0		232	place	house-67.jpg	0.0	96.09177387226964	2.016629986497719
16.0	53.903282077690164	pulse	1.0	t		place	house-67.jpg	0.0	96.5918721254161	
16.0	54.60325983112534	pulse	1.0	t		place	house-67.jpg	0.0	97.29184987885128	
16.0	55.303256299445366	pulse	1.0	t		place	house-67.jpg	0.0	97.9918463471713	
17.0	55.41981381104142	adult	0.0		46	face	adult-73.jpg	0.0	98.10840385876736	0.383339405609604
17.0	55.803153216651026	ISI	1.0		836	face	adult-73.jpg	0.0	98.49174326437696	7.016516187922662
17.0	56.00329804571311	pulse	1.0	t		face	adult-73.jpg	0.0	98.69188809343905	
17.0	56.703290891797224	pulse	1.0	t		face	adult-73.jpg	0.0	99.39188093952316	
17.0	57.40325958964286	pulse	1.0	t		face	adult-73.jpg	0.0	100.0918496373688	
17.0	58.10323794678379	pulse	1.0	t		face	adult-73.jpg	0.0	100.79182799450973	
17.0	58.803222340984576	pulse	1.0	t		face	adult-73.jpg	0.0	101.49181238871051	
17.0	59.50319949071354	pulse	1.0	t		face	adult-73.jpg	0.0	102.19178953843948	
17.0	60.20318358306122	pulse	1.0	t		face	adult-73.jpg	0.0	102.89177363078716	
17.0	60.9031712976448	pulse	1.0	t		face	adult-73.jpg	0.0	103.59176134537074	
17.0	61.603146334402936	pulse	1.0	t		face	adult-73.jpg	0.0	104.29173638212887	
17.0	62.30312861563243	pulse	1.0	t		face	adult-73.jpg	0.0	104.99171866335837	
18.0	62.81966940457369	adult	0.0		46	face	adult-73.jpg	1.0	105.50825945229963	0.38324522747780065
18.0	63.003058978149056	pulse	0.0	t		face	adult-73.jpg	1.0	105.691649025875	
18.0	63.20291463205149	ISI	1.0		233	face	adult-73.jpg	1.0	105.89150467977743	2.016652625472034
18.0	63.49477990540527	response	1.0	b		face	adult-73.jpg	1.0	106.1833699531312	
18.0	63.703018016698934	pulse	1.0	t		face	adult-73.jpg	1.0	106.39160806442487	
18.0	64.40300150534085	pulse	1.0	t		face	adult-73.jpg	1.0	107.09159155306679	
18.0	65.10298921992398	pulse	1.0	t		face	adult-73.jpg	1.0	107.79157926764992	
19.0	65.21956725752352	limb	0.0		46	body	limb-120.jpg	0.0	107.90815730524946	0.38329352395567184
19.0	65.6028607814792	ISI	1.0		352	body	limb-120.jpg	0.0	108.29145082920513	3.0166148938487822
19.0	65.8029696900362	pulse	1.0	t		body	limb-120.jpg	0.0	108.49155973776215	
19.0	66.50293989714646	pulse	1.0	t		body	limb-120.jpg	0.0	109.1915299448724	
19.0	67.20293244137747	pulse	1.0	t		body	limb-120.jpg	0.0	109.89152248910341	
19.0	67.90291743928447	pulse	1.0	t		body	limb-120.jpg	0.0	110.5915074870104	
20.0	68.61947567532798	number	0.0		45	character	number-98.jpg	0.0	111.30806572305391	0.3833158610764258
20.0	68.61121727951377	pulse	0.0	t		character	number-98.jpg	0.0	111.2998073272397	
20.0	69.0027915364044	ISI	1.0		955	character	number-98.jpg	0.0	111.69138158413034	8.016483285947288
20.0	69.30294629642958	pulse	1.0	t		character	number-98.jpg	0.0	111.99153634415552	
20.0	69.53627442783	response	1.0	b		character	number-98.jpg	0.0	112.22486447555593	
20.0	70.002936123984	pulse	1.0	t		character	number-98.jpg	0.0	112.69152617170994	
20.0	70.70291538668425	pulse	1.0	t		character	number-98.jpg	0.0	113.39150543441019	
20.0	71.40288076414663	pulse	1.0	t		character	number-98.jpg	0.0	114.09147081187257	
20.0	72.10287028984794	pulse	1.0	t		character	number-98.jpg	0.0	114.79146033757388	
20.0	72.8028462321654	pulse	1.0	t		character	number-98.jpg	0.0	115.49143627989133	
20.0	73.50282700413027	pulse	1.0	t		character	number-98.jpg	0.0	116.1914170518562	
20.0	74.20282226503832	pulse	1.0	t		character	number-98.jpg	0.0	116.89141231276426	
20.0	74.90279156658971	pulse	1.0	t		character	number-98.jpg	0.0	117.59138161431565	
20.0	75.60277445152542	pulse	1.0	t		character	number-98.jpg	0.0	118.29136449925136	
20.0	76.30274767716583	pulse	1.0	t		character	number-98.jpg	0.0	118.99133772489176	
21.0	77.01927482235169	house	0.0		45	place	house-7.jpg	0.0	119.70786487007763	0.3832983536035499
21.0	77.01180848876993	pulse	0.0	t		place	house-7.jpg	0.0	119.70039853649587	
21.0	77.40257317595524	ISI	1.0		233	place	house-7.jpg	0.0	120.09116322368118	2.0166535310308973
21.0	77.70272189892057	pulse	1.0	t		place	house-7.jpg	0.0	120.39131194664651	
21.0	78.40269301159015	pulse	1.0	t		place	house-7.jpg	0.0	121.09128305931608	
21.0	79.10268646138047	pulse	1.0	t		place	house-7.jpg	0.0	121.79127650910641	
22.0	79.41922670698614	car	0.0		46	object	car-19.jpg	0.0	122.10781675471208	0.3832551886262081
22.0	79.80248189561235	ISI	1.0		353	object	car-19.jpg	0.0	122.49107194333828	3.016621534614387
22.0	79.8548856867651	pulse	1.0	t		object	car-19.jpg	0.0	122.54347573449104	
22.0	80.50259095509591	pulse	1.0	t		object	car-19.jpg	0.0	123.19118100282185	
22.0	81.20255210661662	pulse	1.0	t		object	car-19.jpg	0.0	123.89114215434256	
22.0	81.9025675916746	pulse	1.0	t		object	car-19.jpg	0.0	124.59115763940054	
22.0	82.60252240428281	pulse	1.0	t		object	car-19.jpg	0.0	125.29111245200875	
23.0	82.81910343022673	house	0.0		46	place	house-46.jpg	0.0	125.50769347795267	0.3832911091317328
23.0	83.20239453935847	ISI	1.0		231	place	house-46.jpg	0.0	125.8909845870844	2.0166444754413533
23.0	83.30250528921852	pulse	1.0	t		place	house-46.jpg	0.0	125.99109533694445	
23.0	84.00247579818188	pulse	1.0	t		place	house-46.jpg	0.0	126.69106584590781	
23.0	84.70246532388364	pulse	1.0	t		place	house-46.jpg	0.0	127.39105537160958	
24.0	85.21903901479982	limb	0.0		46	body	limb-24.jpg	0.0	127.90762906252576	0.3833197851654404
24.0	85.40245213290791	pulse	0.0	t		body	limb-24.jpg	0.0	128.09104218063385	
24.0	85.60235879996526	ISI	1.0		233	body	limb-24.jpg	0.0	128.2909488476912	2.0166477958241558
24.0	86.10249870882353	pulse	1.0	t		body	limb-24.jpg	0.0	128.79108875654947	
24.0	86.80247555669985	pulse	1.0	t		body	limb-24.jpg	0.0	129.49106560442578	
24.0	87.50246025275328	pulse	1.0	t		body	limb-24.jpg	0.0	130.19105030047922	
25.0	87.61900659578941	limb	0.0		46	body	limb-48.jpg	0.0	130.30759664351535	0.3832585090090106
25.0	88.00226510479843	ISI	1.0		232	body	limb-48.jpg	0.0	130.69085515252436	2.0166450791475654
25.0	88.20237039111998	pulse	1.0	t		body	limb-48.jpg	0.0	130.89096043884592	
25.0	88.90235176679062	pulse	1.0	t		body	limb-48.jpg	0.0	131.59094181451655	
25.0	89.60232921837269	pulse	1.0	t		body	limb-48.jpg	0.0	132.29091926609863	
26.0	90.01891018394599	car	0.0		46	object	car-62.jpg	0.0	132.70750023167193	0.3832905054255207
26.0	90.30231300886726	pulse	0.0	t		object	car-62.jpg	0.0	132.9909030565932	
26.0	90.40220068937151	ISI	1.0		355	object	car-62.jpg	0.0	133.09079073709745	3.0166206290555238
26.0	91.00229589380297	pulse	1.0	t		object	car-62.jpg	0.0	133.6908859415289	
26.0	91.70230896403746	pulse	1.0	t		object	car-62.jpg	0.0	134.3908990117634	
26.0	92.4022559284681	pulse	1.0	t		object	car-62.jpg	0.0	135.09084597619403	
26.0	93.10224243563925	pulse	1.0	t		object	car-62.jpg	0.0	135.7908324833652	
27.0	93.41882131842704	house	0.0		46	place	house-45.jpg	0.0	136.10741136615297	0.3833243129602124
27.0	93.80214563138725	ISI	1.0		234	place	house-45.jpg	0.0	136.4907356791132	2.016645984706429
27.0	93.8442668006087	pulse	1.0	t		place	house-45.jpg	0.0	136.53285684833463	
27.0	94.50227823540354	pulse	1.0	t		place	house-45.jpg	0.0	137.19086828312948	
27.0	95.20225387586743	pulse	1.0	t		place	house-45.jpg	0.0	137.89084392359337	
28.0	95.81879161609368	number	0.0		46	character	number-28.jpg	0.0	138.50738166381961	0.3832539812142386
28.0	95.90216582535186	pulse	0.0	t		character	number-28.jpg	0.0	138.5907558730778	
28.0	96.20204559730792	ISI	1.0		713	character	number-28.jpg	0.0	138.89063564503385	6.016568408489093
28.0	96.6021441824928	pulse	1.0	t		character	number-28.jpg	0.0	139.29073423021873	
28.0	97.30212918039933	pulse	1.0	t		character	number-28.jpg	0.0	139.99071922812527	
28.0	98.00210421715747	pulse	1.0	t		character	number-28.jpg	0.0	140.6906942648834	
28.0	98.70209706324204	pulse	1.0	t		character	number-28.jpg	0.0	141.39068711096797	
28.0	99.40209292785585	pulse	1.0	t		character	number-28.jpg	0.0	142.09068297558179	
28.0	100.10206856832019	pulse	1.0	t		character	number-28.jpg	0.0	142.79065861604613	
28.0	100.80205205696166	pulse	1.0	t		character	number-28.jpg	0.0	143.4906421046876	
28.0	101.50201351033547	pulse	1.0	t		character	number-28.jpg	0.0	144.1906035580614	
29.0	102.21861400579701	car	0.0		45	object	car-143.jpg	0.0	144.90720405352295	0.38329292024991446
29.0	102.2103589303656	pulse	0.0	t		object	car-143.jpg	0.0	144.89894897809154	
29.0	102.60190692604692	ISI	1.0		353	object	car-143.jpg	0.0	145.29049697377286	3.016623043879463
29.0	102.90207406204445	pulse	1.0	t		object	car-143.jpg	0.0	145.5906641097704	
29.0	103.60202525241675	pulse	1.0	t		object	car-143.jpg	0.0	146.2906153001427	
29.0	104.30201900406018	pulse	1.0	t		object	car-143.jpg	0.0	146.99060905178612	
29.0	105.0019870981996	pulse	1.0	t		object	car-143.jpg	0.0	147.69057714592554	
30.0	105.61852996992639	limb	0.0		46	body	limb-16.jpg	0.0	148.30712001765232	0.3832591127152227
30.0	105.70190538659654	pulse	0.0	t		body	limb-16.jpg	0.0	148.39049543432247	
30.0	106.00178908264161	ISI	1.0		354	body	limb-16.jpg	0.0	148.69037913036755	3.0166148938487822
30.0	106.20189225599142	response	1.0	b		body	limb-16.jpg	0.0	148.89048230371736	
30.0	106.40189068635618	pulse	1.0	t		body	limb-16.jpg	0.0	149.09048073408212	
30.0	107.10188956950014	pulse	1.0	t		body	limb-16.jpg	0.0	149.79047961722608	
30.0	107.80184377840214	pulse	1.0	t		body	limb-16.jpg	0.0	150.49043382612808	
30.0	108.50184145413414	pulse	1.0	t		body	limb-16.jpg	0.0	151.19043150186008	
31.0	109.01840397649039	limb	0.0		46	body	limb-95.jpg	0.0	151.70699402421633	0.3832820535421888
31.0	109.20181105753863	pulse	0.0	t		body	limb-95.jpg	0.0	151.89040110526457	
31.0	109.40168603003258	ISI	1.0		232	body	limb-95.jpg	0.0	152.09027607775852	2.0166474939710497
31.0	109.90180420547586	pulse	1.0	t		body	limb-95.jpg	0.0	152.5903942532018	
31.0	110.60176867737982	pulse	1.0	t		body	limb-95.jpg	0.0	153.29035872510576	
31.0	111.30175186416818	pulse	1.0	t		body	limb-95.jpg	0.0	153.99034191189412	
32.0	111.41833352400363	adult	0.0		46	face	adult-139.jpg	0.0	154.10692357172957	0.3833309537258174
32.0	111.80166447772945	ISI	1.0		353	face	adult-139.jpg	0.0	154.49025452545538	3.0167458980440642
32.0	112.00180809937956	pulse	1.0	t		face	adult-139.jpg	0.0	154.6903981471055	
32.0	112.70178796578557	pulse	1.0	t		face	adult-139.jpg	0.0	155.3903780135115	
32.0	113.40178051001658	pulse	1.0	t		face	adult-139.jpg	0.0	156.09037055774252	
32.0	114.10174437821433	pulse	1.0	t		face	adult-139.jpg	0.0	156.79033442594027	
33.0	114.81841037577351	car	0.0		45	object	car-49.jpg	0.0	157.50700042349945	0.3831607086422082
33.0	114.81101165726022	pulse	0.0	t		object	car-49.jpg	0.0	157.49960170498616	
33.0	115.20157108441572	ISI	1.0		593	object	car-49.jpg	0.0	157.89016113214166	5.016567201077123
33.0	115.5017225240581	pulse	1.0	t		object	car-49.jpg	0.0	158.19031257178403	
33.0	116.20168126075532	pulse	1.0	t		object	car-49.jpg	0.0	158.89027130848126	
33.0	116.90167682351648	pulse	1.0	t		object	car-49.jpg	0.0	159.59026687124242	
33.0	117.60164401209704	pulse	1.0	t		object	car-49.jpg	0.0	160.29023405982298	
33.0	118.30163383965146	pulse	1.0	t		object	car-49.jpg	0.0	160.9902238873774	
33.0	119.00161823385179	pulse	1.0	t		object	car-49.jpg	0.0	161.69020828157772	
33.0	119.70161198549522	pulse	1.0	t		object	car-49.jpg	0.0	162.39020203322116	
34.0	120.21813828549284	adult	0.0		46	face	adult-57.jpg	0.0	162.90672833321878	0.3832560941855263
34.0	120.40151699236094	pulse	0.0	t		face	adult-57.jpg	0.0	163.09010704008688	
34.0	120.60139437967837	ISI	1.0		236	face	adult-57.jpg	0.0	163.2899844274043	2.0166468902652923
34.0	121.10149444394301	pulse	1.0	t		face	adult-57.jpg	0.0	163.79008449166895	
34.0	121.8014767251725	pulse	1.0	t		face	adult-57.jpg	0.0	164.49006677289844	
34.0	122.50146172307905	pulse	1.0	t		face	adult-57.jpg	0.0	165.19005177080498	
35.0	122.61804126994366	adult	0.0		46	face	adult-57.jpg	1.0	165.3066313176696	0.38329080727862674
35.0	123.00133207722229	ISI	1.0		233	face	adult-57.jpg	1.0	165.68992212494823	2.0166453810002167
35.0	123.20143796724915	pulse	1.0	t		face	adult-57.jpg	1.0	165.8900280149751	
35.0	123.36808315204507	response	1.0	b		face	adult-57.jpg	1.0	166.056673199771	
35.0	123.90141209844842	pulse	1.0	t		face	adult-57.jpg	1.0	166.59000214617436	
35.0	124.6013964926492	pulse	1.0	t		face	adult-57.jpg	1.0	167.28998654037514	
36.0	125.0179774582225	adult	0.0		46	face	adult-116.jpg	0.0	167.70656750594844	0.3832880906020364
36.0	125.30138873502756	pulse	0.0	t		face	adult-116.jpg	0.0	167.9899787827535	
36.0	125.40126554882454	ISI	1.0		354	face	adult-116.jpg	0.0	168.08985559655048	3.016632401321658
36.0	126.00136648846274	pulse	1.0	t		face	adult-116.jpg	0.0	168.68995653618867	
36.0	126.70140914028934	pulse	1.0	t		face	adult-116.jpg	0.0	169.38999918801528	
36.0	127.40139232707816	pulse	1.0	t		face	adult-116.jpg	0.0	170.0899823748041	
36.0	128.10137128792485	pulse	1.0	t		face	adult-116.jpg	0.0	170.7899613356508	
37.0	128.4178979501462	house	0.0		46	place	house-35.jpg	0.0	171.10648799787214	0.38327963871824977
37.0	128.80117758886445	ISI	1.0		233	place	house-35.jpg	0.0	171.4897676365904	2.0166453810006715
37.0	128.85368883967976	pulse	1.0	t		place	house-35.jpg	0.0	171.5422788874057	
37.0	129.5012730649637	pulse	1.0	t		place	house-35.jpg	0.0	172.18986311268964	
37.0	130.2012490072807	pulse	1.0	t		place	house-35.jpg	0.0	172.88983905500663	
38.0	130.81782296986512	limb	0.0		46	body	limb-58.jpg	0.0	173.50641301759106	0.3832889961604451
38.0	130.90123370333458	pulse	0.0	t		body	limb-58.jpg	0.0	173.58982375106052	
38.0	131.20111196602556	ISI	1.0		472	body	limb-58.jpg	0.0	173.8897020137515	4.016628175380447
38.0	131.60124677356862	pulse	1.0	t		body	limb-58.jpg	0.0	174.28983682129456	
38.0	132.30119464355812	pulse	1.0	t		body	limb-58.jpg	0.0	174.98978469128406	
38.0	133.00118175443595	pulse	1.0	t		body	limb-58.jpg	0.0	175.68977180216189	
38.0	133.70113898186764	pulse	1.0	t		body	limb-58.jpg	0.0	176.38972902959358	
38.0	134.40112699830433	pulse	1.0	t		body	limb-58.jpg	0.0	177.08971704603027	
38.0	135.10120255210632	pulse	1.0	t		body	limb-58.jpg	0.0	177.78979259983225	
39.0	135.217740141406	car	0.0		46	object	car-33.jpg	0.0	177.90633018913195	0.38325579233242024
39.0	135.60099593373843	ISI	1.0		233	object	car-33.jpg	0.0	178.28958598146437	2.0166453810002167
39.0	135.80110272932416	pulse	1.0	t		object	car-33.jpg	0.0	178.4896927770501	
39.0	136.50107716237653	pulse	1.0	t		object	car-33.jpg	0.0	179.18966721010247	
39.0	137.20108389369807	pulse	1.0	t		object	car-33.jpg	0.0	179.889673941424	
40.0	137.61764131473865	house	0.0		46	place	house-102.jpg	0.0	180.3062313624646	0.3832917128374902
40.0	137.901045648925	pulse	0.0	t		place	house-102.jpg	0.0	180.58963569665093	
40.0	138.00093302757614	ISI	1.0		349	place	house-102.jpg	0.0	180.68952307530208	3.0166173086727213
40.0	138.6010288357138	pulse	1.0	t		place	house-102.jpg	0.0	181.28961888343974	
40.0	139.30101051323754	pulse	1.0	t		place	house-102.jpg	0.0	181.98960056096348	
40.0	140.00098524814257	pulse	1.0	t		place	house-102.jpg	0.0	182.6895752958685	
40.0	140.700978999786	pulse	1.0	t		place	house-102.jpg	0.0	183.38956904751194	
41.0	141.01755033624886	adult	0.0		46	face	adult-41.jpg	0.0	183.7061403839748	0.3833288407549844
41.0	141.40087917700384	ISI	1.0		353	face	adult-41.jpg	0.0	184.08946922472978	3.0166133845837066
41.0	141.4561372899816	pulse	1.0	t		face	adult-41.jpg	0.0	184.14472733770754	
41.0	142.10100363098945	pulse	1.0	t		face	adult-41.jpg	0.0	184.7895936787154	
41.0	142.8010055326631	pulse	1.0	t		face	adult-41.jpg	0.0	185.48959558038905	
41.0	143.500964571213	pulse	1.0	t		face	adult-41.jpg	0.0	186.18955461893893	
41.0	144.200944437619	pulse	1.0	t		face	adult-41.jpg	0.0	186.88953448534494	
42.0	144.41749256158755	limb	0.0		46	body	limb-31.jpg	0.0	187.1060826093135	0.38325428306734466
42.0	144.8007468446549	ISI	1.0		471	body	limb-31.jpg	0.0	187.48933689238083	4.016594065993104
42.0	144.90087540384138	pulse	1.0	t		body	limb-31.jpg	0.0	187.58946545156732	
42.0	145.60084470539277	pulse	1.0	t		body	limb-31.jpg	0.0	188.2894347531187	
42.0	146.30081762918007	pulse	1.0	t		body	limb-31.jpg	0.0	188.989407676906	
42.0	147.00080534376366	pulse	1.0	t		body	limb-31.jpg	0.0	189.6893953914896	
42.0	147.70078943611134	pulse	1.0	t		body	limb-31.jpg	0.0	190.38937948383727	
42.0	148.40075541727992	pulse	1.0	t		body	limb-31.jpg	0.0	191.08934546500586	
43.0	148.817340910648	car	0.0		46	object	car-50.jpg	0.0	191.50593095837394	0.38329261839635365
43.0	149.10075037633487	pulse	0.0	t		object	car-50.jpg	0.0	191.7893404240608	
43.0	149.20063352904435	ISI	1.0		233	object	car-50.jpg	0.0	191.8892235767703	2.0166722459161974
43.0	149.80073295941793	pulse	1.0	t		object	car-50.jpg	0.0	192.48932300714387	
43.0	150.50078376127522	pulse	1.0	t		object	car-50.jpg	0.0	193.18937380900115	
44.0	151.21730577496055	car	0.0		45	object	car-8.jpg	0.0	193.9058958226865	0.3832962406322622
44.0	151.2090014974924	pulse	0.0	t		object	car-8.jpg	0.0	193.89759154521835	
44.0	151.6006020155928	ISI	1.0		233	object	car-8.jpg	0.0	194.28919206331875	2.01663028835128
44.0	151.90075164411746	pulse	1.0	t		object	car-8.jpg	0.0	194.5893416918434	
44.0	152.6007263790225	pulse	1.0	t		object	car-8.jpg	0.0	195.28931642674843	
44.0	153.30071892325395	pulse	1.0	t		object	car-8.jpg	0.0	195.9893089709799	
45.0	153.6172323039441	house	0.0		46	place	house-117.jpg	0.0	196.30582235167003	0.3832805442771132
45.0	154.0005128482212	ISI	1.0		354	place	house-117.jpg	0.0	196.68910289594714	3.0166112716128737
45.0	154.04616328254224	pulse	1.0	t		place	house-117.jpg	0.0	196.73475333026818	
45.0	154.7005986650247	pulse	1.0	t		place	house-117.jpg	0.0	197.38918871275064	
45.0	155.4005749091948	pulse	1.0	t		place	house-117.jpg	0.0	198.08916495692074	
45.0	156.10056413304346	pulse	1.0	t		place	house-117.jpg	0.0	198.7891541807694	
45.0	156.80054399944902	pulse	1.0	t		place	house-117.jpg	0.0	199.48913404717496	
46.0	157.01712411983408	car	0.0		46	object	car-74.jpg	0.0	199.70571416756002	0.3832865813369608
46.0	157.40041070117104	ISI	1.0		233	object	car-74.jpg	0.0	200.08900074889698	2.0166357217049153
46.0	157.50053261959147	pulse	1.0	t		object	car-74.jpg	0.0	200.1891226673174	
46.0	158.20049709149544	pulse	1.0	t		object	car-74.jpg	0.0	200.88908713922137	
46.0	158.9004842023728	pulse	1.0	t		object	car-74.jpg	0.0	201.58907425009875	
47.0	159.41704642287596	house	0.0		46	place	house-14.jpg	0.0	202.1056364706019	0.38332642593059063
47.0	159.60046980398556	pulse	0.0	t		place	house-14.jpg	0.0	202.2890598517115	
47.0	159.80037284880655	ISI	1.0		233	place	house-14.jpg	0.0	202.48896289653248	2.016657153266806
47.0	160.3005178891658	pulse	1.0	t		place	house-14.jpg	0.0	202.98910793689174	
47.0	161.00049654815984	pulse	1.0	t		place	house-14.jpg	0.0	203.68908659588578	
47.0	161.70047641456586	pulse	1.0	t		place	house-14.jpg	0.0	204.3890664622918	
48.0	161.81703000207335	car	0.0		46	object	car-128.jpg	0.0	204.5056200497993	0.38325699974438976
48.0	162.20028700181774	ISI	1.0		233	object	car-128.jpg	0.0	204.88887704954368	2.0166447772944593
48.0	162.40042126602566	pulse	1.0	t		object	car-128.jpg	0.0	205.0890113137516	
48.0	163.10036853230895	pulse	1.0	t		object	car-128.jpg	0.0	205.7889585800349	
48.0	163.8003577561576	pulse	1.0	t		object	car-128.jpg	0.0	206.48894780388355	
49.0	164.2169317791122	limb	0.0		46	body	limb-5.jpg	0.0	206.90552182683814	0.38329020357286936
49.0	164.5003551300365	pulse	0.0	t		body	limb-5.jpg	0.0	207.18894517776243	
49.0	164.60022198268507	ISI	1.0		713	body	limb-5.jpg	0.0	207.288812030411	6.016573841842728
49.0	164.80035262465663	response	1.0	b		body	limb-5.jpg	0.0	207.48894267238256	
49.0	165.20031779082228	pulse	1.0	t		body	limb-5.jpg	0.0	207.88890783854822	
49.0	165.9002976572283	pulse	1.0	t		body	limb-5.jpg	0.0	208.58888770495423	
49.0	166.6002705810156	pulse	1.0	t		body	limb-5.jpg	0.0	209.28886062874153	
49.0	167.30026161598198	pulse	1.0	t		body	limb-5.jpg	0.0	209.98885166370792	
49.0	168.00029189183624	pulse	1.0	t		body	limb-5.jpg	0.0	210.68888193956218	
49.0	168.70029198239217	pulse	1.0	t		body	limb-5.jpg	0.0	211.3888820301181	
49.0	169.40026249135553	pulse	1.0	t		body	limb-5.jpg	0.0	212.08885253908147	
49.0	170.10025201705685	pulse	1.0	t		body	limb-5.jpg	0.0	212.78884206478278	
50.0	170.6167958245278	car	0.0		46	object	car-112.jpg	0.0	213.30538587225374	0.3832548867735568
50.0	170.80017181471885	pulse	0.0	t		object	car-112.jpg	0.0	213.4887618624448	
50.0	171.00005071130136	ISI	1.0		352	object	car-112.jpg	0.0	213.6886407590273	3.0166203272024177
50.0	171.50015077556554	pulse	1.0	t		object	car-112.jpg	0.0	214.18874082329148	
50.0	171.81681417718937	response	1.0	b		object	car-112.jpg	0.0	214.5054042249153	
50.0	172.20013215123663	pulse	1.0	t		object	car-112.jpg	0.0	214.88872219896257	
50.0	172.9001096028187	pulse	1.0	t		object	car-112.jpg	0.0	215.58869965054464	
50.0	173.6000855451357	pulse	1.0	t		object	car-112.jpg	0.0	216.28867559286164	
51.0	174.01667103850377	limb	0.0		46	body	limb-88.jpg	0.0	216.7052610862297	0.3832899017197633
51.0	174.30007325971928	pulse	0.0	t		body	limb-88.jpg	0.0	216.98866330744522	
51.0	174.39996094022354	ISI	1.0		231	body	limb-88.jpg	0.0	217.08855098794947	2.0166408532054447
51.0	175.000056144655	pulse	1.0	t		body	limb-88.jpg	0.0	217.68864619238093	
51.0	175.70004114256153	pulse	1.0	t		body	limb-88.jpg	0.0	218.38863119028747	
52.0	176.41660179342898	number	0.0		45	character	number-87.jpg	0.0	219.10519184115492	0.3833306518727113
52.0	176.41050889092867	pulse	0.0	t		character	number-87.jpg	0.0	219.0990989386546	
52.0	176.7999324453017	ISI	1.0		231	character	number-87.jpg	0.0	219.48852249302763	2.0166218364674933
52.0	177.100069697854	pulse	1.0	t		character	number-87.jpg	0.0	219.78865974557993	
52.0	177.80006314764432	pulse	1.0	t		character	number-87.jpg	0.0	220.48865319537026	
52.0	178.5000182621052	pulse	1.0	t		character	number-87.jpg	0.0	221.18860830983112	
53.0	178.81655428176919	number	0.0		46	character	number-128.jpg	0.0	221.50514432949512	0.38328114798332535
53.0	179.1998354297525	ISI	1.0		235	character	number-128.jpg	0.0	221.88842547747845	2.0166429661762777
53.0	179.23378845720208	pulse	1.0	t		character	number-128.jpg	0.0	221.92237850492802	
53.0	179.89993845217623	pulse	1.0	t		character	number-128.jpg	0.0	222.58852849990217	
53.0	180.59990533890368	pulse	1.0	t		character	number-128.jpg	0.0	223.28849538662962	
54.0	181.2164783959288	car	0.0		46	object	car-115.jpg	0.0	223.90506844365473	0.38329020357286936
54.0	181.2999015053706	pulse	0.0	t		object	car-115.jpg	0.0	223.98849155309654	
54.0	181.59976859950166	ISI	1.0		353	object	car-115.jpg	0.0	224.2883586472276	3.0166182142315847
54.0	181.99987050506934	pulse	1.0	t		object	car-115.jpg	0.0	224.68846055279528	
54.0	182.69985006962224	pulse	1.0	t		object	car-115.jpg	0.0	225.38844011734818	
54.0	183.39982601193924	pulse	1.0	t		object	car-115.jpg	0.0	226.08841605966518	
54.0	184.09979561534374	pulse	1.0	t		object	car-115.jpg	0.0	226.78838566306968	
55.0	184.61638681373324	number	0.0		46	character	number-141.jpg	0.0	227.30497686145918	0.3833176721941527
55.0	184.7998228726683	pulse	0.0	t		character	number-141.jpg	0.0	227.48841292039424	
55.0	184.9997044859274	ISI	1.0		232	character	number-141.jpg	0.0	227.68829453365333	2.0166535310308973
55.0	185.49984650775696	pulse	1.0	t		character	number-141.jpg	0.0	228.1884365554829	
55.0	186.19982245007395	pulse	1.0	t		character	number-141.jpg	0.0	228.8884124977999	
55.0	186.8998113720695	pulse	1.0	t		character	number-141.jpg	0.0	229.58840141979545	
56.0	187.0163580169583	house	0.0		46	place	house-44.jpg	0.0	229.70494806468423	0.3832576034506019
56.0	187.3996156204089	ISI	1.0		473	place	house-44.jpg	0.0	230.08820566813483	4.016572936283865
56.0	187.5997236234066	pulse	1.0	t		place	house-44.jpg	0.0	230.28831367113253	
56.0	188.29972250655055	pulse	1.0	t		place	house-44.jpg	0.0	230.9883125542765	
56.0	188.99968124324778	pulse	1.0	t		place	house-44.jpg	0.0	231.68827129097372	
56.0	189.6996611096538	pulse	1.0	t		place	house-44.jpg	0.0	232.38825115737973	
56.0	190.39965999279775	pulse	1.0	t		place	house-44.jpg	0.0	233.0882500405237	
56.0	191.09962537026013	pulse	1.0	t		place	house-44.jpg	0.0	233.78821541798607	
57.0	191.41618855669276	number	0.0		46	character	number-133.jpg	0.0	234.1047786044187	0.3833092203108208
57.0	191.79949777700358	ISI	1.0		594	character	number-133.jpg	0.0	234.48808782472952	5.016585915962423
57.0	191.8465560536465	pulse	1.0	t		character	number-133.jpg	0.0	234.53514610137245	
57.0	192.49958993271957	pulse	1.0	t		character	number-133.jpg	0.0	235.1881799804455	
57.0	193.19963922531224	pulse	1.0	t		character	number-133.jpg	0.0	235.88822927303818	
57.0	193.8996193935709	pulse	1.0	t		character	number-133.jpg	0.0	236.58820944129684	
57.0	194.59959624144722	pulse	1.0	t		character	number-133.jpg	0.0	237.28818628917315	
57.0	195.2995800319418	pulse	1.0	t		character	number-133.jpg	0.0	237.98817007966773	
57.0	195.99956050205355	pulse	1.0	t		character	number-133.jpg	0.0	238.6881505497795	
57.0	196.69955968705062	pulse	1.0	t		character	number-133.jpg	0.0	239.38814973477656	
58.0	196.816083692966	car	0.0		46	object	car-105.jpg	0.0	239.50467374069194	0.38325941456787405
58.0	197.19934310753388	ISI	1.0		353	object	car-105.jpg	0.0	239.88793315525982	3.0166151957018883
58.0	197.39946076982733	pulse	1.0	t		object	car-105.jpg	0.0	240.08805081755327	
58.0	198.09943701399743	pulse	1.0	t		object	car-105.jpg	0.0	240.78802706172337	
58.0	198.79942201190443	pulse	1.0	t		object	car-105.jpg	0.0	241.48801205963036	
58.0	199.4994021801631	pulse	1.0	t		object	car-105.jpg	0.0	242.18799222788903	
59.0	200.21595830323577	limb	0.0		45	body	limb-67.jpg	0.0	242.9045483509617	0.38330408881029143
59.0	200.20767485362376	pulse	0.0	t		body	limb-67.jpg	0.0	242.8962649013497	
59.0	200.59926239204606	ISI	1.0		594	body	limb-67.jpg	0.0	243.287852439772	5.016762801811183
59.0	200.89936402594594	pulse	1.0	t		body	limb-67.jpg	0.0	243.58795407367188	
59.0	201.59934811829362	pulse	1.0	t		body	limb-67.jpg	0.0	244.28793816601956	
59.0	202.29934036067198	pulse	1.0	t		body	limb-67.jpg	0.0	244.98793040839792	
59.0	202.99937546617411	pulse	1.0	t		body	limb-67.jpg	0.0	245.68796551390005	
59.0	203.69983708994368	pulse	1.0	t		body	limb-67.jpg	0.0	246.38842713766962	
59.0	204.39935089534083	pulse	1.0	t		body	limb-67.jpg	0.0	247.08794094306677	
59.0	205.09933770436555	pulse	1.0	t		body	limb-67.jpg	0.0	247.7879277520915	
60.0	205.61602519385724	limb	0.0		46	body	limb-36.jpg	0.0	248.30461524158318	0.3830816231602512
60.0	205.79923637231877	pulse	0.0	t		body	limb-36.jpg	0.0	248.4878264200447	
60.0	205.9991068170175	ISI	1.0		233	body	limb-36.jpg	0.0	248.68769686474343	2.0249719955891123
60.0	206.49921654057744	pulse	1.0	t		body	limb-36.jpg	0.0	249.18780658830337	
60.0	207.19920999036776	pulse	1.0	t		body	limb-36.jpg	0.0	249.8878000380937	
60.0	207.89917748080097	pulse	1.0	t		body	limb-36.jpg	0.0	250.5877675285269	
61.0	208.0240788126066	number	0.0		46	character	number-46.jpg	0.0	250.71266886033254	0.38330891845771475
61.0	208.40738773106432	ISI	1.0		233	character	number-46.jpg	0.0	251.09597777879026	2.0166287790862043
61.0	208.59916308241372	pulse	1.0	t		character	number-46.jpg	0.0	251.28775313013966	
61.0	208.9658097161041	response	1.0	b		character	number-46.jpg	0.0	251.65439976383004	
61.0	209.29915290996814	pulse	1.0	t		character	number-46.jpg	0.0	251.98774295769408	
61.0	209.99912130596067	pulse	1.0	t		character	number-46.jpg	0.0	252.6877113536866	
62.0	210.42401651015052	adult	0.0		45	face	adult-98.jpg	0.0	253.11260655787646	0.3833068054868818
62.0	210.69910871869115	pulse	0.0	t		face	adult-98.jpg	0.0	253.3876987664171	
62.0	210.8073233156374	ISI	1.0		473	face	adult-98.jpg	0.0	253.49591336336334	4.016629382792416
62.0	211.3990873776852	pulse	1.0	t		face	adult-98.jpg	0.0	254.08767742541113	
62.0	212.09913606657165	pulse	1.0	t		face	adult-98.jpg	0.0	254.78772611429758	
62.0	212.79912076262553	pulse	1.0	t		face	adult-98.jpg	0.0	255.48771081035147	
62.0	213.49910274200192	pulse	1.0	t		face	adult-98.jpg	0.0	256.18769278972786	
62.0	214.19908291026104	pulse	1.0	t		face	adult-98.jpg	0.0	256.887672957987	
63.0	214.82395269842982	number	0.0		46	character	number-68.jpg	0.0	257.51254274615576	0.3832527738022691
63.0	214.8989933504804	pulse	0.0	t		character	number-68.jpg	0.0	257.58758339820633	
63.0	215.2072054722321	ISI	1.0		232	character	number-68.jpg	0.0	257.895795519958	2.0166465884121862
63.0	215.59898166876974	pulse	1.0	t		character	number-68.jpg	0.0	258.2875717164957	
63.0	216.29895791293984	pulse	1.0	t		character	number-68.jpg	0.0	258.9875479606658	
63.0	216.99893657193388	pulse	1.0	t		character	number-68.jpg	0.0	259.6875266196598	
64.0	217.22385206064428	house	0.0		46	place	house-84.jpg	0.0	259.9124421083702	0.383289599867112
64.0	217.6071416605114	ISI	1.0		233	place	house-84.jpg	0.0	260.2957317082373	2.016632099469007
64.0	217.69892790875338	pulse	1.0	t		place	house-84.jpg	0.0	260.3875179564793	
64.0	218.39889509733393	pulse	1.0	t		place	house-84.jpg	0.0	261.0874851450599	
64.0	219.09888311377017	pulse	1.0	t		place	house-84.jpg	0.0	261.7874731614961	
65.0	219.6237737599804	adult	0.0		46	face	adult-65.jpg	0.0	262.31236380770633	0.38330439066294275
65.0	219.79886267832308	pulse	0.0	t		face	adult-65.jpg	0.0	262.487452726049	
65.0	220.00707815064334	ISI	1.0		599	face	adult-65.jpg	0.0	262.6956681983693	4.999927857136299
65.0	220.49884465769992	pulse	1.0	t		face	adult-65.jpg	0.0	263.18743470542586	
65.0	221.19890632626493	pulse	1.0	t		face	adult-65.jpg	0.0	263.88749637399087	
65.0	221.89887381669814	pulse	1.0	t		face	adult-65.jpg	0.0	264.5874638644241	
65.0	222.5988726998421	pulse	1.0	t		face	adult-65.jpg	0.0	265.28746274756804	
65.0	223.29883385136327	pulse	1.0	t		face	adult-65.jpg	0.0	265.9874238990892	
65.0	223.9988158307401	pulse	1.0	t		face	adult-65.jpg	0.0	266.68740587846605	
65.0	224.6987981119696	pulse	1.0	t		face	adult-65.jpg	0.0	267.38738815969555	
66.0	225.00700600777964	baseline	0.0		708		baseline	0.0	267.6955960555056	5.899844575897987
66.0	225.3987831098766	pulse	0.0	t			baseline	0.0	268.08737315760254	
66.0	226.09875512810459	pulse	0.0	t			baseline	0.0	268.7873451758305	
66.0	226.798744955659	pulse	0.0	t			baseline	0.0	269.48733500338494	
66.0	227.49872572762388	pulse	0.0	t			baseline	0.0	270.1873157753498	
66.0	228.19869985882315	pulse	0.0	t			baseline	0.0	270.8872899065491	
66.0	228.89869270490726	pulse	0.0	t			baseline	0.0	271.5872827526332	
66.0	229.59867860837312	pulse	0.0	t			baseline	0.0	272.28726865609906	
66.0	230.2986442876886	pulse	0.0	t			baseline	0.0	272.98723433541454	
66.0	230.90685058367762	ISI	1.0		12		baseline	0.0	273.59544063140356	0.10000329019794663
66.0	230.99865886718771	pulse	1.0	t			baseline	0.0	273.68724891491365	
