trial_nr	onset	event_type	phase	response	nr_frames	rating_type	face_id	repetition	session	rating	onset_abs	duration
0.0	0.007669570929010661	cue	0.0		479						303.580315271043	3.9921441835865608
0.0	1.091288058072223	response	0.0	return							304.6639337581862	
0.0	3.9998137545155714	fix	1.0		120						307.57245945462955	1.0251537053495667
0.0	5.024967459865138	face	0.0		146	trustworthiness	033	1.0	1		308.5976131599791	1.275320933871626
0.0	6.300288393736764	rating	1.0		1294	trustworthiness	033	1.0	1		309.87293409385074	10.792778203060152
0.0	17.093066596796916	fix	2.0		60	trustworthiness	033	1.0	1	-1.4900000000000002	320.6657122969109	0.5167128909645271
1.0	17.609779487761443	face	0.0		147	trustworthiness	012	1.0	1		321.1824251878754	1.2335038420299043
1.0	18.843283329791348	rating	1.0		88	trustworthiness	012	1.0	1		322.4159290299053	0.7417508645171438
1.0	19.58503419430849	fix	2.0		60	trustworthiness	012	1.0	1	1.88	323.1576798944225	0.5167874495296019
2.0	20.101821643838093	face	0.0		147	trustworthiness	070	1.0	1		323.6744673439521	1.2334274723259568
2.0	21.33524911616405	rating	1.0		133	trustworthiness	070	1.0	1		324.90789481627803	1.1168408177654783
2.0	22.45208993392953	fix	2.0		60	trustworthiness	070	1.0	1	-3.87	326.0247356340435	0.5167113816819437
3.0	22.968801315611472	face	0.0		147	trustworthiness	126	1.0	1		326.54144701572545	1.2334667136758526
3.0	24.202268029287325	rating	1.0		106	trustworthiness	126	1.0	1		327.7749137294013	0.8917660177153266
3.0	25.09403404700265	fix	2.0		60	trustworthiness	126	1.0	1	-2.0700000000000003	328.66667974711663	0.5167530378842002
4.0	25.61078708488685	face	0.0		147	trustworthiness	137	1.0	1		329.18343278500083	1.2334642988234918
4.0	26.844251383710343	rating	1.0		209	trustworthiness	137	1.0	1		330.4168970838243	1.7502064698721824
4.0	28.594457853582526	fix	2.0		60	trustworthiness	137	1.0	1	-0.029999999999999805	332.1671035536965	0.5167482081797061
5.0	29.111206061762232	face	0.0		147	trustworthiness	124	1.0	1		332.6838517618762	1.233468222958436
5.0	30.344674284720668	rating	1.0		140	trustworthiness	124	1.0	1		333.91731998483465	1.1751365598979646
5.0	31.519810844618632	fix	2.0		60	trustworthiness	124	1.0	1	3.8899999999999997	335.0924565447326	0.5167485100362228
6.0	32.036559354654855	face	0.0		147	trustworthiness	030	1.0	1		335.60920505476884	1.2334694303845026
6.0	33.27002878503936	rating	1.0		136	trustworthiness	030	1.0	1		336.84267448515334	1.141800731217245
6.0	34.4118295162566	fix	2.0		60	trustworthiness	030	1.0	1	3.87	337.9844752163706	0.5167482081797061
7.0	34.92857772443631	face	0.0		147	trustworthiness	121	1.0	1		338.5012234245503	1.2334636951104585
7.0	36.16204141954677	rating	1.0		333	trustworthiness	121	1.0	1		339.73468711966075	2.7836675690164157
7.0	38.94570898856318	fix	2.0		60	trustworthiness	121	1.0	1	-1.19	342.51835468867716	0.5167485100359954
8.0	39.46245749859918	face	0.0		147	trustworthiness	092	1.0	1		343.03510319871316	1.2334652043932692
8.0	40.69592270299245	rating	1.0		189	trustworthiness	092	1.0	1		344.2685684031064	1.5835237041901564
8.0	42.279446407182604	fix	2.0		60	trustworthiness	092	1.0	1	1.4000000000000004	345.8520921072966	0.516757263875661
9.0	42.796203671058265	face	0.0		147	trustworthiness	102	1.0	1		346.36884937117225	1.233457959836187
9.0	44.02966163089445	rating	1.0		164	trustworthiness	102	1.0	1		347.60230733100843	1.3751663229527367
9.0	45.40482795384719	fix	2.0		60	trustworthiness	102	1.0	1	0.2999999999999998	348.97747365396117	0.5167491137492561
10.0	45.921577067596445	face	0.0		147	trustworthiness	066	1.0	1		349.4942227677104	1.233490862198778
10.0	47.15506792979522	rating	1.0		107	trustworthiness	066	1.0	1		350.7277136299092	0.9000767319321312
10.0	48.055144661727354	fix	2.0		60	trustworthiness	066	1.0	1	1.13	351.62779036184133	0.5167506230318395
11.0	48.571895284759194	face	0.0		147	trustworthiness	043	1.0	1		352.1445409848732	1.2334712415240574
11.0	49.80536652628325	rating	1.0		106	trustworthiness	043	1.0	1		353.37801222639723	0.8917802049725196
11.0	50.69714673125577	fix	2.0		60	trustworthiness	043	1.0	1	1.7699999999999996	354.26979243136975	0.5167370394876798
12.0	51.21388377074345	face	0.0		147	trustworthiness	034	1.0	1		354.78652947085743	1.233458865405737
12.0	52.44734263614919	rating	1.0		110	trustworthiness	034	1.0	1		356.01998833626317	0.9251102983791952
12.0	53.37245293452838	fix	2.0		60	trustworthiness	034	1.0	1	0.6500000000000004	356.94509863464236	0.5167542453104943
13.0	53.88920717983888	face	0.0		147	trustworthiness	027	1.0	1		357.46185287995286	1.2334664118191085
13.0	55.122673591657986	rating	1.0		78	trustworthiness	027	1.0	1		358.69531929177197	0.6584155188068053
13.0	55.78108911046479	fix	2.0		60	trustworthiness	027	1.0	1	2.17	359.35373481057877	0.5167394543400405
14.0	56.29782856480483	face	0.0		147	trustworthiness	044	1.0	1		359.8704742649188	1.2334709396673134
14.0	57.531299504472145	rating	1.0		110	trustworthiness	044	1.0	1		361.1039452045861	0.9251139206576227
14.0	58.45641342512977	fix	2.0		60	trustworthiness	044	1.0	1	1.8399999999999999	362.02905912524375	0.5167391524835239
15.0	58.97315257761329	face	0.0		147	trustworthiness	082	1.0	1		362.5457982777273	1.233461883971131
15.0	60.20661446158442	rating	1.0		242	trustworthiness	082	1.0	1		363.7792601616984	2.0252442623109346
15.0	62.23185872389536	fix	2.0		60	trustworthiness	082	1.0	1	-1.25	365.80450442400934	0.5167521323146502
16.0	62.74861085621001	face	0.0		147	trustworthiness	005	1.0	1		366.321256556324	1.233460978401581
16.0	63.98207183461159	rating	1.0		339	trustworthiness	005	1.0	1		367.55471753472557	2.8336740287463726
16.0	66.81574586335796	fix	2.0		60	trustworthiness	005	1.0	1	2.33	370.38839156347194	0.516758169445211
17.0	67.33250403280317	face	0.0		147	trustworthiness	018	1.0	1		370.90514973291715	1.2334582616927037
17.0	68.56596229449588	rating	1.0		586	trustworthiness	018	1.0	1		372.13860799460986	4.892255930877354
17.0	73.45821822537323	fix	2.0		60	trustworthiness	018	1.0	1	-1.1	377.0308639254872	0.516756358306111
18.0	73.97497458367934	face	0.0		147	trustworthiness	087	1.0	1		377.5476202837933	1.2334594691189977
18.0	75.20843405279834	rating	1.0		215	trustworthiness	087	1.0	1		378.7810797529123	1.8002114203193287
18.0	77.00864547311767	fix	2.0		60	trustworthiness	087	1.0	1	1.8499999999999996	380.58129117323165	0.5167548490235276
19.0	77.5254003221412	face	0.0		147	trustworthiness	141	1.0	1		381.0980460222552	1.2334603746885477
19.0	78.75886069682974	rating	1.0		77	trustworthiness	141	1.0	1		382.3315063969437	0.6500833727759527
19.0	79.4089440696057	fix	2.0		60	trustworthiness	141	1.0	1	-1.4900000000000002	382.9815897697197	0.5167476044664454
20.0	79.92569167407214	face	0.0		147	trustworthiness	042	1.0	1		383.4983373741861	1.233457959836187
20.0	81.15914963390833	rating	1.0		487	trustworthiness	042	1.0	1		384.7317953340223	4.067176965206727
20.0	85.22632659911505	fix	2.0		60	trustworthiness	042	1.0	1	-1.4	388.79897229922904	0.5167364357746465
21.0	85.7430630348897	face	0.0		147	trustworthiness	006	1.0	1		389.3157087350037	1.2334564505533763
21.0	86.97651948544308	rating	1.0		69	trustworthiness	006	1.0	1		390.54916518555706	0.5834047727141751
21.0	87.55992425815725	fix	2.0		60	trustworthiness	006	1.0	1	-2.35	391.13256995827123	0.5167466988968954
22.0	88.07667095705415	face	0.0		147	trustworthiness	117	1.0	1		391.64931665716813	1.2334639969669752
22.0	89.31013495402112	rating	1.0		77	trustworthiness	117	1.0	1		392.8827806541351	0.6500782412147146
22.0	89.96021319523584	fix	2.0		60	trustworthiness	117	1.0	1	-1.6400000000000001	393.5328588953498	0.5167509248885835
23.0	90.47696412012442	face	0.0		147	trustworthiness	099	1.0	1		394.0496098202384	1.2334627895406811
23.0	91.7104269096651	rating	1.0		118	trustworthiness	099	1.0	1		395.2830726097791	0.9917873891583895
23.0	92.70221429882349	fix	2.0		60	trustworthiness	099	1.0	1	0.9699999999999998	396.2748599989375	0.5167491137490288
24.0	93.21896341257252	face	0.0		147	trustworthiness	101	1.0	1		396.7916091126865	1.233460072832031
24.0	94.45242348540455	rating	1.0		61	trustworthiness	101	1.0	1		398.02506918551853	0.5167288893610475
24.0	94.9691523747656	fix	2.0		60	trustworthiness	101	1.0	1	0.9000000000000004	398.5417980748796	0.5167473026099287
25.0	95.48589967737553	face	0.0		147	trustworthiness	061	1.0	1		399.0585453774895	1.23346943038473
25.0	96.71936910776026	rating	1.0		105	trustworthiness	061	1.0	1		400.29201480787424	0.8834423236673956
25.0	97.60281143142765	fix	2.0		60	trustworthiness	061	1.0	1	-0.6699999999999999	401.17545713154163	0.5167445859012787
26.0	98.11955601732893	face	0.0		147	trustworthiness	130	1.0	1		401.6922017174429	1.233461883971131
26.0	99.35301790130006	rating	1.0		67	trustworthiness	130	1.0	1		402.92566360141404	0.5667311230995438
26.0	99.91974902439961	fix	2.0		60	trustworthiness	130	1.0	1	-2.2199999999999998	403.4923947245136	0.5167542453102669
27.0	100.43650326970987	face	0.0		147	trustworthiness	039	1.0	1		404.00914896982385	1.233460072832031
27.0	101.6699633425419	rating	1.0		208	trustworthiness	039	1.0	1		405.2426090426559	1.7418770405502073
27.0	103.41184038309211	fix	2.0		60	trustworthiness	039	1.0	1	3.63	406.9844860832061	0.5167485100359954
28.0	103.92858889312811	face	0.0		147	trustworthiness	011	1.0	1		407.5012345932421	1.2334649025367526
28.0	105.16205379566486	rating	1.0		630	trustworthiness	011	1.0	1		408.73469949577884	5.258969365183475
28.0	110.42102316084834	fix	2.0		60	trustworthiness	011	1.0	1	1.33	413.9936688609623	0.5167485100362228
29.0	110.93777167088456	face	0.0		147	trustworthiness	062	1.0	1		414.51041737099854	1.233484523211473
29.0	112.17125619409603	rating	1.0		407	trustworthiness	062	1.0	1		415.74390189421	3.4003888515928793
29.0	115.57164504568891	fix	2.0		60	trustworthiness	062	1.0	1	-2.04	419.1442907458029	0.5167545471667836
30.0	116.0883995928557	face	0.0		147	trustworthiness	172	1.0	1		419.6610452929697	1.2334621858278751
30.0	117.32186177868357	rating	1.0		110	trustworthiness	172	1.0	1		420.89450747879755	0.9251051668179571
30.0	118.24696694550153	fix	2.0		60	trustworthiness	172	1.0	1	-3.61	421.8196126456155	0.5167473026099287
31.0	118.76371424811146	face	0.0		147	trustworthiness	100	1.0	1		422.33635994822544	1.2334688266716967
31.0	119.99718307478315	rating	1.0		107	trustworthiness	100	1.0	1		423.56982877489713	0.9001026915943839
31.0	120.89728576637754	fix	2.0		60	trustworthiness	100	1.0	1	1.08	424.4699314664915	0.516757263875661
32.0	121.4140430302532	face	0.0		147	trustworthiness	064	1.0	1		424.9866887303672	1.233457054266637
32.0	122.64750008451983	rating	1.0		67	trustworthiness	064	1.0	1		426.2201457846338	0.5667332360951605
32.0	123.214233320615	fix	2.0		60	trustworthiness	064	1.0	1	2.0700000000000003	426.786879020729	0.516757565732405
33.0	123.7309908863474	face	0.0		147	trustworthiness	036	1.0	1		427.3036365864614	1.2334582616927037
33.0	124.9644491480401	rating	1.0		444	trustworthiness	036	1.0	1		428.5370948481541	3.7088201273109007
33.0	128.673269275351	fix	2.0		60	trustworthiness	036	1.0	1	1.3099999999999996	432.245914975465	0.5167144002473378
34.0	129.18998367559834	face	0.0		147	trustworthiness	038	1.0	1		432.7626293757123	1.233456752409893
34.0	130.42344042800823	rating	1.0		697	trustworthiness	038	1.0	1		433.9960861281222	5.81736804039565
34.0	136.24080846840388	fix	2.0		60	trustworthiness	038	1.0	1	1.0499999999999998	439.81345416851786	0.5167518304581336
35.0	136.75756029886202	face	0.0		147	trustworthiness	009	1.0	1		440.330205998976	1.233461883971131
35.0	137.99102218283315	rating	1.0		162	trustworthiness	009	1.0	1		441.56366788294713	1.3584956919034994
35.0	139.34951787473665	fix	2.0		60	trustworthiness	009	1.0	1	1.7199999999999998	442.92216357485063	0.5167530378842002
36.0	139.86627091262085	face	0.0		147	trustworthiness	091	1.0	1		443.43891661273483	1.233460978401581
36.0	141.09973189102243	rating	1.0		179	trustworthiness	091	1.0	1		444.6723775911364	1.500179302783863
36.0	142.5999111938063	fix	2.0		60	trustworthiness	091	1.0	1	2.79	446.1725568939203	0.5167485100362228
37.0	143.11665970384252	face	0.0		147	trustworthiness	136	1.0	1		446.6893054039565	1.2334636951102311
37.0	144.35012339895275	rating	1.0		138	trustworthiness	136	1.0	1		447.9227690990667	1.158512716612222
37.0	145.50863611556497	fix	2.0		60	trustworthiness	136	1.0	1	-2.88	449.08128181567895	0.5167113816819437
38.0	146.0253474972469	face	0.0		147	trustworthiness	144	1.0	1		449.5979931973609	1.2334621858278751
38.0	147.2588096830748	rating	1.0		126	trustworthiness	144	1.0	1		450.83145538318877	1.0584674985027505
38.0	148.31727718157754	fix	2.0		60	trustworthiness	144	1.0	1	1.3200000000000003	451.8899228816915	0.5167454914706013
39.0	148.83402267304814	face	0.0		147	trustworthiness	024	1.0	1		452.4066683731621	1.233460072832031
39.0	150.06748274588017	rating	1.0		681	trustworthiness	024	1.0	1		453.64012844599415	5.684019292255016
39.0	155.7515020381352	fix	2.0		60	trustworthiness	024	1.0	1	1.1100000000000003	459.32414773824917	0.5000727474257474
40.0	156.25157478556093	cue	0.0		480						459.8242204856749	4.00047300919573
40.0	160.25204779475666	fix	1.0		120						463.82469349487064	1.0168100887701712
40.0	161.26885788352683	face	0.0		147	attractiveness	100	1.0	1		464.8415035836408	1.2334655062495585
40.0	162.5023233897764	rating	1.0		72	attractiveness	100	1.0	1		466.0749690898904	0.6084172092034805
40.0	163.11074059897987	fix	2.0		60	attractiveness	100	1.0	1	1.6100000000000003	466.68338629909385	0.5167379450572298
41.0	163.6274785440371	face	0.0		147	attractiveness	121	1.0	1		467.2001242441511	1.2334727508066408
41.0	164.86095129484374	rating	1.0		61	attractiveness	121	1.0	1		468.4335969949577	0.5167134946775604
41.0	165.3776647895213	fix	2.0		60	attractiveness	121	1.0	1	-3.05	468.9503104896353	0.5168140129051153
42.0	165.89447880242642	face	0.0		147	attractiveness	044	1.0	1		469.4671245025404	1.2333987959545993
42.0	167.12787759838102	rating	1.0		61	attractiveness	044	1.0	1		470.700523298495	0.5167527360276836
42.0	167.6446303344087	fix	2.0		60	attractiveness	044	1.0	1	-0.7599999999999998	471.2172760345227	0.5167364357744191
43.0	168.16136677018312	face	0.0		147	attractiveness	036	1.0	1		471.7340124702971	1.2334890510596779
43.0	169.3948558212428	rating	1.0		560	attractiveness	036	1.0	1		472.9675015213568	4.67553138825042
43.0	174.07038720949322	fix	2.0		60	attractiveness	036	1.0	1	-0.31000000000000005	477.6430329096072	0.5167503211753228
44.0	174.58713753066854	face	0.0		147	attractiveness	101	1.0	1		478.1597832307825	1.2334642988234918
44.0	175.82060182949203	rating	1.0		50	attractiveness	101	1.0	1		479.393247529606	0.4250450973668194
44.0	176.24564692685885	fix	2.0		60	attractiveness	101	1.0	1	1.2400000000000002	479.81829262697283	0.5167539434537503
45.0	176.7624008703126	face	0.0		147	attractiveness	087	1.0	1		480.3350465704266	1.2334646006800085
45.0	177.9958654709926	rating	1.0		68	attractiveness	087	1.0	1		481.5685111711066	0.5750641747001737
45.0	178.5709296456928	fix	2.0		60	attractiveness	087	1.0	1	1.4800000000000004	482.14357534580677	0.5167470007534121
46.0	179.0876766464462	face	0.0		147	attractiveness	061	1.0	1		482.6603223465602	1.2334763730850682
46.0	180.32115301953127	rating	1.0		129	attractiveness	061	1.0	1		483.89379871964525	1.0834560883256472
46.0	181.4046091078569	fix	2.0		60	attractiveness	061	1.0	1	0.03000000000000025	484.9772548079709	0.5167512267448728
47.0	181.9213603346018	face	0.0		147	attractiveness	005	1.0	1		485.49400603471577	1.2334552431273096
47.0	183.1548155777291	rating	1.0		195	attractiveness	005	1.0	1		486.7274612778431	1.6335304657768575
47.0	184.78834604350595	fix	2.0		60	attractiveness	005	1.0	1	-3.91	488.36099174361993	0.5167527360276836
48.0	185.30509877953364	face	0.0		147	attractiveness	038	1.0	1		488.8777444796476	1.2334630913971978
48.0	186.53856187093083	rating	1.0		105	attractiveness	038	1.0	1		490.1112075710448	0.8834417199543623
48.0	187.4220035908852	fix	2.0		60	attractiveness	038	1.0	1	-3.7199999999999998	490.9946492909992	0.5167491137492561
49.0	187.93875270463445	face	0.0		147	attractiveness	117	1.0	1		491.51139840474843	1.2334594691189977
49.0	189.17221217375345	rating	1.0		189	attractiveness	117	1.0	1		492.74485787386743	1.5835237041901564
49.0	190.7557358779436	fix	2.0		60	attractiveness	117	1.0	1	-2.9	494.3283815780576	0.5167533397407169
50.0	191.27248921768432	face	0.0		147	attractiveness	009	1.0	1		494.8451349177983	1.2334621858276478
50.0	192.50595140351197	rating	1.0		61	attractiveness	009	1.0	1		496.07859710362595	0.5167261726523975
50.0	193.02267757616437	fix	2.0		60	attractiveness	009	1.0	1	1.0999999999999996	496.59532327627835	0.5167512267448728
51.0	193.53942880290924	face	0.0		147	attractiveness	137	1.0	1		497.1120745030232	1.233461883971131
51.0	194.77289068688037	rating	1.0		64	attractiveness	137	1.0	1		498.34553638699435	0.5417280441629373
51.0	195.3146187310433	fix	2.0		60	attractiveness	137	1.0	1	-2.26	498.8872644311573	0.5167524341711669
52.0	195.83137116521448	face	0.0		147	attractiveness	136	1.0	1		499.40401686532846	1.2334636951104585
52.0	197.06483486032494	rating	1.0		135	attractiveness	136	1.0	1		500.6374805604389	1.1334664721905483
52.0	198.19830133251548	fix	2.0		60	attractiveness	136	1.0	1	-2.79	501.77094703262946	0.5167524341709395
53.0	198.71505376668642	face	0.0		147	attractiveness	124	1.0	1		502.2876994668004	1.2334938807643994
53.0	199.94854764745082	rating	1.0		122	attractiveness	124	1.0	1		503.5211933475648	1.0250882024804469
53.0	200.97363584993127	fix	2.0		60	attractiveness	124	1.0	1	3.75	504.54628155004525	0.5167530378842002
54.0	201.49038888781547	face	0.0		147	attractiveness	141	1.0	1		505.06303458792945	1.233461883971131
54.0	202.7238507717866	rating	1.0		75	attractiveness	141	1.0	1		506.2964964719006	0.6334199862837977
54.0	203.3572707580704	fix	2.0		60	attractiveness	141	1.0	1	0.21999999999999975	506.9299164581844	0.5167415673356572
55.0	203.87401232540606	face	0.0		147	attractiveness	099	1.0	1		507.44665802552004	1.2334582616927037
55.0	205.10747058709876	rating	1.0		59	attractiveness	099	1.0	1		508.68011628721274	0.500058862025071
55.0	205.60752944912383	fix	2.0		60	attractiveness	099	1.0	1	0.0	509.1801751492378	0.5167521323146502
56.0	206.12428158143848	face	0.0		147	attractiveness	006	1.0	1		509.69692728155246	1.2334621858276478
56.0	207.35774376726613	rating	1.0		64	attractiveness	006	1.0	1		510.9303894673801	0.5417316664411373
56.0	207.89947543370727	fix	2.0		60	attractiveness	006	1.0	1	-0.8700000000000001	511.47212113382125	0.5167521323146502
57.0	208.41622756602192	face	0.0		147	attractiveness	039	1.0	1		511.9888732661359	1.2334642988234918
57.0	209.6496918648454	rating	1.0		83	attractiveness	039	1.0	1		513.2223375649594	0.7000795693836608
57.0	210.34977143422907	fix	2.0		60	attractiveness	039	1.0	1	1.88	513.922417134343	0.5167488118925121
58.0	210.86652024612158	face	0.0		147	attractiveness	011	1.0	1		514.4391659462356	1.2334615821146144
58.0	212.0999818282362	rating	1.0		92	attractiveness	011	1.0	1		515.6726275283502	0.7750969563203398
58.0	212.87507878455654	fix	2.0		60	attractiveness	011	1.0	1	-0.20999999999999996	516.4477244846705	0.5167614898671218
59.0	213.39184027442366	face	0.0		147	attractiveness	172	1.0	1		516.9644859745376	1.2334552431273096
59.0	214.62529551755097	rating	1.0		149	attractiveness	172	1.0	1		518.197941217665	1.2501400614339673
59.0	215.87543557898493	fix	2.0		60	attractiveness	172	1.0	1	-3.97	519.4480812790989	0.5167515286013895
60.0	216.39218710758632	face	0.0		147	attractiveness	027	1.0	1		519.9648328077003	1.2335086717346258
60.0	217.62569577932095	rating	1.0		147	attractiveness	027	1.0	1		521.1983414794349	1.233435320595845
60.0	218.8591310999168	fix	2.0		60	attractiveness	027	1.0	1	1.3200000000000003	522.4317768000308	0.5167518304581336
61.0	219.37588293037493	face	0.0		147	attractiveness	018	1.0	1		522.9485286304889	1.2334612802580978
61.0	220.60934421063303	rating	1.0		154	attractiveness	018	1.0	1		524.181989910747	1.291822827115766
61.0	221.9011670377488	fix	2.0		60	attractiveness	018	1.0	1	-0.8300000000000001	525.4738127378628	0.5167509248885835
62.0	222.41791796263738	face	0.0		147	attractiveness	066	1.0	1		525.9905636627514	1.233461883971131
62.0	223.6513798466085	rating	1.0		76	attractiveness	066	1.0	1		527.2240255467225	0.6417826198248804
62.0	224.2931624664334	fix	2.0		60	attractiveness	066	1.0	1	-1.4900000000000002	527.8658081665474	0.5167107779689104
63.0	224.8098732444023	face	0.0		147	attractiveness	126	1.0	1		528.3825189445163	1.2334639969669752
63.0	226.04333724136927	rating	1.0		400	attractiveness	126	1.0	1		529.6159829414833	3.342067451654657
63.0	229.38540469302393	fix	2.0		60	attractiveness	126	1.0	1	-0.8799999999999999	532.9580503931379	0.5167506230318395
64.0	229.90215531605577	face	0.0		147	attractiveness	064	1.0	1		533.4748010161697	1.23347124152383
64.0	231.1356265575796	rating	1.0		128	attractiveness	064	1.0	1		534.7082722576936	1.0751188107335565
64.0	232.21074536831316	fix	2.0		60	attractiveness	064	1.0	1	-1.6600000000000001	535.7833910684271	0.5167530378842002
65.0	232.72749840619736	face	0.0		147	attractiveness	144	1.0	1		536.3001441063113	1.2334597709755144
65.0	233.96095817717287	rating	1.0		588	attractiveness	144	1.0	1		537.5336038772869	4.9089253545002975
65.0	238.86988353167317	fix	2.0		60	attractiveness	144	1.0	1	-0.7599999999999998	542.4425292317871	0.5167651121457766
66.0	239.38664864381894	face	0.0		147	attractiveness	062	1.0	1		542.9592943439329	1.233449507853038
66.0	240.62009815167198	rating	1.0		118	attractiveness	062	1.0	1		544.192743851786	0.991784370592768
66.0	241.61188252226475	fix	2.0		60	attractiveness	062	1.0	1	-3.63	545.1845282223787	0.5167503211755502
67.0	242.1286328434403	face	0.0		147	attractiveness	033	1.0	1		545.7012785435543	1.2334636951102311
67.0	243.36209653855053	rating	1.0		115	attractiveness	033	1.0	1		546.9347422386645	0.9667809897996449
67.0	244.32887752835018	fix	2.0		60	attractiveness	033	1.0	1	0.8600000000000003	547.9015232284642	0.5167524341711669
68.0	244.84562996252134	face	0.0		147	attractiveness	092	1.0	1		548.4182756626353	1.2334594691189977
68.0	246.07908943164034	rating	1.0		62	attractiveness	092	1.0	1		549.6517351317543	0.5250628465312275
68.0	246.60415227817157	fix	2.0		61	attractiveness	092	1.0	1	-0.08000000000000007	550.1767979782855	0.5250860894848302
69.0	247.1292383676564	face	0.0		146	attractiveness	024	1.0	1		550.7018840677704	1.2251294360835345
69.0	248.35436780373993	rating	1.0		139	attractiveness	024	1.0	1		551.9270135038539	1.166804413867112
69.0	249.52117221760705	fix	2.0		60	attractiveness	024	1.0	1	-0.6200000000000001	553.093817917721	0.5167530378842002
70.0	250.03792525549125	face	0.0		147	attractiveness	012	1.0	1		553.6105709556052	1.2334594691189977
70.0	251.27138472461024	rating	1.0		54	attractiveness	012	1.0	1		554.8440304247242	0.45843073237620047
70.0	251.72981545698644	fix	2.0		60	attractiveness	012	1.0	1	1.7000000000000002	555.3024611571004	0.5167086649730663
71.0	252.2465241219595	face	0.0		147	attractiveness	043	1.0	1		555.8191698220735	1.2334706378107967
71.0	253.4799947597703	rating	1.0		63	attractiveness	043	1.0	1		557.0526404598843	0.5333871442924192
71.0	254.01338190406273	fix	2.0		60	attractiveness	043	1.0	1	2.0599999999999996	557.5860276041767	0.5167485100359954
72.0	254.53013041409872	face	0.0		147	attractiveness	082	1.0	1		558.1027761142127	1.2334658081063026
72.0	255.76359622220502	rating	1.0		70	attractiveness	082	1.0	1		559.336241922319	0.5917354094622169
72.0	256.35533163166724	fix	2.0		60	attractiveness	082	1.0	1	1.8200000000000003	559.9279773317812	0.5167506230320669
73.0	256.8720822546993	face	0.0		147	attractiveness	102	1.0	1		560.4447279548133	1.2334760712283241
73.0	258.10555832592763	rating	1.0		165	attractiveness	102	1.0	1		561.6782040260416	1.3834900170006676
73.0	259.4890483429283	fix	2.0		60	attractiveness	102	1.0	1	-1.7200000000000002	563.0616940430423	0.5167424729052073
74.0	260.0057908158335	face	0.0		147	attractiveness	070	1.0	1		563.5784365159475	1.2334676192454026
74.0	261.2392584350789	rating	1.0		96	attractiveness	070	1.0	1		564.8119041351929	0.808427955296338
74.0	262.04768639037525	fix	2.0		60	attractiveness	070	1.0	1	-2.71	565.6203320904892	0.5167611880108325
75.0	262.5644475783861	face	0.0		147	attractiveness	034	1.0	1		566.1370932785001	1.2334561486968596
75.0	263.79790372708294	rating	1.0		78	attractiveness	034	1.0	1		567.3705494271969	0.6584121983848945
75.0	264.45631592546783	fix	2.0		60	attractiveness	034	1.0	1	1.3600000000000003	568.0289616255818	0.5167479063231895
76.0	264.973063831791	face	0.0		147	attractiveness	091	1.0	1		568.545709531905	1.2334646006800085
76.0	266.20652843247103	rating	1.0		135	attractiveness	091	1.0	1		569.779174132585	1.1334637554816709
76.0	267.3399921879527	fix	2.0		60	attractiveness	091	1.0	1	3.2800000000000002	570.9126378880667	0.5167518304579062
77.0	267.8567440184106	face	0.0		147	attractiveness	030	1.0	1		571.4293897185246	1.2334612802583251
77.0	269.09020529866893	rating	1.0		102	attractiveness	030	1.0	1		572.6628509987829	0.8584386410175284
77.0	269.94864393968646	fix	2.0		60	attractiveness	030	1.0	1	2.9299999999999997	573.5212896398004	0.5167512267448728
78.0	270.46539516643134	face	0.0		147	attractiveness	130	1.0	1		574.0380408665453	1.2334585635494477
78.0	271.6988537299808	rating	1.0		63	attractiveness	130	1.0	1		575.2714994300948	0.5333974074146681
78.0	272.23225113739545	fix	2.0		60	attractiveness	130	1.0	1	-0.9100000000000001	575.8048968375094	0.5167642065762266
79.0	272.7490153439717	face	0.0		147	attractiveness	042	1.0	1		576.3216610440857	1.2334522245619155
79.0	273.9824675685336	rating	1.0		218	attractiveness	042	1.0	1		577.5551132686476	1.8252223475260507
79.0	275.80768991605964	fix	2.0		60	attractiveness	042	1.0	1	-1.8399999999999999	579.3803356161736	0.5000591638813603
80.0	276.307749079941	cue	0.0		480						579.880394780055	4.000479951896523
80.0	280.3082290318375	fix	1.0		120						583.8808747319515	1.0168100887699438
80.0	281.32503912060747	face	0.0		147	dominance	117	1.0	1		584.8976848207215	1.2334658081058478
80.0	282.5585049287133	rating	1.0		84	dominance	117	1.0	1		586.1311506288273	0.7084249971021563
80.0	283.2669299258155	fix	2.0		60	dominance	117	1.0	1	-2.7199999999999998	586.8395756259295	0.5167463970406061
81.0	283.7836763228561	face	0.0		147	dominance	087	1.0	1		587.3563220229701	1.2334914659118112
81.0	285.0171677887679	rating	1.0		103	dominance	087	1.0	1		588.5898134888819	0.8667351679773674
81.0	285.88390295674526	fix	2.0		60	dominance	087	1.0	1	2.33	589.4565486568592	0.5167533397407169
82.0	286.400656296486	face	0.0		147	dominance	070	1.0	1		589.9733019966	1.2334591672620263
82.0	287.634115463748	rating	1.0		95	dominance	070	1.0	1		591.206761163862	0.8000964129782915
82.0	288.4342118767263	fix	2.0		60	dominance	070	1.0	1	1.92	592.0068575768403	0.5167998256479223
83.0	288.9510117023742	face	0.0		147	dominance	030	1.0	1		592.5236574024882	1.233413586925053
83.0	290.18442528929927	rating	1.0		581	dominance	030	1.0	1		593.7570709894133	4.850586446882971
83.0	295.03501173618224	fix	2.0		60	dominance	030	1.0	1	-0.029999999999999805	598.6076574362962	0.5167536415970062
84.0	295.55176537777925	face	0.0		142	dominance	042	1.0	1		599.1244110778932	1.2334564505536036
84.0	296.78522182833285	rating	1.0		136	dominance	042	1.0	1		600.3578675284468	1.1418022405000556
84.0	297.9270240688329	fix	2.0		60	dominance	042	1.0	1	1.2800000000000002	601.4996697689469	0.5167503211750955
85.0	298.443774390008	face	0.0		147	dominance	005	1.0	1		602.016420090122	1.2334673173891133
85.0	299.6772417073971	rating	1.0		83	dominance	005	1.0	1		603.2498874075111	0.7000804749532108
85.0	300.3773221823503	fix	2.0		60	dominance	005	1.0	1	-3.62	603.9499678824643	0.5167545471667836
86.0	300.8940767295171	face	0.0		147	dominance	082	1.0	1		604.4667224296311	1.233460978401581
86.0	302.1275377079187	rating	1.0		80	dominance	082	1.0	1		605.7001834080327	0.6750755848770496
86.0	302.80261329279574	fix	2.0		60	dominance	082	1.0	1	1.46	606.3752589929097	0.5167542453104943
87.0	303.31936753810623	face	0.0		147	dominance	011	1.0	1		606.8920132382202	1.2334621858276478
87.0	304.5528297239339	rating	1.0		73	dominance	011	1.0	1		608.1254754240479	0.6167409032514115
87.0	305.1695706271853	fix	2.0		60	dominance	011	1.0	1	1.58	608.7422163272993	0.5167530378844276
88.0	305.6863236650697	face	0.0		147	dominance	043	1.0	1		609.2589693651837	1.233456450553149
88.0	306.91978011562287	rating	1.0		105	dominance	043	1.0	1		610.4924258157369	0.8834420218108789
88.0	307.80322213743375	fix	2.0		60	dominance	043	1.0	1	-0.3799999999999999	611.3758678375477	0.5167593768715051
89.0	308.31998151430525	face	0.0		147	dominance	102	1.0	1		611.8926272144192	1.2334519227056262
89.0	309.5534334370109	rating	1.0		62	dominance	102	1.0	1		613.1260791371249	0.5250785430712313
89.0	310.0785119800821	fix	2.0		60	dominance	102	1.0	1	-2.2	613.6511576801961	0.5167343227790298
90.0	310.59524630286114	face	0.0		147	dominance	130	1.0	1		614.1678920029751	1.233460978401581
90.0	311.8287072812627	rating	1.0		58	dominance	130	1.0	1		615.4013529813767	0.491724301141403
90.0	312.3204315824041	fix	2.0		60	dominance	130	1.0	1	-3.36	615.8930772825181	0.5167841291076911
91.0	312.8372157115118	face	0.0		147	dominance	024	1.0	1		616.4098614116258	1.233430490891351
91.0	314.07064620240317	rating	1.0		907	dominance	024	1.0	1		617.6432919025171	7.567578132546259
91.0	321.6382243349494	fix	2.0		60	dominance	024	1.0	1	-0.04999999999999982	625.2108700350634	0.5167560564495943
92.0	322.154980391399	face	0.0		147	dominance	044	1.0	1		625.727626091513	1.233455243127537
92.0	323.38843563452656	rating	1.0		48	dominance	044	1.0	1		626.9610813346405	0.40840404825848964
92.0	323.79683968278505	fix	2.0		60	dominance	044	1.0	1	1.67	627.369485382899	0.5167285875045309
93.0	324.3135682702896	face	0.0		147	dominance	141	1.0	1		627.8862139704036	1.2334646006797811
93.0	325.54703287096936	rating	1.0		43	dominance	141	1.0	1		629.1196785710833	0.3667125287370254
93.0	325.9137453997064	fix	2.0		60	dominance	141	1.0	1	-1.7799999999999998	629.4863910998204	0.5167485100359954
94.0	326.4304939097424	face	0.0		147	dominance	101	1.0	1		630.0031396098564	1.2334673173886586
94.0	327.66396122713104	rating	1.0		155	dominance	101	1.0	1		631.236606927245	1.3001495397293183
94.0	328.96411076686036	fix	2.0		60	dominance	101	1.0	1	2.38	632.5367564669743	0.5167473026099287
95.0	329.4808580694703	face	0.0		147	dominance	136	1.0	1		633.0535037695843	1.2334670155323693
95.0	330.71432508500266	rating	1.0		221	dominance	136	1.0	1		634.2869707851166	1.8502245208933346
95.0	332.564549605896	fix	2.0		60	dominance	136	1.0	1	-0.029999999999999805	636.13719530601	0.5167566601626277
96.0	333.0813062660586	face	0.0		147	dominance	137	1.0	1		636.6539519661726	1.2334531301316929
96.0	334.3147593961903	rating	1.0		116	dominance	137	1.0	1		637.8874050963043	0.9751194748178023
96.0	335.2898788710081	fix	2.0		59	dominance	137	1.0	1	-0.9500000000000002	638.8625245711221	0.5167524341709395
97.0	335.80663130517905	face	0.0		147	dominance	091	1.0	1		639.379277005293	1.2334579598364144
97.0	337.04008926501547	rating	1.0		304	dominance	091	1.0	1		640.6127349651294	2.541972246102432
97.0	339.5820615111179	fix	2.0		60	dominance	091	1.0	1	0.9699999999999998	643.1547072112319	0.5167500193188062
98.0	340.0988115304367	face	0.0		147	dominance	009	1.0	1		643.6714572305507	1.2334627895406811
98.0	341.3322743199774	rating	1.0		117	dominance	009	1.0	1		644.9049200200914	0.9834558468405703
98.0	342.31573016681796	fix	2.0		60	dominance	009	1.0	1	2.6100000000000003	645.8883758669319	0.5167536415970062
99.0	342.83248380841496	face	0.0		147	dominance	121	1.0	1		646.405129508529	1.2334528282754036
99.0	344.06593663669037	rating	1.0		281	dominance	121	1.0	1		647.6385823368043	2.3502851940575056
99.0	346.4162218307479	fix	2.0		60	dominance	121	1.0	1	1.1500000000000004	649.9888675308619	0.5167485100359954
100.0	346.93297034078387	face	0.0		147	dominance	064	1.0	1		650.5056160408978	1.2334627895406811
100.0	348.16643313032455	rating	1.0		151	dominance	064	1.0	1		651.7390788304385	1.2668185407533201
100.0	349.43325167107787	fix	2.0		60	dominance	064	1.0	1	0.09999999999999964	653.0058973711918	0.5167509248881288
101.0	349.950002595966	face	0.0		147	dominance	126	1.0	1		653.52264829608	1.2334639969672025
101.0	351.1834665929332	rating	1.0		168	dominance	126	1.0	1		654.7561122930472	1.4085018497767123
101.0	352.5919684427099	fix	2.0		60	dominance	126	1.0	1	-1.5899999999999999	656.1646141428239	0.5167636028631932
102.0	353.1087320455731	face	0.0		147	dominance	012	1.0	1		656.6813777456871	1.2334510171358488
102.0	354.34218306270895	rating	1.0		145	dominance	012	1.0	1		657.9148287628229	1.2168081568879643
102.0	355.5589912195969	fix	2.0		60	dominance	012	1.0	1	1.4100000000000001	659.1316369197109	0.5167524341709395
103.0	356.07574365376786	face	0.0		147	dominance	062	1.0	1		659.6483893538818	1.2334633932541692
103.0	357.309207047022	rating	1.0		70	dominance	062	1.0	1		660.881852747136	0.5917613691244696
103.0	357.9009684161465	fix	2.0		60	dominance	062	1.0	1	-2.37	661.4736141162605	0.5167376432009405
104.0	358.41770605934744	face	0.0		147	dominance	038	1.0	1		661.9903517594614	1.2334543375577596
104.0	359.6511603969052	rating	1.0		159	dominance	038	1.0	1		663.2238060970192	1.3334932166794715
104.0	360.98465361358467	fix	2.0		60	dominance	038	1.0	1	1.1500000000000004	664.5572993136986	0.516744284044762
105.0	361.50139789762943	face	0.0		147	dominance	027	1.0	1		665.0740435977434	1.2334627895406811
105.0	362.7348606871701	rating	1.0		130	dominance	027	1.0	1		666.3075063872841	1.0917991011920094
105.0	363.8266597883621	fix	2.0		60	dominance	027	1.0	1	1.7000000000000002	667.3993054884761	0.516757565732405
106.0	364.3434173540945	face	0.0		147	dominance	066	1.0	1		667.9160630542085	1.2334582616927037
106.0	365.57687561578723	rating	1.0		62	dominance	066	1.0	1		669.1495213159012	0.5250471499912237
106.0	366.10192276577845	fix	2.0		60	dominance	066	1.0	1	1.8499999999999996	669.6745684658924	0.5167639047194825
107.0	366.61868667049794	face	0.0		147	dominance	018	1.0	1		670.1913323706119	1.2334670155323693
107.0	367.8521536860303	rating	1.0		92	dominance	018	1.0	1		671.4247993861443	0.7750836746326968
107.0	368.627237360663	fix	2.0		60	dominance	018	1.0	1	-2.01	672.199883060777	0.516759075014761
108.0	369.14399643567776	face	0.0		147	dominance	144	1.0	1		672.7166421357917	1.2334630913974252
108.0	370.3774595270752	rating	1.0		278	dominance	144	1.0	1		673.9501052271892	2.325271851998423
108.0	372.7027313790736	fix	2.0		60	dominance	144	1.0	1	-3.1	676.2753770791876	0.5167578675891491
109.0	373.21948924666276	face	0.0		147	dominance	034	1.0	1		676.7921349467767	1.2334630913969704
109.0	374.45295233805973	rating	1.0		246	dominance	034	1.0	1		678.0255980381737	2.0585822039874984
109.0	376.51153454204723	fix	2.0		60	dominance	034	1.0	1	0.6200000000000001	680.0841802421612	0.516743982188018
110.0	377.02827852423525	face	0.0		147	dominance	099	1.0	1		680.6009242243492	1.23347033595428
110.0	378.2617488601895	rating	1.0		125	dominance	099	1.0	1		681.8343945603035	1.0501163355102108
110.0	379.31186519569974	fix	2.0		60	dominance	099	1.0	1	-1.0499999999999998	682.8845108958137	0.5167500193188062
111.0	379.82861521501854	face	0.0		147	dominance	092	1.0	1		683.4012609151325	1.233460978401581
111.0	381.0620761934201	rating	1.0		76	dominance	092	1.0	1		684.6347218935341	0.6417430766182406
111.0	381.70381927003837	fix	2.0		60	dominance	092	1.0	1	-1.2599999999999998	685.2764649701523	0.5167965052255568
112.0	382.2206157752639	face	0.0		147	dominance	061	1.0	1		685.7932614753779	1.2334163036339305
112.0	383.45403207889785	rating	1.0		57	dominance	061	1.0	1		687.0266777790118	0.4833912495414552
112.0	383.9374233284393	fix	2.0		60	dominance	061	1.0	1	2.09	687.5100690285533	0.5167485100359954
113.0	384.4541718384753	face	0.0		147	dominance	124	1.0	1		688.0268175385893	1.2334766749413575
113.0	385.68764851341666	rating	1.0		188	dominance	124	1.0	1		689.2602942135306	1.575193067442342
113.0	387.262841580859	fix	2.0		61	dominance	124	1.0	1	2.9699999999999998	690.835487280973	0.5250716003706657
114.0	387.78791318122967	face	0.0		146	dominance	039	1.0	1		691.3605588813436	1.2251297379402786
114.0	389.01304291916995	rating	1.0		129	dominance	039	1.0	1		692.5856886192839	1.083462729169696
114.0	390.09650564833964	fix	2.0		60	dominance	039	1.0	1	2.6399999999999997	693.6691513484536	0.5167460951834073
115.0	390.61325174352305	face	0.0		147	dominance	036	1.0	1		694.185897443637	1.2334630913974252
115.0	391.8467148349205	rating	1.0		315	dominance	036	1.0	1		695.4193605350345	2.633652717674977
115.0	394.48036755259545	fix	2.0		60	dominance	036	1.0	1	1.1900000000000004	698.0530132527094	0.5167497174620621
116.0	394.9971172700575	face	0.0		147	dominance	033	1.0	1		698.5697629701715	1.2334621858276478
116.0	396.23057945588516	rating	1.0		124	dominance	033	1.0	1		699.8032251559991	1.0417929433187965
116.0	397.27237239920396	fix	2.0		60	dominance	033	1.0	1	1.5300000000000002	700.8450180993179	0.5167491137490288
117.0	397.789121512953	face	0.0		147	dominance	172	1.0	1		701.361767213067	1.2334661099630466
117.0	399.02258762291603	rating	1.0		118	dominance	172	1.0	1		702.59523332303	0.9917777297487191
117.0	400.01436535266475	fix	2.0		60	dominance	172	1.0	1	-1.48	703.5870110527787	0.5167551508802717
118.0	400.531120503545	face	0.0		147	dominance	006	1.0	1		704.103766203659	1.2334627895406811
118.0	401.7645832930857	rating	1.0		36	dominance	006	1.0	1		705.3372289931997	0.30836788584520036
118.0	402.0729511789309	fix	2.0		60	dominance	006	1.0	1	0.0	705.6455968790449	0.5167500193188062
119.0	402.5897011982497	face	0.0		147	dominance	100	1.0	1		706.1623468983637	1.233460978401581
119.0	403.8231621766513	rating	1.0		215	dominance	100	1.0	1		707.3958078767653	1.8002210797285443
119.0	405.62338325637984	fix	2.0		60	dominance	100	1.0	1	-0.9500000000000002	709.1960289564938	0.500057050885971
120.0	406.1234403072658	cue	0.0		3600						709.6960860073798	30.003625900739735
120.0	436.12706620800554	fix	1.0		120						739.6997119081195	1.0001207426153087
120.0	437.12718695062085	cue	0.0		480						740.6998326507348	4.000483574174723
120.0	441.1276705247956	fix	1.0		120						744.7003162249096	1.0168076739178105
120.0	442.1444781987134	face	0.0		147	attractiveness	121	2.0	1		745.7171238988274	1.233467921101692
120.0	443.3779461198151	rating	1.0		281	attractiveness	121	2.0	1		746.9505918199291	2.3502894200491937
120.0	445.7282355398643	fix	2.0		60	attractiveness	121	2.0	1	-1.5099999999999998	749.3008812399783	0.5167430766182406
121.0	446.2449786164825	face	0.0		147	attractiveness	011	2.0	1		749.8176243165965	1.2334633932541692
121.0	447.4784420097367	rating	1.0		53	attractiveness	011	2.0	1		751.0510877098507	0.45005330786443665
121.0	447.9284953176011	fix	2.0		60	attractiveness	011	2.0	1	0.0	751.5011410177151	0.5167485100364502
122.0	448.44524382763757	face	0.0		147	attractiveness	033	2.0	1		752.0178895277515	1.2334621858276478
122.0	449.6787060134652	rating	1.0		50	attractiveness	033	2.0	1		753.2513517135792	0.42504871964501945
122.0	450.10375473311024	fix	2.0		60	attractiveness	033	2.0	1	1.21	753.6764004332242	0.5167548490235276
123.0	450.62050958213376	face	0.0		147	attractiveness	044	2.0	1		754.1931552822477	1.2334606765452918
123.0	451.85397025867906	rating	1.0		53	attractiveness	044	2.0	1		755.426615958793	0.4500514967253366
123.0	452.3040217554044	fix	2.0		60	attractiveness	044	2.0	1	1.33	755.8766674555184	0.516755452736561
124.0	452.82077720814095	face	0.0		147	attractiveness	066	2.0	1		756.3934229082549	1.233458563548993
124.0	454.05423577168995	rating	1.0		63	attractiveness	066	2.0	1		757.6268814718039	0.5333946907057907
124.0	454.58763046239574	fix	2.0		60	attractiveness	066	2.0	1	1.38	758.1602761625097	0.5167832235379137
125.0	455.10441368593365	face	0.0		147	attractiveness	124	2.0	1		758.6770593860476	1.2334310946043843
125.0	456.33784478053803	rating	1.0		85	attractiveness	124	2.0	1		759.910490480652	0.7167514078591921
125.0	457.0545961883972	fix	2.0		60	attractiveness	124	2.0	1	3.09	760.6272418885112	0.5167548490230729
126.0	457.5713510374203	face	0.0		147	attractiveness	038	2.0	1		761.1439967375343	1.233457054266637
126.0	458.80480809168694	rating	1.0		92	attractiveness	038	2.0	1		762.3774537918009	0.775095145180785
126.0	459.5799032368677	fix	2.0		60	attractiveness	038	2.0	1	-3.67	763.1525489369817	0.5167482081797061
127.0	460.0966514450474	face	0.0		147	attractiveness	062	2.0	1		763.6692971451614	1.2334727508068681
127.0	461.3301241958543	rating	1.0		73	attractiveness	062	2.0	1		764.9027698959683	0.6167306401289352
127.0	461.94685483598323	fix	2.0		60	attractiveness	062	2.0	1	-3.2199999999999998	765.5195005360972	0.5167479063229621
128.0	462.4636027423062	face	0.0		147	attractiveness	034	2.0	1		766.0362484424202	1.2334688266714693
128.0	463.69707156897766	rating	1.0		42	attractiveness	034	2.0	1		767.2697172690916	0.35837736414032406
128.0	464.055448933118	fix	2.0		60	attractiveness	034	2.0	1	-0.040000000000000036	767.628094633232	0.5167488118927395
129.0	464.5721977450107	face	0.0		147	attractiveness	136	2.0	1		768.1448434451247	1.2334615821146144
129.0	465.80565932712534	rating	1.0		110	attractiveness	136	2.0	1		769.3783050272393	0.9251093928096452
129.0	466.730768719935	fix	2.0		60	attractiveness	136	2.0	1	-3.4	770.303414420049	0.5167584713017277
130.0	467.2475271912367	face	0.0		147	attractiveness	039	2.0	1		770.8201728913507	1.2334525264186595
130.0	468.4809797176554	rating	1.0		48	attractiveness	039	2.0	1		772.0536254177694	0.40838291830050366
130.0	468.8893626359559	fix	2.0		60	attractiveness	039	2.0	1	1.58	772.4620083360699	0.5167512267453276
131.0	469.4061138627012	face	0.0		147	attractiveness	036	2.0	1		772.9787595628152	1.233460978401581
131.0	470.6395748411028	rating	1.0		44	attractiveness	036	2.0	1		774.2122205412168	0.3750407506327065
131.0	471.0146155917355	fix	2.0		60	attractiveness	036	2.0	1	2.24	774.5872612918495	0.5167566601626277
132.0	471.5313722518981	face	0.0		147	attractiveness	070	2.0	1		775.1040179520121	1.2334582616927037
132.0	472.7648305135908	rating	1.0		92	attractiveness	070	2.0	1		776.3374762137048	0.7750924284719076
132.0	473.53992294206273	fix	2.0		60	attractiveness	070	2.0	1	-3.87	777.1125686421767	0.5167473026099287
133.0	474.05667024467266	face	0.0		147	attractiveness	064	2.0	1		777.6293159447866	1.2334639969672025
133.0	475.29013424163986	rating	1.0		197	attractiveness	064	2.0	1		778.8627799417538	1.6501983801167626
133.0	476.9403326217566	fix	2.0		60	attractiveness	064	2.0	1	-1.4700000000000002	780.5129783218706	0.5168022405000556
134.0	477.4571348622567	face	0.0		147	attractiveness	117	2.0	1		781.0297805623707	1.2334141906380864
134.0	478.69054905289477	rating	1.0		59	attractiveness	117	2.0	1		782.2631947530087	0.5000576545990043
134.0	479.19060670749377	fix	2.0		60	attractiveness	117	2.0	1	-1.7999999999999998	782.7632524076078	0.5167509248881288
135.0	479.7073576323819	face	0.0		147	attractiveness	102	2.0	1		783.2800033324959	1.2334621858281025
135.0	480.94081981821	rating	1.0		43	attractiveness	102	2.0	1		784.513465518324	0.36670981202769326
135.0	481.3075296302377	fix	2.0		60	attractiveness	102	2.0	1	-1.4900000000000002	784.8801753303517	0.5167527360276836
136.0	481.8242823662654	face	0.0		147	attractiveness	009	2.0	1		785.3969280663794	1.2334639969667478
136.0	483.0577463632321	rating	1.0		158	attractiveness	009	2.0	1		786.6303920633461	1.3251559390878356
136.0	484.38290230231996	fix	2.0		60	attractiveness	009	2.0	1	3.26	787.9555480024339	0.5167473026099287
137.0	484.8996496049299	face	0.0		147	attractiveness	092	2.0	1		788.4722953050439	1.2334624876843918
137.0	486.1331120926143	rating	1.0		126	attractiveness	092	2.0	1		789.7057577927283	1.0584584428065682
137.0	487.19157053542085	fix	2.0		60	attractiveness	092	2.0	1	-0.009999999999999787	790.7642162355348	0.5167512267448728
138.0	487.7083217621657	face	0.0		147	attractiveness	030	2.0	1		791.2809674622797	1.2334639969672025
138.0	488.9417857591329	rating	1.0		36	attractiveness	030	2.0	1		792.5144314592469	0.3083748285453112
138.0	489.25016058767824	fix	2.0		60	attractiveness	030	2.0	1	1.5099999999999998	792.8228062877922	0.5167466988968954
139.0	489.76690728657513	face	0.0		147	attractiveness	087	2.0	1		793.3395529866891	1.2334600728322584
139.0	491.0003673594074	rating	1.0		48	attractiveness	087	2.0	1		794.5730130595214	0.4083859368661251
139.0	491.4087532962735	fix	2.0		60	attractiveness	087	2.0	1	1.8399999999999999	794.9813989963875	0.5167479063229621
140.0	491.9255012025965	face	0.0		147	attractiveness	012	2.0	1		795.4981469027105	1.2334603746885477
140.0	493.158961577285	rating	1.0		64	attractiveness	012	2.0	1		796.731607277399	0.541731062728104
140.0	493.70069264001313	fix	2.0		60	attractiveness	012	2.0	1	1.8499999999999996	797.2733383401271	0.5167518304579062
141.0	494.21744447047104	face	0.0		147	attractiveness	006	2.0	1		797.790090170585	1.2334652043932692
141.0	495.4509096748643	rating	1.0		63	attractiveness	006	2.0	1		799.0235553749783	0.5334010296928682
141.0	495.9843107045572	fix	2.0		60	attractiveness	006	2.0	1	-2.46	799.5569564046712	0.5167418691921739
142.0	496.50105257374935	face	0.0		147	attractiveness	027	2.0	1		800.0736982738633	1.233468826671924
142.0	497.7345214004213	rating	1.0		145	attractiveness	027	2.0	1		801.3071671005353	1.2168099680270643
142.0	498.95133136844834	fix	2.0		60	attractiveness	027	2.0	1	0.03000000000000025	802.5239770685623	0.5167530378844276
143.0	499.46808440633276	face	0.0		147	attractiveness	172	2.0	1		803.0407301064467	1.2334597709750597
143.0	500.7015441773078	rating	1.0		110	attractiveness	172	2.0	1		804.2741898774218	0.9251087890966119
143.0	501.62665296640444	fix	2.0		60	attractiveness	172	2.0	1	-3.69	805.1992986665184	0.5167521323146502
144.0	502.1434050987191	face	0.0		147	attractiveness	100	2.0	1		805.7160507988331	1.2334627895406811
144.0	503.37686788825977	rating	1.0		485	attractiveness	100	2.0	1		806.9495135883737	4.050486109769736
144.0	507.4273539980295	fix	2.0		60	attractiveness	100	2.0	1	2.6900000000000004	810.9999996981435	0.5167584713017277
145.0	507.94411246933123	face	0.0		147	attractiveness	137	2.0	1		811.5167581694452	1.2334516208488822
145.0	509.1775640901801	rating	1.0		84	attractiveness	137	2.0	1		812.7502097902941	0.7084171488322681
145.0	509.8859812390124	fix	2.0		60	attractiveness	137	2.0	1	0.0	813.4586269391264	0.5167463970401514
146.0	510.40272763605253	face	0.0		147	attractiveness	144	2.0	1		813.9753733361665	1.233466411819336
146.0	511.63619404787187	rating	1.0		116	attractiveness	144	2.0	1		815.2088397479858	0.9751161543958915
146.0	512.6113102022678	fix	2.0		60	attractiveness	144	2.0	1	0.05999999999999961	816.1839559023817	0.5167599805845384
147.0	513.1280701828523	face	0.0		147	attractiveness	018	2.0	1		816.7007158829663	1.23346490253698
147.0	514.3615350853893	rating	1.0		37	attractiveness	018	2.0	1		817.9341807855033	0.31673142495583306
147.0	514.6782665103451	fix	2.0		60	attractiveness	018	2.0	1	-1.33	818.2509122104591	0.5167165132429545
148.0	515.1949830235881	face	0.0		147	attractiveness	043	2.0	1		818.767628723702	1.2334594691187704
148.0	516.4284424927068	rating	1.0		40	attractiveness	043	2.0	1		820.0010881928208	0.3417052238087308
148.0	516.7701477165156	fix	2.0		60	attractiveness	043	2.0	1	0.7400000000000002	820.3427934166295	0.5167527360276836
149.0	517.2869004525433	face	0.0		147	attractiveness	099	2.0	1		820.8595461526572	1.233460978401581
149.0	518.5203614309448	rating	1.0		105	attractiveness	099	2.0	1		822.0930071310588	0.8834761315997639
149.0	519.4038375625446	fix	2.0		60	attractiveness	099	2.0	1	-0.75	822.9764832626586	0.5167156076736319
150.0	519.9205531702182	face	0.0		147	attractiveness	061	2.0	1		823.4931988703322	1.2334630913969704
150.0	521.1540162616152	rating	1.0		112	attractiveness	061	2.0	1		824.7266619617292	0.9417745904411277
150.0	522.0957908520563	fix	2.0		60	attractiveness	061	2.0	1	-0.06999999999999984	825.6684365521703	0.5167515286016169
151.0	522.6125423806579	face	0.0		147	attractiveness	126	2.0	1		826.1851880807719	1.233460978401581
151.0	523.8460033590595	rating	1.0		99	attractiveness	126	2.0	1		827.4186490591735	0.8334352602246327
151.0	524.6794386192842	fix	2.0		60	attractiveness	126	2.0	1	-1.5899999999999999	828.2520843193981	0.5167557545928503
152.0	525.196194373877	face	0.0		147	attractiveness	091	2.0	1		828.768840073991	1.2334938807643994
152.0	526.4296882546414	rating	1.0		73	attractiveness	091	2.0	1		830.0023339547554	0.6167052841797158
152.0	527.0463935388211	fix	2.0		60	attractiveness	091	2.0	1	2.1100000000000003	830.6190392389351	0.5167506230318395
153.0	527.563144161853	face	0.0		147	attractiveness	130	2.0	1		831.1357898619669	1.233460676544837
153.0	528.7966048383978	rating	1.0		109	attractiveness	130	2.0	1		832.3692505385118	0.9167736245003653
153.0	529.7133784628982	fix	2.0		60	attractiveness	130	2.0	1	-2.95	833.2860241630121	0.5167506230318395
154.0	530.23012908593	face	0.0		147	attractiveness	101	2.0	1		833.802774786044	1.2334618839713585
154.0	531.4635909699014	rating	1.0		80	attractiveness	101	2.0	1		835.0362366700153	0.675081923864127
154.0	532.1386728937655	fix	2.0		60	attractiveness	101	2.0	1	0.6399999999999997	835.7113185938795	0.5167545471672383
155.0	532.6554274409327	face	0.0		147	attractiveness	141	2.0	1		836.2280731410467	1.2334962956165327
155.0	533.8889237365493	rating	1.0		52	attractiveness	141	2.0	1		837.4615694366632	0.44167860006155024
155.0	534.3306023366108	fix	2.0		60	attractiveness	141	2.0	1	-1.7200000000000002	837.9032480367248	0.5167500193188062
156.0	534.8473523559296	face	0.0		147	attractiveness	005	2.0	1		838.4199980560436	1.233477882367879
156.0	536.0808302382975	rating	1.0		176	attractiveness	005	2.0	1		839.6534759384115	1.4751689792901743
156.0	537.5559992175877	fix	2.0		60	attractiveness	005	2.0	1	-3.89	841.1286449177016	0.5167430766186953
157.0	538.0727422942064	face	0.0		147	attractiveness	024	2.0	1		841.6453879943203	1.2334685248147252
157.0	539.3062108190211	rating	1.0		195	attractiveness	024	2.0	1		842.8788565191351	1.6335675941309091
157.0	540.939778413152	fix	2.0		60	attractiveness	024	2.0	1	-3.86	844.512424113266	0.5167071556907104
158.0	541.4564855688427	face	0.0		147	attractiveness	042	2.0	1		845.0291312689567	1.2334639969667478
158.0	542.6899495658095	rating	1.0		50	attractiveness	042	2.0	1		846.2625952659234	0.4250478140756968
158.0	543.1149973798852	fix	2.0		60	attractiveness	042	2.0	1	-1.4	846.6876430799991	0.5167530378839729
159.0	543.6317504177691	face	0.0		147	attractiveness	082	2.0	1		847.2043961178831	1.2334636951104585
159.0	544.8652141128796	rating	1.0		41	attractiveness	082	2.0	1		848.4378598129936	0.3500434069705989
159.0	545.2152575198502	fix	2.0		60	attractiveness	082	2.0	1	1.0300000000000002	848.7879032199642	0.500062484303271
160.0	545.7153200041535	cue	0.0		480						849.2879657042674	4.0004826686049455
160.0	549.7158026727584	fix	1.0		120						853.2884483728724	1.0168118999090439
160.0	550.7326145726674	face	0.0		147	trustworthiness	117	2.0	1		854.3052602727814	1.233459167262481
160.0	551.9660737399299	rating	1.0		58	trustworthiness	117	2.0	1		855.5387194400439	0.4917197732938803
160.0	552.4577935132238	fix	2.0		60	trustworthiness	117	2.0	1	-2.1399999999999997	856.0304392133378	0.5167521323141955
161.0	552.974545645538	face	0.0		147	trustworthiness	101	2.0	1		856.547191345652	1.2334633932541692
161.0	554.2080090387922	rating	1.0		232	trustworthiness	101	2.0	1		857.7806547389062	1.9418989553346364
161.0	556.1499079941268	fix	2.0		60	trustworthiness	101	2.0	1	0.05999999999999961	859.7225536942408	0.5167500193188062
162.0	556.6666580134456	face	0.0		147	trustworthiness	092	2.0	1		860.2393037135596	1.233472448950124
162.0	557.9001304623957	rating	1.0		52	trustworthiness	092	2.0	1		861.4727761625097	0.4417121061378566
162.0	558.3418425685336	fix	2.0		60	trustworthiness	092	2.0	1	0.0	861.9144882686476	0.5167536415970062
163.0	558.8585962101306	face	0.0		147	trustworthiness	061	2.0	1		862.4312419102446	1.2334555449838263
163.0	560.0920517551144	rating	1.0		52	trustworthiness	061	2.0	1		863.6646974552284	0.44176161061022867
163.0	560.5338133657247	fix	2.0		60	trustworthiness	061	2.0	1	0.9000000000000004	864.1064590658386	0.5167110798251997
164.0	561.0505244455499	face	0.0		147	trustworthiness	070	2.0	1		864.6231701456638	1.2334706378105693
164.0	562.2839950833604	rating	1.0		112	trustworthiness	070	2.0	1		865.8566407834744	0.9417709681629276
164.0	563.2257660515234	fix	2.0		60	trustworthiness	070	2.0	1	-3.87	866.7984117516373	0.5167503211750955
165.0	563.7425163726984	face	0.0		147	trustworthiness	027	2.0	1		867.3151620728124	1.233459167262481
165.0	564.9759755399609	rating	1.0		135	trustworthiness	027	2.0	1		868.5486212400749	1.1334694907559424
165.0	566.1094450307169	fix	2.0		60	trustworthiness	027	2.0	1	1.1900000000000004	869.6820907308309	0.5167518304579062
166.0	566.6261968611748	face	0.0		147	trustworthiness	043	2.0	1		870.1988425612888	1.2334606765452918
166.0	567.8596575377201	rating	1.0		59	trustworthiness	043	2.0	1		871.432303237834	0.5000588620246162
166.0	568.3597163997447	fix	2.0		60	trustworthiness	043	2.0	1	1.9299999999999997	871.9323620998587	0.5167545471672383
167.0	568.8764709469119	face	0.0		147	trustworthiness	034	2.0	1		872.4491166470259	1.2334597709750597
167.0	570.109930717887	rating	1.0		115	trustworthiness	034	2.0	1		873.682576418001	0.9667837065085223
167.0	571.0767144243955	fix	2.0		60	trustworthiness	034	2.0	1	0.9000000000000004	874.6493601245095	0.516755452736561
168.0	571.5934698771321	face	0.0		147	trustworthiness	044	2.0	1		875.166115577246	1.233457356123381
168.0	572.8269272332554	rating	1.0		56	trustworthiness	044	2.0	1		876.3995729333694	0.47505880165363124
168.0	573.3019860349091	fix	2.0		60	trustworthiness	044	2.0	1	2.62	876.8746317350231	0.5167485100359954
169.0	573.8187345449451	face	0.0		147	trustworthiness	039	2.0	1		877.391380245059	1.233468222958436
169.0	575.0522027679035	rating	1.0		83	trustworthiness	039	2.0	1		878.6248484680175	0.7000786638141108
169.0	575.7522814317176	fix	2.0		60	trustworthiness	039	2.0	1	3.3200000000000003	879.3249271318316	0.5167485100359954
170.0	576.2690299417536	face	0.0		147	trustworthiness	011	2.0	1		879.8416756418676	1.2334612802583251
170.0	577.5024912220119	rating	1.0		44	trustworthiness	011	2.0	1		881.0751369221259	0.375047391476528
170.0	577.8775386134885	fix	2.0		60	trustworthiness	011	2.0	1	0.7800000000000002	881.4501843136024	0.5167545471667836
171.0	578.3942931606553	face	0.0		147	trustworthiness	130	2.0	1		881.9669388607692	1.2334540357010155
171.0	579.6277471963563	rating	1.0		82	trustworthiness	130	2.0	1		883.2003928964702	0.6917513474877524
171.0	580.319498543844	fix	2.0		60	trustworthiness	130	2.0	1	-3.08	883.892144243958	0.5167463970401514
172.0	580.8362449408842	face	0.0		147	trustworthiness	012	2.0	1		884.4088906409982	1.2334905603424886
172.0	582.0697355012267	rating	1.0		72	trustworthiness	012	2.0	1		885.6423812013406	0.6083776659970681
172.0	582.6781131672237	fix	2.0		60	trustworthiness	012	2.0	1	1.7599999999999998	886.2507588673377	0.516768734424204
173.0	583.1948819016479	face	0.0		147	trustworthiness	009	2.0	1		886.7675276017619	1.2334461874311273
173.0	584.4283280890791	rating	1.0		79	trustworthiness	009	2.0	1		888.000973789193	0.666744344415747
173.0	585.0950724334948	fix	2.0		60	trustworthiness	009	2.0	1	2.5999999999999996	888.6677181336088	0.5167494156057728
174.0	585.6118218491006	face	0.0		147	trustworthiness	082	2.0	1		889.1844675492146	1.233464600680236
174.0	586.8452864497808	rating	1.0		86	trustworthiness	082	2.0	1		890.4179321498948	0.7250853650289173
174.0	587.5703718148097	fix	2.0		61	trustworthiness	082	2.0	1	2.5300000000000002	891.1430175149237	0.525083674632242
175.0	588.095455489442	face	0.0		146	trustworthiness	121	2.0	1		891.668101189556	1.2251309453663453
175.0	589.3205864348083	rating	1.0		48	trustworthiness	121	2.0	1		892.8932321349223	0.40838472944005844
175.0	589.7289711642484	fix	2.0		60	trustworthiness	121	2.0	1	-2.25	893.3016168643624	0.5167412654791406
176.0	590.2457124297275	face	0.0		147	trustworthiness	126	2.0	1		893.8183581298415	1.2334739582329348
176.0	591.4791863879605	rating	1.0		147	trustworthiness	126	2.0	1		895.0518320880744	1.2334727508064134
176.0	592.7126591387669	fix	2.0		60	trustworthiness	126	2.0	1	-1.65	896.2853048388808	0.5167530378844276
177.0	593.2294121766513	face	0.0		147	trustworthiness	005	2.0	1		896.8020578767653	1.2334642988234918
177.0	594.4628764754748	rating	1.0		670	trustworthiness	005	2.0	1		898.0355221755888	5.5923415373913485
177.0	600.0552180128661	fix	2.0		60	trustworthiness	005	2.0	1	2.88	903.6278637129801	0.5167494156057728
178.0	600.5719674284719	face	0.0		147	trustworthiness	036	2.0	1		904.1446131285859	1.2334697322412467
178.0	601.8054371607132	rating	1.0		277	trustworthiness	036	2.0	1		905.3780828608271	2.316940309680831
178.0	604.122377470394	fix	2.0		60	trustworthiness	036	2.0	1	1.4699999999999998	907.695023170508	0.5167518304579062
179.0	604.6391293008519	face	0.0		147	trustworthiness	102	2.0	1		908.2117750009659	1.233454941270793
179.0	605.8725842421227	rating	1.0		72	trustworthiness	102	2.0	1		909.4452299422367	0.6084057386551649
179.0	606.4809899807778	fix	2.0		60	trustworthiness	102	2.0	1	-2.4	910.0536356808918	0.5167515286011621
180.0	606.997741509379	face	0.0		147	trustworthiness	087	2.0	1		910.570387209493	1.2334694303849574
180.0	608.231210939764	rating	1.0		202	trustworthiness	087	2.0	1		911.803856639878	1.6918627325499074
180.0	609.9230736723139	fix	2.0		61	trustworthiness	087	2.0	1	1.7199999999999998	913.4957193724279	0.5250939377551731
181.0	610.448167610069	face	0.0		146	trustworthiness	042	2.0	1		914.020813310183	1.2251252100918464
181.0	611.6732928201609	rating	1.0		49	trustworthiness	042	2.0	1		915.2459385202749	0.4167096309142835
181.0	612.0900024510752	fix	2.0		60	trustworthiness	042	2.0	1	1.6900000000000004	915.6626481511892	0.5167466988968954
182.0	612.6067491499721	face	0.0		147	trustworthiness	024	2.0	1		916.179394850086	1.2334709396673134
182.0	613.8402200896394	rating	1.0		555	trustworthiness	024	2.0	1		917.4128657897534	4.633889976913906
182.0	618.4741100665533	fix	2.0		60	trustworthiness	024	2.0	1	0.1900000000000004	922.0467557666673	0.5167506230318395
183.0	618.9908606895851	face	0.0		147	trustworthiness	064	2.0	1		922.5635063896991	1.2334600728318037
183.0	620.2243207624169	rating	1.0		327	trustworthiness	064	2.0	1		923.7969664625309	2.7336626185692694
183.0	622.9579833809862	fix	2.0		60	trustworthiness	064	2.0	1	-1.7799999999999998	926.5306290811002	0.5167545471667836
184.0	623.474737928153	face	0.0		147	trustworthiness	144	2.0	1		927.047383628267	1.2334652043932692
184.0	624.7082031325463	rating	1.0		81	trustworthiness	144	2.0	1		928.2808488326602	0.6834071271950961
184.0	625.3916102597414	fix	2.0		60	trustworthiness	144	2.0	1	2.08	928.9642559598553	0.5167364357744191
185.0	625.9083466955158	face	0.0		147	trustworthiness	006	2.0	1		929.4809923956298	1.2334869380642886
185.0	627.1418336335801	rating	1.0		76	trustworthiness	006	2.0	1		930.714479333694	0.6417310023566642
185.0	627.7835646359367	fix	2.0		60	trustworthiness	006	2.0	1	-2.34	931.3562103360507	0.5167548490235276
186.0	628.3003194849603	face	0.0		147	trustworthiness	136	2.0	1		931.8729651850742	1.2334579598359596
186.0	629.5337774447962	rating	1.0		50	trustworthiness	136	2.0	1		933.1064231449102	0.42504932335850754
186.0	629.9588267681547	fix	2.0		60	trustworthiness	136	2.0	1	-2.35	933.5314724682687	0.5167512267448728
187.0	630.4755779948996	face	0.0		147	trustworthiness	038	2.0	1		934.0482236950136	1.2334639969672025
187.0	631.7090419918668	rating	1.0		127	trustworthiness	038	2.0	1		935.2816876919808	1.0667939092595589
187.0	632.7758359011264	fix	2.0		60	trustworthiness	038	2.0	1	-0.009999999999999787	936.3484816012403	0.5167629991497051
188.0	633.2925989002761	face	0.0		147	trustworthiness	141	2.0	1		936.86524460039	1.2334510171358488
188.0	634.5260499174119	rating	1.0		385	trustworthiness	141	2.0	1		938.0986956175259	3.217052358827914
188.0	637.7431022762398	fix	2.0		60	trustworthiness	141	2.0	1	-0.10000000000000009	941.3157479763538	0.5167599805845384
189.0	638.2598622568244	face	0.0		147	trustworthiness	100	2.0	1		941.8325079569383	1.233466411819336
189.0	639.4933286686437	rating	1.0		73	trustworthiness	100	2.0	1		943.0659743687577	0.6167638443480428
189.0	640.1100925129917	fix	2.0		60	trustworthiness	100	2.0	1	1.0999999999999996	943.6827382131057	0.5167159095299212
190.0	640.6268084225217	face	0.0		147	trustworthiness	030	2.0	1		944.1994541226356	1.2334597709755144
190.0	641.8602681934972	rating	1.0		94	trustworthiness	030	2.0	1		945.4329138936112	0.791767285512833
190.0	642.65203547901	fix	2.0		60	trustworthiness	030	2.0	1	3.3600000000000003	946.224681179124	0.5167406617661072
191.0	643.1687761407761	face	0.0		147	trustworthiness	066	2.0	1		946.7414218408901	1.233506256882265
191.0	644.4022823976584	rating	1.0		66	trustworthiness	066	2.0	1		947.9749280977724	0.5583703006973337
191.0	644.9606526983557	fix	2.0		60	trustworthiness	066	2.0	1	2.4699999999999998	948.5332983984697	0.5167430766186953
192.0	645.4773957749744	face	0.0		147	trustworthiness	091	2.0	1		949.0500414750884	1.2334591672620263
192.0	646.7108549422364	rating	1.0		77	trustworthiness	091	2.0	1		950.2835006423504	0.6500794486410086
192.0	647.3609343908774	fix	2.0		60	trustworthiness	091	2.0	1	2.66	950.9335800909914	0.5167590750152158
193.0	647.8776934658927	face	0.0		147	trustworthiness	099	2.0	1		951.4503391660066	1.233457054266637
193.0	649.1111505201593	rating	1.0		233	trustworthiness	099	2.0	1		952.6837962202733	1.9502280828000949
193.0	651.0613786029594	fix	2.0		60	trustworthiness	099	2.0	1	0.0	954.6340243030734	0.516755452736561
194.0	651.578134055696	face	0.0		147	trustworthiness	172	2.0	1		955.1507797558099	1.2334576579796703
194.0	652.8115917136756	rating	1.0		133	trustworthiness	172	2.0	1		956.3842374137896	1.1168079154031147
194.0	653.9283996290787	fix	2.0		60	trustworthiness	172	2.0	1	-3.9	957.5010453291927	0.516743982188018
195.0	654.4451436112668	face	0.0		147	trustworthiness	062	2.0	1		958.0177893113807	1.2334612802578704
195.0	655.6786048915246	rating	1.0		100	trustworthiness	062	2.0	1		959.2512505916386	0.8417640858338018
195.0	656.5203689773584	fix	2.0		60	trustworthiness	062	2.0	1	-3.07	960.0930146774724	0.5167636028627385
196.0	657.0371325802212	face	0.0		147	trustworthiness	137	2.0	1		960.6097782803351	1.233458865405737
196.0	658.2705914456269	rating	1.0		52	trustworthiness	137	2.0	1		961.8432371457409	0.44171301170717925
196.0	658.7123044573341	fix	2.0		60	trustworthiness	137	2.0	1	-1.6800000000000002	962.2849501574481	0.5167497174625169
197.0	659.2290541747966	face	0.0		147	trustworthiness	124	2.0	1		962.8016998749106	1.2334655062495585
197.0	660.4625196810462	rating	1.0		59	trustworthiness	124	2.0	1		964.0351653811601	0.5000561453161936
197.0	660.9625758263624	fix	2.0		60	trustworthiness	124	2.0	1	1.92	964.5352215264763	0.5167581694454384
198.0	661.4793339958078	face	0.0		147	trustworthiness	018	2.0	1		965.0519796959218	1.2334540357010155
198.0	662.7127880315088	rating	1.0		131	trustworthiness	018	2.0	1		966.2854337316228	1.1001309453663453
198.0	663.8129189768752	fix	2.0		60	trustworthiness	018	2.0	1	0.11000000000000032	967.3855646769891	0.5167542453104943
199.0	664.3296732221856	face	0.0		147	trustworthiness	033	2.0	1		967.9023189222996	1.2334597709755144
199.0	665.5631329931612	rating	1.0		68	trustworthiness	033	2.0	1		969.1357786932751	0.5750684006916345
199.0	666.1382013938528	fix	2.0		60	trustworthiness	033	2.0	1	-0.6699999999999999	969.7108470939668	0.5000597675943936
200.0	666.6382611614472	cue	0.0		480						970.2109068615612	4.000502892993154
200.0	670.6387640544403	fix	1.0		120						974.2114097545543	1.01679529779949
200.0	671.6555593522398	face	0.0		147	dominance	066	2.0	1		975.2282050523538	1.233456752409893
200.0	672.8890161046497	rating	1.0		111	dominance	066	2.0	1		976.4616618047637	0.9334545186716241
200.0	673.8224706233214	fix	2.0		60	dominance	066	2.0	1	3.42	977.3951163234353	0.5167427747619513
201.0	674.3392133980833	face	0.0		147	dominance	018	2.0	1		977.9118590981973	1.23346852481518
201.0	675.5726819228985	rating	1.0		58	dominance	018	2.0	1		979.1453276230125	0.49172098071994697
201.0	676.0644029036184	fix	2.0		60	dominance	018	2.0	1	-2.9699999999999998	979.6370486037324	0.5167527360276836
202.0	676.5811556396461	face	0.0		147	dominance	039	2.0	1		980.1538013397601	1.2334600728318037
202.0	677.8146157124779	rating	1.0		56	dominance	039	2.0	1		981.3872614125919	0.4750518589535204
202.0	678.2896675714314	fix	2.0		60	dominance	039	2.0	1	1.0700000000000003	981.8623132715454	0.5167563583058836
203.0	678.8064239297373	face	0.0		147	dominance	061	2.0	1		982.3790696298513	1.2334757693720348
203.0	680.0398996991094	rating	1.0		49	dominance	061	2.0	1		983.6125453992233	0.4166975566522524
203.0	680.4565972557616	fix	2.0		60	dominance	061	2.0	1	1.2699999999999996	984.0292429558756	0.5167503211755502
204.0	680.9733475769372	face	0.0		147	dominance	044	2.0	1		984.5459932770511	1.2334633932537145
204.0	682.2068109701909	rating	1.0		64	dominance	044	2.0	1		985.7794566703049	0.5417307608718147
204.0	682.7485417310627	fix	2.0		60	dominance	044	2.0	1	1.4100000000000001	986.3211874311767	0.5167648102892599
205.0	683.265306541352	face	0.0		147	dominance	121	2.0	1		986.8379522414659	1.2334489041400047
205.0	684.498755445492	rating	1.0		72	dominance	121	2.0	1		988.0714011456059	0.6084015126634768
205.0	685.1071569581554	fix	2.0		60	dominance	121	2.0	1	2.0599999999999996	988.6798026582694	0.5167524341709395
206.0	685.6239093923264	face	0.0		147	dominance	036	2.0	1		989.1965550924403	1.2334784860809123
206.0	686.8573878784073	rating	1.0		84	dominance	036	2.0	1		990.4300335785213	0.7084035652878811
206.0	687.5657914436952	fix	2.0		60	dominance	036	2.0	1	-1.4700000000000002	991.1384371438091	0.5167548490235276
207.0	688.0825462927187	face	0.0		147	dominance	141	2.0	1		991.6551919928327	1.2334582616927037
207.0	689.3160045544114	rating	1.0		55	dominance	141	2.0	1		992.8886502545254	0.46672816490536206
207.0	689.7827327193168	fix	2.0		60	dominance	141	2.0	1	-1.9	993.3553784194307	0.5167409636228513
208.0	690.2994736829396	face	0.0		147	dominance	064	2.0	1		993.8721193830536	1.2334633932537145
208.0	691.5329370761933	rating	1.0		81	dominance	064	2.0	1		995.1055827763073	0.6834192014566725
208.0	692.21635627765	fix	2.0		60	dominance	064	2.0	1	-0.009999999999999787	995.789001977764	0.5167479063229621
209.0	692.733104183973	face	0.0		147	dominance	126	2.0	1		996.3057498840869	1.233460978401581
209.0	693.9665651623745	rating	1.0		78	dominance	126	2.0	1		997.5392108624885	0.6584112928153445
209.0	694.6249764551899	fix	2.0		60	dominance	126	2.0	1	-1.67	998.1976221553039	0.5167533397407169
210.0	695.1417297949306	face	0.0		147	dominance	005	2.0	1		998.7143754950446	1.2334597709755144
210.0	696.3751895659061	rating	1.0		56	dominance	005	2.0	1		999.9478352660201	0.47506061279273126
210.0	696.8502501786988	fix	2.0		60	dominance	005	2.0	1	-3.62	1000.4228958788128	0.5167500193188062
211.0	697.3670001980176	face	0.0		147	dominance	082	2.0	1		1000.9396458981316	1.2334585635494477
211.0	698.6004587615671	rating	1.0		145	dominance	082	2.0	1		1002.1731044616811	1.2168090624577417
211.0	699.8172678240248	fix	2.0		60	dominance	082	2.0	1	0.7199999999999998	1003.3899135241388	0.5167608861543158
212.0	700.3340287101792	face	0.0		147	dominance	033	2.0	1		1003.9066744102931	1.233456752409893
212.0	701.567485462589	rating	1.0		54	dominance	033	2.0	1		1005.140131162703	0.4583936040221488
212.0	702.0258790666112	fix	2.0		60	dominance	033	2.0	1	0.7400000000000002	1005.5985247667252	0.5167436803312739
213.0	702.5426227469425	face	0.0		147	dominance	092	2.0	1		1006.1152684470565	1.2334597709755144
213.0	703.776082517918	rating	1.0		37	dominance	092	2.0	1		1007.348728218032	0.31671391727695664
213.0	704.0927964351949	fix	2.0		60	dominance	092	2.0	1	-1.7999999999999998	1007.6654421353089	0.5167473026099287
214.0	704.6095437378049	face	0.0		147	dominance	070	2.0	1		1008.1821894379189	1.2334600728318037
214.0	705.8430038106367	rating	1.0		83	dominance	070	2.0	1		1009.4156495107507	0.7000807768099548
214.0	706.5430845874466	fix	2.0		60	dominance	070	2.0	1	1.9900000000000002	1010.1157302875606	0.5167470007531847
215.0	707.0598315881998	face	0.0		147	dominance	172	2.0	1		1010.6324772883138	1.233502332747321
215.0	708.2933339209471	rating	1.0		359	dominance	172	2.0	1		1011.8659796210611	3.0003223827834518
215.0	711.2936563037306	fix	2.0		60	dominance	172	2.0	1	-3.24	1014.8663020038446	0.5167515286011621
216.0	711.8104078323317	face	0.0		147	dominance	042	2.0	1		1015.3830535324457	1.2334624876843918
216.0	713.0438703200161	rating	1.0		379	dominance	042	2.0	1		1016.6165160201301	3.1670483139500902
216.0	716.2109186339662	fix	2.0		60	dominance	042	2.0	1	0.0	1019.7835643340802	0.5167473026099287
217.0	716.7276659365762	face	0.0		147	dominance	099	2.0	1		1020.3003116366901	1.2334636951104585
217.0	717.9611296316866	rating	1.0		55	dominance	099	2.0	1		1021.5337753318006	0.4667230333443513
217.0	718.427852665031	fix	2.0		60	dominance	099	2.0	1	1.0599999999999996	1022.000498365145	0.5167488118927395
218.0	718.9446014769237	face	0.0		147	dominance	009	2.0	1		1022.5172471770377	1.23347395823248
218.0	720.1780754351562	rating	1.0		47	dominance	009	2.0	1		1023.7507211352702	0.4000393017213355
218.0	720.5781147368775	fix	2.0		60	dominance	009	2.0	1	2.17	1024.1507604369915	0.5167639047194825
219.0	721.094878641597	face	0.0		147	dominance	011	2.0	1		1024.667524341711	1.233445583718094
219.0	722.3283242253151	rating	1.0		94	dominance	011	2.0	1		1025.900969925429	0.7917621539518223
219.0	723.1200863792669	fix	2.0		61	dominance	011	2.0	1	2.2	1026.692732079381	0.5250912210458409
220.0	723.6451776003128	face	0.0		146	dominance	043	2.0	1		1027.2178233004267	1.225122795239713
220.0	724.8703003955525	rating	1.0		62	dominance	043	2.0	1		1028.4429460956665	0.5250595261095441
220.0	725.395359921662	fix	2.0		60	dominance	043	2.0	1	0.0	1028.968005621776	0.5167587731584717
221.0	725.9121186948205	face	0.0		147	dominance	136	2.0	1		1029.4847643949345	1.2334642988234918
221.0	727.145582993644	rating	1.0		89	dominance	136	2.0	1		1030.718228693758	0.750081501265413
221.0	727.8956644949094	fix	2.0		60	dominance	136	2.0	1	-3.15	1031.4683101950234	0.5167500193188062
222.0	728.4124145142282	face	0.0		147	dominance	012	2.0	1		1031.9850602143422	1.2334649025365252
222.0	729.6458794167647	rating	1.0		40	dominance	012	2.0	1		1033.2185251168787	0.34171277022187496
222.0	729.9875921869866	fix	2.0		60	dominance	012	2.0	1	0.8300000000000001	1033.5602378871006	0.5167388506270072
223.0	730.5043310376136	face	0.0		147	dominance	091	2.0	1		1034.0769767377276	1.233464600680236
223.0	731.7377956382938	rating	1.0		95	dominance	091	2.0	1		1035.3104413384078	0.800091885130314
223.0	732.5378875234242	fix	2.0		60	dominance	091	2.0	1	1.6900000000000004	1036.1105332235381	0.516758773158017
224.0	733.0546462965822	face	0.0		147	dominance	101	2.0	1		1036.6272919966962	1.233455243127537
224.0	734.2881015397097	rating	1.0		78	dominance	101	2.0	1		1037.8607472398237	0.6584191410852327
224.0	734.946520680795	fix	2.0		61	dominance	101	2.0	1	0.8099999999999996	1038.519166380909	0.5250848820587635
225.0	735.4716055628537	face	0.0		146	dominance	087	2.0	1		1039.0442512629677	1.2251240026657797
225.0	736.6967295655195	rating	1.0		81	dominance	087	2.0	1		1040.2693752656335	0.6834119568998176
225.0	737.3801415224193	fix	2.0		60	dominance	087	2.0	1	1.7199999999999998	1040.9527872225333	0.5167506230318395
226.0	737.8968921454511	face	0.0		147	dominance	117	2.0	1		1041.4695378455651	1.233464600680236
226.0	739.1303567461314	rating	1.0		57	dominance	117	2.0	1		1042.7030024462454	0.4834187184860639
226.0	739.6137754646174	fix	2.0		60	dominance	117	2.0	1	-1.9	1043.1864211647314	0.5167252670826201
227.0	740.1305007317001	face	0.0		147	dominance	006	2.0	1		1043.703146431814	1.2334561486968596
227.0	741.3639568803969	rating	1.0		92	dominance	006	2.0	1		1044.936602580511	0.7750927303286517
227.0	742.1390496107256	fix	2.0		60	dominance	006	2.0	1	0.0	1045.7116953108396	0.5167548490235276
228.0	742.6558044597491	face	0.0		147	dominance	034	2.0	1		1046.228450159863	1.2334612802583251
228.0	743.8892657400074	rating	1.0		36	dominance	034	2.0	1		1047.4619114401214	0.3083675839884563
228.0	744.1976333239959	fix	2.0		60	dominance	034	2.0	1	0.0	1047.7702790241099	0.5167548490235276
229.0	744.7143881730194	face	0.0		147	dominance	124	2.0	1		1048.2870338731334	1.2334658081058478
229.0	745.9478539811253	rating	1.0		78	dominance	124	2.0	1		1049.5204996812392	0.6584022371193896
229.0	746.6062562182447	fix	2.0		60	dominance	124	2.0	1	2.9000000000000004	1050.1789019183586	0.5167533397407169
230.0	747.1230095579854	face	0.0		147	dominance	027	2.0	1		1050.6956552580994	1.2334594691187704
230.0	748.3564690271041	rating	1.0		217	dominance	027	2.0	1		1051.9291147272181	1.816883560651604
230.0	750.1733525877557	fix	2.0		60	dominance	027	2.0	1	-2.2	1053.7459982878697	0.5167533397407169
231.0	750.6901059274965	face	0.0		147	dominance	038	2.0	1		1054.2627516276104	1.2334636951104585
231.0	751.9235696226069	rating	1.0		296	dominance	038	2.0	1		1055.496215322721	2.4752942497534605
231.0	754.3988638723604	fix	2.0		60	dominance	038	2.0	1	0.07000000000000028	1057.9715095724744	0.5167865439602792
232.0	754.9156504163207	face	0.0		147	dominance	144	2.0	1		1058.4882961164346	1.2334271704689854
232.0	756.1490775867896	rating	1.0		89	dominance	144	2.0	1		1059.7217232869036	0.7500875383962011
232.0	756.8991651251858	fix	2.0		60	dominance	144	2.0	1	0.08000000000000007	1060.4718108252998	0.5167521323146502
233.0	757.4159172575005	face	0.0		147	dominance	102	2.0	1		1060.9885629576145	1.2334630913974252
233.0	758.6493803488979	rating	1.0		50	dominance	102	2.0	1		1062.222026049012	0.4250580771977184
233.0	759.0744384260956	fix	2.0		60	dominance	102	2.0	1	-1.44	1062.6470841262096	0.5167548490235276
234.0	759.5911932751192	face	0.0		147	dominance	024	2.0	1		1063.1638389752331	1.2334498097097821
234.0	760.824643084829	rating	1.0		97	dominance	024	2.0	1		1064.397288784943	0.816763723605618
234.0	761.6414068084346	fix	2.0		60	dominance	024	2.0	1	0.6500000000000004	1065.2140525085485	0.5167515286016169
235.0	762.1581583370362	face	0.0		147	dominance	100	2.0	1		1065.7308040371502	1.2334636951100038
235.0	763.3916220321462	rating	1.0		51	dominance	100	2.0	1		1066.9642677322602	0.43338177124587673
235.0	763.8250038033921	fix	2.0		60	dominance	100	2.0	1	0.0	1067.397649503506	0.5167974107957889
236.0	764.3418012141879	face	0.0		147	dominance	137	2.0	1		1067.9144469143018	1.2334160017771865
236.0	765.575217215965	rating	1.0		168	dominance	137	2.0	1		1069.147862916079	1.4085181500299768
236.0	766.983735365995	fix	2.0		60	dominance	137	2.0	1	-2.2	1070.556381066109	0.5167364357744191
237.0	767.5004718017694	face	0.0		147	dominance	062	2.0	1		1071.0731175018834	1.2334730526631574
237.0	768.7339448544326	rating	1.0		393	dominance	062	2.0	1		1072.3065905545466	3.283709527075189
237.0	772.0176543815078	fix	2.0		60	dominance	062	2.0	1	-2.6	1075.5903000816218	0.5167648102892599
238.0	772.534419191797	face	0.0		147	dominance	130	2.0	1		1076.107064891911	1.2334558468405703
238.0	773.7678750386376	rating	1.0		166	dominance	130	2.0	1		1077.3405207387516	1.3918330298670298
238.0	775.1597080685046	fix	2.0		60	dominance	130	2.0	1	-2.75	1078.7323537686186	0.5167491137490288
239.0	775.6764571822537	face	0.0		147	dominance	030	2.0	1		1079.2491028823677	1.2334636951104585
239.0	776.9099208773641	rating	1.0		312	dominance	030	2.0	1		1080.482566577478	2.608648733168593
239.0	779.5185696105327	fix	2.0		60	dominance	030	2.0	1	-1.2999999999999998	1083.0912153106467	0.500058560168327
