trial_nr	onset	event_type	phase	response	nr_frames	face_age	face_sex	face_eth	attractiveness	expression	face_id	sub_id	ses	run	trial_type	catch	rating_type	onset_abs	duration
-1.0	0.059558709888733574	fix	0.0		713													25.25800734839504	5.949605654617699
-1.0	0.7010569808535365	pulse	0.0	t														25.899505619359843	
-1.0	1.4010529359766224	pulse	0.0	t														26.59950157448293	
-1.0	2.1010431558243	pulse	0.0	t														27.299491794330606	
-1.0	2.801030960819844	pulse	0.0	t														27.99947959932615	
-1.0	3.5010178602460655	pulse	0.0	t														28.699466498752372	
-1.0	4.201022569208362	pulse	0.0	t														29.39947120771467	
-1.0	4.900997998087405	pulse	0.0	t														30.09944663659371	
-1.0	5.600977652955407	pulse	0.0	t														30.799426291461714	
0.0	6.009164364506432	face	0.0		145	40.0	male	black	2.408674890569041	neutral	061	sub-02	1.0	3.0	061_neutral	0.0		31.20761300301274	1.2416850597910525
0.0	6.300995341749513	pulse	0.0	t		40.0	male	black	2.408674890569041	neutral	061	sub-02	1.0	3.0	061_neutral	0.0		31.49944398025582	
0.0	7.000961413074037	pulse	0.0	t		40.0	male	black	2.408674890569041	neutral	061	sub-02	1.0	3.0	061_neutral	0.0		32.199410051580344	
0.0	7.250849424297485	fix	1.0		445	40.0	male	black	2.408674890569041	neutral	061	sub-02	1.0	3.0	061_neutral	0.0		32.44929806280379	3.7582769062846637
0.0	7.700954651487336	pulse	1.0	t		40.0	male	black	2.408674890569041	neutral	061	sub-02	1.0	3.0	061_neutral	0.0		32.89940328999364	
0.0	8.400944267623345	pulse	1.0	t		40.0	male	black	2.408674890569041	neutral	061	sub-02	1.0	3.0	061_neutral	0.0		33.59939290612965	
0.0	9.100929054053267	pulse	1.0	t		40.0	male	black	2.408674890569041	neutral	061	sub-02	1.0	3.0	061_neutral	0.0		34.299377692559574	
0.0	9.800939800146807	pulse	1.0	t		40.0	male	black	2.408674890569041	neutral	061	sub-02	1.0	3.0	061_neutral	0.0		34.999388438653114	
0.0	10.500907380754143	pulse	1.0	t		40.0	male	black	2.408674890569041	neutral	061	sub-02	1.0	3.0	061_neutral	0.0		35.69935601926045	
1.0	11.009126330582149	face	0.0		146	20.0	male	black	2.609629924393156	neutral	043	sub-02	1.0	3.0	043_neutral	0.0		36.207574969088455	1.2416509500035318
1.0	11.20091420271092	pulse	0.0	t		20.0	male	black	2.609629924393156	neutral	043	sub-02	1.0	3.0	043_neutral	0.0		36.399362841217226	
1.0	11.900903818846928	pulse	0.0	t		20.0	male	black	2.609629924393156	neutral	043	sub-02	1.0	3.0	043_neutral	0.0		37.099352457353234	
1.0	12.25077728058568	fix	1.0		445	20.0	male	black	2.609629924393156	neutral	043	sub-02	1.0	3.0	043_neutral	0.0		37.44922591909199	3.7582735858632077
1.0	12.600898264685384	pulse	1.0	t		20.0	male	black	2.609629924393156	neutral	043	sub-02	1.0	3.0	043_neutral	0.0		37.79934690319169	
1.0	13.300873995420261	pulse	1.0	t		20.0	male	black	2.609629924393156	neutral	043	sub-02	1.0	3.0	043_neutral	0.0		38.49932263392657	
1.0	14.000863309698616	pulse	1.0	t		20.0	male	black	2.609629924393156	neutral	043	sub-02	1.0	3.0	043_neutral	0.0		39.19931194820492	
1.0	14.700845983134059	pulse	1.0	t		20.0	male	black	2.609629924393156	neutral	043	sub-02	1.0	3.0	043_neutral	0.0		39.899294621640365	
1.0	15.400825336146227	pulse	1.0	t		20.0	male	black	2.609629924393156	neutral	043	sub-02	1.0	3.0	043_neutral	0.0		40.59927397465253	
2.0	16.009050866448888	face	0.0		146	24.0	female	east_asian	2.9076800636689217	neutral	034	sub-02	1.0	3.0	034_neutral	0.0		41.207499504955194	1.2416572889887902
2.0	16.100852080635377	pulse	0.0	t		24.0	female	east_asian	2.9076800636689217	neutral	034	sub-02	1.0	3.0	034_neutral	0.0		41.299300719141684	
2.0	16.80081664267891	pulse	0.0	t		24.0	female	east_asian	2.9076800636689217	neutral	034	sub-02	1.0	3.0	034_neutral	0.0		41.99926528118522	
2.0	17.250708155437678	fix	1.0		444	24.0	female	east_asian	2.9076800636689217	neutral	034	sub-02	1.0	3.0	034_neutral	0.0		42.449156793943985	3.7582503429093777
2.0	17.5008228609222	pulse	1.0	t		24.0	female	east_asian	2.9076800636689217	neutral	034	sub-02	1.0	3.0	034_neutral	0.0		42.699271499428505	
2.0	18.200826966171007	pulse	1.0	t		24.0	female	east_asian	2.9076800636689217	neutral	034	sub-02	1.0	3.0	034_neutral	0.0		43.399275604677314	
2.0	18.90080752661015	pulse	1.0	t		24.0	female	east_asian	2.9076800636689217	neutral	034	sub-02	1.0	3.0	034_neutral	0.0		44.09925616511646	
2.0	19.600783861058517	pulse	1.0	t		24.0	female	east_asian	2.9076800636689217	neutral	034	sub-02	1.0	3.0	034_neutral	0.0		44.79923249956482	
2.0	20.300763817784173	pulse	1.0	t		24.0	female	east_asian	2.9076800636689217	neutral	034	sub-02	1.0	3.0	034_neutral	0.0		45.49921245629048	
3.0	21.008958498347056	face	0.0		146	32.0	male	white	2.389176283326701	neutral	092	sub-02	1.0	3.0	092_neutral	1.0	trustworthiness	46.20740713685336	1.241672079961063
3.0	21.001243347080162	pulse	0.0	t		32.0	male	white	2.389176283326701	neutral	092	sub-02	1.0	3.0	092_neutral	1.0	trustworthiness	46.19969198558647	
3.0	21.700759954021123	pulse	0.0	t		32.0	male	white	2.389176283326701	neutral	092	sub-02	1.0	3.0	092_neutral	1.0	trustworthiness	46.89920859252743	
3.0	22.25063057830812	fix	1.0		177	32.0	male	white	2.389176283326701	neutral	092	sub-02	1.0	3.0	092_neutral	1.0	trustworthiness	47.449079216814425	1.508350559279279
3.0	22.400743231168235	pulse	1.0	t		32.0	male	white	2.389176283326701	neutral	092	sub-02	1.0	3.0	092_neutral	1.0	trustworthiness	47.59919186967454	
3.0	23.100728621311646	pulse	1.0	t		32.0	male	white	2.389176283326701	neutral	092	sub-02	1.0	3.0	092_neutral	1.0	trustworthiness	48.29917725981795	
3.0	23.758981137587398	rating	2.0		293	32.0	male	white	2.389176283326701	neutral	092	sub-02	1.0	3.0	092_neutral	1.0	trustworthiness	48.957429776093704	2.491589069413749
3.0	23.80073242470462	pulse	2.0	t		32.0	male	white	2.389176283326701	neutral	092	sub-02	1.0	3.0	092_neutral	1.0	trustworthiness	48.999181063210926	
3.0	24.500715098138244	pulse	2.0	t		32.0	male	white	2.389176283326701	neutral	092	sub-02	1.0	3.0	092_neutral	1.0	trustworthiness	49.69916373664455	
3.0	24.70377368970003	response	2.0	b		32.0	male	white	2.389176283326701	neutral	092	sub-02	1.0	3.0	092_neutral	1.0	trustworthiness	49.902222328206335	
3.0	25.200694149294577	pulse	2.0	t		32.0	male	white	2.389176283326701	neutral	092	sub-02	1.0	3.0	092_neutral	1.0	trustworthiness	50.39914278780088	
3.0	25.900695537835418	pulse	2.0	t		32.0	male	white	2.389176283326701	neutral	092	sub-02	1.0	3.0	092_neutral	1.0	trustworthiness	51.099144176341724	
3.0	26.250570207001147	fix	3.0		444	32.0	male	white	2.389176283326701	neutral	092	sub-02	1.0	3.0	092_neutral	1.0	trustworthiness	51.44901884550745	3.7584160621481715
3.0	26.600679418696018	pulse	3.0	t		32.0	male	white	2.389176283326701	neutral	092	sub-02	1.0	3.0	092_neutral	1.0	trustworthiness	51.799128057202324	
3.0	27.30067718495775	pulse	3.0	t		32.0	male	white	2.389176283326701	neutral	092	sub-02	1.0	3.0	092_neutral	1.0	trustworthiness	52.499125823464055	
3.0	28.000655632400594	pulse	3.0	t		32.0	male	white	2.389176283326701	neutral	092	sub-02	1.0	3.0	092_neutral	1.0	trustworthiness	53.1991042709069	
3.0	28.700644041109626	pulse	3.0	t		32.0	male	white	2.389176283326701	neutral	092	sub-02	1.0	3.0	092_neutral	1.0	trustworthiness	53.89909267961593	
3.0	29.400647542644947	pulse	3.0	t		32.0	male	white	2.389176283326701	neutral	092	sub-02	1.0	3.0	092_neutral	1.0	trustworthiness	54.59909618115125	
4.0	30.008986269149318	face	0.0		146	26.0	male	white	2.7966573816155993	neutral	117	sub-02	1.0	3.0	117_neutral	0.0		55.207434907655625	1.241515718273149
4.0	30.10063746063679	pulse	0.0	t		26.0	male	white	2.7966573816155993	neutral	117	sub-02	1.0	3.0	117_neutral	0.0		55.299086099143096	
4.0	30.800629793480766	pulse	0.0	t		26.0	male	white	2.7966573816155993	neutral	117	sub-02	1.0	3.0	117_neutral	0.0		55.99907843198707	
4.0	31.250501987422467	fix	1.0		444	26.0	male	white	2.7966573816155993	neutral	117	sub-02	1.0	3.0	117_neutral	0.0		56.448950625928774	3.7666009021886566
4.0	31.500610655775745	pulse	1.0	t		26.0	male	white	2.7966573816155993	neutral	117	sub-02	1.0	3.0	117_neutral	0.0		56.69905929428205	
4.0	32.20058397165849	pulse	1.0	t		26.0	male	white	2.7966573816155993	neutral	117	sub-02	1.0	3.0	117_neutral	0.0		57.399032610164795	
4.0	32.90058958619011	pulse	1.0	t		26.0	male	white	2.7966573816155993	neutral	117	sub-02	1.0	3.0	117_neutral	0.0		58.099038224696415	
4.0	33.600584937599706	pulse	1.0	t		26.0	male	white	2.7966573816155993	neutral	117	sub-02	1.0	3.0	117_neutral	0.0		58.79903357610601	
4.0	34.30056700732166	pulse	1.0	t		26.0	male	white	2.7966573816155993	neutral	117	sub-02	1.0	3.0	117_neutral	0.0		59.49901564582797	
5.0	35.017102889611124	face	0.0		146	19.0	male	white	3.2522881018702745	neutral	018	sub-02	1.0	3.0	018_neutral	0.0		60.21555152811743	1.2333293689516722
5.0	35.00326880445391	pulse	0.0	t		19.0	male	white	3.2522881018702745	neutral	018	sub-02	1.0	3.0	018_neutral	0.0		60.201717442960216	
5.0	35.70055620085623	pulse	0.0	t		19.0	male	white	3.2522881018702745	neutral	018	sub-02	1.0	3.0	018_neutral	0.0		60.89900483936253	
5.0	36.250432258562796	fix	1.0		443	19.0	male	white	3.2522881018702745	neutral	018	sub-02	1.0	3.0	018_neutral	0.0		61.4488808970691	3.7665996947616804
5.0	36.40055215597931	pulse	1.0	t		19.0	male	white	3.2522881018702745	neutral	018	sub-02	1.0	3.0	018_neutral	0.0		61.59900079448562	
5.0	37.10053754612272	pulse	1.0	t		19.0	male	white	3.2522881018702745	neutral	018	sub-02	1.0	3.0	018_neutral	0.0		62.29898618462903	
5.0	37.80052203069681	pulse	1.0	t		19.0	male	white	3.2522881018702745	neutral	018	sub-02	1.0	3.0	018_neutral	0.0		62.99897066920312	
5.0	38.50051315611381	pulse	1.0	t		19.0	male	white	3.2522881018702745	neutral	018	sub-02	1.0	3.0	018_neutral	0.0		63.69896179462012	
5.0	39.200506092671276	pulse	1.0	t		19.0	male	white	3.2522881018702745	neutral	018	sub-02	1.0	3.0	018_neutral	0.0		64.39895473117758	
5.0	39.90048212526199	pulse	1.0	t		19.0	male	white	3.2522881018702745	neutral	018	sub-02	1.0	3.0	018_neutral	0.0		65.0989307637683	
6.0	40.01703195332448	face	0.0		146	23.0	male	white	2.6275368085953046	smiling	141	sub-02	1.0	3.0	141_smiling	0.0		65.21548059183078	1.2333245392474055
6.0	40.60049890848677	pulse	0.0	t		23.0	male	white	2.6275368085953046	smiling	141	sub-02	1.0	3.0	141_smiling	0.0		65.79894754699308	
6.0	41.25035649257188	fix	1.0		443	23.0	male	white	2.6275368085953046	smiling	141	sub-02	1.0	3.0	141_smiling	0.0		66.44880513107819	3.758270869153421
6.0	41.30047162065421	pulse	1.0	t		23.0	male	white	2.6275368085953046	smiling	141	sub-02	1.0	3.0	141_smiling	0.0		66.49892025916051	
6.0	42.00045580337246	pulse	1.0	t		23.0	male	white	2.6275368085953046	smiling	141	sub-02	1.0	3.0	141_smiling	0.0		67.19890444187877	
6.0	42.70044179722936	pulse	1.0	t		23.0	male	white	2.6275368085953046	smiling	141	sub-02	1.0	3.0	141_smiling	0.0		67.89889043573567	
6.0	43.40043201707704	pulse	1.0	t		23.0	male	white	2.6275368085953046	smiling	141	sub-02	1.0	3.0	141_smiling	0.0		68.59888065558334	
6.0	44.1004321981909	pulse	1.0	t		23.0	male	white	2.6275368085953046	smiling	141	sub-02	1.0	3.0	141_smiling	0.0		69.29888083669721	
6.0	44.80042271989623	pulse	1.0	t		23.0	male	white	2.6275368085953046	smiling	141	sub-02	1.0	3.0	141_smiling	0.0		69.99887135840254	
7.0	45.0086273617253	face	0.0		146	24.0	female	east_asian	2.9076800636689217	smiling	034	sub-02	1.0	3.0	034_smiling	0.0		70.20707600023161	1.2416681558243
7.0	45.50042229729661	pulse	0.0	t		24.0	female	east_asian	2.9076800636689217	smiling	034	sub-02	1.0	3.0	034_smiling	0.0		70.69887093580292	
7.0	46.20039832988732	pulse	0.0	t		24.0	female	east_asian	2.9076800636689217	smiling	034	sub-02	1.0	3.0	034_smiling	0.0		71.39884696839363	
7.0	46.2502955175496	fix	1.0		445	24.0	female	east_asian	2.9076800636689217	smiling	034	sub-02	1.0	3.0	034_smiling	0.0		71.44874415605591	3.766597279911366
7.0	46.900402133280295	pulse	1.0	t		24.0	female	east_asian	2.9076800636689217	smiling	034	sub-02	1.0	3.0	034_smiling	0.0		72.0988507717866	
7.0	47.60038722156605	pulse	1.0	t		24.0	female	east_asian	2.9076800636689217	smiling	034	sub-02	1.0	3.0	034_smiling	0.0		72.79883586007236	
7.0	48.300359028165985	pulse	1.0	t		24.0	female	east_asian	2.9076800636689217	smiling	034	sub-02	1.0	3.0	034_smiling	0.0		73.49880766667229	
7.0	49.00035317214861	pulse	1.0	t		24.0	female	east_asian	2.9076800636689217	smiling	034	sub-02	1.0	3.0	034_smiling	0.0		74.19880181065491	
7.0	49.70031713047865	pulse	1.0	t		24.0	female	east_asian	2.9076800636689217	smiling	034	sub-02	1.0	3.0	034_smiling	0.0		74.89876576898496	
8.0	50.01689279746097	face	0.0		145	36.0	female	white	2.7548746518105847	neutral	011	sub-02	1.0	3.0	011_neutral	0.0		75.21534143596728	1.2333157854063757
8.0	50.40035172323769	pulse	0.0	t		36.0	female	white	2.7548746518105847	neutral	011	sub-02	1.0	3.0	011_neutral	0.0		75.598800361744	
8.0	51.10032594468976	pulse	0.0	t		36.0	female	white	2.7548746518105847	neutral	011	sub-02	1.0	3.0	011_neutral	0.0		76.29877458319606	
8.0	51.250208582867344	fix	1.0		444	36.0	female	white	2.7548746518105847	neutral	011	sub-02	1.0	3.0	011_neutral	0.0		76.44865722137365	3.7584067045954725
8.0	51.80033155922138	pulse	1.0	t		36.0	female	white	2.7548746518105847	neutral	011	sub-02	1.0	3.0	011_neutral	0.0		76.99878019772768	
8.0	52.50030095096736	pulse	1.0	t		36.0	female	white	2.7548746518105847	neutral	011	sub-02	1.0	3.0	011_neutral	0.0		77.69874958947366	
8.0	53.20030113208122	pulse	1.0	t		36.0	female	white	2.7548746518105847	neutral	011	sub-02	1.0	3.0	011_neutral	0.0		78.39874977058753	
8.0	53.90028440923015	pulse	1.0	t		36.0	female	white	2.7548746518105847	neutral	011	sub-02	1.0	3.0	011_neutral	0.0		79.09873304773646	
8.0	54.60030722958436	pulse	1.0	t		36.0	female	white	2.7548746518105847	neutral	011	sub-02	1.0	3.0	011_neutral	0.0		79.79875586809067	
9.0	55.00861528746282	face	0.0		146	20.0	female	white	3.9502586549940313	smiling	091	sub-02	1.0	3.0	091_smiling	0.0		80.20706392596912	1.241521755404392
9.0	55.30028386588856	pulse	0.0	t		20.0	female	white	3.9502586549940313	smiling	091	sub-02	1.0	3.0	091_smiling	0.0		80.49873250439487	
9.0	56.00024842793027	pulse	0.0	t		20.0	female	white	3.9502586549940313	smiling	091	sub-02	1.0	3.0	091_smiling	0.0		81.19869706643658	
9.0	56.25013704286721	fix	1.0		444	20.0	female	white	3.9502586549940313	smiling	091	sub-02	1.0	3.0	091_smiling	0.0		81.44858568137352	3.7666102597413555
9.0	56.70024015706076	pulse	1.0	t		20.0	female	white	3.9502586549940313	smiling	091	sub-02	1.0	3.0	091_smiling	0.0		81.89868879556707	
9.0	57.400240941888114	pulse	1.0	t		20.0	female	white	3.9502586549940313	smiling	091	sub-02	1.0	3.0	091_smiling	0.0		82.59868958039442	
9.0	58.10022935059715	pulse	1.0	t		20.0	female	white	3.9502586549940313	smiling	091	sub-02	1.0	3.0	091_smiling	0.0		83.29867798910345	
9.0	58.80021625002337	pulse	1.0	t		20.0	female	white	3.9502586549940313	smiling	091	sub-02	1.0	3.0	091_smiling	0.0		83.99866488852967	
9.0	59.50021975155869	pulse	1.0	t		20.0	female	white	3.9502586549940313	smiling	091	sub-02	1.0	3.0	091_smiling	0.0		84.698668390065	
10.0	60.016747302608564	face	0.0		145	36.0	female	white	2.7548746518105847	smiling	011	sub-02	1.0	3.0	011_smiling	0.0		85.21519594111487	1.23332484110324
10.0	60.20018582288503	pulse	0.0	t		36.0	female	white	2.7548746518105847	smiling	011	sub-02	1.0	3.0	011_smiling	0.0		85.39863446139134	
10.0	60.900188720706865	pulse	0.0	t		36.0	female	white	2.7548746518105847	smiling	011	sub-02	1.0	3.0	011_smiling	0.0		86.09863735921317	
10.0	61.250072143711805	fix	1.0		444	36.0	female	white	2.7548746518105847	smiling	011	sub-02	1.0	3.0	011_smiling	0.0		86.44852078221811	3.766595468770902
10.0	61.60017863869871	pulse	1.0	t		36.0	female	white	2.7548746518105847	smiling	011	sub-02	1.0	3.0	011_smiling	0.0		86.79862727720501	
10.0	62.300152860150774	pulse	1.0	t		36.0	female	white	2.7548746518105847	smiling	011	sub-02	1.0	3.0	011_smiling	0.0		87.49860149865708	
10.0	63.00015666354193	pulse	1.0	t		36.0	female	white	2.7548746518105847	smiling	011	sub-02	1.0	3.0	011_smiling	0.0		88.19860530204824	
10.0	63.70013752583873	pulse	1.0	t		36.0	female	white	2.7548746518105847	smiling	011	sub-02	1.0	3.0	011_smiling	0.0		88.89858616434503	
10.0	64.40015129049607	pulse	1.0	t		36.0	female	white	2.7548746518105847	smiling	011	sub-02	1.0	3.0	011_smiling	0.0		89.59859992900238	
11.0	65.0166676124827	face	0.0		145	31.0	male	west_asian	1.9538400318344609	smiling	070	sub-02	1.0	3.0	070_smiling	1.0	dominance	90.21511625098901	1.2333326893731282
11.0	65.10012792680027	pulse	0.0	t		31.0	male	west_asian	1.9538400318344609	smiling	070	sub-02	1.0	3.0	070_smiling	1.0	dominance	90.29857656530658	
11.0	65.8001235800657	pulse	0.0	t		31.0	male	west_asian	1.9538400318344609	smiling	070	sub-02	1.0	3.0	070_smiling	1.0	dominance	90.99857221857201	
11.0	66.25000030185583	fix	1.0		177	31.0	male	west_asian	1.9538400318344609	smiling	070	sub-02	1.0	3.0	070_smiling	1.0	dominance	91.44844894036214	1.499968003206959
11.0	66.50010987577843	pulse	1.0	t		31.0	male	west_asian	1.9538400318344609	smiling	070	sub-02	1.0	3.0	070_smiling	1.0	dominance	91.69855851428474	
11.0	67.2000862102268	pulse	1.0	t		31.0	male	west_asian	1.9538400318344609	smiling	070	sub-02	1.0	3.0	070_smiling	1.0	dominance	92.3985348487331	
11.0	67.7499683050628	rating	2.0		294	31.0	male	west_asian	1.9538400318344609	smiling	070	sub-02	1.0	3.0	070_smiling	1.0	dominance	92.9484169435691	2.499973436624714
11.0	67.90008458020202	pulse	2.0	t		31.0	male	west_asian	1.9538400318344609	smiling	070	sub-02	1.0	3.0	070_smiling	1.0	dominance	93.09853321870833	
11.0	68.60006363135653	pulse	2.0	t		31.0	male	west_asian	1.9538400318344609	smiling	070	sub-02	1.0	3.0	070_smiling	1.0	dominance	93.79851226986284	
11.0	68.86980776568089	response	2.0	e		31.0	male	west_asian	1.9538400318344609	smiling	070	sub-02	1.0	3.0	070_smiling	1.0	dominance	94.0682564041872	
11.0	69.30006351061456	pulse	2.0	t		31.0	male	west_asian	1.9538400318344609	smiling	070	sub-02	1.0	3.0	070_smiling	1.0	dominance	94.49851214912087	
11.0	70.00004346734022	pulse	2.0	t		31.0	male	west_asian	1.9538400318344609	smiling	070	sub-02	1.0	3.0	070_smiling	1.0	dominance	95.19849210584653	
11.0	70.24994174168751	fix	3.0		444	31.0	male	west_asian	1.9538400318344609	smiling	070	sub-02	1.0	3.0	070_smiling	1.0	dominance	95.44839038019381	3.758274793288365
11.0	70.70004636516387	pulse	3.0	t		31.0	male	west_asian	1.9538400318344609	smiling	070	sub-02	1.0	3.0	070_smiling	1.0	dominance	95.89849500367018	
11.0	71.40003084973796	pulse	3.0	t		31.0	male	west_asian	1.9538400318344609	smiling	070	sub-02	1.0	3.0	070_smiling	1.0	dominance	96.59847948824427	
11.0	72.10001261760226	pulse	3.0	t		31.0	male	west_asian	1.9538400318344609	smiling	070	sub-02	1.0	3.0	070_smiling	1.0	dominance	97.29846125610857	
11.0	72.80001943956086	pulse	3.0	t		31.0	male	west_asian	1.9538400318344609	smiling	070	sub-02	1.0	3.0	070_smiling	1.0	dominance	97.99846807806716	
11.0	73.49998702016819	pulse	3.0	t		31.0	male	west_asian	1.9538400318344609	smiling	070	sub-02	1.0	3.0	070_smiling	1.0	dominance	98.6984356586745	
12.0	74.00821653497587	face	0.0		146	22.0	female	white	4.614007162753682	smiling	009	sub-02	1.0	3.0	009_smiling	0.0		99.20666517348218	1.2416512518593663
12.0	74.19999565326543	pulse	0.0	t		22.0	female	white	4.614007162753682	smiling	009	sub-02	1.0	3.0	009_smiling	0.0		99.39844429177174	
12.0	74.89998194897817	pulse	0.0	t		22.0	female	white	4.614007162753682	smiling	009	sub-02	1.0	3.0	009_smiling	0.0		100.09843058748447	
12.0	75.24986778683524	fix	1.0		444	22.0	female	white	4.614007162753682	smiling	009	sub-02	1.0	3.0	009_smiling	0.0		100.44831642534155	3.7665942613457446
12.0	75.599983337519	pulse	1.0	t		22.0	female	white	4.614007162753682	smiling	009	sub-02	1.0	3.0	009_smiling	0.0		100.79843197602531	
12.0	76.29996419981399	pulse	1.0	t		22.0	female	white	4.614007162753682	smiling	009	sub-02	1.0	3.0	009_smiling	0.0		101.49841283832029	
12.0	76.9999495899574	pulse	1.0	t		22.0	female	white	4.614007162753682	smiling	009	sub-02	1.0	3.0	009_smiling	0.0		102.1983982284637	
12.0	77.6999355838143	pulse	1.0	t		22.0	female	white	4.614007162753682	smiling	009	sub-02	1.0	3.0	009_smiling	0.0		102.8983842223206	
12.0	78.39992640737546	pulse	1.0	t		22.0	female	white	4.614007162753682	smiling	009	sub-02	1.0	3.0	009_smiling	0.0		103.59837504588177	
13.0	79.01646204818098	face	0.0		145	25.0	female	black	3.858336649423	neutral	126	sub-02	1.0	3.0	126_neutral	0.0		104.21491068668729	1.2333335949424509
13.0	79.09991572165382	pulse	0.0	t		25.0	female	black	3.858336649423	neutral	126	sub-02	1.0	3.0	126_neutral	0.0		104.29836436016012	
13.0	79.79990443221868	pulse	0.0	t		25.0	female	black	3.858336649423	neutral	126	sub-02	1.0	3.0	126_neutral	0.0		104.99835307072499	
13.0	80.24979564312343	fix	1.0		444	25.0	female	black	3.858336649423	neutral	126	sub-02	1.0	3.0	126_neutral	0.0		105.44824428162974	3.7582569837522897
13.0	80.49991608388154	pulse	1.0	t		25.0	female	black	3.858336649423	neutral	126	sub-02	1.0	3.0	126_neutral	0.0		105.69836472238785	
13.0	81.19989181461642	pulse	1.0	t		25.0	female	black	3.858336649423	neutral	126	sub-02	1.0	3.0	126_neutral	0.0		106.39834045312273	
13.0	81.89989169387263	pulse	1.0	t		25.0	female	black	3.858336649423	neutral	126	sub-02	1.0	3.0	126_neutral	0.0		107.09834033237894	
13.0	82.59986863203267	pulse	1.0	t		25.0	female	black	3.858336649423	neutral	126	sub-02	1.0	3.0	126_neutral	0.0		107.79831727053897	
13.0	83.29985553146071	pulse	1.0	t		25.0	female	black	3.858336649423	neutral	126	sub-02	1.0	3.0	126_neutral	0.0		108.49830416996701	
14.0	84.00805262687572	face	0.0		146	24.0	female	black	3.0955033824114606	smiling	099	sub-02	1.0	3.0	099_smiling	1.0	attractiveness	109.20650126538203	1.2416597038427426
14.0	84.0170624408347	pulse	0.0	t		24.0	female	black	3.0955033824114606	smiling	099	sub-02	1.0	3.0	099_smiling	1.0	attractiveness	109.21551107934101	
14.0	84.69985981782338	pulse	0.0	t		24.0	female	black	3.0955033824114606	smiling	099	sub-02	1.0	3.0	099_smiling	1.0	attractiveness	109.89830845632969	
14.0	85.24971233071847	fix	1.0		177	24.0	female	black	3.0955033824114606	smiling	099	sub-02	1.0	3.0	099_smiling	1.0	attractiveness	110.44816096922477	1.499980077467626
14.0	85.39983645412576	pulse	1.0	t		24.0	female	black	3.0955033824114606	smiling	099	sub-02	1.0	3.0	099_smiling	1.0	attractiveness	110.59828509263207	
14.0	86.09981248671829	pulse	1.0	t		24.0	female	black	3.0955033824114606	smiling	099	sub-02	1.0	3.0	099_smiling	1.0	attractiveness	111.2982611252246	
14.0	86.74969240818609	rating	2.0		294	24.0	female	black	3.0955033824114606	smiling	099	sub-02	1.0	3.0	099_smiling	1.0	attractiveness	111.9481410466924	2.499971927341903
14.0	86.79980934740888	pulse	2.0	t		24.0	female	black	3.0955033824114606	smiling	099	sub-02	1.0	3.0	099_smiling	1.0	attractiveness	111.99825798591519	
14.0	87.49978779485173	pulse	2.0	t		24.0	female	black	3.0955033824114606	smiling	099	sub-02	1.0	3.0	099_smiling	1.0	attractiveness	112.69823643335803	
14.0	87.94145613179171	response	2.0	b		24.0	female	black	3.0955033824114606	smiling	099	sub-02	1.0	3.0	099_smiling	1.0	attractiveness	113.13990477029802	
14.0	88.19977892027055	pulse	2.0	t		24.0	female	black	3.0955033824114606	smiling	099	sub-02	1.0	3.0	099_smiling	1.0	attractiveness	113.39822755877685	
14.0	88.89977698838811	pulse	2.0	t		24.0	female	black	3.0955033824114606	smiling	099	sub-02	1.0	3.0	099_smiling	1.0	attractiveness	114.09822562689442	
14.0	89.249664335528	fix	3.0		444	24.0	female	black	3.0955033824114606	smiling	099	sub-02	1.0	3.0	099_smiling	1.0	attractiveness	114.4481129740343	3.76659607248439
14.0	89.59975966182355	pulse	3.0	t		24.0	female	black	3.0955033824114606	smiling	099	sub-02	1.0	3.0	099_smiling	1.0	attractiveness	114.79820830032986	
14.0	90.29975139095404	pulse	3.0	t		24.0	female	black	3.0955033824114606	smiling	099	sub-02	1.0	3.0	099_smiling	1.0	attractiveness	115.49820002946035	
14.0	90.99974583679432	pulse	3.0	t		24.0	female	black	3.0955033824114606	smiling	099	sub-02	1.0	3.0	099_smiling	1.0	attractiveness	116.19819447530062	
14.0	91.69975054575661	pulse	3.0	t		24.0	female	black	3.0955033824114606	smiling	099	sub-02	1.0	3.0	099_smiling	1.0	attractiveness	116.89819918426292	
14.0	92.3997126929462	pulse	3.0	t		24.0	female	black	3.0955033824114606	smiling	099	sub-02	1.0	3.0	099_smiling	1.0	attractiveness	117.5981613314525	
15.0	93.01626040801239	face	0.0		145	28.0	male	white	3.9076800636689217	smiling	033	sub-02	1.0	3.0	033_smiling	0.0		118.21470904651869	1.2333345005117735
15.0	93.099729778025	pulse	0.0	t		28.0	male	white	3.9076800636689217	smiling	033	sub-02	1.0	3.0	033_smiling	0.0		118.2981784165313	
15.0	93.79970882918133	pulse	0.0	t		28.0	male	white	3.9076800636689217	smiling	033	sub-02	1.0	3.0	033_smiling	0.0		118.99815746768763	
15.0	94.24959490852416	fix	1.0		444	28.0	male	white	3.9076800636689217	smiling	033	sub-02	1.0	3.0	033_smiling	0.0		119.44804354703047	3.758255474471298
15.0	94.49968938962047	pulse	1.0	t		28.0	male	white	3.9076800636689217	smiling	033	sub-02	1.0	3.0	033_smiling	0.0		119.69813802812678	
15.0	95.19967417605221	pulse	1.0	t		28.0	male	white	3.9076800636689217	smiling	033	sub-02	1.0	3.0	033_smiling	0.0		120.39812281455852	
15.0	95.8996752627354	pulse	1.0	t		28.0	male	white	3.9076800636689217	smiling	033	sub-02	1.0	3.0	033_smiling	0.0		121.0981239012417	
15.0	96.5996612565923	pulse	1.0	t		28.0	male	white	3.9076800636689217	smiling	033	sub-02	1.0	3.0	033_smiling	0.0		121.7981098950986	
15.0	97.29967502124964	pulse	1.0	t		28.0	male	white	3.9076800636689217	smiling	033	sub-02	1.0	3.0	033_smiling	0.0		122.49812365975595	
16.0	98.00785038299546	face	0.0		147	28.0	male	east_asian	1.5563072025467568	smiling	005	sub-02	1.0	3.0	005_smiling	0.0		123.20629902150176	1.2416578927022783
16.0	98.00197776403911	pulse	0.0	t		28.0	male	east_asian	1.5563072025467568	smiling	005	sub-02	1.0	3.0	005_smiling	0.0		123.20042640254542	
16.0	98.69962829385804	pulse	0.0	t		28.0	male	east_asian	1.5563072025467568	smiling	005	sub-02	1.0	3.0	005_smiling	0.0		123.89807693236435	
16.0	99.24950827569774	fix	1.0		443	28.0	male	east_asian	1.5563072025467568	smiling	005	sub-02	1.0	3.0	005_smiling	0.0		124.44795691420404	3.7666051281812543
16.0	99.39961790999223	pulse	1.0	t		28.0	male	east_asian	1.5563072025467568	smiling	005	sub-02	1.0	3.0	005_smiling	0.0		124.59806654849854	
16.0	100.09960330013564	pulse	1.0	t		28.0	male	east_asian	1.5563072025467568	smiling	005	sub-02	1.0	3.0	005_smiling	0.0		125.29805193864195	
16.0	100.79960378310716	pulse	1.0	t		28.0	male	east_asian	1.5563072025467568	smiling	005	sub-02	1.0	3.0	005_smiling	0.0		125.99805242161347	
16.0	101.49957800455923	pulse	1.0	t		28.0	male	east_asian	1.5563072025467568	smiling	005	sub-02	1.0	3.0	005_smiling	0.0		126.69802664306553	
16.0	102.19958844879511	pulse	1.0	t		28.0	male	east_asian	1.5563072025467568	smiling	005	sub-02	1.0	3.0	005_smiling	0.0		127.39803708730142	
16.0	102.89957263151155	pulse	1.0	t		28.0	male	east_asian	1.5563072025467568	smiling	005	sub-02	1.0	3.0	005_smiling	0.0		128.09802127001785	
17.0	103.01611340387899	face	0.0		146	37.0	male	white	3.898925586947871	neutral	101	sub-02	1.0	3.0	101_neutral	0.0		128.2145620423853	1.2333206151106424
17.0	103.5995619457899	pulse	0.0	t		37.0	male	white	3.898925586947871	neutral	101	sub-02	1.0	3.0	101_neutral	0.0		128.7980105842962	
17.0	104.24943401898963	fix	1.0		443	37.0	male	white	3.898925586947871	neutral	101	sub-02	1.0	3.0	101_neutral	0.0		129.44788265749594	3.7582744914325303
17.0	104.29956031576512	pulse	1.0	t		37.0	male	white	3.898925586947871	neutral	101	sub-02	1.0	3.0	101_neutral	0.0		129.49800895427143	
17.0	104.99953453721719	pulse	1.0	t		37.0	male	white	3.898925586947871	neutral	101	sub-02	1.0	3.0	101_neutral	0.0		130.1979831757235	
17.0	105.69951841807779	pulse	1.0	t		37.0	male	white	3.898925586947871	neutral	101	sub-02	1.0	3.0	101_neutral	0.0		130.8979670565841	
17.0	106.39951226020457	pulse	1.0	t		37.0	male	white	3.898925586947871	neutral	101	sub-02	1.0	3.0	101_neutral	0.0		131.59796089871088	
17.0	107.09950308376574	pulse	1.0	t		37.0	male	white	3.898925586947871	neutral	101	sub-02	1.0	3.0	101_neutral	0.0		132.29795172227205	
17.0	107.79950296302377	pulse	1.0	t		37.0	male	white	3.898925586947871	neutral	101	sub-02	1.0	3.0	101_neutral	0.0		132.99795160153008	
18.0	108.00770851042216	face	0.0		146	20.0	male	black	2.609629924393156	smiling	043	sub-02	1.0	3.0	043_smiling	0.0		133.20615714892847	1.241665439116332
18.0	108.49948050489729	pulse	0.0	t		20.0	male	black	2.609629924393156	smiling	043	sub-02	1.0	3.0	043_smiling	0.0		133.6979291434036	
18.0	109.1994824971498	pulse	0.0	t		20.0	male	black	2.609629924393156	smiling	043	sub-02	1.0	3.0	043_smiling	0.0		134.3979311356561	
18.0	109.2493739495385	fix	1.0		444	20.0	male	black	2.609629924393156	smiling	043	sub-02	1.0	3.0	043_smiling	0.0		134.4478225880448	3.7665797722311254
18.0	109.89946275573129	pulse	1.0	t		20.0	male	black	2.609629924393156	smiling	043	sub-02	1.0	3.0	043_smiling	0.0		135.0979113942376	
18.0	110.59946655912427	pulse	1.0	t		20.0	male	black	2.609629924393156	smiling	043	sub-02	1.0	3.0	043_smiling	0.0		135.79791519763057	
18.0	111.29946462724183	pulse	1.0	t		20.0	male	black	2.609629924393156	smiling	043	sub-02	1.0	3.0	043_smiling	0.0		136.49791326574814	
18.0	111.99943039671052	pulse	1.0	t		20.0	male	black	2.609629924393156	smiling	043	sub-02	1.0	3.0	043_smiling	0.0		137.19787903521683	
18.0	112.69941789985023	pulse	1.0	t		20.0	male	black	2.609629924393156	smiling	043	sub-02	1.0	3.0	043_smiling	0.0		137.89786653835654	
19.0	113.01595372176962	face	0.0		145	26.0	male	white	2.7966573816155993	smiling	117	sub-02	1.0	3.0	117_smiling	1.0	attractiveness	138.21440236027593	1.2333453673472832
19.0	113.39941264754634	pulse	0.0	t		26.0	male	white	2.7966573816155993	smiling	117	sub-02	1.0	3.0	117_smiling	1.0	attractiveness	138.59786128605265	
19.0	114.09940830081177	pulse	0.0	t		26.0	male	white	2.7966573816155993	smiling	117	sub-02	1.0	3.0	117_smiling	1.0	attractiveness	139.29785693931808	
19.0	114.2492990891169	fix	1.0		177	26.0	male	white	2.7966573816155993	smiling	117	sub-02	1.0	3.0	117_smiling	1.0	attractiveness	139.4477477276232	1.4999686069204472
19.0	114.79939429466867	pulse	1.0	t		26.0	male	white	2.7966573816155993	smiling	117	sub-02	1.0	3.0	117_smiling	1.0	attractiveness	139.99784293317498	
19.0	115.49940202219659	pulse	1.0	t		26.0	male	white	2.7966573816155993	smiling	117	sub-02	1.0	3.0	117_smiling	1.0	attractiveness	140.6978506607029	
19.0	115.74926769603735	rating	2.0		295	26.0	male	white	2.7966573816155993	smiling	117	sub-02	1.0	3.0	117_smiling	1.0	attractiveness	140.94771633454366	2.499942949114484
19.0	116.19937503622168	pulse	2.0	t		26.0	male	white	2.7966573816155993	smiling	117	sub-02	1.0	3.0	117_smiling	1.0	attractiveness	141.397823674728	
19.0	116.7160296688744	response	2.0	y		26.0	male	white	2.7966573816155993	smiling	117	sub-02	1.0	3.0	117_smiling	1.0	attractiveness	141.9144783073807	
19.0	116.89936676535217	pulse	2.0	t		26.0	male	white	2.7966573816155993	smiling	117	sub-02	1.0	3.0	117_smiling	1.0	attractiveness	142.09781540385848	
19.0	117.59934249608705	pulse	2.0	t		26.0	male	white	2.7966573816155993	smiling	117	sub-02	1.0	3.0	117_smiling	1.0	attractiveness	142.79779113459335	
19.0	118.24921064515183	fix	3.0		443	26.0	male	white	2.7966573816155993	smiling	117	sub-02	1.0	3.0	117_smiling	1.0	attractiveness	143.44765928365814	3.766623843284833
19.0	118.29932848994395	pulse	3.0	t		26.0	male	white	2.7966573816155993	smiling	117	sub-02	1.0	3.0	117_smiling	1.0	attractiveness	143.49777712845025	
19.0	118.99935583814658	pulse	3.0	t		26.0	male	white	2.7966573816155993	smiling	117	sub-02	1.0	3.0	117_smiling	1.0	attractiveness	144.1978044766529	
19.0	119.69931858904965	pulse	3.0	t		26.0	male	white	2.7966573816155993	smiling	117	sub-02	1.0	3.0	117_smiling	1.0	attractiveness	144.89776722755596	
19.0	120.39930971446665	pulse	3.0	t		26.0	male	white	2.7966573816155993	smiling	117	sub-02	1.0	3.0	117_smiling	1.0	attractiveness	145.59775835297296	
19.0	121.09929782131985	pulse	3.0	t		26.0	male	white	2.7966573816155993	smiling	117	sub-02	1.0	3.0	117_smiling	1.0	attractiveness	146.29774645982616	
19.0	121.79929015416383	pulse	3.0	t		26.0	male	white	2.7966573816155993	smiling	117	sub-02	1.0	3.0	117_smiling	1.0	attractiveness	146.99773879267013	
20.0	122.01583448843667	face	0.0		145	24.0	female	east_asian	4.409868682849185	neutral	030	sub-02	1.0	3.0	030_neutral	0.0		147.21428312694297	1.2333335949424509
20.0	122.49927856287286	pulse	0.0	t		24.0	female	east_asian	4.409868682849185	neutral	030	sub-02	1.0	3.0	030_neutral	0.0		147.69772720137917	
20.0	123.19926576415492	pulse	0.0	t		24.0	female	east_asian	4.409868682849185	neutral	030	sub-02	1.0	3.0	030_neutral	0.0		148.39771440266122	
20.0	123.24916808337912	fix	1.0		1186	24.0	female	east_asian	4.409868682849185	neutral	030	sub-02	1.0	3.0	030_neutral	0.0		148.44761672188542	10.016651010373607
20.0	123.89925900256821	pulse	1.0	t		24.0	female	east_asian	4.409868682849185	neutral	030	sub-02	1.0	3.0	030_neutral	0.0		149.09770764107452	
20.0	124.59924590199444	pulse	1.0	t		24.0	female	east_asian	4.409868682849185	neutral	030	sub-02	1.0	3.0	030_neutral	0.0		149.79769454050074	
20.0	125.29924578125247	pulse	1.0	t		24.0	female	east_asian	4.409868682849185	neutral	030	sub-02	1.0	3.0	030_neutral	0.0		150.49769441975877	
20.0	125.99922332312599	pulse	1.0	t		24.0	female	east_asian	4.409868682849185	neutral	030	sub-02	1.0	3.0	030_neutral	0.0		151.1976719616323	
20.0	126.69922682466131	pulse	1.0	t		24.0	female	east_asian	4.409868682849185	neutral	030	sub-02	1.0	3.0	030_neutral	0.0		151.89767546316762	
20.0	127.39917961429819	pulse	1.0	t		24.0	female	east_asian	4.409868682849185	neutral	030	sub-02	1.0	3.0	030_neutral	0.0		152.5976282528045	
20.0	128.09919337895735	pulse	1.0	t		24.0	female	east_asian	4.409868682849185	neutral	030	sub-02	1.0	3.0	030_neutral	0.0		153.29764201746366	
20.0	128.79918390066086	pulse	1.0	t		24.0	female	east_asian	4.409868682849185	neutral	030	sub-02	1.0	3.0	030_neutral	0.0		153.99763253916717	
20.0	129.49918619477103	pulse	1.0	t		24.0	female	east_asian	4.409868682849185	neutral	030	sub-02	1.0	3.0	030_neutral	0.0		154.69763483327733	
20.0	130.19916222736174	pulse	1.0	t		24.0	female	east_asian	4.409868682849185	neutral	030	sub-02	1.0	3.0	030_neutral	0.0		155.39761086586805	
20.0	130.89916874746268	pulse	1.0	t		24.0	female	east_asian	4.409868682849185	neutral	030	sub-02	1.0	3.0	030_neutral	0.0		156.097617385969	
20.0	131.59913995034913	pulse	1.0	t		24.0	female	east_asian	4.409868682849185	neutral	030	sub-02	1.0	3.0	030_neutral	0.0		156.79758858885543	
20.0	132.2991337924759	pulse	1.0	t		24.0	female	east_asian	4.409868682849185	neutral	030	sub-02	1.0	3.0	030_neutral	0.0		157.49758243098222	
20.0	132.99913578473024	pulse	1.0	t		24.0	female	east_asian	4.409868682849185	neutral	030	sub-02	1.0	3.0	030_neutral	0.0		158.19758442323655	
21.0	133.26581909375273	face	0.0		146	22.0	male	black	2.767608436132113	smiling	044	sub-02	1.0	3.0	044_smiling	0.0		158.46426773225903	1.241517831269448
21.0	133.69913053242635	pulse	0.0	t		22.0	male	black	2.767608436132113	smiling	044	sub-02	1.0	3.0	044_smiling	0.0		158.89757917093266	
21.0	134.39911712999492	pulse	0.0	t		22.0	male	black	2.767608436132113	smiling	044	sub-02	1.0	3.0	044_smiling	0.0		159.59756576850123	
21.0	134.50733692502217	fix	1.0		444	22.0	male	black	2.767608436132113	smiling	044	sub-02	1.0	3.0	044_smiling	0.0		159.70578556352848	3.7583016585213045
21.0	135.09910191642666	pulse	1.0	t		22.0	male	black	2.767608436132113	smiling	044	sub-02	1.0	3.0	044_smiling	0.0		160.29755055493297	
21.0	135.7990933436995	pulse	1.0	t		22.0	male	black	2.767608436132113	smiling	044	sub-02	1.0	3.0	044_smiling	0.0		160.9975419822058	
21.0	136.4990880913956	pulse	1.0	t		22.0	male	black	2.767608436132113	smiling	044	sub-02	1.0	3.0	044_smiling	0.0		161.6975367299019	
21.0	137.19908465023218	pulse	1.0	t		22.0	male	black	2.767608436132113	smiling	044	sub-02	1.0	3.0	044_smiling	0.0		162.3975332887385	
21.0	137.89906611624065	pulse	1.0	t		22.0	male	black	2.767608436132113	smiling	044	sub-02	1.0	3.0	044_smiling	0.0		163.09751475474695	
22.0	138.26563858354348	face	0.0		146	31.0	female	west_asian	2.364902506963788	neutral	006	sub-02	1.0	3.0	006_neutral	0.0		163.46408722204978	1.2416286126190244
22.0	138.5990620713619	pulse	0.0	t		31.0	female	west_asian	2.364902506963788	neutral	006	sub-02	1.0	3.0	006_neutral	0.0		163.79751070986822	
22.0	139.29904595222433	pulse	0.0	t		31.0	female	west_asian	2.364902506963788	neutral	006	sub-02	1.0	3.0	006_neutral	0.0		164.49749459073064	
22.0	139.5072671961625	fix	1.0		444	31.0	female	west_asian	2.364902506963788	neutral	006	sub-02	1.0	3.0	006_neutral	0.0		164.7057158346688	3.766593355774603
22.0	139.99905156675595	pulse	1.0	t		31.0	female	west_asian	2.364902506963788	neutral	006	sub-02	1.0	3.0	006_neutral	0.0		165.19750020526226	
22.0	140.69902307149823	pulse	1.0	t		31.0	female	west_asian	2.364902506963788	neutral	006	sub-02	1.0	3.0	006_neutral	0.0		165.89747171000454	
22.0	141.39901148020726	pulse	1.0	t		31.0	female	west_asian	2.364902506963788	neutral	006	sub-02	1.0	3.0	006_neutral	0.0		166.59746011871357	
22.0	142.0990065297592	pulse	1.0	t		31.0	female	west_asian	2.364902506963788	neutral	006	sub-02	1.0	3.0	006_neutral	0.0		167.29745516826551	
22.0	142.7989967496087	pulse	1.0	t		31.0	female	west_asian	2.364902506963788	neutral	006	sub-02	1.0	3.0	006_neutral	0.0		167.997445388115	
23.0	143.2738605519371	face	0.0		145	40.0	male	white	1.868682849184242	smiling	172	sub-02	1.0	3.0	172_smiling	0.0		168.4723091904434	1.2333197095413198
23.0	143.49898485646008	pulse	0.0	t		40.0	male	white	1.868682849184242	smiling	172	sub-02	1.0	3.0	172_smiling	0.0		168.6974334949664	
23.0	144.1989651150434	pulse	0.0	t		40.0	male	white	1.868682849184242	smiling	172	sub-02	1.0	3.0	172_smiling	0.0		169.3974137535497	
23.0	144.50718026147842	fix	1.0		444	40.0	male	white	1.868682849184242	smiling	172	sub-02	1.0	3.0	172_smiling	0.0		169.70562889998473	3.7584133454402036
23.0	144.89896167387815	pulse	1.0	t		40.0	male	white	1.868682849184242	smiling	172	sub-02	1.0	3.0	172_smiling	0.0		170.09741031238445	
23.0	145.5989437436001	pulse	1.0	t		40.0	male	white	1.868682849184242	smiling	172	sub-02	1.0	3.0	172_smiling	0.0		170.7973923821064	
23.0	146.29893366159195	pulse	1.0	t		40.0	male	white	1.868682849184242	smiling	172	sub-02	1.0	3.0	172_smiling	0.0		171.49738230009825	
23.0	146.998932333423	pulse	1.0	t		40.0	male	white	1.868682849184242	smiling	172	sub-02	1.0	3.0	172_smiling	0.0		172.1973809719293	
23.0	147.69892859040192	pulse	1.0	t		40.0	male	white	1.868682849184242	smiling	172	sub-02	1.0	3.0	172_smiling	0.0		172.89737722890823	
24.0	148.26559360691863	face	0.0		146	27.0	female	white	3.504576203740549	neutral	144	sub-02	1.0	3.0	144_neutral	0.0		173.46404224542493	1.2415253776835016
24.0	148.39890643413128	pulse	0.0	t		27.0	female	white	3.504576203740549	neutral	144	sub-02	1.0	3.0	144_neutral	0.0		173.59735507263758	
24.0	149.09890238925436	pulse	0.0	t		27.0	female	white	3.504576203740549	neutral	144	sub-02	1.0	3.0	144_neutral	0.0		174.29735102776067	
24.0	149.50711898460213	fix	1.0		444	27.0	female	white	3.504576203740549	neutral	144	sub-02	1.0	3.0	144_neutral	0.0		174.70556762310844	3.7666108634548436
24.0	149.79891132420744	pulse	1.0	t		27.0	female	white	3.504576203740549	neutral	144	sub-02	1.0	3.0	144_neutral	0.0		174.99735996271374	
24.0	150.49887920667243	pulse	1.0	t		27.0	female	white	3.504576203740549	neutral	144	sub-02	1.0	3.0	144_neutral	0.0		175.69732784517873	
24.0	151.19886550238516	pulse	1.0	t		27.0	female	white	3.504576203740549	neutral	144	sub-02	1.0	3.0	144_neutral	0.0		176.39731414089147	
24.0	151.89884847767644	pulse	1.0	t		27.0	female	white	3.504576203740549	neutral	144	sub-02	1.0	3.0	144_neutral	0.0		177.09729711618274	
24.0	152.59882511398064	pulse	1.0	t		27.0	female	white	3.504576203740549	neutral	144	sub-02	1.0	3.0	144_neutral	0.0		177.79727375248694	
25.0	153.27372984805697	face	0.0		145	23.0	male	white	2.6275368085953046	neutral	141	sub-02	1.0	3.0	141_neutral	0.0		178.47217848656328	1.2333160872622102
25.0	153.2988584993127	pulse	0.0	t		23.0	male	white	2.6275368085953046	neutral	141	sub-02	1.0	3.0	141_neutral	0.0		178.497307137819	
25.0	153.9988300040568	pulse	0.0	t		23.0	male	white	2.6275368085953046	neutral	141	sub-02	1.0	3.0	141_neutral	0.0		179.1972786425631	
25.0	154.50704593531918	fix	1.0		443	23.0	male	white	2.6275368085953046	neutral	141	sub-02	1.0	3.0	141_neutral	0.0		179.7054945738255	3.7665981854806887
25.0	154.69880905521313	pulse	1.0	t		23.0	male	white	2.6275368085953046	neutral	141	sub-02	1.0	3.0	141_neutral	0.0		179.89725769371944	
25.0	155.39879897320316	pulse	1.0	t		23.0	male	white	2.6275368085953046	neutral	141	sub-02	1.0	3.0	141_neutral	0.0		180.59724761170946	
25.0	156.09887280731346	pulse	1.0	t		23.0	male	white	2.6275368085953046	neutral	141	sub-02	1.0	3.0	141_neutral	0.0		181.29732144581976	
25.0	156.79877790361752	pulse	1.0	t		23.0	male	white	2.6275368085953046	neutral	141	sub-02	1.0	3.0	141_neutral	0.0		181.99722654212383	
25.0	157.49876510489958	pulse	1.0	t		23.0	male	white	2.6275368085953046	neutral	141	sub-02	1.0	3.0	141_neutral	0.0		182.69721374340588	
25.0	158.1987432504866	pulse	1.0	t		23.0	male	white	2.6275368085953046	neutral	141	sub-02	1.0	3.0	141_neutral	0.0		183.3971918889929	
26.0	158.27364412079987	face	0.0		146	19.0	male	white	3.2522881018702745	smiling	018	sub-02	1.0	3.0	018_smiling	0.0		183.47209275930618	1.2333070315671648
26.0	158.89875852442856	pulse	0.0	t		19.0	male	white	3.2522881018702745	smiling	018	sub-02	1.0	3.0	018_smiling	0.0		184.09720716293486	
26.0	159.50695115236704	fix	1.0		443	19.0	male	white	3.2522881018702745	smiling	018	sub-02	1.0	3.0	018_smiling	0.0		184.70539979087334	3.766618711724732
26.0	159.59874874427624	pulse	1.0	t		19.0	male	white	3.2522881018702745	smiling	018	sub-02	1.0	3.0	018_smiling	0.0		184.79719738278254	
26.0	160.29873866226808	pulse	1.0	t		19.0	male	white	3.2522881018702745	smiling	018	sub-02	1.0	3.0	018_smiling	0.0		185.49718730077439	
26.0	160.99872616540597	pulse	1.0	t		19.0	male	white	3.2522881018702745	smiling	018	sub-02	1.0	3.0	018_smiling	0.0		186.19717480391228	
26.0	161.69871336668984	pulse	1.0	t		19.0	male	white	3.2522881018702745	smiling	018	sub-02	1.0	3.0	018_smiling	0.0		186.89716200519615	
26.0	162.39870388839518	pulse	1.0	t		19.0	male	white	3.2522881018702745	smiling	018	sub-02	1.0	3.0	018_smiling	0.0		187.59715252690148	
26.0	163.0986829395497	pulse	1.0	t		19.0	male	white	3.2522881018702745	smiling	018	sub-02	1.0	3.0	018_smiling	0.0		188.297131578056	
27.0	163.27356986409177	face	0.0		146	21.0	male	east_asian/white	3.501790688420215	neutral	036	sub-02	1.0	3.0	036_neutral	0.0		188.47201850259808	1.2416566852771211
27.0	163.79867708353413	pulse	0.0	t		21.0	male	east_asian/white	3.501790688420215	neutral	036	sub-02	1.0	3.0	036_neutral	0.0		188.99712572204044	
27.0	164.49867696279034	pulse	0.0	t		21.0	male	east_asian/white	3.501790688420215	neutral	036	sub-02	1.0	3.0	036_neutral	0.0		189.69712560129665	
27.0	164.5152265493689	fix	1.0		443	21.0	male	east_asian/white	3.501790688420215	neutral	036	sub-02	1.0	3.0	036_neutral	0.0		189.7136751878752	3.758257285608124
27.0	165.19866023993927	pulse	1.0	t		21.0	male	east_asian/white	3.501790688420215	neutral	036	sub-02	1.0	3.0	036_neutral	0.0		190.39710887844558	
27.0	165.8986543839219	pulse	1.0	t		21.0	male	east_asian/white	3.501790688420215	neutral	036	sub-02	1.0	3.0	036_neutral	0.0		191.0971030224282	
27.0	166.5986418870616	pulse	1.0	t		21.0	male	east_asian/white	3.501790688420215	neutral	036	sub-02	1.0	3.0	036_neutral	0.0		191.7970905255679	
27.0	167.29863452176141	pulse	1.0	t		21.0	male	east_asian/white	3.501790688420215	neutral	036	sub-02	1.0	3.0	036_neutral	0.0		192.49708316026772	
27.0	167.99862081747415	pulse	1.0	t		21.0	male	east_asian/white	3.501790688420215	neutral	036	sub-02	1.0	3.0	036_neutral	0.0		193.19706945598045	
28.0	168.27348383497701	face	0.0		145	30.0	female	black	2.7345801830481498	neutral	062	sub-02	1.0	3.0	062_neutral	0.0		193.47193247348332	1.2333426506393153
28.0	168.6986309598542	pulse	0.0	t		30.0	female	black	2.7345801830481498	neutral	062	sub-02	1.0	3.0	062_neutral	0.0		193.8970795983605	
28.0	169.39859401261492	pulse	0.0	t		30.0	female	black	2.7345801830481498	neutral	062	sub-02	1.0	3.0	062_neutral	0.0		194.59704265112123	
28.0	169.50682648561633	fix	1.0		444	30.0	female	black	2.7345801830481498	neutral	062	sub-02	1.0	3.0	062_neutral	0.0		194.70527512412264	3.7665963743402244
28.0	170.09857517676573	pulse	1.0	t		30.0	female	black	2.7345801830481498	neutral	062	sub-02	1.0	3.0	062_neutral	0.0		195.29702381527204	
28.0	170.7985738485968	pulse	1.0	t		30.0	female	black	2.7345801830481498	neutral	062	sub-02	1.0	3.0	062_neutral	0.0		195.9970224871031	
28.0	171.49858399097684	pulse	1.0	t		30.0	female	black	2.7345801830481498	neutral	062	sub-02	1.0	3.0	062_neutral	0.0		196.69703262948315	
28.0	172.19857360711285	pulse	1.0	t		30.0	female	black	2.7345801830481498	neutral	062	sub-02	1.0	3.0	062_neutral	0.0		197.39702224561916	
28.0	172.89855628054647	pulse	1.0	t		30.0	female	black	2.7345801830481498	neutral	062	sub-02	1.0	3.0	062_neutral	0.0		198.09700491905278	
29.0	173.27342285995655	face	0.0		145	20.0	male	black	3.1070433744528456	neutral	082	sub-02	1.0	3.0	082_neutral	0.0		198.47187149846286	1.2333218225376186
29.0	173.5985483115346	pulse	0.0	t		20.0	male	black	3.1070433744528456	neutral	082	sub-02	1.0	3.0	082_neutral	0.0		198.79699695004092	
29.0	174.2985285701161	pulse	0.0	t		20.0	male	black	3.1070433744528456	neutral	082	sub-02	1.0	3.0	082_neutral	0.0		199.4969772086224	
29.0	174.50674468249417	fix	1.0		444	20.0	male	black	3.1070433744528456	neutral	082	sub-02	1.0	3.0	082_neutral	0.0		199.70519332100048	3.7666102597413555
29.0	174.9985254308085	pulse	1.0	t		20.0	male	black	3.1070433744528456	neutral	082	sub-02	1.0	3.0	082_neutral	0.0		200.19697406931482	
29.0	175.69850599124766	pulse	1.0	t		20.0	male	black	3.1070433744528456	neutral	082	sub-02	1.0	3.0	082_neutral	0.0		200.89695462975396	
29.0	176.39851432248724	pulse	1.0	t		20.0	male	black	3.1070433744528456	neutral	082	sub-02	1.0	3.0	082_neutral	0.0		201.59696296099355	
29.0	177.09847858267312	pulse	1.0	t		20.0	male	black	3.1070433744528456	neutral	082	sub-02	1.0	3.0	082_neutral	0.0		202.29692722117943	
29.0	177.79848208421026	pulse	1.0	t		20.0	male	black	3.1070433744528456	neutral	082	sub-02	1.0	3.0	082_neutral	0.0		202.99693072271657	
30.0	178.27335494223553	face	0.0		145	54.0	female	white	2.286908077994429	smiling	136	sub-02	1.0	3.0	136_smiling	0.0		203.47180358074183	1.233314879837053
30.0	178.49846385207456	pulse	0.0	t		54.0	female	white	2.286908077994429	smiling	136	sub-02	1.0	3.0	136_smiling	0.0		203.69691249058087	
30.0	179.19844833664865	pulse	0.0	t		54.0	female	white	2.286908077994429	smiling	136	sub-02	1.0	3.0	136_smiling	0.0		204.39689697515496	
30.0	179.50666982207258	fix	1.0		444	54.0	female	white	2.286908077994429	smiling	136	sub-02	1.0	3.0	136_smiling	0.0		204.7051184605789	3.7666081467450567
30.0	179.89844429177174	pulse	1.0	t		54.0	female	white	2.286908077994429	smiling	136	sub-02	1.0	3.0	136_smiling	0.0		205.09689293027805	
30.0	180.59842756891885	pulse	1.0	t		54.0	female	white	2.286908077994429	smiling	136	sub-02	1.0	3.0	136_smiling	0.0		205.79687620742516	
30.0	181.29841627948372	pulse	1.0	t		54.0	female	white	2.286908077994429	smiling	136	sub-02	1.0	3.0	136_smiling	0.0		206.49686491799002	
30.0	181.99841827173805	pulse	1.0	t		54.0	female	white	2.286908077994429	smiling	136	sub-02	1.0	3.0	136_smiling	0.0		207.19686691024435	
30.0	182.69841030272437	pulse	1.0	t		54.0	female	white	2.286908077994429	smiling	136	sub-02	1.0	3.0	136_smiling	0.0		207.89685894123068	
31.0	183.27327796881764	face	0.0		145	27.0	male	black	3.5523278949462798	neutral	042	sub-02	1.0	3.0	042_neutral	1.0	dominance	208.47172660732394	1.23331759654684
31.0	183.39840354113767	pulse	0.0	t		27.0	male	black	3.5523278949462798	neutral	042	sub-02	1.0	3.0	042_neutral	1.0	dominance	208.59685217964397	
31.0	184.09838772385592	pulse	0.0	t		27.0	male	black	3.5523278949462798	neutral	042	sub-02	1.0	3.0	042_neutral	1.0	dominance	209.29683636236223	
31.0	184.50659556536448	fix	1.0		177	27.0	male	black	3.5523278949462798	neutral	042	sub-02	1.0	3.0	042_neutral	1.0	dominance	209.70504420387078	1.4999812848946021
31.0	184.79838639568698	pulse	1.0	t		27.0	male	black	3.5523278949462798	neutral	042	sub-02	1.0	3.0	042_neutral	1.0	dominance	209.99683503419328	
31.0	185.4983582022869	pulse	1.0	t		27.0	male	black	3.5523278949462798	neutral	042	sub-02	1.0	3.0	042_neutral	1.0	dominance	210.69680684079322	
31.0	186.00657685025908	rating	2.0		294	27.0	male	black	3.5523278949462798	neutral	042	sub-02	1.0	3.0	042_neutral	1.0	dominance	211.2050254887654	2.499960154937071
31.0	186.19834298871683	pulse	2.0	t		27.0	male	black	3.5523278949462798	neutral	042	sub-02	1.0	3.0	042_neutral	1.0	dominance	211.39679162722314	
31.0	186.89832928442956	pulse	2.0	t		27.0	male	black	3.5523278949462798	neutral	042	sub-02	1.0	3.0	042_neutral	1.0	dominance	212.09677792293587	
31.0	187.50980611150771	response	2.0	y		27.0	male	black	3.5523278949462798	neutral	042	sub-02	1.0	3.0	042_neutral	1.0	dominance	212.70825475001402	
31.0	187.598336408244	pulse	2.0	t		27.0	male	black	3.5523278949462798	neutral	042	sub-02	1.0	3.0	042_neutral	1.0	dominance	212.7967850467503	
31.0	188.29831545940033	pulse	2.0	t		27.0	male	black	3.5523278949462798	neutral	042	sub-02	1.0	3.0	042_neutral	1.0	dominance	213.49676409790663	
31.0	188.50653700519615	fix	3.0		444	27.0	male	black	3.5523278949462798	neutral	042	sub-02	1.0	3.0	042_neutral	1.0	dominance	213.70498564370246	3.766609957885521
31.0	188.99831382937555	pulse	3.0	t		27.0	male	black	3.5523278949462798	neutral	042	sub-02	1.0	3.0	042_neutral	1.0	dominance	214.19676246788185	
31.0	189.6983125012066	pulse	3.0	t		27.0	male	black	3.5523278949462798	neutral	042	sub-02	1.0	3.0	042_neutral	1.0	dominance	214.8967611397129	
31.0	190.3983172101689	pulse	3.0	t		27.0	male	black	3.5523278949462798	neutral	042	sub-02	1.0	3.0	042_neutral	1.0	dominance	215.5967658486752	
31.0	191.09827754621983	pulse	3.0	t		27.0	male	black	3.5523278949462798	neutral	042	sub-02	1.0	3.0	042_neutral	1.0	dominance	216.29672618472614	
31.0	191.79828738674223	pulse	3.0	t		27.0	male	black	3.5523278949462798	neutral	042	sub-02	1.0	3.0	042_neutral	1.0	dominance	216.99673602524854	
32.0	192.27314696308167	face	0.0		145	31.0	female	white	2.1822522881018704	neutral	102	sub-02	1.0	3.0	102_neutral	0.0		217.47159560158798	1.2333185021143436
32.0	192.4982588914845	pulse	0.0	t		31.0	female	white	2.1822522881018704	neutral	102	sub-02	1.0	3.0	102_neutral	0.0		217.69670752999082	
32.0	193.19825877074254	pulse	0.0	t		31.0	female	white	2.1822522881018704	neutral	102	sub-02	1.0	3.0	102_neutral	0.0		218.39670740924885	
32.0	193.50646546519602	fix	1.0		444	31.0	female	white	2.1822522881018704	neutral	102	sub-02	1.0	3.0	102_neutral	0.0		218.70491410370232	3.758400969321883
32.0	193.8982366144719	pulse	1.0	t		31.0	female	white	2.1822522881018704	neutral	102	sub-02	1.0	3.0	102_neutral	0.0		219.0966852529782	
32.0	194.59822924917353	pulse	1.0	t		31.0	female	white	2.1822522881018704	neutral	102	sub-02	1.0	3.0	102_neutral	0.0		219.79667788767983	
32.0	195.2982200727347	pulse	1.0	t		31.0	female	white	2.1822522881018704	neutral	102	sub-02	1.0	3.0	102_neutral	0.0		220.496668711241	
32.0	195.99820485916462	pulse	1.0	t		31.0	female	white	2.1822522881018704	neutral	102	sub-02	1.0	3.0	102_neutral	0.0		221.19665349767092	
32.0	196.69820413470916	pulse	1.0	t		31.0	female	white	2.1822522881018704	neutral	102	sub-02	1.0	3.0	102_neutral	0.0		221.89665277321546	
33.0	197.2648664345179	face	0.0		146	30.0	female	black	2.7345801830481498	smiling	062	sub-02	1.0	3.0	062_smiling	0.0		222.4633150730242	1.2415374519441684
33.0	197.39815813177302	pulse	0.0	t		30.0	female	black	2.7345801830481498	smiling	062	sub-02	1.0	3.0	062_smiling	0.0		222.59660677027932	
33.0	198.09817340571317	pulse	0.0	t		30.0	female	black	2.7345801830481498	smiling	062	sub-02	1.0	3.0	062_smiling	0.0		223.29662204421948	
33.0	198.50640388646207	fix	1.0		444	30.0	female	black	2.7345801830481498	smiling	062	sub-02	1.0	3.0	062_smiling	0.0		223.70485252496837	3.766597883623035
33.0	198.79816724783996	pulse	1.0	t		30.0	female	black	2.7345801830481498	smiling	062	sub-02	1.0	3.0	062_smiling	0.0		223.99661588634626	
33.0	199.49815626026248	pulse	1.0	t		30.0	female	black	2.7345801830481498	smiling	062	sub-02	1.0	3.0	062_smiling	0.0		224.69660489876878	
33.0	200.19813983926724	pulse	1.0	t		30.0	female	black	2.7345801830481498	smiling	062	sub-02	1.0	3.0	062_smiling	0.0		225.39658847777355	
33.0	200.89814062409278	pulse	1.0	t		30.0	female	black	2.7345801830481498	smiling	062	sub-02	1.0	3.0	062_smiling	0.0		226.09658926259908	
33.0	201.59812269381473	pulse	1.0	t		30.0	female	black	2.7345801830481498	smiling	062	sub-02	1.0	3.0	062_smiling	0.0		226.79657133232104	
34.0	202.2730017700851	face	0.0		145	31.0	female	west_asian	2.364902506963788	smiling	006	sub-02	1.0	3.0	006_smiling	0.0		227.4714504085914	1.2333188039719971
34.0	202.29812619535187	pulse	0.0	t		31.0	female	west_asian	2.364902506963788	smiling	006	sub-02	1.0	3.0	006_smiling	0.0		227.49657483385818	
34.0	202.9981140003474	pulse	0.0	t		31.0	female	west_asian	2.364902506963788	smiling	006	sub-02	1.0	3.0	006_smiling	0.0		228.19656263885372	
34.0	203.5063205740571	fix	1.0		443	31.0	female	west_asian	2.364902506963788	smiling	006	sub-02	1.0	3.0	006_smiling	0.0		228.7047692125634	3.758361124258954
34.0	203.69809184407677	pulse	1.0	t		31.0	female	west_asian	2.364902506963788	smiling	006	sub-02	1.0	3.0	006_smiling	0.0		228.89654048258308	
34.0	204.39808659177288	pulse	1.0	t		31.0	female	west_asian	2.364902506963788	smiling	006	sub-02	1.0	3.0	006_smiling	0.0		229.5965352302792	
34.0	205.09807107634697	pulse	1.0	t		31.0	female	west_asian	2.364902506963788	smiling	006	sub-02	1.0	3.0	006_smiling	0.0		230.29651971485328	
34.0	205.79808574657545	pulse	1.0	t		31.0	female	west_asian	2.364902506963788	smiling	006	sub-02	1.0	3.0	006_smiling	0.0		230.99653438508176	
34.0	206.49805876060054	pulse	1.0	t		31.0	female	west_asian	2.364902506963788	smiling	006	sub-02	1.0	3.0	006_smiling	0.0		231.69650739910685	
34.0	207.19805199901384	pulse	1.0	t		31.0	female	west_asian	2.364902506963788	smiling	006	sub-02	1.0	3.0	006_smiling	0.0		232.39650063752015	
35.0	207.26468169831605	face	0.0		147	27.0	female	white	4.181058495821727	neutral	039	sub-02	1.0	3.0	039_neutral	0.0		232.46313033682236	1.2415649208905961
35.0	207.89804252071917	pulse	0.0	t		27.0	female	white	4.181058495821727	neutral	039	sub-02	1.0	3.0	039_neutral	0.0		233.09649115922548	
35.0	208.50624661920665	fix	1.0		443	27.0	female	white	4.181058495821727	neutral	039	sub-02	1.0	3.0	039_neutral	0.0		233.70469525771296	3.766606637462246
35.0	208.59802489229696	pulse	1.0	t		27.0	female	white	4.181058495821727	neutral	039	sub-02	1.0	3.0	039_neutral	0.0		233.79647353080327	
35.0	209.29800967872688	pulse	1.0	t		27.0	female	white	4.181058495821727	neutral	039	sub-02	1.0	3.0	039_neutral	0.0		234.4964583172332	
35.0	209.99800201157086	pulse	1.0	t		27.0	female	white	4.181058495821727	neutral	039	sub-02	1.0	3.0	039_neutral	0.0		235.19645065007717	
35.0	210.69798740171427	pulse	1.0	t		27.0	female	white	4.181058495821727	neutral	039	sub-02	1.0	3.0	039_neutral	0.0		235.89643604022058	
35.0	211.3979878846858	pulse	1.0	t		27.0	female	white	4.181058495821727	neutral	039	sub-02	1.0	3.0	039_neutral	0.0		236.5964365231921	
35.0	212.09797750081998	pulse	1.0	t		27.0	female	white	4.181058495821727	neutral	039	sub-02	1.0	3.0	039_neutral	0.0		237.2964261393263	
36.0	212.2728532566689	face	0.0		146	19.0	female	white	4.298846000795861	neutral	100	sub-02	1.0	3.0	100_neutral	0.0		237.4713018951752	1.2416563834212866
36.0	212.7979701355198	pulse	0.0	t		19.0	female	white	4.298846000795861	neutral	100	sub-02	1.0	3.0	100_neutral	0.0		237.9964187740261	
36.0	213.49794737553748	pulse	0.0	t		19.0	female	white	4.298846000795861	neutral	100	sub-02	1.0	3.0	100_neutral	0.0		238.69639601404378	
36.0	213.51450964009018	fix	1.0		443	19.0	female	white	4.298846000795861	neutral	100	sub-02	1.0	3.0	100_neutral	0.0		238.7129582785965	3.758253965186668
36.0	214.19794816036483	pulse	1.0	t		19.0	female	white	4.298846000795861	neutral	100	sub-02	1.0	3.0	100_neutral	0.0		239.39639679887114	
36.0	214.89792992822913	pulse	1.0	t		19.0	female	white	4.298846000795861	neutral	100	sub-02	1.0	3.0	100_neutral	0.0		240.09637856673544	
36.0	215.5979264870657	pulse	1.0	t		19.0	female	white	4.298846000795861	neutral	100	sub-02	1.0	3.0	100_neutral	0.0		240.796375125572	
36.0	216.29790765121652	pulse	1.0	t		19.0	female	white	4.298846000795861	neutral	100	sub-02	1.0	3.0	100_neutral	0.0		241.49635628972283	
36.0	216.99790843604387	pulse	1.0	t		19.0	female	white	4.298846000795861	neutral	100	sub-02	1.0	3.0	100_neutral	0.0		242.19635707455018	
37.0	217.27276360527685	face	0.0		145	40.0	female	west_asian	1.5777954635893354	smiling	038	sub-02	1.0	3.0	038_smiling	0.0		242.47121224378316	1.2333390283602057
37.0	217.6979062023056	pulse	0.0	t		40.0	female	west_asian	1.5777954635893354	smiling	038	sub-02	1.0	3.0	038_smiling	0.0		242.8963548408119	
37.0	218.39787831076137	pulse	0.0	t		40.0	female	west_asian	1.5777954635893354	smiling	038	sub-02	1.0	3.0	038_smiling	0.0		243.59632694926768	
37.0	218.50610263363706	fix	1.0		444	40.0	female	west_asian	1.5777954635893354	smiling	038	sub-02	1.0	3.0	038_smiling	0.0		243.70455127214336	3.766606637462246
37.0	219.09788241601018	pulse	1.0	t		40.0	female	west_asian	1.5777954635893354	smiling	038	sub-02	1.0	3.0	038_smiling	0.0		244.2963310545165	
37.0	219.79786448573213	pulse	1.0	t		40.0	female	west_asian	1.5777954635893354	smiling	038	sub-02	1.0	3.0	038_smiling	0.0		244.99631312423844	
37.0	220.49784776287925	pulse	1.0	t		40.0	female	west_asian	1.5777954635893354	smiling	038	sub-02	1.0	3.0	038_smiling	0.0		245.69629640138555	
37.0	221.19784583099863	pulse	1.0	t		40.0	female	west_asian	1.5777954635893354	smiling	038	sub-02	1.0	3.0	038_smiling	0.0		246.39629446950494	
37.0	221.8978423898334	pulse	1.0	t		40.0	female	west_asian	1.5777954635893354	smiling	038	sub-02	1.0	3.0	038_smiling	0.0		247.0962910283397	
38.0	222.2727092710993	face	0.0		145	22.0	female	west_asian	3.8205332272184642	smiling	066	sub-02	1.0	3.0	066_smiling	0.0		247.4711579096056	1.2333305763768294
38.0	222.597826270694	pulse	0.0	t		22.0	female	west_asian	3.8205332272184642	smiling	066	sub-02	1.0	3.0	066_smiling	0.0		247.7962749092003	
38.0	223.29781920725145	pulse	0.0	t		22.0	female	west_asian	3.8205332272184642	smiling	066	sub-02	1.0	3.0	066_smiling	0.0		248.49626784575776	
38.0	223.50603984747613	fix	1.0		444	22.0	female	west_asian	3.8205332272184642	smiling	066	sub-02	1.0	3.0	066_smiling	0.0		248.70448848598244	3.758348446284799
38.0	223.9978293496315	pulse	1.0	t		22.0	female	west_asian	3.8205332272184642	smiling	066	sub-02	1.0	3.0	066_smiling	0.0		249.1962779881378	
38.0	224.69780719336086	pulse	1.0	t		22.0	female	west_asian	3.8205332272184642	smiling	066	sub-02	1.0	3.0	066_smiling	0.0		249.89625583186717	
38.0	225.39780194105697	pulse	1.0	t		22.0	female	west_asian	3.8205332272184642	smiling	066	sub-02	1.0	3.0	066_smiling	0.0		250.59625057956328	
38.0	226.09777555879555	pulse	1.0	t		22.0	female	west_asian	3.8205332272184642	smiling	066	sub-02	1.0	3.0	066_smiling	0.0		251.29622419730185	
38.0	226.79775672294818	pulse	1.0	t		22.0	female	west_asian	3.8205332272184642	smiling	066	sub-02	1.0	3.0	066_smiling	0.0		251.99620536145449	
39.0	227.26438829376093	face	0.0		146	20.0	male	black	3.1070433744528456	smiling	082	sub-02	1.0	3.0	082_smiling	0.0		252.46283693226724	1.241574278441476
39.0	227.49776263933563	pulse	0.0	t		20.0	male	black	3.1070433744528456	smiling	082	sub-02	1.0	3.0	082_smiling	0.0		252.69621127784194	
39.0	228.19776010374153	pulse	0.0	t		20.0	male	black	3.1070433744528456	smiling	082	sub-02	1.0	3.0	082_smiling	0.0		253.39620874224784	
39.0	228.5059625722024	fix	1.0		444	20.0	male	black	3.1070433744528456	smiling	082	sub-02	1.0	3.0	082_smiling	0.0		253.7044112107087	3.74992604514955
39.0	228.89774126789234	pulse	1.0	t		20.0	male	black	3.1070433744528456	smiling	082	sub-02	1.0	3.0	082_smiling	0.0		254.09618990639865	
39.0	229.5977311858842	pulse	1.0	t		20.0	male	black	3.1070433744528456	smiling	082	sub-02	1.0	3.0	082_smiling	0.0		254.7961798243905	
39.0	230.29770902961536	pulse	1.0	t		20.0	male	black	3.1070433744528456	smiling	082	sub-02	1.0	3.0	082_smiling	0.0		255.49615766812167	
39.0	230.99769079747966	pulse	1.0	t		20.0	male	black	3.1070433744528456	smiling	082	sub-02	1.0	3.0	082_smiling	0.0		256.19613943598597	
39.0	231.6976906767377	pulse	1.0	t		20.0	male	black	3.1070433744528456	smiling	082	sub-02	1.0	3.0	082_smiling	0.0		256.896139315244	
40.0	232.25588861735196	fix	0.0		720													257.45433725585826	5.999932987848297
40.0	232.3976890467129	pulse	0.0	t														257.5961376852192	
40.0	233.09767775727778	pulse	0.0	t														258.2961263957841	
40.0	233.79766586412916	pulse	0.0	t														258.99611450263546	
40.0	234.49764612271247	pulse	0.0	t														259.6960947612188	
40.0	235.19766803749735	pulse	0.0	t														260.39611667600366	
40.0	235.89764557937087	pulse	0.0	t														261.0960942178772	
40.0	236.59762704537934	pulse	0.0	t														261.79607568388565	
40.0	237.2976091151013	pulse	0.0	t														262.4960577536076	
40.0	237.99759390153122	pulse	0.0	t														263.1960425400375	
