trial_nr	onset	event_type	phase	response	nr_frames	face_age	face_sex	face_eth	attractiveness	expression	face_id	sub_id	ses	run	trial_type	catch	rating_type	onset_abs	duration
-1.0	0.05421494358779455	fix	0.0		714													89.40233250584242	5.966192067693555
-1.0	0.7039421256486094	pulse	0.0	t														90.05205968790324	
-1.0	1.4039471364667406	pulse	0.0	t														90.75206469872137	
-1.0	2.103923470915106	pulse	0.0	t														91.45204103316973	
-1.0	2.803907955489194	pulse	0.0	t														92.15202551774382	
-1.0	3.503881271370119	pulse	0.0	t														92.85199883362475	
-1.0	4.203881452483984	pulse	0.0	t														93.55199901473861	
-1.0	4.90386291849245	pulse	0.0	t														94.25198048074708	
-1.0	5.603860684754181	pulse	0.0	t														94.95197824700881	
0.0	6.02040701128135	face	0.0		144	40.0	female	west_asian	1.5777954635893354	neutral	038	sub-02	1.0	5.0	038_neutral	1.0	attractiveness	95.36852457353598	1.2333091445634636
0.0	6.303845471185923	pulse	0.0	t		40.0	female	west_asian	1.5777954635893354	neutral	038	sub-02	1.0	5.0	038_neutral	1.0	attractiveness	95.65196303344055	
0.0	7.003867989682476	pulse	0.0	t		40.0	female	west_asian	1.5777954635893354	neutral	038	sub-02	1.0	5.0	038_neutral	1.0	attractiveness	96.3519855519371	
0.0	7.253716155844813	fix	1.0		177	40.0	female	west_asian	1.5777954635893354	neutral	038	sub-02	1.0	5.0	038_neutral	1.0	attractiveness	96.60183371809944	1.5083451258615241
0.0	7.703833759151166	pulse	1.0	t		40.0	female	west_asian	1.5777954635893354	neutral	038	sub-02	1.0	5.0	038_neutral	1.0	attractiveness	97.0519513214058	
0.0	8.403814017734476	pulse	1.0	t		40.0	female	west_asian	1.5777954635893354	neutral	038	sub-02	1.0	5.0	038_neutral	1.0	attractiveness	97.7519315799891	
0.0	8.762061281706337	rating	2.0		293	40.0	female	west_asian	1.5777954635893354	neutral	038	sub-02	1.0	5.0	038_neutral	1.0	attractiveness	98.11017884396097	2.491597521395306
0.0	9.103827782391818	pulse	2.0	t		40.0	female	west_asian	1.5777954635893354	neutral	038	sub-02	1.0	5.0	038_neutral	1.0	attractiveness	98.45194534464645	
0.0	9.803788722156241	pulse	2.0	t		40.0	female	west_asian	1.5777954635893354	neutral	038	sub-02	1.0	5.0	038_neutral	1.0	attractiveness	99.15190628441087	
0.0	9.870463398083302	response	2.0	d		40.0	female	west_asian	1.5777954635893354	neutral	038	sub-02	1.0	5.0	038_neutral	1.0	attractiveness	99.21858096033793	
0.0	10.503770791878196	pulse	2.0	t		40.0	female	west_asian	1.5777954635893354	neutral	038	sub-02	1.0	5.0	038_neutral	1.0	attractiveness	99.85188835413283	
0.0	11.203773689700029	pulse	2.0	t		40.0	female	west_asian	1.5777954635893354	neutral	038	sub-02	1.0	5.0	038_neutral	1.0	attractiveness	100.55189125195466	
0.0	11.253658803101644	fix	3.0		444	40.0	female	west_asian	1.5777954635893354	neutral	038	sub-02	1.0	5.0	038_neutral	1.0	attractiveness	100.60177636535627	3.7582657375933195
0.0	11.903789265497835	pulse	3.0	t		40.0	female	west_asian	1.5777954635893354	neutral	038	sub-02	1.0	5.0	038_neutral	1.0	attractiveness	101.25190682775246	
0.0	12.603769524079325	pulse	3.0	t		40.0	female	west_asian	1.5777954635893354	neutral	038	sub-02	1.0	5.0	038_neutral	1.0	attractiveness	101.95188708633395	
0.0	13.30374434924488	pulse	3.0	t		40.0	female	west_asian	1.5777954635893354	neutral	038	sub-02	1.0	5.0	038_neutral	1.0	attractiveness	102.65186191149951	
0.0	14.00373185238459	pulse	3.0	t		40.0	female	west_asian	1.5777954635893354	neutral	038	sub-02	1.0	5.0	038_neutral	1.0	attractiveness	103.35184941463922	
0.0	14.703716035101024	pulse	3.0	t		40.0	female	west_asian	1.5777954635893354	neutral	038	sub-02	1.0	5.0	038_neutral	1.0	attractiveness	104.05183359735565	
1.0	15.011924540694963	face	0.0		146	23.0	male	white	2.6275368085953046	neutral	141	sub-02	1.0	5.0	141_neutral	0.0		104.36004210294959	1.2416723818168975
1.0	15.403713499506921	pulse	0.0	t		23.0	male	white	2.6275368085953046	neutral	141	sub-02	1.0	5.0	141_neutral	0.0		104.75183106176155	
1.0	16.103713378763132	pulse	0.0	t		23.0	male	white	2.6275368085953046	neutral	141	sub-02	1.0	5.0	141_neutral	0.0		105.45183094101776	
1.0	16.25359692251186	fix	1.0		445	23.0	male	white	2.6275368085953046	neutral	141	sub-02	1.0	5.0	141_neutral	0.0		105.60171448476649	3.758285961979709
1.0	16.803715672873295	pulse	1.0	t		23.0	male	white	2.6275368085953046	neutral	141	sub-02	1.0	5.0	141_neutral	0.0		106.15183323512792	
1.0	17.503689290611874	pulse	1.0	t		23.0	male	white	2.6275368085953046	neutral	141	sub-02	1.0	5.0	141_neutral	0.0		106.8518068528665	
1.0	18.203681925311685	pulse	1.0	t		23.0	male	white	2.6275368085953046	neutral	141	sub-02	1.0	5.0	141_neutral	0.0		107.55179948756631	
1.0	18.903653430055783	pulse	1.0	t		23.0	male	white	2.6275368085953046	neutral	141	sub-02	1.0	5.0	141_neutral	0.0		108.25177099231041	
1.0	19.603640329482005	pulse	1.0	t		23.0	male	white	2.6275368085953046	neutral	141	sub-02	1.0	5.0	141_neutral	0.0		108.95175789173663	
2.0	20.01188288449157	face	0.0		146	28.0	male	white	3.9076800636689217	smiling	033	sub-02	1.0	5.0	033_smiling	0.0		109.3600004467462	1.24163555531959
2.0	20.303650170004403	pulse	0.0	t		28.0	male	white	3.9076800636689217	smiling	033	sub-02	1.0	5.0	033_smiling	0.0		109.65176773225903	
2.0	21.003639182426923	pulse	0.0	t		28.0	male	white	3.9076800636689217	smiling	033	sub-02	1.0	5.0	033_smiling	0.0		110.35175674468155	
2.0	21.25351843981116	fix	1.0		444	28.0	male	white	3.9076800636689217	smiling	033	sub-02	1.0	5.0	033_smiling	0.0		110.60163600206579	3.758268152445453
2.0	21.703615215017635	pulse	1.0	t		28.0	male	white	3.9076800636689217	smiling	033	sub-02	1.0	5.0	033_smiling	0.0		111.05173277727226	
2.0	22.403600605161046	pulse	1.0	t		28.0	male	white	3.9076800636689217	smiling	033	sub-02	1.0	5.0	033_smiling	0.0		111.75171816741567	
2.0	23.10361014382761	pulse	1.0	t		28.0	male	white	3.9076800636689217	smiling	033	sub-02	1.0	5.0	033_smiling	0.0		112.45172770608224	
2.0	23.803596439540343	pulse	1.0	t		28.0	male	white	3.9076800636689217	smiling	033	sub-02	1.0	5.0	033_smiling	0.0		113.15171400179497	
2.0	24.503571868419385	pulse	1.0	t		28.0	male	white	3.9076800636689217	smiling	033	sub-02	1.0	5.0	033_smiling	0.0		113.85168943067401	
3.0	25.011786592256612	face	0.0		146	20.0	male	black	3.1070433744528456	neutral	082	sub-02	1.0	5.0	082_neutral	0.0		114.35990415451124	1.2416509500017128
3.0	25.203566012402007	pulse	0.0	t		20.0	male	black	3.1070433744528456	neutral	082	sub-02	1.0	5.0	082_neutral	0.0		114.55168357465664	
3.0	25.90355955267114	pulse	0.0	t		20.0	male	black	3.1070433744528456	neutral	082	sub-02	1.0	5.0	082_neutral	0.0		115.25167711492577	
3.0	26.253437542258325	fix	1.0		444	20.0	male	black	3.1070433744528456	neutral	082	sub-02	1.0	5.0	082_neutral	0.0		115.60155510451295	3.766606033750577
3.0	26.603570902478168	pulse	1.0	t		20.0	male	black	3.1070433744528456	neutral	082	sub-02	1.0	5.0	082_neutral	0.0		115.9516884647328	
3.0	27.303543010933936	pulse	1.0	t		20.0	male	black	3.1070433744528456	neutral	082	sub-02	1.0	5.0	082_neutral	0.0		116.65166057318856	
3.0	28.0035483236079	pulse	1.0	t		20.0	male	black	3.1070433744528456	neutral	082	sub-02	1.0	5.0	082_neutral	0.0		117.35166588586253	
3.0	28.70352345062929	pulse	1.0	t		20.0	male	black	3.1070433744528456	neutral	082	sub-02	1.0	5.0	082_neutral	0.0		118.05164101288392	
3.0	29.40351608533092	pulse	1.0	t		20.0	male	black	3.1070433744528456	neutral	082	sub-02	1.0	5.0	082_neutral	0.0		118.75163364758555	
4.0	30.020043576008902	face	0.0		145	32.0	male	white	2.389176283326701	neutral	092	sub-02	1.0	5.0	092_neutral	0.0		119.36816113826353	1.2333284633805306
4.0	30.103506003322764	pulse	0.0	t		32.0	male	white	2.389176283326701	neutral	092	sub-02	1.0	5.0	092_neutral	0.0		119.45162356557739	
4.0	30.803479922917177	pulse	0.0	t		32.0	male	white	2.389176283326701	neutral	092	sub-02	1.0	5.0	092_neutral	0.0		120.1515974851718	
4.0	31.253372039389433	fix	1.0		444	32.0	male	white	2.389176283326701	neutral	092	sub-02	1.0	5.0	092_neutral	0.0		120.60148960164406	3.7665969780537125
4.0	31.503502743271383	pulse	1.0	t		32.0	male	white	2.389176283326701	neutral	092	sub-02	1.0	5.0	092_neutral	0.0		120.85162030552601	
4.0	32.20345613662175	pulse	1.0	t		32.0	male	white	2.389176283326701	neutral	092	sub-02	1.0	5.0	092_neutral	0.0		121.55157369887638	
4.0	32.90345631773562	pulse	1.0	t		32.0	male	white	2.389176283326701	neutral	092	sub-02	1.0	5.0	092_neutral	0.0		122.25157387999025	
4.0	33.603448650579594	pulse	1.0	t		32.0	male	white	2.389176283326701	neutral	092	sub-02	1.0	5.0	092_neutral	0.0		122.95156621283422	
4.0	34.3034289091629	pulse	1.0	t		32.0	male	white	2.389176283326701	neutral	092	sub-02	1.0	5.0	092_neutral	0.0		123.65154647141753	
5.0	35.019969017443145	face	0.0		146	31.0	female	east_asian	3.395941106247513	neutral	087	sub-02	1.0	5.0	087_neutral	0.0		124.36808657969777	1.2333351042252616
5.0	35.006741965786205	pulse	0.0	t		31.0	female	east_asian	3.395941106247513	neutral	087	sub-02	1.0	5.0	087_neutral	0.0		124.35485952804083	
5.0	35.70348149257188	pulse	0.0	t		31.0	female	east_asian	3.395941106247513	neutral	087	sub-02	1.0	5.0	087_neutral	0.0		125.05159905482651	
5.0	36.25330412166841	fix	1.0		443	31.0	female	east_asian	3.395941106247513	neutral	087	sub-02	1.0	5.0	087_neutral	0.0		125.60142168392304	3.758258794892754
5.0	36.4034065114065	pulse	1.0	t		31.0	female	east_asian	3.395941106247513	neutral	087	sub-02	1.0	5.0	087_neutral	0.0		125.75152407366113	
5.0	37.103387675559134	pulse	1.0	t		31.0	female	east_asian	3.395941106247513	neutral	087	sub-02	1.0	5.0	087_neutral	0.0		126.45150523781376	
5.0	37.80338151768592	pulse	1.0	t		31.0	female	east_asian	3.395941106247513	neutral	087	sub-02	1.0	5.0	087_neutral	0.0		127.15149907994055	
5.0	38.50336811525449	pulse	1.0	t		31.0	female	east_asian	3.395941106247513	neutral	087	sub-02	1.0	5.0	087_neutral	0.0		127.85148567750912	
5.0	39.20337342793027	pulse	1.0	t		31.0	female	east_asian	3.395941106247513	neutral	087	sub-02	1.0	5.0	087_neutral	0.0		128.5514909901849	
5.0	39.90336877933987	pulse	1.0	t		31.0	female	east_asian	3.395941106247513	neutral	087	sub-02	1.0	5.0	087_neutral	0.0		129.2514863415945	
6.0	40.01156291656116	face	0.0		147	22.0	female	west_asian	3.8205332272184642	smiling	066	sub-02	1.0	5.0	066_smiling	0.0		129.3596804788158	1.2416551759943104
6.0	40.603339982226316	pulse	0.0	t		22.0	female	west_asian	3.8205332272184642	smiling	066	sub-02	1.0	5.0	066_smiling	0.0		129.95145754448095	
6.0	41.25321809255547	fix	1.0		444	22.0	female	west_asian	3.8205332272184642	smiling	066	sub-02	1.0	5.0	066_smiling	0.0		130.6013356548101	3.7666075430333876
6.0	41.303329598360506	pulse	1.0	t		22.0	female	west_asian	3.8205332272184642	smiling	066	sub-02	1.0	5.0	066_smiling	0.0		130.65144716061513	
6.0	42.00332887390505	pulse	1.0	t		22.0	female	west_asian	3.8205332272184642	smiling	066	sub-02	1.0	5.0	066_smiling	0.0		131.35144643615968	
6.0	42.70330732134789	pulse	1.0	t		22.0	female	west_asian	3.8205332272184642	smiling	066	sub-02	1.0	5.0	066_smiling	0.0		132.05142488360252	
6.0	43.40329844676671	pulse	1.0	t		22.0	female	west_asian	3.8205332272184642	smiling	066	sub-02	1.0	5.0	066_smiling	0.0		132.75141600902134	
6.0	44.10328776104507	pulse	1.0	t		22.0	female	west_asian	3.8205332272184642	smiling	066	sub-02	1.0	5.0	066_smiling	0.0		133.4514053232997	
6.0	44.803272849330824	pulse	1.0	t		22.0	female	west_asian	3.8205332272184642	smiling	066	sub-02	1.0	5.0	066_smiling	0.0		134.15139041158545	
7.0	45.01982563558886	face	0.0		145	31.0	female	west_asian	2.364902506963788	smiling	006	sub-02	1.0	5.0	006_smiling	0.0		134.3679431978435	1.2333320856596401
7.0	45.50327242673302	pulse	0.0	t		31.0	female	west_asian	2.364902506963788	smiling	006	sub-02	1.0	5.0	006_smiling	0.0		134.85138998898765	
7.0	46.20325932615924	pulse	0.0	t		31.0	female	west_asian	2.364902506963788	smiling	006	sub-02	1.0	5.0	006_smiling	0.0		135.55137688841387	
7.0	46.2531577212485	fix	1.0		445	31.0	female	west_asian	2.364902506963788	smiling	006	sub-02	1.0	5.0	006_smiling	0.0		135.60127528350313	3.7665942613439256
7.0	46.90326222398107	pulse	1.0	t		31.0	female	west_asian	2.364902506963788	smiling	006	sub-02	1.0	5.0	006_smiling	0.0		136.2513797862357	
7.0	47.603258480959994	pulse	1.0	t		31.0	female	west_asian	2.364902506963788	smiling	006	sub-02	1.0	5.0	006_smiling	0.0		136.95137604321462	
7.0	48.30322968384644	pulse	1.0	t		31.0	female	west_asian	2.364902506963788	smiling	006	sub-02	1.0	5.0	006_smiling	0.0		137.65134724610107	
7.0	49.00320269787153	pulse	1.0	t		31.0	female	west_asian	2.364902506963788	smiling	006	sub-02	1.0	5.0	006_smiling	0.0		138.35132026012616	
7.0	49.70320619940867	pulse	1.0	t		31.0	female	west_asian	2.364902506963788	smiling	006	sub-02	1.0	5.0	006_smiling	0.0		139.0513237616633	
8.0	50.019751982592425	face	0.0		145	26.0	female	white	4.854755272582572	neutral	027	sub-02	1.0	5.0	027_neutral	0.0		139.36786954484705	1.233321520681784
8.0	50.40319943782197	pulse	0.0	t		26.0	female	white	4.854755272582572	neutral	027	sub-02	1.0	5.0	027_neutral	0.0		139.7513170000766	
8.0	51.10318422425189	pulse	0.0	t		26.0	female	white	4.854755272582572	neutral	027	sub-02	1.0	5.0	027_neutral	0.0		140.45130178650652	
8.0	51.25307350327421	fix	1.0		444	26.0	female	white	4.854755272582572	neutral	027	sub-02	1.0	5.0	027_neutral	0.0		140.60119106552884	3.7666057318929234
8.0	51.8031768589517	pulse	1.0	t		26.0	female	white	4.854755272582572	neutral	027	sub-02	1.0	5.0	027_neutral	0.0		141.15129442120633	
8.0	52.503174927071086	pulse	1.0	t		26.0	female	white	4.854755272582572	neutral	027	sub-02	1.0	5.0	027_neutral	0.0		141.85129248932571	
8.0	53.20315277080044	pulse	1.0	t		26.0	female	white	4.854755272582572	neutral	027	sub-02	1.0	5.0	027_neutral	0.0		142.55127033305507	
8.0	53.90315265005847	pulse	1.0	t		26.0	female	white	4.854755272582572	neutral	027	sub-02	1.0	5.0	027_neutral	0.0		143.2512702123131	
8.0	54.60313502163626	pulse	1.0	t		26.0	female	white	4.854755272582572	neutral	027	sub-02	1.0	5.0	027_neutral	0.0		143.9512525838909	
9.0	55.01967923516713	face	0.0		145	26.0	female	white	4.854755272582572	smiling	027	sub-02	1.0	5.0	027_smiling	0.0		144.36779679742176	1.2333191058278317
9.0	55.30314123988137	pulse	0.0	t		26.0	female	white	4.854755272582572	smiling	027	sub-02	1.0	5.0	027_smiling	0.0		144.651258802136	
9.0	56.00311002791568	pulse	0.0	t		26.0	female	white	4.854755272582572	smiling	027	sub-02	1.0	5.0	027_smiling	0.0		145.3512275901703	
9.0	56.252998340994964	fix	1.0		445	26.0	female	white	4.854755272582572	smiling	027	sub-02	1.0	5.0	027_smiling	0.0		145.6011159032496	3.7666102597413555
9.0	56.70310296447133	pulse	1.0	t		26.0	female	white	4.854755272582572	smiling	027	sub-02	1.0	5.0	027_smiling	0.0		146.05122052672596	
9.0	57.40308926018406	pulse	1.0	t		26.0	female	white	4.854755272582572	smiling	027	sub-02	1.0	5.0	027_smiling	0.0		146.7512068224387	
9.0	58.10308098931637	pulse	1.0	t		26.0	female	white	4.854755272582572	smiling	027	sub-02	1.0	5.0	027_smiling	0.0		147.451198551571	
9.0	58.80307392587201	pulse	1.0	t		26.0	female	white	4.854755272582572	smiling	027	sub-02	1.0	5.0	027_smiling	0.0		148.15119148812664	
9.0	59.50306293829453	pulse	1.0	t		26.0	female	white	4.854755272582572	smiling	027	sub-02	1.0	5.0	027_smiling	0.0		148.85118050054916	
10.0	60.01960860073632	face	0.0		145	36.0	female	white	2.7548746518105847	smiling	011	sub-02	1.0	5.0	011_smiling	0.0		149.36772616299095	1.2333230299645948
10.0	60.203067949112665	pulse	0.0	t		36.0	female	white	2.7548746518105847	smiling	011	sub-02	1.0	5.0	011_smiling	0.0		149.5511855113673	
10.0	60.90303854828562	pulse	0.0	t		36.0	female	white	2.7548746518105847	smiling	011	sub-02	1.0	5.0	011_smiling	0.0		150.25115611054025	
10.0	61.252931630700914	fix	1.0		444	36.0	female	white	2.7548746518105847	smiling	011	sub-02	1.0	5.0	011_smiling	0.0		150.60104919295554	3.7666036188966245
10.0	61.60303601269152	pulse	1.0	t		36.0	female	white	2.7548746518105847	smiling	011	sub-02	1.0	5.0	011_smiling	0.0		150.95115357494615	
10.0	62.30301868612696	pulse	1.0	t		36.0	female	white	2.7548746518105847	smiling	011	sub-02	1.0	5.0	011_smiling	0.0		151.6511362483816	
10.0	63.00301554681755	pulse	1.0	t		36.0	female	white	2.7548746518105847	smiling	011	sub-02	1.0	5.0	011_smiling	0.0		152.35113310907218	
10.0	63.70300003139164	pulse	1.0	t		36.0	female	white	2.7548746518105847	smiling	011	sub-02	1.0	5.0	011_smiling	0.0		153.05111759364627	
10.0	64.40298964752765	pulse	1.0	t		36.0	female	white	2.7548746518105847	smiling	011	sub-02	1.0	5.0	011_smiling	0.0		153.75110720978228	
11.0	65.01953524959754	face	0.0		145	26.0	male	white	2.7966573816155993	neutral	117	sub-02	1.0	5.0	117_neutral	0.0		154.36765281185217	1.2332976740144659
11.0	65.10299888433656	pulse	0.0	t		26.0	male	white	2.7966573816155993	neutral	117	sub-02	1.0	5.0	117_neutral	0.0		154.4511164465912	
11.0	65.80296344638009	pulse	0.0	t		26.0	male	white	2.7966573816155993	neutral	117	sub-02	1.0	5.0	117_neutral	0.0		155.15108100863472	
11.0	66.252832923612	fix	1.0		444	26.0	male	white	2.7966573816155993	neutral	117	sub-02	1.0	5.0	117_neutral	0.0		155.60095048586663	3.766621126576865
11.0	66.50296121264182	pulse	1.0	t		26.0	male	white	2.7966573816155993	neutral	117	sub-02	1.0	5.0	117_neutral	0.0		155.85107877489645	
11.0	67.20294901763737	pulse	1.0	t		26.0	male	white	2.7966573816155993	neutral	117	sub-02	1.0	5.0	117_neutral	0.0		156.551066579892	
11.0	67.90295342474201	pulse	1.0	t		26.0	male	white	2.7966573816155993	neutral	117	sub-02	1.0	5.0	117_neutral	0.0		157.25107098699664	
11.0	68.60294394644734	pulse	1.0	t		26.0	male	white	2.7966573816155993	neutral	117	sub-02	1.0	5.0	117_neutral	0.0		157.95106150870197	
11.0	69.3029275254521	pulse	1.0	t		26.0	male	white	2.7966573816155993	neutral	117	sub-02	1.0	5.0	117_neutral	0.0		158.65104508770673	
12.0	70.01945405018887	face	0.0		146	24.0	female	black	3.0955033824114606	smiling	099	sub-02	1.0	5.0	099_smiling	0.0		159.3675716124435	1.2333263503860508
12.0	70.00570991828135	pulse	0.0	t		24.0	female	black	3.0955033824114606	smiling	099	sub-02	1.0	5.0	099_smiling	0.0		159.35382748053598	
12.0	70.70290132430455	pulse	0.0	t		24.0	female	black	3.0955033824114606	smiling	099	sub-02	1.0	5.0	099_smiling	0.0		160.05101888655918	
12.0	71.25278040057492	fix	1.0		443	24.0	female	black	3.0955033824114606	smiling	099	sub-02	1.0	5.0	099_smiling	0.0		160.60089796282955	3.7666063356064114
12.0	71.40288611073447	pulse	1.0	t		24.0	female	black	3.0955033824114606	smiling	099	sub-02	1.0	5.0	099_smiling	0.0		160.7510036729891	
12.0	72.10287572687048	pulse	1.0	t		24.0	female	black	3.0955033824114606	smiling	099	sub-02	1.0	5.0	099_smiling	0.0		161.4509932891251	
12.0	72.80287560612669	pulse	1.0	t		24.0	female	black	3.0955033824114606	smiling	099	sub-02	1.0	5.0	099_smiling	0.0		162.15099316838132	
12.0	73.50285314800021	pulse	1.0	t		24.0	female	black	3.0955033824114606	smiling	099	sub-02	1.0	5.0	099_smiling	0.0		162.85097071025484	
12.0	74.20284970683679	pulse	1.0	t		24.0	female	black	3.0955033824114606	smiling	099	sub-02	1.0	5.0	099_smiling	0.0		163.55096726909142	
12.0	74.90284837866784	pulse	1.0	t		24.0	female	black	3.0955033824114606	smiling	099	sub-02	1.0	5.0	099_smiling	0.0		164.25096594092247	
13.0	75.01938673618133	face	0.0		146	27.0	female	white	3.504576203740549	smiling	144	sub-02	1.0	5.0	144_smiling	0.0		164.36750429843596	1.2333206151106424
13.0	75.60283407066709	pulse	0.0	t		27.0	female	white	3.504576203740549	smiling	144	sub-02	1.0	5.0	144_smiling	0.0		164.95095163292171	
13.0	76.25270735129197	fix	1.0		443	27.0	female	white	3.504576203740549	smiling	144	sub-02	1.0	5.0	144_smiling	0.0		165.6008249135466	3.7666042226119316
13.0	76.30282247937612	pulse	1.0	t		27.0	female	white	3.504576203740549	smiling	144	sub-02	1.0	5.0	144_smiling	0.0		165.65094004163075	
13.0	77.0028090769465	pulse	1.0	t		27.0	female	white	3.504576203740549	smiling	144	sub-02	1.0	5.0	144_smiling	0.0		166.35092663920113	
13.0	77.70281650261677	pulse	1.0	t		27.0	female	white	3.504576203740549	smiling	144	sub-02	1.0	5.0	144_smiling	0.0		167.0509340648714	
13.0	78.4027955537731	pulse	1.0	t		27.0	female	white	3.504576203740549	smiling	144	sub-02	1.0	5.0	144_smiling	0.0		167.75091311602773	
13.0	79.10277973648954	pulse	1.0	t		27.0	female	white	3.504576203740549	smiling	144	sub-02	1.0	5.0	144_smiling	0.0		168.45089729874417	
13.0	79.80276965448138	pulse	1.0	t		27.0	female	white	3.504576203740549	smiling	144	sub-02	1.0	5.0	144_smiling	0.0		169.150887216736	
14.0	80.0193115739039	face	0.0		145	24.0	male	white	3.1153999204138483	smiling	012	sub-02	1.0	5.0	012_smiling	0.0		169.36742913615853	1.2333230299627758
14.0	80.50283171618685	pulse	0.0	t		24.0	male	white	3.1153999204138483	smiling	012	sub-02	1.0	5.0	012_smiling	0.0		169.85094927844148	
14.0	81.20274134033934	pulse	0.0	t		24.0	male	white	3.1153999204138483	smiling	012	sub-02	1.0	5.0	012_smiling	0.0		170.55085890259397	
14.0	81.25263460386668	fix	1.0		445	24.0	male	white	3.1153999204138483	smiling	012	sub-02	1.0	5.0	012_smiling	0.0		170.6007521661213	3.766606637462246
14.0	81.9027472567268	pulse	1.0	t		24.0	male	white	3.1153999204138483	smiling	012	sub-02	1.0	5.0	012_smiling	0.0		171.25086481898143	
14.0	82.60327387564394	pulse	1.0	t		24.0	male	white	3.1153999204138483	smiling	012	sub-02	1.0	5.0	012_smiling	0.0		171.95139143789856	
14.0	83.30269902005239	pulse	1.0	t		24.0	male	white	3.1153999204138483	smiling	012	sub-02	1.0	5.0	012_smiling	0.0		172.65081658230702	
14.0	84.00271278470973	pulse	1.0	t		24.0	male	white	3.1153999204138483	smiling	012	sub-02	1.0	5.0	012_smiling	0.0		173.35083034696436	
14.0	84.7026906284409	pulse	1.0	t		24.0	male	white	3.1153999204138483	smiling	012	sub-02	1.0	5.0	012_smiling	0.0		174.05080819069553	
15.0	85.01924124132893	face	0.0		145	36.0	female	white	2.7548746518105847	neutral	011	sub-02	1.0	5.0	011_neutral	0.0		174.36735880358356	1.2333320856596401
15.0	85.40268658356217	pulse	0.0	t		36.0	female	white	2.7548746518105847	neutral	011	sub-02	1.0	5.0	011_neutral	0.0		174.7508041458168	
15.0	86.10268284054109	pulse	0.0	t		36.0	female	white	2.7548746518105847	neutral	011	sub-02	1.0	5.0	011_neutral	0.0		175.45080040279572	
15.0	86.25257332698857	fix	1.0		444	36.0	female	white	2.7548746518105847	neutral	011	sub-02	1.0	5.0	011_neutral	0.0		175.6006908892432	3.7665924502070993
15.0	86.80268090866048	pulse	1.0	t		36.0	female	white	2.7548746518105847	neutral	011	sub-02	1.0	5.0	011_neutral	0.0		176.1507984709151	
15.0	87.5026563375377	pulse	1.0	t		36.0	female	white	2.7548746518105847	neutral	011	sub-02	1.0	5.0	011_neutral	0.0		176.85077389979233	
15.0	88.20264293510809	pulse	1.0	t		36.0	female	white	2.7548746518105847	neutral	011	sub-02	1.0	5.0	011_neutral	0.0		177.55076049736272	
15.0	88.90262772153801	pulse	1.0	t		36.0	female	white	2.7548746518105847	neutral	011	sub-02	1.0	5.0	011_neutral	0.0		178.25074528379264	
15.0	89.60263544906593	pulse	1.0	t		36.0	female	white	2.7548746518105847	neutral	011	sub-02	1.0	5.0	011_neutral	0.0		178.95075301132056	
16.0	90.01916577719567	face	0.0		145	19.0	male	white	2.243931555909272	neutral	130	sub-02	1.0	5.0	130_neutral	0.0		179.3672833394503	1.2333338967982854
16.0	90.3026256689136	pulse	0.0	t		19.0	male	white	2.243931555909272	neutral	130	sub-02	1.0	5.0	130_neutral	0.0		179.65074323116824	
16.0	91.00261619061712	pulse	0.0	t		19.0	male	white	2.243931555909272	neutral	130	sub-02	1.0	5.0	130_neutral	0.0		180.35073375287175	
16.0	91.25249967399395	fix	1.0		444	19.0	male	white	2.243931555909272	neutral	130	sub-02	1.0	5.0	130_neutral	0.0		180.60061723624858	3.7665855075047148
16.0	91.7026027881875	pulse	1.0	t		19.0	male	white	2.243931555909272	neutral	130	sub-02	1.0	5.0	130_neutral	0.0		181.05072035044213	
16.0	92.40258214119967	pulse	1.0	t		19.0	male	white	2.243931555909272	neutral	130	sub-02	1.0	5.0	130_neutral	0.0		181.7506997034543	
16.0	93.10256783320074	pulse	1.0	t		19.0	male	white	2.243931555909272	neutral	130	sub-02	1.0	5.0	130_neutral	0.0		182.45068539545537	
16.0	93.80255926047539	pulse	1.0	t		19.0	male	white	2.243931555909272	neutral	130	sub-02	1.0	5.0	130_neutral	0.0		183.15067682273002	
16.0	94.50255038589239	pulse	1.0	t		19.0	male	white	2.243931555909272	neutral	130	sub-02	1.0	5.0	130_neutral	0.0		183.85066794814702	
17.0	95.01908518149867	face	0.0		145	25.0	female	west_asian	2.6756864305610826	smiling	064	sub-02	1.0	5.0	064_smiling	0.0		184.3672027437533	1.2333191058296507
17.0	95.20253970017075	pulse	0.0	t		25.0	female	west_asian	2.6756864305610826	smiling	064	sub-02	1.0	5.0	064_smiling	0.0		184.55065726242537	
17.0	95.90252961816259	pulse	0.0	t		25.0	female	west_asian	2.6756864305610826	smiling	064	sub-02	1.0	5.0	064_smiling	0.0		185.25064718041722	
17.0	96.25240428732832	fix	1.0		444	25.0	female	west_asian	2.6756864305610826	smiling	064	sub-02	1.0	5.0	064_smiling	0.0		185.60052184958295	3.766615995014945
17.0	96.60252134729308	pulse	1.0	t		25.0	female	west_asian	2.6756864305610826	smiling	064	sub-02	1.0	5.0	064_smiling	0.0		185.9506389095477	
17.0	97.30251458570638	pulse	1.0	t		25.0	female	west_asian	2.6756864305610826	smiling	064	sub-02	1.0	5.0	064_smiling	0.0		186.650632147961	
17.0	98.00251778538586	pulse	1.0	t		25.0	female	west_asian	2.6756864305610826	smiling	064	sub-02	1.0	5.0	064_smiling	0.0		187.3506353476405	
17.0	98.70248596970669	pulse	1.0	t		25.0	female	west_asian	2.6756864305610826	smiling	064	sub-02	1.0	5.0	064_smiling	0.0		188.05060353196131	
17.0	99.4024915842383	pulse	1.0	t		25.0	female	west_asian	2.6756864305610826	smiling	064	sub-02	1.0	5.0	064_smiling	0.0		188.75060914649293	
18.0	100.01902028234326	face	0.0		145	31.0	female	white	2.1822522881018704	smiling	102	sub-02	1.0	5.0	102_smiling	0.0		189.3671378445979	1.23331759654684
18.0	100.10249236906566	pulse	0.0	t		31.0	female	white	2.1822522881018704	smiling	102	sub-02	1.0	5.0	102_smiling	0.0		189.4506099313203	
18.0	100.80247685363975	pulse	0.0	t		31.0	female	white	2.1822522881018704	smiling	102	sub-02	1.0	5.0	102_smiling	0.0		190.15059441589437	
18.0	101.2523378788901	fix	1.0		444	31.0	female	white	2.1822522881018704	smiling	102	sub-02	1.0	5.0	102_smiling	0.0		190.60045544114473	3.7666051281794353
18.0	101.5024546973691	pulse	1.0	t		31.0	female	white	2.1822522881018704	smiling	102	sub-02	1.0	5.0	102_smiling	0.0		190.85057225962373	
18.0	102.20242861696534	pulse	1.0	t		31.0	female	white	2.1822522881018704	smiling	102	sub-02	1.0	5.0	102_smiling	0.0		191.55054617921996	
18.0	102.9024381556319	pulse	1.0	t		31.0	female	white	2.1822522881018704	smiling	102	sub-02	1.0	5.0	102_smiling	0.0		192.25055571788653	
18.0	103.6025451939604	pulse	1.0	t		31.0	female	white	2.1822522881018704	smiling	102	sub-02	1.0	5.0	102_smiling	0.0		192.95066275621502	
18.0	104.30240621920893	pulse	1.0	t		31.0	female	white	2.1822522881018704	smiling	102	sub-02	1.0	5.0	102_smiling	0.0		193.65052378146356	
19.0	105.01894300706954	face	0.0		146	26.0	male	white	2.7966573816155993	smiling	117	sub-02	1.0	5.0	117_smiling	0.0		194.36706056932417	1.2333239355339174
19.0	105.00521004385337	pulse	0.0	t		26.0	male	white	2.7966573816155993	smiling	117	sub-02	1.0	5.0	117_smiling	0.0		194.353327606108	
19.0	105.7023887719024	pulse	0.0	t		26.0	male	white	2.7966573816155993	smiling	117	sub-02	1.0	5.0	117_smiling	0.0		195.05050633415703	
19.0	106.25226694260346	fix	1.0		443	26.0	male	white	2.7966573816155993	smiling	117	sub-02	1.0	5.0	117_smiling	0.0		195.60038450485808	3.766593355774603
19.0	106.40239831056897	pulse	1.0	t		26.0	male	white	2.7966573816155993	smiling	117	sub-02	1.0	5.0	117_smiling	0.0		195.7505158728236	
19.0	107.10236377818	pulse	1.0	t		26.0	male	white	2.7966573816155993	smiling	117	sub-02	1.0	5.0	117_smiling	0.0		196.45048134043464	
19.0	107.8023570165933	pulse	1.0	t		26.0	male	white	2.7966573816155993	smiling	117	sub-02	1.0	5.0	117_smiling	0.0		197.15047457884793	
19.0	108.50234029374224	pulse	1.0	t		26.0	male	white	2.7966573816155993	smiling	117	sub-02	1.0	5.0	117_smiling	0.0		197.85045785599686	
19.0	109.2023362488635	pulse	1.0	t		26.0	male	white	2.7966573816155993	smiling	117	sub-02	1.0	5.0	117_smiling	0.0		198.55045381111813	
19.0	109.90233280770008	pulse	1.0	t		26.0	male	white	2.7966573816155993	smiling	117	sub-02	1.0	5.0	117_smiling	0.0		199.2504503699547	
20.0	110.01886029837806	face	0.0		146	40.0	male	black	2.408674890569041	smiling	061	sub-02	1.0	5.0	061_smiling	1.0	trustworthiness	199.3669778606327	1.2333366135080723
20.0	110.60231759413	pulse	0.0	t		40.0	male	black	2.408674890569041	smiling	061	sub-02	1.0	5.0	061_smiling	1.0	trustworthiness	199.95043515638463	
20.0	111.25219691188613	fix	1.0		176	40.0	male	black	2.408674890569041	smiling	061	sub-02	1.0	5.0	061_smiling	1.0	trustworthiness	200.60031447414076	1.499987322025845
20.0	111.30230419170039	pulse	1.0	t		40.0	male	black	2.408674890569041	smiling	061	sub-02	1.0	5.0	061_smiling	1.0	trustworthiness	200.65042175395502	
20.0	112.0022947134039	pulse	1.0	t		40.0	male	black	2.408674890569041	smiling	061	sub-02	1.0	5.0	061_smiling	1.0	trustworthiness	201.35041227565853	
20.0	112.70229157409631	pulse	1.0	t		40.0	male	black	2.408674890569041	smiling	061	sub-02	1.0	5.0	061_smiling	1.0	trustworthiness	202.05040913635094	
20.0	112.75218423391198	rating	2.0		295	40.0	male	black	2.408674890569041	smiling	061	sub-02	1.0	5.0	061_smiling	1.0	trustworthiness	202.1003017961666	2.4999649846413377
20.0	113.40228632179242	pulse	2.0	t		40.0	male	black	2.408674890569041	smiling	061	sub-02	1.0	5.0	061_smiling	1.0	trustworthiness	202.75040388404705	
20.0	113.88559908863317	response	2.0	g		40.0	male	black	2.408674890569041	smiling	061	sub-02	1.0	5.0	061_smiling	1.0	trustworthiness	203.2337166508878	
20.0	114.10226265624078	pulse	2.0	t		40.0	male	black	2.408674890569041	smiling	061	sub-02	1.0	5.0	061_smiling	1.0	trustworthiness	203.4503802184954	
20.0	114.80226344106632	pulse	2.0	t		40.0	male	black	2.408674890569041	smiling	061	sub-02	1.0	5.0	061_smiling	1.0	trustworthiness	204.15038100332094	
20.0	115.25214921855331	fix	3.0		1185	40.0	male	black	2.408674890569041	smiling	061	sub-02	1.0	5.0	061_smiling	1.0	trustworthiness	204.60026678080794	10.01650098767459
20.0	115.50224339779379	pulse	3.0	t		40.0	male	black	2.408674890569041	smiling	061	sub-02	1.0	5.0	061_smiling	1.0	trustworthiness	204.85036096004842	
20.0	116.20223633434944	pulse	3.0	t		40.0	male	black	2.408674890569041	smiling	061	sub-02	1.0	5.0	061_smiling	1.0	trustworthiness	205.55035389660407	
20.0	116.90224285445038	pulse	3.0	t		40.0	male	black	2.408674890569041	smiling	061	sub-02	1.0	5.0	061_smiling	1.0	trustworthiness	206.250360416705	
20.0	117.60220198307616	pulse	3.0	t		40.0	male	black	2.408674890569041	smiling	061	sub-02	1.0	5.0	061_smiling	1.0	trustworthiness	206.95031954533079	
20.0	118.30220518275564	pulse	3.0	t		40.0	male	black	2.408674890569041	smiling	061	sub-02	1.0	5.0	061_smiling	1.0	trustworthiness	207.65032274501027	
20.0	119.00219842116894	pulse	3.0	t		40.0	male	black	2.408674890569041	smiling	061	sub-02	1.0	5.0	061_smiling	1.0	trustworthiness	208.35031598342357	
20.0	119.70218018903324	pulse	3.0	t		40.0	male	black	2.408674890569041	smiling	061	sub-02	1.0	5.0	061_smiling	1.0	trustworthiness	209.05029775128787	
20.0	120.40217855900846	pulse	3.0	t		40.0	male	black	2.408674890569041	smiling	061	sub-02	1.0	5.0	061_smiling	1.0	trustworthiness	209.7502961212631	
20.0	121.10217300484874	pulse	3.0	t		40.0	male	black	2.408674890569041	smiling	061	sub-02	1.0	5.0	061_smiling	1.0	trustworthiness	210.45029056710337	
20.0	121.80214933929528	pulse	3.0	t		40.0	male	black	2.408674890569041	smiling	061	sub-02	1.0	5.0	061_smiling	1.0	trustworthiness	211.1502669015499	
20.0	122.50214076656994	pulse	3.0	t		40.0	male	black	2.408674890569041	smiling	061	sub-02	1.0	5.0	061_smiling	1.0	trustworthiness	211.85025832882457	
20.0	123.2021503052365	pulse	3.0	t		40.0	male	black	2.408674890569041	smiling	061	sub-02	1.0	5.0	061_smiling	1.0	trustworthiness	212.55026786749113	
20.0	123.90212875267935	pulse	3.0	t		40.0	male	black	2.408674890569041	smiling	061	sub-02	1.0	5.0	061_smiling	1.0	trustworthiness	213.25024631493397	
20.0	124.60213195235883	pulse	3.0	t		40.0	male	black	2.408674890569041	smiling	061	sub-02	1.0	5.0	061_smiling	1.0	trustworthiness	213.95024951461346	
21.0	125.2686502062279	face	0.0		145	22.0	male	black	2.767608436132113	neutral	044	sub-02	1.0	5.0	044_neutral	0.0		214.61676776848253	1.2333230299627758
21.0	125.30216714883136	pulse	0.0	t		22.0	male	black	2.767608436132113	neutral	044	sub-02	1.0	5.0	044_neutral	0.0		214.650284711086	
21.0	126.0020994122242	pulse	0.0	t		22.0	male	black	2.767608436132113	neutral	044	sub-02	1.0	5.0	044_neutral	0.0		215.35021697447883	
21.0	126.50197323619068	fix	1.0		443	22.0	male	black	2.767608436132113	neutral	044	sub-02	1.0	5.0	044_neutral	0.0		215.8500907984453	3.758305280798595
21.0	126.70207906709402	pulse	1.0	t		22.0	male	black	2.767608436132113	neutral	044	sub-02	1.0	5.0	044_neutral	0.0		216.05019662934865	
21.0	127.40206596652024	pulse	1.0	t		22.0	male	black	2.767608436132113	neutral	044	sub-02	1.0	5.0	044_neutral	0.0		216.75018352877487	
21.0	128.10206131792802	pulse	1.0	t		22.0	male	black	2.767608436132113	neutral	044	sub-02	1.0	5.0	044_neutral	0.0		217.45017888018265	
21.0	128.8020551600548	pulse	1.0	t		22.0	male	black	2.767608436132113	neutral	044	sub-02	1.0	5.0	044_neutral	0.0		218.15017272230943	
21.0	129.5020411539117	pulse	1.0	t		22.0	male	black	2.767608436132113	neutral	044	sub-02	1.0	5.0	044_neutral	0.0		218.85015871616633	
21.0	130.20202594034345	pulse	1.0	t		22.0	male	black	2.767608436132113	neutral	044	sub-02	1.0	5.0	044_neutral	0.0		219.55014350259808	
22.0	130.26027851698927	face	0.0		147	22.0	female	west_asian	3.8205332272184642	neutral	066	sub-02	1.0	5.0	066_neutral	0.0		219.6083960792439	1.2416192550663254
22.0	130.90202581959966	pulse	0.0	t		22.0	female	west_asian	3.8205332272184642	neutral	066	sub-02	1.0	5.0	066_neutral	0.0		220.2501433818543	
22.0	131.5018977720556	fix	1.0		443	22.0	female	west_asian	3.8205332272184642	neutral	066	sub-02	1.0	5.0	066_neutral	0.0		220.85001533431023	3.7666048263254197
22.0	131.60200939860442	pulse	1.0	t		22.0	female	west_asian	3.8205332272184642	neutral	066	sub-02	1.0	5.0	066_neutral	0.0		220.95012696085905	
22.0	132.3019975054558	pulse	1.0	t		22.0	female	west_asian	3.8205332272184642	neutral	066	sub-02	1.0	5.0	066_neutral	0.0		221.65011506771043	
22.0	133.00198108446057	pulse	1.0	t		22.0	female	west_asian	3.8205332272184642	neutral	066	sub-02	1.0	5.0	066_neutral	0.0		222.3500986467152	
22.0	133.70197341730454	pulse	1.0	t		22.0	female	west_asian	3.8205332272184642	neutral	066	sub-02	1.0	5.0	066_neutral	0.0		223.05009097955917	
22.0	134.40197993740549	pulse	1.0	t		22.0	female	west_asian	3.8205332272184642	neutral	066	sub-02	1.0	5.0	066_neutral	0.0		223.75009749966011	
22.0	135.10194993286677	pulse	1.0	t		22.0	female	west_asian	3.8205332272184642	neutral	066	sub-02	1.0	5.0	066_neutral	0.0		224.4500674951214	
23.0	135.26850259838102	face	0.0		146	22.0	male	black	2.767608436132113	smiling	044	sub-02	1.0	5.0	044_smiling	1.0	trustworthiness	224.61662016063565	1.233324237387933
23.0	135.8019476991285	pulse	0.0	t		22.0	male	black	2.767608436132113	smiling	044	sub-02	1.0	5.0	044_smiling	1.0	trustworthiness	225.15006526138313	
23.0	136.50182683576895	fix	1.0		177	22.0	male	black	2.767608436132113	smiling	044	sub-02	1.0	5.0	044_smiling	1.0	trustworthiness	225.84994439802358	1.4999891331663093
23.0	136.50965216467193	pulse	1.0	t		22.0	male	black	2.767608436132113	smiling	044	sub-02	1.0	5.0	044_smiling	1.0	trustworthiness	225.85776972692656	
23.0	137.20192813882386	pulse	1.0	t		22.0	male	black	2.767608436132113	smiling	044	sub-02	1.0	5.0	044_smiling	1.0	trustworthiness	226.5500457010785	
23.0	137.90192288651997	pulse	1.0	t		22.0	male	black	2.767608436132113	smiling	044	sub-02	1.0	5.0	044_smiling	1.0	trustworthiness	227.2500404487746	
23.0	138.00181596893526	rating	2.0		295	22.0	male	black	2.767608436132113	smiling	044	sub-02	1.0	5.0	044_smiling	1.0	trustworthiness	227.3499335311899	2.4999489862439077
23.0	138.6019091822327	pulse	2.0	t		22.0	male	black	2.767608436132113	smiling	044	sub-02	1.0	5.0	044_smiling	1.0	trustworthiness	227.95002674448733	
23.0	139.2216946105309	response	2.0	y		22.0	male	black	2.767608436132113	smiling	044	sub-02	1.0	5.0	044_smiling	1.0	trustworthiness	228.56981217278553	
23.0	139.3018885352467	pulse	2.0	t		22.0	male	black	2.767608436132113	smiling	044	sub-02	1.0	5.0	044_smiling	1.0	trustworthiness	228.65000609750132	
23.0	140.0018811699465	pulse	2.0	t		22.0	male	black	2.767608436132113	smiling	044	sub-02	1.0	5.0	044_smiling	1.0	trustworthiness	229.34999873220113	
23.0	140.50176495517917	fix	3.0		443	22.0	male	black	2.767608436132113	smiling	044	sub-02	1.0	5.0	044_smiling	1.0	trustworthiness	229.8498825174338	3.758272076580397
23.0	140.70187833249474	pulse	3.0	t		22.0	male	black	2.767608436132113	smiling	044	sub-02	1.0	5.0	044_smiling	1.0	trustworthiness	230.04999589474937	
23.0	141.4018610059302	pulse	3.0	t		22.0	male	black	2.767608436132113	smiling	044	sub-02	1.0	5.0	044_smiling	1.0	trustworthiness	230.74997856818482	
23.0	142.1018551499128	pulse	3.0	t		22.0	male	black	2.767608436132113	smiling	044	sub-02	1.0	5.0	044_smiling	1.0	trustworthiness	231.44997271216744	
23.0	142.80184476604882	pulse	3.0	t		22.0	male	black	2.767608436132113	smiling	044	sub-02	1.0	5.0	044_smiling	1.0	trustworthiness	232.14996232830345	
23.0	143.50183196733087	pulse	3.0	t		22.0	male	black	2.767608436132113	smiling	044	sub-02	1.0	5.0	044_smiling	1.0	trustworthiness	232.8499495295855	
23.0	144.20182580945766	pulse	3.0	t		22.0	male	black	2.767608436132113	smiling	044	sub-02	1.0	5.0	044_smiling	1.0	trustworthiness	233.5499433717123	
24.0	144.26003703175957	face	0.0		147	20.0	male	black	2.609629924393156	smiling	043	sub-02	1.0	5.0	043_smiling	0.0		233.6081545940142	1.2416479314379103
24.0	144.90182840542366	pulse	0.0	t		20.0	male	black	2.609629924393156	smiling	043	sub-02	1.0	5.0	043_smiling	0.0		234.2499459676783	
24.0	145.50168496319748	fix	1.0		443	20.0	male	black	2.609629924393156	smiling	043	sub-02	1.0	5.0	043_smiling	0.0		234.8498025254521	3.766617202441921
24.0	145.6017996083101	pulse	1.0	t		20.0	male	black	2.609629924393156	smiling	043	sub-02	1.0	5.0	043_smiling	0.0		234.94991717056473	
24.0	146.30179978942397	pulse	1.0	t		20.0	male	black	2.609629924393156	smiling	043	sub-02	1.0	5.0	043_smiling	0.0		235.6499173516786	
24.0	147.00177853872447	pulse	1.0	t		20.0	male	black	2.609629924393156	smiling	043	sub-02	1.0	5.0	043_smiling	0.0		236.3498961009791	
24.0	147.7017763049862	pulse	1.0	t		20.0	male	black	2.609629924393156	smiling	043	sub-02	1.0	5.0	043_smiling	0.0		237.04989386724083	
24.0	148.40175263943274	pulse	1.0	t		20.0	male	black	2.609629924393156	smiling	043	sub-02	1.0	5.0	043_smiling	0.0		237.74987020168737	
24.0	149.10176549852076	pulse	1.0	t		20.0	male	black	2.609629924393156	smiling	043	sub-02	1.0	5.0	043_smiling	0.0		238.4498830607754	
25.0	149.2683021656394	face	0.0		146	40.0	male	black	2.408674890569041	neutral	061	sub-02	1.0	5.0	061_neutral	0.0		238.61641972789403	1.2333194076836662
25.0	149.80175451094328	pulse	0.0	t		40.0	male	black	2.408674890569041	neutral	061	sub-02	1.0	5.0	061_neutral	0.0		239.1498720731979	
25.0	150.50162157332306	fix	1.0		444	40.0	male	black	2.408674890569041	neutral	061	sub-02	1.0	5.0	061_neutral	0.0		239.8497391355777	3.7665924502070993
25.0	150.50907380754506	pulse	1.0	t		40.0	male	black	2.408674890569041	neutral	061	sub-02	1.0	5.0	061_neutral	0.0		239.8571913697997	
25.0	151.2017065761247	pulse	1.0	t		40.0	male	black	2.408674890569041	neutral	061	sub-02	1.0	5.0	061_neutral	0.0		240.54982413837934	
25.0	151.90169407926442	pulse	1.0	t		40.0	male	black	2.408674890569041	neutral	061	sub-02	1.0	5.0	061_neutral	0.0		241.24981164151905	
25.0	152.60170391978681	pulse	1.0	t		40.0	male	black	2.408674890569041	neutral	061	sub-02	1.0	5.0	061_neutral	0.0		241.94982148204144	
25.0	153.30168538579528	pulse	1.0	t		40.0	male	black	2.408674890569041	neutral	061	sub-02	1.0	5.0	061_neutral	0.0		242.6498029480499	
25.0	154.00167922792207	pulse	1.0	t		40.0	male	black	2.408674890569041	neutral	061	sub-02	1.0	5.0	061_neutral	0.0		243.3497967901767	
26.0	154.26821402353016	face	0.0		145	27.0	female	white	4.181058495821727	smiling	039	sub-02	1.0	5.0	039_smiling	0.0		243.6163315857848	1.233330878232664
26.0	154.7016712589102	pulse	0.0	t		27.0	female	white	4.181058495821727	smiling	039	sub-02	1.0	5.0	039_smiling	0.0		244.04978882116484	
26.0	155.40167687344183	pulse	0.0	t		27.0	female	white	4.181058495821727	smiling	039	sub-02	1.0	5.0	039_smiling	0.0		244.74979443569646	
26.0	155.50154490176283	fix	1.0		444	27.0	female	white	4.181058495821727	smiling	039	sub-02	1.0	5.0	039_smiling	0.0		244.84966246401746	3.7666084486027103
26.0	156.10167162113794	pulse	1.0	t		27.0	female	white	4.181058495821727	smiling	039	sub-02	1.0	5.0	039_smiling	0.0		245.44978918339257	
26.0	156.80164795558449	pulse	1.0	t		27.0	female	white	4.181058495821727	smiling	039	sub-02	1.0	5.0	039_smiling	0.0		246.1497655178391	
26.0	157.5016182529016	pulse	1.0	t		27.0	female	white	4.181058495821727	smiling	039	sub-02	1.0	5.0	039_smiling	0.0		246.84973581515624	
26.0	158.20160575604132	pulse	1.0	t		27.0	female	white	4.181058495821727	smiling	039	sub-02	1.0	5.0	039_smiling	0.0		247.54972331829595	
26.0	158.90161348356924	pulse	1.0	t		27.0	female	white	4.181058495821727	smiling	039	sub-02	1.0	5.0	039_smiling	0.0		248.24973104582386	
27.0	159.26815335036554	face	0.0		145	31.0	male	west_asian	1.9538400318344609	neutral	070	sub-02	1.0	5.0	070_neutral	0.0		248.61627091262017	1.2333206151106424
27.0	159.60161064611748	pulse	0.0	t		31.0	male	west_asian	1.9538400318344609	neutral	070	sub-02	1.0	5.0	070_neutral	0.0		248.9497282083721	
27.0	160.30158154714627	pulse	0.0	t		31.0	male	west_asian	1.9538400318344609	neutral	070	sub-02	1.0	5.0	070_neutral	0.0		249.6496991094009	
27.0	160.50147396547618	fix	1.0		444	31.0	male	west_asian	1.9538400318344609	neutral	070	sub-02	1.0	5.0	070_neutral	0.0		249.8495915277308	3.7666069393198995
27.0	161.0015772004117	pulse	1.0	t		31.0	male	west_asian	1.9538400318344609	neutral	070	sub-02	1.0	5.0	070_neutral	0.0		250.34969476266633	
27.0	161.70157919266603	pulse	1.0	t		31.0	male	west_asian	1.9538400318344609	neutral	070	sub-02	1.0	5.0	070_neutral	0.0		251.04969675492066	
27.0	162.40155160297763	pulse	1.0	t		31.0	male	west_asian	1.9538400318344609	neutral	070	sub-02	1.0	5.0	070_neutral	0.0		251.74966916523226	
27.0	163.1015430302523	pulse	1.0	t		31.0	male	west_asian	1.9538400318344609	neutral	070	sub-02	1.0	5.0	070_neutral	0.0		252.44966059250692	
27.0	163.80153294824413	pulse	1.0	t		31.0	male	west_asian	1.9538400318344609	neutral	070	sub-02	1.0	5.0	070_neutral	0.0		253.14965051049876	
28.0	164.26808090479608	face	0.0		145	47.0	male	east_asian	2.171110226820533	smiling	024	sub-02	1.0	5.0	024_smiling	0.0		253.6161984670507	1.2333212188241305
28.0	164.50151984767035	pulse	0.0	t		47.0	male	east_asian	2.171110226820533	smiling	024	sub-02	1.0	5.0	024_smiling	0.0		253.84963740992498	
28.0	165.20152455663265	pulse	0.0	t		47.0	male	east_asian	2.171110226820533	smiling	024	sub-02	1.0	5.0	024_smiling	0.0		254.54964211888728	
28.0	165.5014021236202	fix	1.0		444	47.0	male	east_asian	2.171110226820533	smiling	024	sub-02	1.0	5.0	024_smiling	0.0		254.84951968587484	3.766603920754278
28.0	165.90150692821044	pulse	1.0	t		47.0	male	east_asian	2.171110226820533	smiling	024	sub-02	1.0	5.0	024_smiling	0.0		255.24962449046507	
28.0	166.6015056000415	pulse	1.0	t		47.0	male	east_asian	2.171110226820533	smiling	024	sub-02	1.0	5.0	024_smiling	0.0		255.94962316229612	
28.0	167.30148072706288	pulse	1.0	t		47.0	male	east_asian	2.171110226820533	smiling	024	sub-02	1.0	5.0	024_smiling	0.0		256.6495982893175	
28.0	168.00148513416752	pulse	1.0	t		47.0	male	east_asian	2.171110226820533	smiling	024	sub-02	1.0	5.0	024_smiling	0.0		257.34960269642215	
28.0	168.70145845005027	pulse	1.0	t		47.0	male	east_asian	2.171110226820533	smiling	024	sub-02	1.0	5.0	024_smiling	0.0		258.0495760123049	
29.0	169.2680060443745	face	0.0		145	24.0	female	east_asian	2.9076800636689217	neutral	034	sub-02	1.0	5.0	034_neutral	0.0		258.6161236066291	1.2333194076854852
29.0	169.40146134787392	pulse	0.0	t		24.0	female	east_asian	2.9076800636689217	neutral	034	sub-02	1.0	5.0	034_neutral	0.0		258.74957891012855	
29.0	170.10145428442956	pulse	0.0	t		24.0	female	east_asian	2.9076800636689217	neutral	034	sub-02	1.0	5.0	034_neutral	0.0		259.4495718466842	
29.0	170.50132545205997	fix	1.0		444	24.0	female	east_asian	2.9076800636689217	neutral	034	sub-02	1.0	5.0	034_neutral	0.0		259.8494430143146	3.7666069393198995
29.0	170.801436957865	pulse	1.0	t		24.0	female	east_asian	2.9076800636689217	neutral	034	sub-02	1.0	5.0	034_neutral	0.0		260.14955452011964	
29.0	171.5014307999918	pulse	1.0	t		24.0	female	east_asian	2.9076800636689217	neutral	034	sub-02	1.0	5.0	034_neutral	0.0		260.8495483622464	
29.0	172.20141709570453	pulse	1.0	t		24.0	female	east_asian	2.9076800636689217	neutral	034	sub-02	1.0	5.0	034_neutral	0.0		261.54953465795916	
29.0	172.9014462550458	pulse	1.0	t		24.0	female	east_asian	2.9076800636689217	neutral	034	sub-02	1.0	5.0	034_neutral	0.0		262.24956381730044	
29.0	173.60139059270114	pulse	1.0	t		24.0	female	east_asian	2.9076800636689217	neutral	034	sub-02	1.0	5.0	034_neutral	0.0		262.94950815495577	
30.0	174.26793239137987	face	0.0		145	23.0	male	white	2.6275368085953046	smiling	141	sub-02	1.0	5.0	141_smiling	1.0	attractiveness	263.6160499536345	1.2333191058278317
30.0	174.30139922579838	pulse	0.0	t		23.0	male	white	2.6275368085953046	smiling	141	sub-02	1.0	5.0	141_smiling	1.0	attractiveness	263.649516788053	
30.0	175.00138582336695	pulse	0.0	t		23.0	male	white	2.6275368085953046	smiling	141	sub-02	1.0	5.0	141_smiling	1.0	attractiveness	264.3495033856216	
30.0	175.5012514972077	fix	1.0		177	23.0	male	white	2.6275368085953046	smiling	141	sub-02	1.0	5.0	141_smiling	1.0	attractiveness	264.84936905946233	1.4999821904639248
30.0	175.7013651763791	pulse	1.0	t		23.0	male	white	2.6275368085953046	smiling	141	sub-02	1.0	5.0	141_smiling	1.0	attractiveness	265.04948273863374	
30.0	176.40134845352804	pulse	1.0	t		23.0	male	white	2.6275368085953046	smiling	141	sub-02	1.0	5.0	141_smiling	1.0	attractiveness	265.7494660157827	
30.0	177.00123368767163	rating	2.0		294	23.0	male	white	2.6275368085953046	smiling	141	sub-02	1.0	5.0	141_smiling	1.0	attractiveness	266.34935124992626	2.499958041940772
30.0	177.09610900884763	pulse	2.0	t		23.0	male	white	2.6275368085953046	smiling	141	sub-02	1.0	5.0	141_smiling	1.0	attractiveness	266.44422657110226	
30.0	177.79609530456037	pulse	2.0	t		23.0	male	white	2.6275368085953046	smiling	141	sub-02	1.0	5.0	141_smiling	1.0	attractiveness	267.144212866815	
30.0	178.32631778490395	response	2.0	e		23.0	male	white	2.6275368085953046	smiling	141	sub-02	1.0	5.0	141_smiling	1.0	attractiveness	267.6744353471586	
30.0	178.49610152280547	pulse	2.0	t		23.0	male	white	2.6275368085953046	smiling	141	sub-02	1.0	5.0	141_smiling	1.0	attractiveness	267.8442190850601	
30.0	179.2013232183217	pulse	2.0	t		23.0	male	white	2.6275368085953046	smiling	141	sub-02	1.0	5.0	141_smiling	1.0	attractiveness	268.54944078057633	
30.0	179.5011917296124	fix	3.0		444	23.0	male	white	2.6275368085953046	smiling	141	sub-02	1.0	5.0	141_smiling	1.0	attractiveness	268.84930929186703	3.7666069393198995
30.0	179.90130317504736	pulse	3.0	t		23.0	male	white	2.6275368085953046	smiling	141	sub-02	1.0	5.0	141_smiling	1.0	attractiveness	269.249420737302	
30.0	180.60129399860853	pulse	3.0	t		23.0	male	white	2.6275368085953046	smiling	141	sub-02	1.0	5.0	141_smiling	1.0	attractiveness	269.94941156086315	
30.0	181.30127395533418	pulse	3.0	t		23.0	male	white	2.6275368085953046	smiling	141	sub-02	1.0	5.0	141_smiling	1.0	attractiveness	270.6493915175888	
30.0	182.00127775872716	pulse	3.0	t		23.0	male	white	2.6275368085953046	smiling	141	sub-02	1.0	5.0	141_smiling	1.0	attractiveness	271.3493953209818	
30.0	182.70126586557853	pulse	3.0	t		23.0	male	white	2.6275368085953046	smiling	141	sub-02	1.0	5.0	141_smiling	1.0	attractiveness	272.04938342783316	
31.0	183.2677986689323	face	0.0		145	47.0	male	east_asian	2.171110226820533	neutral	024	sub-02	1.0	5.0	024_neutral	0.0		272.61591623118693	1.2333224262511067
31.0	183.4012572928532	pulse	0.0	t		47.0	male	east_asian	2.171110226820533	neutral	024	sub-02	1.0	5.0	024_neutral	0.0		272.7493748551078	
31.0	184.10123815514817	pulse	0.0	t		47.0	male	east_asian	2.171110226820533	neutral	024	sub-02	1.0	5.0	024_neutral	0.0		273.4493557174028	
31.0	184.5011210951834	fix	1.0		444	47.0	male	east_asian	2.171110226820533	neutral	024	sub-02	1.0	5.0	024_neutral	0.0		273.84923865743804	3.7666057318929234
31.0	184.8012301861363	pulse	1.0	t		47.0	male	east_asian	2.171110226820533	neutral	024	sub-02	1.0	5.0	024_neutral	0.0		274.14934774839094	
31.0	185.50120984100613	pulse	1.0	t		47.0	male	east_asian	2.171110226820533	neutral	024	sub-02	1.0	5.0	024_neutral	0.0		274.84932740326076	
31.0	186.2012260205156	pulse	1.0	t		47.0	male	east_asian	2.171110226820533	neutral	024	sub-02	1.0	5.0	024_neutral	0.0		275.54934358277023	
31.0	186.90120627909891	pulse	1.0	t		47.0	male	east_asian	2.171110226820533	neutral	024	sub-02	1.0	5.0	024_neutral	0.0		276.24932384135354	
31.0	187.60118382097244	pulse	1.0	t		47.0	male	east_asian	2.171110226820533	neutral	024	sub-02	1.0	5.0	024_neutral	0.0		276.94930138322707	
32.0	188.26772682707633	face	0.0		145	25.0	female	west_asian	2.6756864305610826	neutral	064	sub-02	1.0	5.0	064_neutral	0.0		277.61584438933096	1.2333233318204293
32.0	188.30119396335067	pulse	0.0	t		25.0	female	west_asian	2.6756864305610826	neutral	064	sub-02	1.0	5.0	064_neutral	0.0		277.6493115256053	
32.0	189.00117059965487	pulse	0.0	t		25.0	female	west_asian	2.6756864305610826	neutral	064	sub-02	1.0	5.0	064_neutral	0.0		278.3492881619095	
32.0	189.50105015889676	fix	1.0		443	25.0	female	west_asian	2.6756864305610826	neutral	064	sub-02	1.0	5.0	064_neutral	0.0		278.8491677211514	3.7666042226101126
32.0	189.7011662529203	pulse	1.0	t		25.0	female	west_asian	2.6756864305610826	neutral	064	sub-02	1.0	5.0	064_neutral	0.0		279.04928381517493	
32.0	190.4011392669472	pulse	1.0	t		25.0	female	west_asian	2.6756864305610826	neutral	064	sub-02	1.0	5.0	064_neutral	0.0		279.74925682920184	
32.0	191.10113492021264	pulse	1.0	t		25.0	female	west_asian	2.6756864305610826	neutral	064	sub-02	1.0	5.0	064_neutral	0.0		280.4492524824673	
32.0	191.80112453634683	pulse	1.0	t		25.0	female	west_asian	2.6756864305610826	neutral	064	sub-02	1.0	5.0	064_neutral	0.0		281.14924209860146	
32.0	192.5011102283479	pulse	1.0	t		25.0	female	west_asian	2.6756864305610826	neutral	064	sub-02	1.0	5.0	064_neutral	0.0		281.8492277906025	
32.0	193.2011107113176	pulse	1.0	t		25.0	female	west_asian	2.6756864305610826	neutral	064	sub-02	1.0	5.0	064_neutral	0.0		282.5492282735722	
33.0	193.26765438150687	face	0.0		146	54.0	female	white	2.286908077994429	smiling	136	sub-02	1.0	5.0	136_smiling	0.0		282.6157719437615	1.2333200113989733
33.0	193.90110666644068	pulse	0.0	t		54.0	female	white	2.286908077994429	smiling	136	sub-02	1.0	5.0	136_smiling	0.0		283.2492242286953	
33.0	194.50097439290585	fix	1.0		443	54.0	female	white	2.286908077994429	smiling	136	sub-02	1.0	5.0	136_smiling	0.0		283.8490919551605	3.7583556908411992
33.0	194.60109598071904	pulse	1.0	t		54.0	female	white	2.286908077994429	smiling	136	sub-02	1.0	5.0	136_smiling	0.0		283.94921354297367	
33.0	195.30108257828942	pulse	1.0	t		54.0	female	white	2.286908077994429	smiling	136	sub-02	1.0	5.0	136_smiling	0.0		284.64920014054405	
33.0	196.00106072387462	pulse	1.0	t		54.0	female	white	2.286908077994429	smiling	136	sub-02	1.0	5.0	136_smiling	0.0		285.34917828612924	
33.0	196.70104973629714	pulse	1.0	t		54.0	female	white	2.286908077994429	smiling	136	sub-02	1.0	5.0	136_smiling	0.0		286.04916729855177	
33.0	197.40104720070303	pulse	1.0	t		54.0	female	white	2.286908077994429	smiling	136	sub-02	1.0	5.0	136_smiling	0.0		286.74916476295766	
33.0	198.10104013725868	pulse	1.0	t		54.0	female	white	2.286908077994429	smiling	136	sub-02	1.0	5.0	136_smiling	0.0		287.4491576995133	
34.0	198.25933008374705	face	0.0		147	19.0	male	white	2.243931555909272	smiling	130	sub-02	1.0	5.0	130_smiling	0.0		287.6074476460017	1.2415824285671988
34.0	198.80103880908973	pulse	0.0	t		19.0	male	white	2.243931555909272	smiling	130	sub-02	1.0	5.0	130_smiling	0.0		288.14915637134436	
34.0	199.50091251231424	fix	1.0		444	19.0	male	white	2.243931555909272	smiling	130	sub-02	1.0	5.0	130_smiling	0.0		288.8490300745689	3.7665903372108005
34.0	199.50858208324462	pulse	1.0	t		19.0	male	white	2.243931555909272	smiling	130	sub-02	1.0	5.0	130_smiling	0.0		288.85669964549925	
34.0	200.20103524718252	pulse	1.0	t		19.0	male	white	2.243931555909272	smiling	130	sub-02	1.0	5.0	130_smiling	0.0		289.54915280943715	
34.0	200.9010010166512	pulse	1.0	t		19.0	male	white	2.243931555909272	smiling	130	sub-02	1.0	5.0	130_smiling	0.0		290.24911857890584	
34.0	201.60098248265967	pulse	1.0	t		19.0	male	white	2.243931555909272	smiling	130	sub-02	1.0	5.0	130_smiling	0.0		290.9491000449143	
34.0	202.30097934335208	pulse	1.0	t		19.0	male	white	2.243931555909272	smiling	130	sub-02	1.0	5.0	130_smiling	0.0		291.6490969056067	
34.0	203.00098193931808	pulse	1.0	t		19.0	male	white	2.243931555909272	smiling	130	sub-02	1.0	5.0	130_smiling	0.0		292.3490995015727	
35.0	203.26750284952504	face	0.0		145	27.0	male	black	3.5523278949462798	smiling	042	sub-02	1.0	5.0	042_smiling	0.0		292.6156204117797	1.2333266522418853
35.0	203.70095193477937	pulse	0.0	t		27.0	male	black	3.5523278949462798	smiling	042	sub-02	1.0	5.0	042_smiling	0.0		293.049069497034	
35.0	204.4009512103239	pulse	0.0	t		27.0	male	black	3.5523278949462798	smiling	042	sub-02	1.0	5.0	042_smiling	0.0		293.74906877257854	
35.0	204.50082950176693	fix	1.0		444	27.0	male	black	3.5523278949462798	smiling	042	sub-02	1.0	5.0	042_smiling	0.0		293.84894706402156	3.7584133454402036
35.0	205.1009335819017	pulse	1.0	t		27.0	male	black	3.5523278949462798	smiling	042	sub-02	1.0	5.0	042_smiling	0.0		294.44905114415633	
35.0	205.8009174627623	pulse	1.0	t		27.0	male	black	3.5523278949462798	smiling	042	sub-02	1.0	5.0	042_smiling	0.0		295.14903502501693	
35.0	206.5009113048891	pulse	1.0	t		27.0	male	black	3.5523278949462798	smiling	042	sub-02	1.0	5.0	042_smiling	0.0		295.8490288671437	
35.0	207.20092567325992	pulse	1.0	t		27.0	male	black	3.5523278949462798	smiling	042	sub-02	1.0	5.0	042_smiling	0.0		296.54904323551455	
35.0	207.90089083901512	pulse	1.0	t		27.0	male	black	3.5523278949462798	smiling	042	sub-02	1.0	5.0	042_smiling	0.0		297.24900840126975	
36.0	208.25924284720713	face	0.0		146	27.0	female	white	3.504576203740549	neutral	144	sub-02	1.0	5.0	144_neutral	1.0	dominance	297.60736040946176	1.2415142089903384
36.0	208.60088196443394	pulse	0.0	t		27.0	female	white	3.504576203740549	neutral	144	sub-02	1.0	5.0	144_neutral	1.0	dominance	297.94899952668857	
36.0	209.30086976942948	pulse	0.0	t		27.0	female	white	3.504576203740549	neutral	144	sub-02	1.0	5.0	144_neutral	1.0	dominance	298.6489873316841	
36.0	209.50075705619747	fix	1.0		177	27.0	female	white	3.504576203740549	neutral	144	sub-02	1.0	5.0	144_neutral	1.0	dominance	298.8488746184521	1.4999894350221439
36.0	210.00086330969862	pulse	1.0	t		27.0	female	white	3.504576203740549	neutral	144	sub-02	1.0	5.0	144_neutral	1.0	dominance	299.34898087195324	
36.0	210.700849907269	pulse	1.0	t		27.0	female	white	3.504576203740549	neutral	144	sub-02	1.0	5.0	144_neutral	1.0	dominance	300.04896746952363	
36.0	211.00074649121962	rating	2.0		295	27.0	female	white	3.504576203740549	neutral	144	sub-02	1.0	5.0	144_neutral	1.0	dominance	300.34886405347424	2.4999504955267184
36.0	211.4008546162313	pulse	2.0	t		27.0	female	white	3.504576203740549	neutral	144	sub-02	1.0	5.0	144_neutral	1.0	dominance	300.74897217848593	
36.0	211.93724523308083	response	2.0	w		27.0	female	white	3.504576203740549	neutral	144	sub-02	1.0	5.0	144_neutral	1.0	dominance	301.28536279533546	
36.0	212.1008348748128	pulse	2.0	t		27.0	female	white	3.504576203740549	neutral	144	sub-02	1.0	5.0	144_neutral	1.0	dominance	301.4489524370674	
36.0	212.80081483153845	pulse	2.0	t		27.0	female	white	3.504576203740549	neutral	144	sub-02	1.0	5.0	144_neutral	1.0	dominance	302.1489323937931	
36.0	213.50069698674633	fix	3.0		443	27.0	female	white	3.504576203740549	neutral	144	sub-02	1.0	5.0	144_neutral	1.0	dominance	302.84881454900096	3.766607241175734
36.0	213.5087016184334	pulse	3.0	t		27.0	female	white	3.504576203740549	neutral	144	sub-02	1.0	5.0	144_neutral	1.0	dominance	302.85681918068803	
36.0	214.2007979879436	pulse	3.0	t		27.0	female	white	3.504576203740549	neutral	144	sub-02	1.0	5.0	144_neutral	1.0	dominance	303.5489155501982	
36.0	214.90079213192803	pulse	3.0	t		27.0	female	white	3.504576203740549	neutral	144	sub-02	1.0	5.0	144_neutral	1.0	dominance	304.24890969418266	
36.0	215.60078838890695	pulse	3.0	t		27.0	female	white	3.504576203740549	neutral	144	sub-02	1.0	5.0	144_neutral	1.0	dominance	304.9489059511616	
36.0	216.3007611010744	pulse	3.0	t		27.0	female	white	3.504576203740549	neutral	144	sub-02	1.0	5.0	144_neutral	1.0	dominance	305.648878663329	
36.0	217.00076822488882	pulse	3.0	t		27.0	female	white	3.504576203740549	neutral	144	sub-02	1.0	5.0	144_neutral	1.0	dominance	306.34888578714344	
37.0	217.26730422792207	face	0.0		145	28.0	female	white	5.676880222841227	neutral	124	sub-02	1.0	5.0	124_neutral	0.0		306.6154217901767	1.2333124649849196
37.0	217.70074969089728	pulse	0.0	t		28.0	female	white	5.676880222841227	neutral	124	sub-02	1.0	5.0	124_neutral	0.0		307.0488672531519	
37.0	218.400737194037	pulse	0.0	t		28.0	female	white	5.676880222841227	neutral	124	sub-02	1.0	5.0	124_neutral	0.0		307.7488547562916	
37.0	218.500616692907	fix	1.0		444	28.0	female	white	5.676880222841227	neutral	124	sub-02	1.0	5.0	124_neutral	0.0		307.8487342551616	3.7666069393198995
37.0	219.10072982873862	pulse	1.0	t		28.0	female	white	5.676880222841227	neutral	124	sub-02	1.0	5.0	124_neutral	0.0		308.44884739099325	
37.0	219.80073393398743	pulse	1.0	t		28.0	female	white	5.676880222841227	neutral	124	sub-02	1.0	5.0	124_neutral	0.0		309.14885149624206	
37.0	220.50071630556522	pulse	1.0	t		28.0	female	white	5.676880222841227	neutral	124	sub-02	1.0	5.0	124_neutral	0.0		309.84883386781985	
37.0	221.20069897899884	pulse	1.0	t		28.0	female	white	5.676880222841227	neutral	124	sub-02	1.0	5.0	124_neutral	0.0		310.5488165412535	
37.0	221.90068436914225	pulse	1.0	t		28.0	female	white	5.676880222841227	neutral	124	sub-02	1.0	5.0	124_neutral	0.0		311.2488019313969	
38.0	222.2672236322269	face	0.0		145	20.0	male	black	2.609629924393156	neutral	043	sub-02	1.0	5.0	043_neutral	0.0		311.6153411944815	1.233328161524696
38.0	222.60068243726164	pulse	0.0	t		20.0	male	black	2.609629924393156	neutral	043	sub-02	1.0	5.0	043_neutral	0.0		311.94879999951627	
38.0	223.3006696385437	pulse	0.0	t		20.0	male	black	2.609629924393156	neutral	043	sub-02	1.0	5.0	043_neutral	0.0		312.6487872007983	
38.0	223.50055179375158	fix	1.0		444	20.0	male	black	2.609629924393156	neutral	043	sub-02	1.0	5.0	043_neutral	0.0		312.8486693560062	3.7666063356064114
38.0	224.00067676235813	pulse	1.0	t		20.0	male	black	2.609629924393156	neutral	043	sub-02	1.0	5.0	043_neutral	0.0		313.34879432461275	
38.0	224.70064041883052	pulse	1.0	t		20.0	male	black	2.609629924393156	neutral	043	sub-02	1.0	5.0	043_neutral	0.0		314.04875798108515	
38.0	225.40063667580944	pulse	1.0	t		20.0	male	black	2.609629924393156	neutral	043	sub-02	1.0	5.0	043_neutral	0.0		314.74875423806407	
38.0	226.10063081979388	pulse	1.0	t		20.0	male	black	2.609629924393156	neutral	043	sub-02	1.0	5.0	043_neutral	0.0		315.4487483820485	
38.0	226.80061228580234	pulse	1.0	t		20.0	male	black	2.609629924393156	neutral	043	sub-02	1.0	5.0	043_neutral	0.0		316.148729848057	
39.0	227.267158129358	face	0.0		145	31.0	female	white	2.1822522881018704	neutral	102	sub-02	1.0	5.0	102_neutral	0.0		316.6152756916126	1.2333203132548078
39.0	227.5006073353543	pulse	0.0	t		31.0	female	white	2.1822522881018704	neutral	102	sub-02	1.0	5.0	102_neutral	0.0		316.8487248976089	
39.0	228.2006005737676	pulse	0.0	t		31.0	female	white	2.1822522881018704	neutral	102	sub-02	1.0	5.0	102_neutral	0.0		317.5487181360222	
39.0	228.5004784426128	fix	1.0		444	31.0	female	white	2.1822522881018704	neutral	102	sub-02	1.0	5.0	102_neutral	0.0		317.84859600486743	3.749956230802127
39.0	228.90059713260416	pulse	1.0	t		31.0	female	white	2.1822522881018704	neutral	102	sub-02	1.0	5.0	102_neutral	0.0		318.2487146948588	
39.0	229.60058644688252	pulse	1.0	t		31.0	female	white	2.1822522881018704	neutral	102	sub-02	1.0	5.0	102_neutral	0.0		318.94870400913715	
39.0	230.30055463120334	pulse	1.0	t		31.0	female	white	2.1822522881018704	neutral	102	sub-02	1.0	5.0	102_neutral	0.0		319.64867219345797	
39.0	231.00054847333013	pulse	1.0	t		31.0	female	white	2.1822522881018704	neutral	102	sub-02	1.0	5.0	102_neutral	0.0		320.34866603558476	
39.0	231.70054020246062	pulse	1.0	t		31.0	female	white	2.1822522881018704	neutral	102	sub-02	1.0	5.0	102_neutral	0.0		321.04865776471524	
40.0	232.25043467341493	fix	0.0		720													321.59855223566956	5.999897368776146
40.0	232.40053495015673	pulse	0.0	t														321.74865251241135	
40.0	233.100529395997	pulse	0.0	t														322.44864695825163	
40.0	233.80052655854524	pulse	0.0	t														323.1486441207999	
40.0	234.50052221181068	pulse	0.0	t														323.8486397740653	
40.0	235.20048798127937	pulse	0.0	t														324.548605543534	
40.0	235.90047940855402	pulse	0.0	t														325.24859697080865	
40.0	236.60046630798024	pulse	0.0	t														325.94858387023487	
40.0	237.30046407424197	pulse	0.0	t														326.6485816364966	
40.0	238.0004482569584	pulse	0.0	t														327.34856581921304	
