trial_nr	onset	event_type	phase	response	nr_frames	trial_type	stim_name	task_probe	onset_abs	duration
0.0	0.0540340991242374	baseline	0.0		701		baseline	0.0	24.82254666722565	5.847566053734226
0.0	0.7018585993841953	pulse	0.0	t			baseline	0.0	25.47037116748561	
0.0	1.4018209583168755	pulse	0.0	t			baseline	0.0	26.17033352641829	
0.0	2.1017984098989473	pulse	0.0	t			baseline	0.0	26.87031097800036	
0.0	2.8017809929815485	pulse	0.0	t			baseline	0.0	27.570293561082963	
0.0	3.5017678020062704	pulse	0.0	t			baseline	0.0	28.270280370107685	
0.0	4.201776344445534	pulse	0.0	t			baseline	0.0	28.97028891254695	
0.0	4.901731157053746	pulse	0.0	t			baseline	0.0	29.67024372515516	
0.0	5.60172128646127	pulse	0.0	t			baseline	0.0	30.370233854562684	
0.0	5.901600152858464	ISI	1.0		3		baseline	0.0	30.670112720959878	0.12500245255523623
1.0	6.0266026054137	house	0.0		45	place	house-28.jpg	0.0	30.795115173515114	0.37492012215398063
1.0	6.301653761948273	pulse	0.0	t		place	house-28.jpg	0.0	31.070166330049688	
1.0	6.401522727567681	ISI	1.0		594	place	house-28.jpg	0.0	31.170035295669095	5.016569314047956
1.0	7.001637250590193	pulse	1.0	t		place	house-28.jpg	0.0	31.770149818691607	
1.0	7.7016056465827205	pulse	1.0	t		place	house-28.jpg	0.0	32.470118214684135	
1.0	8.401583400017444	pulse	1.0	t		place	house-28.jpg	0.0	33.17009596811886	
1.0	9.101576547954664	pulse	1.0	t		place	house-28.jpg	0.0	33.87008911605608	
1.0	9.801558225478857	pulse	1.0	t		place	house-28.jpg	0.0	34.57007079358027	
1.0	10.501573710536832	pulse	1.0	t		place	house-28.jpg	0.0	35.270086278638246	
1.0	11.201522486085196	pulse	1.0	t		place	house-28.jpg	0.0	35.97003505418661	
2.0	11.418092041615637	limb	0.0		46	body	limb-144.jpg	0.0	36.18660460971705	0.3832877887489303
2.0	11.801379830364567	ISI	1.0		231	body	limb-144.jpg	0.0	36.56989239846598	2.0166813015057414
2.0	11.90149390060742	pulse	1.0	t		body	limb-144.jpg	0.0	36.670006468708834	
2.0	12.601545004317813	pulse	1.0	t		body	limb-144.jpg	0.0	37.37005757241923	
2.0	13.30152788925352	pulse	1.0	t		body	limb-144.jpg	0.0	38.070040457354935	
3.0	13.818061131870309	car	0.0		46	object	car-13.jpg	0.0	38.58657369997172	0.3832714886875692
3.0	14.001444970238936	pulse	0.0	t		object	car-13.jpg	0.0	38.76995753834035	
3.0	14.201332620557878	ISI	1.0		234	object	car-13.jpg	0.0	38.96984518865929	2.016614591995676
3.0	14.701418195878887	pulse	1.0	t		object	car-13.jpg	0.0	39.4699307639803	
3.0	15.401445151350345	pulse	1.0	t		object	car-13.jpg	0.0	40.16995771945176	
3.0	16.10138758798621	pulse	1.0	t		object	car-13.jpg	0.0	40.869900156087624	
4.0	16.217947212553554	number	0.0		46	character	number-71.jpg	0.0	40.98645978065497	0.3833062017811244
4.0	16.60125341433468	ISI	1.0		231	character	number-71.jpg	0.0	41.36976598243609	2.0166447772940046
4.0	16.801363832156312	pulse	1.0	t		character	number-71.jpg	0.0	41.569876400257726	
4.0	17.501351848593004	pulse	1.0	t		character	number-71.jpg	0.0	42.26986441669442	
4.0	18.201329300175075	pulse	1.0	t		character	number-71.jpg	0.0	42.96984186827649	
5.0	18.617898191628683	house	0.0		46	place	house-26.jpg	0.0	43.3864107597301	0.383289599867112
5.0	18.901303733226996	pulse	0.0	t		place	house-26.jpg	0.0	43.66981630132841	
5.0	19.001187791495795	ISI	1.0		354	place	house-26.jpg	0.0	43.76970035959721	3.0166541347366547
5.0	19.601287221868915	pulse	1.0	t		place	house-26.jpg	0.0	44.36979978997033	
5.0	20.301347381168853	pulse	1.0	t		place	house-26.jpg	0.0	45.06985994927027	
5.0	21.00131698457335	pulse	1.0	t		place	house-26.jpg	0.0	45.769829552674764	
5.0	21.701308019539283	pulse	1.0	t		place	house-26.jpg	0.0	46.4698205876407	
6.0	22.01784192623245	number	0.0		46	character	number-133.jpg	0.0	46.786354494333864	0.38326756459900935
6.0	22.40110949083146	ISI	1.0		233	character	number-133.jpg	0.0	47.16962205893287	2.0166375328226422
6.0	22.456439746672913	pulse	1.0	t		character	number-133.jpg	0.0	47.22495231477433	
6.0	23.101198024311998	pulse	1.0	t		character	number-133.jpg	0.0	47.86971059241341	
6.0	23.801189662984143	pulse	1.0	t		character	number-133.jpg	0.0	48.56970223108556	
7.0	24.4177470236541	house	0.0		46	place	house-120.jpg	0.0	49.186259591755515	0.3832820535421888
7.0	24.501167114566215	pulse	0.0	t		place	house-120.jpg	0.0	49.26967968266763	
7.0	24.80102907719629	ISI	1.0		233	place	house-120.jpg	0.0	49.569541645297704	2.016650512500746
7.0	25.20113973650041	pulse	1.0	t		place	house-120.jpg	0.0	49.96965230460182	
7.0	25.901117791788238	pulse	1.0	t		place	house-120.jpg	0.0	50.66963035988965	
7.0	26.601109430460838	pulse	1.0	t		place	house-120.jpg	0.0	51.36962199856225	
8.0	26.817679589697036	number	0.0		46	character	number-64.jpg	0.0	51.58619215779845	0.38330197583945846
8.0	27.200981565536495	ISI	1.0		231	character	number-64.jpg	0.0	51.96949413363791	2.016653229177791
8.0	27.30115057302237	pulse	1.0	t		character	number-64.jpg	0.0	52.06966314112378	
8.0	28.001069766978617	pulse	1.0	t		character	number-64.jpg	0.0	52.76958233508003	
8.0	28.701114833629163	pulse	1.0	t		character	number-64.jpg	0.0	53.46962740173058	
9.0	29.217634794714286	adult	0.0		46	face	adult-137.jpg	0.0	53.9861473628157	0.38328929801355116
9.0	29.40104157390988	pulse	0.0	t		face	adult-137.jpg	0.0	54.16955414201129	
9.0	29.600924092727837	ISI	1.0		234	face	adult-137.jpg	0.0	54.36943666082925	2.0166106679071163
9.0	30.101019931050814	pulse	1.0	t		face	adult-137.jpg	0.0	54.86953249915223	
9.0	30.800984704807433	pulse	1.0	t		face	adult-137.jpg	0.0	55.56949727290885	
9.0	31.501015886220557	pulse	1.0	t		face	adult-137.jpg	0.0	56.26952845432197	
10.0	31.617534760634953	adult	0.0		46	face	adult-71.jpg	0.0	56.38604732873637	0.3833188796061222
10.0	32.000853640241075	ISI	1.0		234	face	adult-71.jpg	0.0	56.76936620834249	2.01662636426272
10.0	32.200961643239225	pulse	1.0	t		face	adult-71.jpg	0.0	56.96947421134064	
10.0	32.90093396332077	pulse	1.0	t		face	adult-71.jpg	0.0	57.66944653142218	
10.0	33.60091986678617	pulse	1.0	t		face	adult-71.jpg	0.0	58.369432434887585	
11.0	34.017480004503795	house	0.0		46	place	house-54.jpg	0.0	58.78599257260521	0.38330891845771475
11.0	34.30096312231899	pulse	0.0	t		place	house-54.jpg	0.0	59.069475690420404	
11.0	34.40078892296151	ISI	1.0		714	place	house-54.jpg	0.0	59.169301491062924	6.01654244913243
11.0	35.00088895704039	pulse	1.0	t		place	house-54.jpg	0.0	59.7694015251418	
11.0	35.70093130701434	pulse	1.0	t		place	house-54.jpg	0.0	60.46944387511576	
11.0	36.40091539936202	pulse	1.0	t		place	house-54.jpg	0.0	61.169427967463434	
11.0	37.10089013426705	pulse	1.0	t		place	house-54.jpg	0.0	61.86940270236846	
11.0	37.80087664143866	pulse	1.0	t		place	house-54.jpg	0.0	62.56938920954008	
11.0	38.50085741340354	pulse	1.0	t		place	house-54.jpg	0.0	63.26936998150495	
11.0	39.20084754281106	pulse	1.0	t		place	house-54.jpg	0.0	63.969360110912476	
11.0	39.90080175171306	pulse	1.0	t		place	house-54.jpg	0.0	64.66931431981448	
12.0	40.41733137209394	number	0.0		46	character	number-62.jpg	0.0	65.18584394019535	0.38326484792196425
12.0	40.60072607716984	pulse	0.0	t		character	number-62.jpg	0.0	65.36923864527125	
12.0	40.800596220015905	ISI	1.0		594	character	number-62.jpg	0.0	65.56910878811732	5.016575954813561
12.0	41.300772351232354	pulse	1.0	t		character	number-62.jpg	0.0	66.06928491933377	
12.0	42.000685508128754	pulse	1.0	t		character	number-62.jpg	0.0	66.76919807623017	
12.0	42.700665676387416	pulse	1.0	t		character	number-62.jpg	0.0	67.46917824448883	
12.0	43.400661239148576	pulse	1.0	t		character	number-62.jpg	0.0	68.16917380724999	
12.0	44.100636577759815	pulse	1.0	t		character	number-62.jpg	0.0	68.86914914586123	
12.0	44.80061221822416	pulse	1.0	t		character	number-62.jpg	0.0	69.56912478632557	
12.0	45.500594499453655	pulse	1.0	t		character	number-62.jpg	0.0	70.26910706755507	
13.0	45.817172174829466	car	0.0		46	object	car-33.jpg	0.0	70.58568474293088	0.38328748689582426
13.0	46.20045966172529	ISI	1.0		353	object	car-33.jpg	0.0	70.9689722298267	3.0166387402346118
13.0	46.24954820154471	pulse	1.0	t		object	car-33.jpg	0.0	71.01806076964613	
13.0	46.90063180848256	pulse	1.0	t		object	car-33.jpg	0.0	71.66914437658397	
13.0	47.60060171374016	pulse	1.0	t		object	car-33.jpg	0.0	72.36911428184158	
13.0	48.30058097643996	pulse	1.0	t		object	car-33.jpg	0.0	73.06909354454137	
13.0	49.00058740590839	pulse	1.0	t		object	car-33.jpg	0.0	73.7690999740098	
14.0	49.2170984019599	limb	0.0		46	body	limb-50.jpg	0.0	73.98561097006132	0.3832853739249913
14.0	49.60038377588489	ISI	1.0		354	body	limb-50.jpg	0.0	74.36889634398631	3.0166070456712077
14.0	49.70052742772032	pulse	1.0	t		body	limb-50.jpg	0.0	74.46903999582173	
14.0	50.40047227918012	pulse	1.0	t		body	limb-50.jpg	0.0	75.16898484728154	
14.0	51.100439165907574	pulse	1.0	t		body	limb-50.jpg	0.0	75.86895173400899	
14.0	51.8004356342276	pulse	1.0	t		body	limb-50.jpg	0.0	76.56894820232901	
14.0	52.50041761360444	pulse	1.0	t		body	limb-50.jpg	0.0	77.26893018170585	
15.0	52.6169908215561	number	0.0		46	character	number-96.jpg	0.0	77.38550338965752	0.38328265724840094
15.0	53.0002734788045	ISI	1.0		354	character	number-96.jpg	0.0	77.76878604690592	3.0166535310308973
15.0	53.20039989483439	pulse	1.0	t		character	number-96.jpg	0.0	77.9689124629358	
15.0	53.90037221491548	pulse	1.0	t		character	number-96.jpg	0.0	78.66888478301689	
15.0	54.60041848897845	pulse	1.0	t		character	number-96.jpg	0.0	79.36893105707986	
15.0	55.30038899794181	pulse	1.0	t		character	number-96.jpg	0.0	80.06890156604322	
16.0	56.0169270098354	car	0.0		45	object	car-128.jpg	0.0	80.78543957793681	0.38330469251559407
16.0	56.00859526374552	pulse	0.0	t		object	car-128.jpg	0.0	80.77710783184693	
16.0	56.40023170235099	ISI	1.0		354	object	car-128.jpg	0.0	81.16874427045241	3.0166109697602224
16.0	56.7003659363736	pulse	1.0	t		object	car-128.jpg	0.0	81.46887850447501	
16.0	57.40035123613325	pulse	1.0	t		object	car-128.jpg	0.0	82.16886380423466	
16.0	58.100366117485464	pulse	1.0	t		object	car-128.jpg	0.0	82.86887868558688	
16.0	58.800309761532844	pulse	1.0	t		object	car-128.jpg	0.0	83.56882232963426	
17.0	59.416842672111216	car	0.0		46	object	car-49.jpg	0.0	84.18535524021263	0.38326605533393376
17.0	59.500228653635986	pulse	0.0	t		object	car-49.jpg	0.0	84.2687412217374	
17.0	59.80010872744515	ISI	1.0		353	object	car-49.jpg	0.0	84.56862129554656	3.0166082530831773
17.0	60.20025017575381	pulse	1.0	t		object	car-49.jpg	0.0	84.96876274385522	
17.0	60.900179632711115	pulse	1.0	t		object	car-49.jpg	0.0	85.66869220081253	
17.0	61.60016131023531	pulse	1.0	t		object	car-49.jpg	0.0	86.36867387833672	
17.0	62.300141780347076	pulse	1.0	t		object	car-49.jpg	0.0	87.06865434844849	
18.0	62.81671698052833	house	0.0		46	place	house-85.jpg	0.0	87.58522954862974	0.3832859776307487
18.0	63.00010836522142	pulse	0.0	t		place	house-85.jpg	0.0	87.76862093332284	
18.0	63.200002958159075	ISI	1.0		231	place	house-85.jpg	0.0	87.96851552626049	2.0166317976163555
18.0	63.70011328542523	pulse	1.0	t		place	house-85.jpg	0.0	88.46862585352665	
18.0	64.40009013330109	pulse	1.0	t		place	house-85.jpg	0.0	89.1686027014025	
18.0	65.1000666793243	pulse	1.0	t		place	house-85.jpg	0.0	89.86857924742571	
19.0	65.21663475577543	adult	0.0		46	face	adult-6.jpg	0.0	89.98514732387684	0.3833514797283897
19.0	65.59998623550382	ISI	1.0		593	face	adult-6.jpg	0.0	90.36849880360523	5.016558145487579
19.0	65.8001211034175	pulse	1.0	t		face	adult-6.jpg	0.0	90.56863367151891	
19.0	66.50010911985419	pulse	1.0	t		face	adult-6.jpg	0.0	91.2686216879556	
19.0	67.20009260849565	pulse	1.0	t		face	adult-6.jpg	0.0	91.96860517659707	
19.0	67.90006160819394	pulse	1.0	t		face	adult-6.jpg	0.0	92.66857417629535	
19.0	68.60004026718798	pulse	1.0	t		face	adult-6.jpg	0.0	93.36855283528939	
19.0	69.30003764106732	pulse	1.0	t		face	adult-6.jpg	0.0	94.06855020916873	
19.0	70.00001147041348	pulse	1.0	t		face	adult-6.jpg	0.0	94.7685240385149	
20.0	70.6165443809914	car	0.0		46	object	car-15.jpg	0.0	95.38505694909281	0.38326484792196425
20.0	70.699975942317	pulse	0.0	t		object	car-15.jpg	0.0	95.46848851041841	
20.0	70.99980922891336	ISI	1.0		234	object	car-15.jpg	0.0	95.76832179701478	2.016634816146052
20.0	71.39990419186233	pulse	1.0	t		object	car-15.jpg	0.0	96.16841675996375	
20.0	72.0998753045319	pulse	1.0	t		object	car-15.jpg	0.0	96.86838787263332	
20.0	72.79985879317337	pulse	1.0	t		object	car-15.jpg	0.0	97.56837136127479	
21.0	73.01644404505942	adult	0.0		46	face	adult-53.jpg	0.0	97.78495661316083	0.38330167398589765
21.0	73.39974571904531	ISI	1.0		354	face	adult-53.jpg	0.0	98.16825828714673	3.0166067438185564
21.0	73.49992015988528	pulse	1.0	t		face	adult-53.jpg	0.0	98.26843272798669	
21.0	74.19985082425501	pulse	1.0	t		face	adult-53.jpg	0.0	98.96836339235642	
21.0	74.89981710727625	pulse	1.0	t		face	adult-53.jpg	0.0	99.66832967537766	
21.0	75.59985221277839	pulse	1.0	t		face	adult-53.jpg	0.0	100.3683647808798	
21.0	76.29980974206364	pulse	1.0	t		face	adult-53.jpg	0.0	101.06832231016506	
22.0	76.41635246286387	adult	0.0		46	face	adult-30.jpg	0.0	101.18486503096528	0.38333487781437725
22.0	76.79968734067825	ISI	1.0		354	face	adult-30.jpg	0.0	101.56819990877966	3.0166088567889346
22.0	76.99983216974033	pulse	1.0	t		face	adult-30.jpg	0.0	101.76834473784174	
22.0	77.699799660174	pulse	1.0	t		face	adult-30.jpg	0.0	102.46831222827541	
22.0	78.39982359711576	pulse	1.0	t		face	adult-30.jpg	0.0	103.16833616521717	
22.0	79.09976120410374	pulse	1.0	t		face	adult-30.jpg	0.0	103.86827377220516	
23.0	79.81629619746718	house	0.0		45	place	house-110.jpg	0.0	104.5848087655686	0.3832639423631008
23.0	79.80796837546632	pulse	0.0	t		place	house-110.jpg	0.0	104.57648094356773	
23.0	80.19956013983028	ISI	1.0		234	place	house-110.jpg	0.0	104.9680727079317	2.016655342149079
23.0	80.49972637026895	pulse	1.0	t		place	house-110.jpg	0.0	105.26823893837036	
23.0	81.19971317929367	pulse	1.0	t		place	house-110.jpg	0.0	105.96822574739508	
23.0	81.89968459381589	pulse	1.0	t		place	house-110.jpg	0.0	106.6681971619173	
24.0	82.21621548197936	limb	0.0		46	body	limb-62.jpg	0.0	106.98472805008078	0.38328356280680964
24.0	82.59949904478617	ISI	1.0		234	body	limb-62.jpg	0.0	107.36801161288759	2.0166200253497664
24.0	82.64566051621068	pulse	1.0	t		body	limb-62.jpg	0.0	107.4141730843121	
24.0	83.29958878567868	pulse	1.0	t		body	limb-62.jpg	0.0	108.0681013537801	
24.0	83.99957770767423	pulse	1.0	t		body	limb-62.jpg	0.0	108.76809027577565	
25.0	84.61611907013594	house	0.0		46	place	house-141.jpg	0.0	109.38463163823735	0.3833007684270342
25.0	84.69954700922563	pulse	0.0	t		place	house-141.jpg	0.0	109.46805957732704	
25.0	84.99941983856297	ISI	1.0		354	place	house-141.jpg	0.0	109.76793240666439	3.0166058382592382
25.0	85.39953804419201	pulse	1.0	t		place	house-141.jpg	0.0	110.16805061229343	
25.0	86.09951308095015	pulse	1.0	t		place	house-141.jpg	0.0	110.86802564905156	
25.0	86.79949475847388	pulse	1.0	t		place	house-141.jpg	0.0	111.5680073265753	
25.0	87.49946647484921	pulse	1.0	t		place	house-141.jpg	0.0	112.26797904295063	
26.0	88.01602567682221	limb	0.0		46	body	limb-8.jpg	0.0	112.78453824492362	0.3833514797288444
26.0	88.1994608301984	pulse	0.0	t		body	limb-8.jpg	0.0	112.96797339829982	
26.0	88.39937715655105	ISI	1.0		473	body	limb-8.jpg	0.0	113.16788972465247	4.016577464078637
26.0	88.89951163205569	pulse	1.0	t		body	limb-8.jpg	0.0	113.6680242001571	
26.0	89.59949089475549	pulse	1.0	t		body	limb-8.jpg	0.0	114.3680034628569	
26.0	90.29945687592408	pulse	1.0	t		body	limb-8.jpg	0.0	115.0679694440255	
26.0	90.99944459050766	pulse	1.0	t		body	limb-8.jpg	0.0	115.76795715860908	
26.0	91.69943381435633	pulse	1.0	t		body	limb-8.jpg	0.0	116.46794638245774	
27.0	92.41595462062969	adult	0.0		45	face	adult-138.jpg	0.0	117.1844671887311	0.3832899017197633
27.0	92.40823020274547	pulse	0.0	t		face	adult-138.jpg	0.0	117.17674277084689	
27.0	92.79924452234945	ISI	1.0		231	face	adult-138.jpg	0.0	117.56775709045087	2.0166354198518093
27.0	93.09942826026099	pulse	1.0	t		face	adult-138.jpg	0.0	117.8679408283624	
27.0	93.7993731117208	pulse	1.0	t		face	adult-138.jpg	0.0	118.56788567982221	
27.0	94.49934754477317	pulse	1.0	t		face	adult-138.jpg	0.0	119.26786011287459	
28.0	94.81587994220126	limb	0.0		46	body	limb-96.jpg	0.0	119.58439251030268	0.3832805442771132
28.0	95.19916048647838	ISI	1.0		235	body	limb-96.jpg	0.0	119.96767305457979	2.024950865880328
28.0	95.24795834187307	pulse	1.0	t		body	limb-96.jpg	0.0	120.01647090997449	
28.0	95.89925415145944	pulse	1.0	t		body	limb-96.jpg	0.0	120.66776671956086	
28.0	96.59922979192379	pulse	1.0	t		body	limb-96.jpg	0.0	121.3677423600252	
29.0	97.2241113523587	number	0.0		46	character	number-97.jpg	0.0	121.99262392046012	0.3833037869567306
29.0	97.29920422497571	pulse	0.0	t		character	number-97.jpg	0.0	122.06771679307712	
29.0	97.60741513931544	ISI	1.0		353	character	number-97.jpg	0.0	122.37592770741685	3.0166221383205993
29.0	97.99919405253013	pulse	1.0	t		character	number-97.jpg	0.0	122.76770662063154	
29.0	98.69916969299447	pulse	1.0	t		character	number-97.jpg	0.0	123.46768226109589	
29.0	99.39916193537283	pulse	1.0	t		character	number-97.jpg	0.0	124.16767450347425	
29.0	100.09913606657165	pulse	1.0	t		character	number-97.jpg	0.0	124.86764863467306	
30.0	100.62403727763603	number	0.0		46	character	number-94.jpg	0.0	125.39254984573745	0.3833243129602124
30.0	100.79919743328355	pulse	0.0	t		character	number-94.jpg	0.0	125.56771000138497	
30.0	101.00736159059625	ISI	1.0		236	character	number-94.jpg	0.0	125.77587415869766	2.0166311939101433
30.0	101.4991763941307	pulse	1.0	t		character	number-94.jpg	0.0	126.26768896223211	
30.0	102.19915052532997	pulse	1.0	t		character	number-94.jpg	0.0	126.96766309343138	
30.0	102.89911952502825	pulse	1.0	t		character	number-94.jpg	0.0	127.66763209312967	
31.0	103.02399278450639	number	0.0		46	character	number-94.jpg	1.0	127.7925053526078	0.38327903501203764
31.0	103.40727181951843	ISI	1.0		233	character	number-94.jpg	1.0	128.17578438761984	2.0166423624705203
31.0	103.59908007284321	pulse	1.0	t		character	number-94.jpg	1.0	128.36759264094462	
31.0	103.84902158882733	response	1.0	b		character	number-94.jpg	1.0	128.61753415692874	
31.0	104.29907623931012	pulse	1.0	t		character	number-94.jpg	1.0	129.06758880741154	
31.0	104.9990035832966	pulse	1.0	t		character	number-94.jpg	1.0	129.767516151398	
32.0	105.42391418198895	car	0.0		46	object	car-109.jpg	0.0	130.19242675009036	0.38329714619112565
32.0	105.69899280714526	pulse	0.0	t		object	car-109.jpg	0.0	130.46750537524667	
32.0	105.80721132818007	ISI	1.0		834	object	car-109.jpg	0.0	130.5757238962815	7.016533997249098
32.0	106.3989778050518	pulse	1.0	t		object	car-109.jpg	0.0	131.1674903731532	
32.0	107.09897940487281	pulse	1.0	t		object	car-109.jpg	0.0	131.86749197297422	
32.0	107.79893391562791	pulse	1.0	t		object	car-109.jpg	0.0	132.56744648372933	
32.0	108.49891559315165	pulse	1.0	t		object	car-109.jpg	0.0	133.26742816125306	
32.0	109.19898148765833	pulse	1.0	t		object	car-109.jpg	0.0	133.96749405575974	
32.0	109.89892754652965	pulse	1.0	t		object	car-109.jpg	0.0	134.66744011463106	
32.0	110.59891737408407	pulse	1.0	t		object	car-109.jpg	0.0	135.36742994218548	
32.0	111.29890146643174	pulse	1.0	t		object	car-109.jpg	0.0	136.06741403453316	
32.0	111.99888042727889	pulse	1.0	t		object	car-109.jpg	0.0	136.7673929953803	
32.0	112.69887055668642	pulse	1.0	t		object	car-109.jpg	0.0	137.46738312478783	
33.0	112.82374532542917	limb	0.0		46	body	limb-139.jpg	0.0	137.5922578935306	0.3832521700965117
33.0	113.20699749552568	ISI	1.0		231	body	limb-139.jpg	0.0	137.9755100636271	2.0166357217049153
33.0	113.39880695626243	pulse	1.0	t		body	limb-139.jpg	0.0	138.16731952436385	
33.0	114.09873973360254	pulse	1.0	t		body	limb-139.jpg	0.0	138.86725230170396	
33.0	114.79873801304075	pulse	1.0	t		body	limb-139.jpg	0.0	139.56725058114216	
34.0	115.2236332172306	limb	0.0		46	body	limb-117.jpg	0.0	139.992145785332	0.38331495551756234
34.0	115.49873267024259	pulse	0.0	t		body	limb-117.jpg	0.0	140.267245238344	
34.0	115.60694817274816	ISI	1.0		471	body	limb-117.jpg	0.0	140.37546074084958	4.016612780877949
34.0	116.19871615888451	pulse	1.0	t		body	limb-117.jpg	0.0	140.96722872698592	
34.0	116.89869783640825	pulse	1.0	t		body	limb-117.jpg	0.0	141.66721040450966	
34.0	117.59867377872524	pulse	1.0	t		body	limb-117.jpg	0.0	142.36718634682666	
34.0	118.29865062660156	pulse	1.0	t		body	limb-117.jpg	0.0	143.06716319470297	
34.0	118.9986990136349	pulse	1.0	t		body	limb-117.jpg	0.0	143.76721158173632	
35.0	119.62356095362611	adult	0.0		46	face	adult-46.jpg	0.0	144.39207352172753	0.3832461330366641
35.0	119.69861760388494	pulse	0.0	t		face	adult-46.jpg	0.0	144.46713017198635	
35.0	120.00680708666277	ISI	1.0		591	face	adult-46.jpg	0.0	144.7753196547642	5.016576558519773
35.0	120.39862795744239	pulse	1.0	t		face	adult-46.jpg	0.0	145.1671405255438	
35.0	121.09860903125991	pulse	1.0	t		face	adult-46.jpg	0.0	145.86712159936133	
35.0	121.79855780680873	pulse	1.0	t		face	adult-46.jpg	0.0	146.56707037491014	
35.0	122.49852680650702	pulse	1.0	t		face	adult-46.jpg	0.0	147.26703937460843	
35.0	123.19851693591454	pulse	1.0	t		face	adult-46.jpg	0.0	147.96702950401595	
35.0	123.89850404679191	pulse	1.0	t		face	adult-46.jpg	0.0	148.66701661489333	
35.0	124.59848361134482	pulse	1.0	t		face	adult-46.jpg	0.0	149.36699617944623	
36.0	125.02338364518255	number	0.0		46	character	number-36.jpg	0.0	149.79189621328396	0.38330137213324633
36.0	125.29845019621962	pulse	0.0	t		character	number-36.jpg	0.0	150.06696276432103	
36.0	125.4066850173158	ISI	1.0		956	character	number-36.jpg	0.0	150.1751975854172	8.016506830480012
36.0	125.99851639257895	pulse	1.0	t		character	number-36.jpg	0.0	150.76702896068036	
36.0	126.69849052377822	pulse	1.0	t		character	number-36.jpg	0.0	151.46700309187963	
36.0	127.39846344756552	pulse	1.0	t		character	number-36.jpg	0.0	152.16697601566693	
36.0	128.0984439176773	pulse	1.0	t		character	number-36.jpg	0.0	152.8669564857787	
36.0	128.79843827302648	pulse	1.0	t		character	number-36.jpg	0.0	153.5669508411279	
36.0	129.49841119681378	pulse	1.0	t		character	number-36.jpg	0.0	154.2669237649152	
36.0	130.19840283548592	pulse	1.0	t		character	number-36.jpg	0.0	154.96691540358734	
36.0	130.89837545742057	pulse	1.0	t		character	number-36.jpg	0.0	155.66688802552198	
36.0	131.5983538145615	pulse	1.0	t		character	number-36.jpg	0.0	156.36686638266292	
36.0	132.2983330772613	pulse	1.0	t		character	number-36.jpg	0.0	157.06684564536272	
36.0	132.99831354737307	pulse	1.0	t		character	number-36.jpg	0.0	157.7668261154745	
37.0	133.4231918477958	number	0.0		46	character	number-36.jpg	1.0	158.19170441589722	0.38325217009696644
37.0	133.69823908024182	pulse	0.0	t		character	number-36.jpg	1.0	158.46675164834323	
37.0	133.80644401789277	ISI	1.0		713	character	number-36.jpg	1.0	158.5749565859942	6.016578671490606
37.0	134.39822468185457	pulse	1.0	t		character	number-36.jpg	1.0	159.166737249956	
37.0	135.09822990391103	pulse	1.0	t		character	number-36.jpg	1.0	159.86674247201245	
37.0	135.79817083128182	pulse	1.0	t		character	number-36.jpg	1.0	160.56668339938324	
37.0	136.49816216810132	pulse	1.0	t		character	number-36.jpg	1.0	161.26667473620273	
37.0	137.1981399215365	pulse	1.0	t		character	number-36.jpg	1.0	161.9666524896379	
37.0	137.89811646755925	pulse	1.0	t		character	number-36.jpg	1.0	162.66662903566066	
37.0	138.59809995620117	pulse	1.0	t		character	number-36.jpg	1.0	163.36661252430258	
37.0	139.29809038746134	pulse	1.0	t		character	number-36.jpg	1.0	164.06660295556276	
38.0	139.82302268938338	house	0.0		46	place	house-23.jpg	0.0	164.5915352574848	0.38324583118355804
38.0	139.99806814089652	pulse	0.0	t		place	house-23.jpg	0.0	164.76658070899794	
38.0	140.20626852056694	ISI	1.0		234	place	house-23.jpg	0.0	164.97478108866835	2.016636627263779
38.0	140.69805162953799	pulse	1.0	t		place	house-23.jpg	0.0	165.4665641976394	
38.0	141.39803904226892	pulse	1.0	t		place	house-23.jpg	0.0	166.16655161037033	
38.0	142.09801287161508	pulse	1.0	t		place	house-23.jpg	0.0	166.8665254397165	
39.0	142.22290514783072	car	0.0		46	object	car-27.jpg	0.0	166.99141771593213	0.38330408881029143
39.0	142.606209236641	ISI	1.0		354	object	car-27.jpg	0.0	167.37472180474242	3.016605536406132
39.0	142.79799847322738	pulse	1.0	t		object	car-27.jpg	0.0	167.5665110413288	
39.0	143.49796596366104	pulse	1.0	t		object	car-27.jpg	0.0	168.26647853176246	
39.0	144.19795971530448	pulse	1.0	t		object	car-27.jpg	0.0	168.9664722834059	
39.0	144.89792690388504	pulse	1.0	t		object	car-27.jpg	0.0	169.66643947198645	
39.0	145.59792639073476	pulse	1.0	t		object	car-27.jpg	0.0	170.36643895883617	
40.0	145.62281477304714	adult	0.0		46	face	adult-13.jpg	0.0	170.39132734114855	0.3833535926996774
40.0	146.00616836574682	ISI	1.0		233	face	adult-13.jpg	0.0	170.77468093384823	2.0166402494996873
40.0	146.29796028882492	pulse	1.0	t		face	adult-13.jpg	0.0	171.06647285692634	
40.0	146.99794981452624	pulse	1.0	t		face	adult-13.jpg	0.0	171.76646238262765	
40.0	147.6979257568437	pulse	1.0	t		face	adult-13.jpg	0.0	172.4664383249451	
41.0	148.0228086152465	limb	0.0		46	body	limb-28.jpg	0.0	172.79132118334792	0.3832618293918131
41.0	148.39783800818077	pulse	0.0	t		body	limb-28.jpg	0.0	173.16635057628218	
41.0	148.40607044463832	ISI	1.0		235	body	limb-28.jpg	0.0	173.17458301273973	2.0166179123789334
41.0	149.09782964685292	pulse	1.0	t		body	limb-28.jpg	0.0	173.86634221495433	
41.0	149.7978107206709	pulse	1.0	t		body	limb-28.jpg	0.0	174.5663232887723	
42.0	150.42268835701725	limb	0.0		46	body	limb-28.jpg	1.0	175.19120092511866	0.3833143518113502
42.0	150.49778213519312	pulse	0.0	t		body	limb-28.jpg	1.0	175.26629470329453	
42.0	150.8060027088286	ISI	1.0		233	body	limb-28.jpg	1.0	175.57451527693001	2.016645682853323
42.0	151.19776864236474	pulse	1.0	t		body	limb-28.jpg	1.0	175.96628121046615	
42.0	151.3894280821678	response	1.0	b		body	limb-28.jpg	1.0	176.1579406502692	
42.0	151.8977457920937	pulse	1.0	t		body	limb-28.jpg	1.0	176.66625836019512	
42.0	152.59772113070494	pulse	1.0	t		body	limb-28.jpg	1.0	177.36623369880635	
43.0	152.82264839168192	car	0.0		46	object	car-102.jpg	0.0	177.59116095978334	0.3832859776307487
43.0	153.20593436931267	ISI	1.0		354	object	car-102.jpg	0.0	177.9744469374141	3.016630590204386
43.0	153.2977166934661	pulse	1.0	t		object	car-102.jpg	0.0	178.0662292615675	
43.0	153.9976998802549	pulse	1.0	t		object	car-102.jpg	0.0	178.76621244835633	
43.0	154.69774585246432	pulse	1.0	t		object	car-102.jpg	0.0	179.46625842056574	
43.0	155.39772270034064	pulse	1.0	t		object	car-102.jpg	0.0	180.16623526844205	
43.0	156.0976968315399	pulse	1.0	t		object	car-102.jpg	0.0	180.86620939964132	
44.0	156.22256495951706	adult	0.0		46	face	adult-63.jpg	0.0	180.99107752761847	0.38327269609953873
44.0	156.6058376556166	ISI	1.0		234	face	adult-63.jpg	0.0	181.374350223718	2.016645682853323
44.0	156.79761059214206	pulse	1.0	t		face	adult-63.jpg	0.0	181.56612316024348	
44.0	157.49760162710845	pulse	1.0	t		face	adult-63.jpg	0.0	182.26611419520987	
44.0	158.19756640086507	pulse	1.0	t		face	adult-63.jpg	0.0	182.96607896896649	
45.0	158.62248333846992	limb	0.0		46	body	limb-12.jpg	0.0	183.39099590657133	0.3833022776921098
45.0	158.89756769883297	pulse	0.0	t		body	limb-12.jpg	0.0	183.6660802669344	
45.0	159.00578561616203	ISI	1.0		473	body	limb-12.jpg	0.0	183.77429818426344	4.016615799407646
45.0	159.59754696153277	pulse	1.0	t		body	limb-12.jpg	0.0	184.36605952963419	
45.0	160.29751445196644	pulse	1.0	t		body	limb-12.jpg	0.0	185.06602702006785	
45.0	160.997498242461	pulse	1.0	t		body	limb-12.jpg	0.0	185.76601081056242	
45.0	161.69748474963262	pulse	1.0	t		body	limb-12.jpg	0.0	186.46599731773404	
45.0	162.3975385700196	pulse	1.0	t		body	limb-12.jpg	0.0	187.16605113812102	
46.0	163.02240141556968	car	0.0		46	object	car-137.jpg	0.0	187.7909139836711	0.38326635718703983
46.0	163.09744357688533	pulse	0.0	t		object	car-137.jpg	0.0	187.86595614498674	
46.0	163.40566777275671	ISI	1.0		233	object	car-137.jpg	0.0	188.17418034085813	2.0166200253493116
46.0	163.79749136021292	pulse	1.0	t		object	car-137.jpg	0.0	188.56600392831433	
46.0	164.49739848004947	pulse	1.0	t		object	car-137.jpg	0.0	189.26591104815088	
46.0	165.19737472421957	pulse	1.0	t		object	car-137.jpg	0.0	189.96588729232099	
47.0	165.42228779810603	house	0.0		46	place	house-7.jpg	0.0	190.19080036620744	0.3833092203108208
47.0	165.80559701841685	ISI	1.0		354	place	house-7.jpg	0.0	190.57410958651826	3.016612177172192
47.0	165.89737904071717	pulse	1.0	t		place	house-7.jpg	0.0	190.66589160881858	
47.0	166.59734834226856	pulse	1.0	t		place	house-7.jpg	0.0	191.36586091036997	
47.0	167.29732458643866	pulse	1.0	t		place	house-7.jpg	0.0	192.06583715454008	
47.0	167.9973032454327	pulse	1.0	t		place	house-7.jpg	0.0	192.76581581353412	
47.0	168.69728794148614	pulse	1.0	t		place	house-7.jpg	0.0	193.46580050958755	
48.0	168.82220919558904	adult	0.0		46	face	adult-51.jpg	0.0	193.59072176369045	0.3833330666961956
48.0	169.20554226228523	ISI	1.0		474	face	adult-51.jpg	0.0	193.97405483038665	4.016583501138484
48.0	169.39734447855062	pulse	1.0	t		face	adult-51.jpg	0.0	194.16585704665204	
48.0	170.09732977831027	pulse	1.0	t		face	adult-51.jpg	0.0	194.86584234641168	
48.0	170.797311455834	pulse	1.0	t		face	adult-51.jpg	0.0	195.56582402393542	
48.0	171.49729162409267	pulse	1.0	t		face	adult-51.jpg	0.0	196.26580419219408	
48.0	172.19727179235178	pulse	1.0	t		face	adult-51.jpg	0.0	196.9657843604532	
48.0	172.89725256431666	pulse	1.0	t		face	adult-51.jpg	0.0	197.66576513241807	
49.0	173.22212576342372	house	0.0		46	place	house-40.jpg	0.0	197.99063833152513	0.38326877201097886
49.0	173.59717175827245	pulse	0.0	t		place	house-40.jpg	0.0	198.36568432637387	
49.0	173.6053945354347	ISI	1.0		354	place	house-40.jpg	0.0	198.3739071035361	3.016589538197877
49.0	174.29714407835354	pulse	1.0	t		place	house-40.jpg	0.0	199.06565664645495	
49.0	174.99712243549493	pulse	1.0	t		place	house-40.jpg	0.0	199.76563500359634	
49.0	175.69711558343215	pulse	1.0	t		place	house-40.jpg	0.0	200.46562815153356	
49.0	176.39715129264005	pulse	1.0	t		place	house-40.jpg	0.0	201.16566386074146	
50.0	176.62198407363258	car	0.0		46	object	car-144.jpg	0.0	201.390496641734	0.3833022776921098
50.0	177.00528635132468	ISI	1.0		475	object	car-144.jpg	0.0	201.7737989194261	4.016633608734082
50.0	177.09708950333425	pulse	1.0	t		object	car-144.jpg	0.0	201.86560207143566	
50.0	177.79705397523776	pulse	1.0	t		object	car-144.jpg	0.0	202.56556654333917	
50.0	178.4970290119959	pulse	1.0	t		object	car-144.jpg	0.0	203.2655415800973	
50.0	179.19702729143364	pulse	1.0	t		object	car-144.jpg	0.0	203.96553985953506	
50.0	179.89708201737994	pulse	1.0	t		object	car-144.jpg	0.0	204.66559458548136	
50.0	180.59704075407717	pulse	1.0	t		object	car-144.jpg	0.0	205.36555332217858	
51.0	181.02191996005877	house	0.0		46	place	house-69.jpg	0.0	205.79043252816018	0.3832591127152227
51.0	181.29695662765016	pulse	0.0	t		place	house-69.jpg	0.0	206.06546919575158	
51.0	181.405179072774	ISI	1.0		474	place	house-69.jpg	0.0	206.1736916408754	4.01658501040356
51.0	181.99695068114625	pulse	1.0	t		place	house-69.jpg	0.0	206.76546324924766	
51.0	182.69693175496423	pulse	1.0	t		place	house-69.jpg	0.0	207.46544432306564	
51.0	183.39689773613281	pulse	1.0	t		place	house-69.jpg	0.0	208.16541030423423	
51.0	184.09688786554034	pulse	1.0	t		place	house-69.jpg	0.0	208.86540043364175	
51.0	184.79703224182276	pulse	1.0	t		place	house-69.jpg	0.0	209.56554480992418	
52.0	185.42176408317755	number	0.0		46	character	number-143.jpg	0.0	210.19027665127896	0.3832902035724146
52.0	185.4968593706185	pulse	0.0	t		character	number-143.jpg	0.0	210.2653719387199	
52.0	185.80505428674996	ISI	1.0		234	character	number-143.jpg	0.0	210.57356685485138	2.0166816033583927
52.0	186.19683591664125	pulse	1.0	t		character	number-143.jpg	0.0	210.96534848474266	
52.0	186.8968529109643	pulse	1.0	t		character	number-143.jpg	0.0	211.6653654790657	
52.0	187.59685571819728	pulse	1.0	t		character	number-143.jpg	0.0	212.3653682862987	
53.0	187.82173589010836	number	0.0		46	character	number-115.jpg	0.0	212.59024845820977	0.38325971642143486
53.0	188.2049956065298	ISI	1.0		354	character	number-115.jpg	0.0	212.9735081746312	3.016613988289919
53.0	188.2967703843583	pulse	1.0	t		character	number-115.jpg	0.0	213.0652829524597	
53.0	188.99674843964658	pulse	1.0	t		character	number-115.jpg	0.0	213.765261007748	
53.0	189.69673041902342	pulse	1.0	t		character	number-115.jpg	0.0	214.46524298712484	
53.0	190.39671028542898	pulse	1.0	t		character	number-115.jpg	0.0	215.1652228535304	
53.0	191.09672697789938	pulse	1.0	t		character	number-115.jpg	0.0	215.8652395460008	
54.0	191.2216095948197	house	0.0		46	place	house-143.jpg	0.0	215.99012216292112	0.38330318325097323
54.0	191.60491277807068	ISI	1.0		231	place	house-143.jpg	0.0	216.3734253461721	2.016632703174764
54.0	191.79671439062986	pulse	1.0	t		place	house-143.jpg	0.0	216.56522695873127	
54.0	192.49666135506004	pulse	1.0	t		place	house-143.jpg	0.0	217.26517392316146	
54.0	193.19664091961295	pulse	1.0	t		place	house-143.jpg	0.0	217.96515348771436	
55.0	193.62154548124545	adult	0.0		46	face	adult-12.jpg	0.0	218.39005804934686	0.3833191814592283
55.0	193.89666546026092	pulse	0.0	t		face	adult-12.jpg	0.0	218.66517802836233	
55.0	194.00486466270468	ISI	1.0		234	face	adult-12.jpg	0.0	218.7733772308061	2.024983767856156
55.0	194.59667400270018	pulse	1.0	t		face	adult-12.jpg	0.0	219.3651865708016	
55.0	195.29665115242915	pulse	1.0	t		face	adult-12.jpg	0.0	220.06516372053056	
55.0	195.996637055895	pulse	1.0	t		face	adult-12.jpg	0.0	220.76514962399642	
56.0	196.02984843056083	car	0.0		45	object	car-130.jpg	0.0	220.79836099866225	0.37496570195435197
56.0	196.40481413251518	ISI	1.0		235	object	car-130.jpg	0.0	221.1733267006166	2.0166339105867337
56.0	196.69662024268382	pulse	1.0	t		object	car-130.jpg	0.0	221.46513281078524	
56.0	197.396588940529	pulse	1.0	t		object	car-130.jpg	0.0	222.1651015086304	
56.0	198.0965654865522	pulse	1.0	t		object	car-130.jpg	0.0	222.86507805465362	
57.0	198.42144804310192	adult	0.0		46	face	adult-120.jpg	0.0	223.18996061120333	0.3832554904797689
57.0	198.7964880008908	pulse	0.0	t		face	adult-120.jpg	0.0	223.56500056899222	
57.0	198.8047035335817	ISI	1.0		234	face	adult-120.jpg	0.0	223.5732161016831	2.0166565495605937
57.0	199.49646273579629	pulse	1.0	t		face	adult-120.jpg	0.0	224.2649753038977	
57.0	200.1964905968266	pulse	1.0	t		face	adult-120.jpg	0.0	224.96500316492802	
58.0	200.82136008314228	limb	0.0		46	body	limb-84.jpg	0.0	225.5898726512437	0.38329020357286936
58.0	200.8964535594655	pulse	0.0	t		body	limb-84.jpg	0.0	225.6649661275669	
58.0	201.20465028671515	ISI	1.0		234	body	limb-84.jpg	0.0	225.97316285481656	2.01662093090863
58.0	201.59641048504454	pulse	1.0	t		body	limb-84.jpg	0.0	226.36492305314596	
58.0	202.2963837106845	pulse	1.0	t		body	limb-84.jpg	0.0	227.0648962787859	
58.0	202.9963717271212	pulse	1.0	t		body	limb-84.jpg	0.0	227.7648842952226	
59.0	203.22127121762378	house	0.0		46	place	house-27.jpg	0.0	227.9897837857252	0.3833146536644563
59.0	203.60458587128824	ISI	1.0		474	place	house-27.jpg	0.0	228.37309843938965	4.016618516084691
59.0	203.69639143812128	pulse	1.0	t		place	house-27.jpg	0.0	228.4649040062227	
59.0	204.39635470261283	pulse	1.0	t		place	house-27.jpg	0.0	229.16486727071424	
59.0	205.09639041182118	pulse	1.0	t		place	house-27.jpg	0.0	229.8649029799226	
59.0	205.7963832579053	pulse	1.0	t		place	house-27.jpg	0.0	230.5648958260067	
59.0	206.49634863536767	pulse	1.0	t		place	house-27.jpg	0.0	231.26486120346908	
59.0	207.19633182215648	pulse	1.0	t		place	house-27.jpg	0.0	231.9648443902579	
60.0	207.62120438737293	limb	0.0		46	body	limb-27.jpg	0.0	232.38971695547434	0.383252471949163
60.0	207.89625071425962	pulse	0.0	t		body	limb-27.jpg	0.0	232.66476328236104	
60.0	208.0044568593221	ISI	1.0		234	body	limb-27.jpg	0.0	232.7729694274235	2.0249747122661574
60.0	208.59632415509077	pulse	1.0	t		body	limb-27.jpg	0.0	233.36483672319218	
60.0	209.296213767454	pulse	1.0	t		body	limb-27.jpg	0.0	234.0647263355554	
60.0	209.9963702178561	pulse	1.0	t		body	limb-27.jpg	0.0	234.76488278595752	
61.0	210.02943157158825	car	0.0		45	object	car-116.jpg	0.0	234.79794413968966	0.37499981134214977
61.0	210.4044313829304	ISI	1.0		233	object	car-116.jpg	0.0	235.1729439510318	2.0166088567889346
61.0	210.69630873040342	pulse	1.0	t		object	car-116.jpg	0.0	235.46482129850483	
61.0	211.396154574084	pulse	1.0	t		object	car-116.jpg	0.0	236.1646671421854	
61.0	212.09613112010675	pulse	1.0	t		object	car-116.jpg	0.0	236.86464368820816	
62.0	212.42104023971933	limb	0.0		46	body	limb-131.jpg	0.0	237.18955280782075	0.38329986286817075
62.0	212.7961535477839	pulse	0.0	t		body	limb-131.jpg	0.0	237.5646661158853	
62.0	212.8043401025875	ISI	1.0		234	body	limb-131.jpg	0.0	237.57285267068892	2.016653531031352
62.0	213.49610171962604	pulse	1.0	t		body	limb-131.jpg	0.0	238.26461428772745	
62.0	214.1961404473641	pulse	1.0	t		body	limb-131.jpg	0.0	238.9646530154655	
63.0	214.82099363361885	number	0.0		46	character	number-122.jpg	0.0	239.58950620172027	0.3832868831896121
63.0	214.8960539061136	pulse	0.0	t		character	number-122.jpg	0.0	239.664566474215	
63.0	215.20428051680847	ISI	1.0		353	character	number-122.jpg	0.0	239.97279308490988	3.016598895640527
63.0	215.5960334706665	pulse	1.0	t		character	number-122.jpg	0.0	240.3645460387679	
63.0	216.29601182780743	pulse	1.0	t		character	number-122.jpg	0.0	241.06452439590885	
63.0	216.99601433318685	pulse	1.0	t		character	number-122.jpg	0.0	241.76452690128826	
63.0	217.6959818236205	pulse	1.0	t		character	number-122.jpg	0.0	242.46449439172193	
64.0	218.220879412449	car	0.0		46	object	car-46.jpg	0.0	242.9893919805504	0.38330861660506343
64.0	218.3959734622931	pulse	0.0	t		object	car-46.jpg	0.0	243.16448603039453	
64.0	218.60418802905406	ISI	1.0		474	object	car-46.jpg	0.0	243.37270059715547	4.024941508437678
64.0	219.09596510096526	pulse	1.0	t		object	car-46.jpg	0.0	243.86447766906667	
64.0	219.79592383766203	pulse	1.0	t		object	car-46.jpg	0.0	244.56443640576344	
64.0	220.49589887442016	pulse	1.0	t		object	car-46.jpg	0.0	245.26441144252158	
64.0	221.19594846886594	pulse	1.0	t		object	car-46.jpg	0.0	245.96446103696735	
64.0	221.8960107411367	pulse	1.0	t		object	car-46.jpg	0.0	246.66452330923812	
64.0	222.59590729611864	pulse	1.0	t		object	car-46.jpg	0.0	247.36441986422005	
65.0	222.62912953749174	adult	0.0		45	face	adult-129.jpg	0.0	247.39764210559315	0.37495815562988355
65.0	223.00408769312162	ISI	1.0		239	face	adult-129.jpg	0.0	247.77260026122303	1.9999833980859876
65.0	223.29589712367306	pulse	1.0	t		face	adult-129.jpg	0.0	248.06440969177447	
65.0	223.99588453640354	pulse	1.0	t		face	adult-129.jpg	0.0	248.76439710450495	
65.0	224.69587315654599	pulse	1.0	t		face	adult-129.jpg	0.0	249.4643857246474	
66.0	225.0040710912076	baseline	0.0		708		baseline	0.0	249.77258365930902	5.899850009251622
66.0	225.39584577848018	pulse	0.0	t			baseline	0.0	250.1643583465816	
66.0	226.09582775785702	pulse	0.0	t			baseline	0.0	250.86434032595844	
66.0	226.79580400202713	pulse	0.0	t			baseline	0.0	251.56431657012854	
66.0	227.49579201846382	pulse	0.0	t			baseline	0.0	252.26430458656523	
66.0	228.1957679607808	pulse	0.0	t			baseline	0.0	252.96428052888223	
66.0	228.89574812903948	pulse	0.0	t			baseline	0.0	253.6642606971409	
66.0	229.59573976771208	pulse	0.0	t			baseline	0.0	254.3642523358135	
66.0	230.29570393776248	pulse	0.0	t			baseline	0.0	255.0642165058639	
66.0	230.90392110045923	ISI	1.0		12		baseline	0.0	255.67243366856064	0.10000811984536995
66.0	230.99570010422985	pulse	1.0	t			baseline	0.0	255.76421267233127	
