trial_nr	onset	event_type	phase	response	nr_frames	rating_type	face_id	repetition	session	rating	onset_abs	duration
0.0	0.008553406874852953	cue	0.0		479						72.39421467795546	3.9921432780174655
0.0	4.0006966848923184	fix	1.0		120						76.38635795597293	1.0251512904942501
0.0	5.025847975386569	face	0.0		146	attractiveness	137	1.0	1		77.41150924646718	1.2753755699086469
0.0	6.3012235452952154	rating	1.0		411	attractiveness	137	1.0	1		78.68688481637582	3.433509758415312
0.0	9.734733303710527	fix	2.0		60	attractiveness	137	1.0	1	-1.35	82.12039457479113	0.5167258707951987
1.0	10.251459174505726	face	0.0		147	attractiveness	062	1.0	1		82.63712044558633	1.2334914659149945
1.0	11.48495064042072	rating	1.0		234	attractiveness	062	1.0	1		83.87061191150133	1.9585529842734104
1.0	13.44350362469413	fix	2.0		60	attractiveness	062	1.0	1	-2.74	85.82916489577474	0.5167560564477753
2.0	13.960259681141906	face	0.0		147	attractiveness	087	1.0	1		86.34592095222251	1.2334588654084655
2.0	15.193718546550372	rating	1.0		144	attractiveness	087	1.0	1		87.57937981763098	1.2084769164248428
2.0	16.402195462975214	fix	2.0		60	attractiveness	087	1.0	1	-1.2200000000000002	88.78785673405582	0.5084492663700075
3.0	16.910644729345222	face	0.0		148	attractiveness	092	1.0	1		89.29630600042583	1.241787087299599
3.0	18.15243181664482	rating	1.0		157	attractiveness	092	1.0	1		90.53809308772543	1.3168071909494756
3.0	19.469239007594297	fix	2.0		60	attractiveness	092	1.0	1	-2.3	91.8549002786749	0.5084190807137929
4.0	19.97765808830809	face	0.0		148	attractiveness	121	1.0	1		92.3633193593887	1.241789200295898
4.0	21.219447288603988	rating	1.0		232	attractiveness	121	1.0	1		93.6051085596846	1.9418995590494887
4.0	23.161346847653476	fix	2.0		60	attractiveness	121	1.0	1	-0.43999999999999995	95.54700811873408	0.5084577183515648
5.0	23.66980456600504	face	0.0		148	attractiveness	117	1.0	1		96.05546583708565	1.2417550905083772
5.0	24.91155965651342	rating	1.0		91	attractiveness	117	1.0	1		97.29722092759403	0.7667645084329706
5.0	25.67832416494639	fix	2.0		60	attractiveness	117	1.0	1	0.8399999999999999	98.063985436027	0.5167506230318395
6.0	26.19507478797823	face	0.0		147	attractiveness	018	1.0	1		98.58073605905884	1.2334549412698834
6.0	27.428529729248112	rating	1.0		106	attractiveness	018	1.0	1		99.81419100032872	0.8917714511335362
6.0	28.320301180381648	fix	2.0		60	attractiveness	018	1.0	1	0.6799999999999997	100.70596245146226	0.5167533397398074
7.0	28.837054520121455	face	0.0		147	attractiveness	144	1.0	1		101.22271579120206	1.2334615821127954
7.0	30.07051610223425	rating	1.0		187	attractiveness	144	1.0	1		102.45617737331486	1.5668542805688048
7.0	31.637370382803056	fix	2.0		60	attractiveness	144	1.0	1	0.6699999999999999	104.02303165388366	0.5167518304588157
8.0	32.15412221326187	face	0.0		147	attractiveness	038	1.0	1		104.53978348434248	1.2334603746858193
8.0	33.38758258794769	rating	1.0		178	attractiveness	038	1.0	1		105.7732438590283	1.4918459493273986
8.0	34.87942853727509	fix	2.0		60	attractiveness	038	1.0	1	-3.62	107.2650898083557	0.5167693381372374
9.0	35.39619787541233	face	0.0		147	attractiveness	043	1.0	1		107.78185914649293	1.2334489041422785
9.0	36.629646779554605	rating	1.0		162	attractiveness	043	1.0	1		109.01530805063521	1.3584896547727112
9.0	37.988136434327316	fix	2.0		60	attractiveness	043	1.0	1	0.8600000000000003	110.37379770540792	0.5167515286011621
10.0	38.50488796292848	face	0.0		147	attractiveness	009	1.0	1		110.89054923400909	1.2335128977247223
10.0	39.7384008606532	rating	1.0		102	attractiveness	009	1.0	1		112.12406213173381	0.8583849105561967
10.0	40.5967857712094	fix	2.0		60	attractiveness	009	1.0	1	2.09	112.98244704229	0.5167545471667836
11.0	41.11354031837618	face	0.0		147	attractiveness	099	1.0	1		113.49920158945679	1.2334588654048275
11.0	42.34699918378101	rating	1.0		71	attractiveness	099	1.0	1		114.73266045486162	0.6000708759129338
11.0	42.94707005969394	fix	2.0		60	attractiveness	099	1.0	1	-0.94	115.33273133077455	0.5167524341741228
12.0	43.463822493868065	face	0.0		147	attractiveness	024	1.0	1		115.84948376494867	1.2334576579778513
12.0	44.697280151845916	rating	1.0		83	attractiveness	024	1.0	1		117.08294142292652	0.7000862102286192
12.0	45.397366362074536	fix	2.0		60	attractiveness	024	1.0	1	-0.8500000000000001	117.78302763315514	0.5167491137472098
13.0	45.914115475821745	face	0.0		147	attractiveness	034	1.0	1		118.29977674690235	1.2334742600905884
13.0	47.147589735912334	rating	1.0		65	attractiveness	034	1.0	1		119.53325100699294	0.550052040067385
13.0	47.69764177597972	fix	2.0		60	attractiveness	034	1.0	1	-1.2400000000000002	120.08330304706033	0.5167518304588157
14.0	48.214393606438534	face	0.0		147	attractiveness	070	1.0	1		120.60005487751914	1.2334615821127954
14.0	49.44785518855133	rating	1.0		98	attractiveness	070	1.0	1		121.83351645963194	0.8250997937720967
14.0	50.27295498232343	fix	2.0		60	attractiveness	070	1.0	1	-3.25	122.65861625340403	0.5167596787287039
15.0	50.78971466105213	face	0.0		147	attractiveness	066	1.0	1		123.17537593213274	1.2334612802587799
15.0	52.02317594131091	rating	1.0		143	attractiveness	066	1.0	1		124.40883721239152	1.2001411481178366
15.0	53.22331708942875	fix	2.0		60	attractiveness	066	1.0	1	1.88	125.60897836050935	0.5167457933275728
16.0	53.74006288275632	face	0.0		147	attractiveness	064	1.0	1		126.12572415383693	1.2334621858244645
16.0	54.973525068580784	rating	1.0		81	attractiveness	064	1.0	1		127.35918633966139	0.6834122587570164
16.0	55.6569373273378	fix	2.0		60	attractiveness	064	1.0	1	-1.35	128.0425985984184	0.5167623954366718
17.0	56.17369972277447	face	0.0		147	attractiveness	036	1.0	1		128.55936099385508	1.2334504134232702
17.0	57.40715013619774	rating	1.0		61	attractiveness	036	1.0	1		129.79281140727835	0.5167273800798284
17.0	57.92387751627757	fix	2.0		60	attractiveness	036	1.0	1	1.17	130.30953878735818	0.5167557545937598
18.0	58.44063327087133	face	0.0		147	attractiveness	027	1.0	1		130.82629454195194	1.2334579598355049
18.0	59.674091230706836	rating	1.0		69	attractiveness	027	1.0	1		132.05975250178744	0.5834026597185584
18.0	60.257493890425394	fix	2.0		60	attractiveness	027	1.0	1	-0.6099999999999999	132.643155161506	0.5167524341704848
19.0	60.77424632459588	face	0.0		147	attractiveness	011	1.0	1		133.1599075956765	1.2334606765434728
19.0	62.00770700113935	rating	1.0		65	attractiveness	011	1.0	1		134.39336827221996	0.5500710570304364
19.0	62.55777805816979	fix	2.0		60	attractiveness	011	1.0	1	-1.87	134.9434393292504	0.5167551508784527
20.0	63.07453320904824	face	0.0		147	attractiveness	033	1.0	1		135.46019448012885	1.2334516208502464
20.0	64.30798482989849	rating	1.0		64	attractiveness	033	1.0	1		136.6936461009791	0.541730760873179
20.0	64.84971559077167	fix	2.0		60	attractiveness	033	1.0	1	-0.6499999999999999	137.23537686185227	0.5167497174588789
21.0	65.36646530823054	face	0.0		147	attractiveness	124	1.0	1		137.75212657931115	1.2334627895434096
21.0	66.59992809777395	rating	1.0		153	attractiveness	124	1.0	1		138.98558936885456	1.2834924922244682
21.0	67.88342058999842	fix	2.0		60	attractiveness	124	1.0	1	3.25	140.26908186107903	0.5167557545901218
22.0	68.40017634458854	face	0.0		147	attractiveness	030	1.0	1		140.78583761566915	1.2334504134232702
22.0	69.63362675801181	rating	1.0		106	attractiveness	030	1.0	1		142.01928802909242	0.8917726585605124
22.0	70.52539941657233	fix	2.0		60	attractiveness	030	1.0	1	2.38	142.91106068765293	0.5167521323128312
23.0	71.04215154888516	face	0.0		147	attractiveness	130	1.0	1		143.42781281996577	1.2334627895434096
23.0	72.27561433842857	rating	1.0		96	attractiveness	130	1.0	1		144.66127560950918	0.8084279552967928
23.0	73.08404229372536	fix	2.0		60	attractiveness	130	1.0	1	-2.77	145.46970356480597	0.5167542453091301
24.0	73.60079653903449	face	0.0		147	attractiveness	012	1.0	1		145.9864578101151	1.2334676192440384
24.0	74.83426415827853	rating	1.0		363	attractiveness	012	1.0	1		147.21992542935914	3.033690208256303
24.0	77.86795436653483	fix	2.0		60	attractiveness	012	1.0	1	-0.8999999999999999	150.25361563761544	0.5167563583090669
25.0	78.3847107248439	face	0.0		147	attractiveness	061	1.0	1		150.7703719959245	1.2334567524085287
25.0	79.61816747725243	rating	1.0		92	attractiveness	061	1.0	1		152.00382874833304	0.7750903154774278
25.0	80.39325779272986	fix	2.0		60	attractiveness	061	1.0	1	-2.71	152.77891906381046	0.5167626972906874
26.0	80.91002049002054	face	0.0		147	attractiveness	042	1.0	1		153.29568176110115	1.2334588654084655
26.0	82.14347935542901	rating	1.0		136	attractiveness	042	1.0	1		154.52914062650962	1.141803447924758
26.0	83.28528280335377	fix	2.0		60	attractiveness	042	1.0	1	-1.56	155.67094407443437	0.5167451896159037
27.0	83.80202799296967	face	0.0		147	attractiveness	006	1.0	1		156.18768926405028	1.233459167262481
27.0	85.03548716023215	rating	1.0		222	attractiveness	006	1.0	1		157.42114843131276	1.8585578743477527
27.0	86.8940450345799	fix	2.0		60	attractiveness	006	1.0	1	-1.9900000000000002	159.2797063056605	0.5167473026122025
28.0	87.4107923371921	face	0.0		147	attractiveness	141	1.0	1		159.7964536082727	1.2334655062477395
28.0	88.64425784343985	rating	1.0		65	attractiveness	141	1.0	1		161.02991911452045	0.5500638124722173
28.0	89.19432165591206	fix	2.0		60	attractiveness	141	1.0	1	0.3700000000000001	161.57998292699267	0.5167560564514133
29.0	89.71107771236348	face	0.0		147	attractiveness	005	1.0	1		162.09673898344408	1.2334564505508752
29.0	90.94453416291435	rating	1.0		92	attractiveness	005	1.0	1		163.33019543399496	0.775091522904404
29.0	91.71962568581876	fix	2.0		60	attractiveness	005	1.0	1	-2.0300000000000002	164.10528695689936	0.5167796012610779
30.0	92.23640528707983	face	0.0		147	attractiveness	082	1.0	1		164.62206655816044	1.2334335094565176
30.0	93.46983879653635	rating	1.0		80	attractiveness	082	1.0	1		165.85550006761696	0.6750801127236628
30.0	94.14491890926001	fix	2.0		60	attractiveness	082	1.0	1	1.6500000000000004	166.53058018034062	0.5167563583054289
31.0	94.66167526756544	face	0.0		147	attractiveness	100	1.0	1		167.04733653864605	1.2334579598355049
31.0	95.89513322740095	rating	1.0		143	attractiveness	100	1.0	1		168.28079449848155	1.2001432611141354
31.0	97.09527648851508	fix	2.0		59	attractiveness	100	1.0	1	0.34999999999999964	169.4809377595957	0.5167563583054289
32.0	97.61203284682051	face	0.0		147	attractiveness	044	1.0	1		169.99769411790112	1.2334639969667478
32.0	98.84549684378726	rating	1.0		216	attractiveness	044	1.0	1		171.23115811486787	1.8085414533561561
32.0	100.65403829714342	fix	2.0		60	attractiveness	044	1.0	1	-1.04	173.03969956822402	0.5167530378857919
33.0	101.17079133502921	face	0.0		147	attractiveness	039	1.0	1		173.55645260610981	1.233468524813361
33.0	102.40425985984257	rating	1.0		63	attractiveness	039	1.0	1		174.78992113092318	0.5333877480043157
33.0	102.93764760784688	fix	2.0		60	attractiveness	039	1.0	1	0.3099999999999996	175.3233088789275	0.5167527360281383
34.0	103.45440034387502	face	0.0		147	attractiveness	172	1.0	1		175.84006161495563	1.2334615821164334
34.0	104.68786192599146	rating	1.0		89	attractiveness	172	1.0	1		177.07352319707206	0.7500869346804393
34.0	105.4379488606719	fix	2.0		60	attractiveness	172	1.0	1	-1.4	177.8236101317525	0.5167817142573767
35.0	105.95473057492927	face	0.0		147	attractiveness	136	1.0	1		178.34039184600988	1.2334313964602188
35.0	107.18816197138949	rating	1.0		78	attractiveness	136	1.0	1		179.5738232424701	0.6584115946716338
35.0	107.84657356606112	fix	2.0		60	attractiveness	136	1.0	1	-0.8599999999999999	180.23223483714173	0.516756962020736
36.0	108.36333052808186	face	0.0		147	attractiveness	091	1.0	1		180.74899179916247	1.2334570542661822
36.0	109.59678758234804	rating	1.0		51	attractiveness	091	1.0	1		181.98244885342865	0.43338297867012443
36.0	110.03017056101817	fix	2.0		60	attractiveness	091	1.0	1	-0.3999999999999999	182.41583183209877	0.5167539434551145
37.0	110.54692450447328	face	0.0		147	attractiveness	101	1.0	1		182.9325857755539	1.233462487682118
37.0	111.7803869921554	rating	1.0		69	attractiveness	101	1.0	1		184.166048263236	0.5833987355836143
37.0	112.36378572773901	fix	2.0		60	attractiveness	101	1.0	1	1.08	184.74944699881962	0.5167596787287039
38.0	112.88054540646772	face	0.0		147	attractiveness	126	1.0	1		185.26620667754833	1.2334609784011263
38.0	114.11400638486884	rating	1.0		185	attractiveness	126	1.0	1		186.49966765594945	1.5501785179585568
38.0	115.6641849028274	fix	2.0		60	attractiveness	126	1.0	1	-0.8300000000000001	188.049846173908	0.5167578675900586
39.0	116.18094277041746	face	0.0		147	attractiveness	102	1.0	1		188.56660404149807	1.2334549412698834
39.0	117.41439771168734	rating	1.0		71	attractiveness	102	1.0	1		189.80005898276795	0.6000696684895956
39.0	118.01446738017694	fix	2.0		60	attractiveness	102	1.0	1	-2.51	190.40012865125755	0.5000606731628068
40.0	118.51452805333975	cue	0.0		480						190.90018932442035	4.000484781601699
40.0	122.51501283494144	fix	1.0		120						194.90067410602205	1.016812805479276
40.0	123.53182564042072	face	0.0		147	trustworthiness	038	1.0	1		195.91748691150133	1.2334588654048275
40.0	124.76528450582555	rating	1.0		296	trustworthiness	038	1.0	1		197.15094577690616	2.475304211020557
40.0	127.2405887168461	fix	2.0		60	trustworthiness	038	1.0	1	1.2199999999999998	199.6262499879267	0.5167509248858551
41.0	127.75733964173196	face	0.0		147	trustworthiness	033	1.0	1		200.14300091281257	1.2334561486968596
41.0	128.99079579042882	rating	1.0		94	trustworthiness	033	1.0	1		201.37645706150943	0.7917609465257556
41.0	129.78255673695458	fix	2.0		60	trustworthiness	033	1.0	1	-1.7200000000000002	202.16821800803518	0.516750924889493
42.0	130.29930766184407	face	0.0		147	trustworthiness	091	1.0	1		202.68496893292468	1.2334615821127954
42.0	131.53276924395686	rating	1.0		189	trustworthiness	091	1.0	1		203.91843051503747	1.583521289339842
42.0	133.1162905332967	fix	2.0		60	trustworthiness	091	1.0	1	1.1500000000000004	205.5019518043773	0.5167521323128312
43.0	133.63304266560954	face	0.0		147	trustworthiness	036	1.0	1		206.01870393669014	1.2334621858281025
43.0	134.86650485143764	rating	1.0		118	trustworthiness	036	1.0	1		207.25216612251825	0.9917843705952691
43.0	135.8582892220329	fix	2.0		60	trustworthiness	036	1.0	1	1.8399999999999999	208.24395049311352	0.5167548490207992
44.0	136.3750440710537	face	0.0		147	trustworthiness	102	1.0	1		208.76070534213432	1.2334582616931584
44.0	137.60850233274687	rating	1.0		81	trustworthiness	102	1.0	1		209.99416360382747	0.683415881034307
44.0	138.29191821378117	fix	2.0		60	trustworthiness	102	1.0	1	-1.38	210.67757948486178	0.5167515286011621
45.0	138.80866974238234	face	0.0		147	trustworthiness	043	1.0	1		211.19433101346294	1.2334600728354417
45.0	140.04212981521778	rating	1.0		87	trustworthiness	043	1.0	1		212.42779108629838	0.7334280760369438
45.0	140.77555789125472	fix	2.0		60	trustworthiness	043	1.0	1	0.6600000000000001	213.16121916233533	0.5167512267435086
46.0	141.29230911799823	face	0.0		147	trustworthiness	064	1.0	1		213.67797038907884	1.2334615821164334
46.0	142.52577070011466	rating	1.0		151	trustworthiness	064	1.0	1		214.91143197119527	1.2668076739173557
46.0	143.79257837403202	fix	2.0		60	trustworthiness	064	1.0	1	-1.85	216.17823964511263	0.5167515286011621
47.0	144.30932990263318	face	0.0		147	trustworthiness	121	1.0	1		216.6949911737138	1.2334639969667478
47.0	145.54279389959993	rating	1.0		201	trustworthiness	121	1.0	1		217.92845517068054	1.6835351143672597
47.0	147.2263290139672	fix	2.0		60	trustworthiness	121	1.0	1	-1.71	219.6119902850478	0.5167527360281383
48.0	147.74308174999533	face	0.0		147	trustworthiness	136	1.0	1		220.12874302107593	1.2334606765471108
48.0	148.97654242654244	rating	1.0		103	trustworthiness	136	1.0	1		221.36220369762304	0.8667970485657861
48.0	149.84333947510822	fix	2.0		60	trustworthiness	136	1.0	1	-3.31	222.22900074618883	0.5167322097840952
49.0	150.36007168489232	face	0.0		147	trustworthiness	066	1.0	1		222.74573295597293	1.2334540357005608
49.0	151.59352572059288	rating	1.0		97	trustworthiness	066	1.0	1		223.9791869916735	0.8167616106111382
49.0	152.41028733120402	fix	2.0		60	trustworthiness	066	1.0	1	1.33	224.79594860228462	0.5167545471667836
50.0	152.9270418783708	face	0.0		147	trustworthiness	130	1.0	1		225.3127031494514	1.2334902584843803
50.0	154.16053213685518	rating	1.0		217	trustworthiness	130	1.0	1		226.5461934079358	1.8168591102730716
50.0	155.97739124712825	fix	2.0		60	trustworthiness	130	1.0	1	1.4400000000000004	228.36305251820886	0.5167473026085645
51.0	156.49413854973682	face	0.0		147	trustworthiness	034	1.0	1		228.87979982081742	1.2334588654048275
51.0	157.72759741514164	rating	1.0		81	trustworthiness	034	1.0	1		230.11325868622225	0.6834134661839926
51.0	158.41101088132564	fix	2.0		60	trustworthiness	034	1.0	1	0.2400000000000002	230.79667215240625	0.5167524341704848
52.0	158.92776331549612	face	0.0		147	trustworthiness	024	1.0	1		231.31342458657673	1.2334627895397716
52.0	160.1612261050359	rating	1.0		233	trustworthiness	024	1.0	1		232.5468873761165	1.9502329125061806
52.0	162.11145901754207	fix	2.0		60	trustworthiness	024	1.0	1	-2.06	234.49712028862268	0.5167515286011621
53.0	162.62821054614324	face	0.0		147	trustworthiness	018	1.0	1		235.01387181722384	1.233461883970449
53.0	163.86167243011369	rating	1.0		224	trustworthiness	018	1.0	1		236.2473337011943	1.8752239775531052
53.0	165.7368964076668	fix	2.0		60	trustworthiness	018	1.0	1	0.7699999999999996	238.1225576787474	0.5167533397398074
54.0	166.2536497474066	face	0.0		147	trustworthiness	087	1.0	1		238.6393110184872	1.2334588654048275
54.0	167.48710861281143	rating	1.0		83	trustworthiness	087	1.0	1		239.87276988389203	0.7000831916629977
54.0	168.18719180447442	fix	2.0		60	trustworthiness	087	1.0	1	0.71	240.57285307555503	0.5167506230318395
55.0	168.70394242750626	face	0.0		147	trustworthiness	141	1.0	1		241.08960369858687	1.2334633932550787
55.0	169.93740582076134	rating	1.0		111	trustworthiness	141	1.0	1		242.32306709184195	0.9334505945371347
55.0	170.87085641529848	fix	2.0		60	trustworthiness	141	1.0	1	-1.38	243.25651768637908	0.5167515286011621
56.0	171.38760794389964	face	0.0		147	trustworthiness	006	1.0	1		243.77326921498025	1.2334543375582143
56.0	172.62106228145785	rating	1.0		112	trustworthiness	006	1.0	1		245.00672355253846	0.9417785145742528
56.0	173.5628407960321	fix	2.0		59	trustworthiness	006	1.0	1	-2.0	245.9485020671127	0.5167527360281383
57.0	174.07959353206024	face	0.0		147	trustworthiness	044	1.0	1		246.46525480314085	1.2334830139297992
57.0	175.31307654599004	rating	1.0		57	trustworthiness	044	1.0	1		247.69873781707065	0.48336800658580614
57.0	175.79644455257585	fix	2.0		60	trustworthiness	044	1.0	1	-1.0499999999999998	248.18210582365646	0.5167500193201704
58.0	176.31319457189602	face	0.0		147	trustworthiness	011	1.0	1		248.69885584297663	1.2334636951090943
58.0	177.5466582670051	rating	1.0		153	trustworthiness	011	1.0	1		249.93231953808572	1.2834849458122335
58.0	178.83014321281735	fix	2.0		60	trustworthiness	011	1.0	1	0.8499999999999996	251.21580448389795	0.5167512267435086
59.0	179.34689443956086	face	0.0		147	trustworthiness	012	1.0	1		251.73255571064146	1.2334636951127322
59.0	180.5803581346736	rating	1.0		69	trustworthiness	012	1.0	1		252.9660194057542	0.5833987355799763
59.0	181.16375687025356	fix	2.0		60	trustworthiness	012	1.0	1	-1.27	253.54941814133417	0.516754245312768
60.0	181.68051111556633	face	0.0		147	trustworthiness	027	1.0	1		254.06617238664694	1.233467921101692
60.0	182.91397903666802	rating	1.0		85	trustworthiness	027	1.0	1		255.29964030774863	0.7167498985763814
60.0	183.6307289352444	fix	2.0		60	trustworthiness	027	1.0	1	1.0099999999999998	256.016390206325	0.5167539434514765
61.0	184.14748287869588	face	0.0		147	trustworthiness	101	1.0	1		256.5331441497765	1.233455846842844
61.0	185.38093872553873	rating	1.0		98	trustworthiness	101	1.0	1		257.76659999661933	0.8250955677794991
61.0	186.20603429331823	fix	2.0		60	trustworthiness	101	1.0	1	1.4100000000000001	258.59169556439883	0.5167512267435086
62.0	186.72278552006173	face	0.0		147	trustworthiness	005	1.0	1		259.10844679114234	1.233462487685756
62.0	187.9562480077475	rating	1.0		88	trustworthiness	005	1.0	1		260.3419092788281	0.7417535812273854
62.0	188.69800158897488	fix	2.0		60	trustworthiness	005	1.0	1	2.0700000000000003	261.0836628600555	0.5167509248858551
63.0	189.21475251386073	face	0.0		147	trustworthiness	070	1.0	1		261.60041378494134	1.2334639969667478
63.0	190.44821651082748	rating	1.0		76	trustworthiness	070	1.0	1		262.8338777819081	0.641744284046581
63.0	191.08996079487406	fix	2.0		60	trustworthiness	070	1.0	1	-2.85	263.47562206595467	0.5167539434514765
64.0	191.60671473832554	face	0.0		147	trustworthiness	039	1.0	1		263.99237600940614	1.2334537338465452
64.0	192.84016847217208	rating	1.0		137	trustworthiness	039	1.0	1		265.2258297432527	1.1501383106660796
64.0	193.99030678283816	fix	2.0		60	trustworthiness	039	1.0	1	1.5099999999999998	266.37596805391877	0.5167527360281383
65.0	194.5070595188663	face	0.0		147	trustworthiness	062	1.0	1		266.8927207899469	1.2334594691164966
65.0	195.7405189879828	rating	1.0		183	trustworthiness	062	1.0	1		268.1261802590634	1.5335226778806827
65.0	197.27404166586348	fix	2.0		60	trustworthiness	062	1.0	1	-0.5899999999999999	269.6597029369441	0.5167542453091301
66.0	197.7907959111726	face	0.0		147	trustworthiness	124	1.0	1		270.1764571822532	1.2334522245619155
66.0	199.02424813573452	rating	1.0		131	trustworthiness	124	1.0	1		271.40990940681513	1.100137888068275
66.0	200.1243860238028	fix	2.0		60	trustworthiness	124	1.0	1	2.76	272.5100472948834	0.5167518304551777
67.0	200.64113785425798	face	0.0		147	trustworthiness	092	1.0	1		273.0267991253386	1.233462487685756
67.0	201.87460034194373	rating	1.0		63	trustworthiness	092	1.0	1		274.26026161302434	0.5333889554312918
67.0	202.40798929737502	fix	2.0		60	trustworthiness	092	1.0	1	-1.7799999999999998	274.79365056845563	0.5167506230318395
68.0	202.92473992040686	face	0.0		147	trustworthiness	082	1.0	1		275.3104011914875	1.2334609784011263
68.0	204.158200898808	rating	1.0		73	trustworthiness	082	1.0	1		276.5438621698886	0.6167381865416246
68.0	204.77493908534962	fix	2.0		60	trustworthiness	082	1.0	1	1.38	277.1606003564302	0.516753641597461
69.0	205.29169272694708	face	0.0		147	trustworthiness	144	1.0	1		277.6773539980277	1.2334661099630466
69.0	206.52515883691012	rating	1.0		53	trustworthiness	144	1.0	1		278.91082010799073	0.45005481714906637
69.0	206.9752136540592	fix	2.0		60	trustworthiness	144	1.0	1	1.08	279.3608749251398	0.516744284042943
70.0	207.49195793810213	face	0.0		147	trustworthiness	172	1.0	1		279.87761920918274	1.2334694303863216
70.0	208.72542736848845	rating	1.0		76	trustworthiness	172	1.0	1		281.11108863956906	0.6417355302037322
70.0	209.3671628986922	fix	2.0		60	trustworthiness	172	1.0	1	1.9400000000000004	281.7528241697728	0.5167560564514133
71.0	209.8839189551436	face	0.0		147	trustworthiness	009	1.0	1		282.2695802262242	1.2334576579778513
71.0	211.11737661312145	rating	1.0		83	trustworthiness	009	1.0	1		283.50303788420206	0.7000813805243524
71.0	211.8174579936458	fix	2.0		60	trustworthiness	009	1.0	1	-1.1	284.2031192647264	0.5167584713017277
72.0	212.33421646494753	face	0.0		147	trustworthiness	042	1.0	1		284.71987773602814	1.2334561486968596
72.0	213.5676726136444	rating	1.0		64	trustworthiness	042	1.0	1		285.953333884725	0.5417286478732422
72.0	214.10940126151763	fix	2.0		60	trustworthiness	042	1.0	1	-2.4299999999999997	286.49506253259824	0.5167506230318395
73.0	214.62615188454947	face	0.0		147	trustworthiness	100	1.0	1		287.0118131556301	1.2334612802587799
73.0	215.85961316480825	rating	1.0		186	trustworthiness	100	1.0	1		288.24527443588886	1.5585287753820012
73.0	217.41814194019025	fix	2.0		60	trustworthiness	100	1.0	1	-0.5	289.80380321127086	0.5167551508784527
74.0	217.9348970910687	face	0.0		147	trustworthiness	030	1.0	1		290.3205583621493	1.2334549412698834
74.0	219.1683520323386	rating	1.0		63	trustworthiness	030	1.0	1		291.5540133034192	0.5333889554312918
74.0	219.70174098776988	fix	2.0		60	trustworthiness	030	1.0	1	0.9900000000000002	292.0874022588505	0.5167545471704216
75.0	220.2184955349403	face	0.0		147	trustworthiness	137	1.0	1		292.6041568060209	1.2334661099594086
75.0	221.4519616448997	rating	1.0		73	trustworthiness	137	1.0	1		293.8376229159803	0.6167336586950114
75.0	222.06869530359472	fix	2.0		60	trustworthiness	137	1.0	1	1.4000000000000004	294.45435657467533	0.5167563583054289
76.0	222.58545166190015	face	0.0		147	trustworthiness	061	1.0	1		294.97111293298076	1.2334821083604766
76.0	223.81893377026063	rating	1.0		85	trustworthiness	061	1.0	1		296.20459504134124	0.7167269574783859
76.0	224.535660727739	fix	2.0		60	trustworthiness	061	1.0	1	-3.41	296.9213219988196	0.5167521323164692
77.0	225.05241286005548	face	0.0		147	trustworthiness	117	1.0	1		297.4380741311361	1.2334612802587799
77.0	226.28587414031426	rating	1.0		91	trustworthiness	117	1.0	1		298.67153541139487	0.7667572638747515
77.0	227.05263140418901	fix	2.0		60	trustworthiness	117	1.0	1	1.13	299.4382926752696	0.5167497174625169
78.0	227.56938112165153	face	0.0		147	trustworthiness	126	1.0	1		299.95504239273214	1.2334612802587799
78.0	228.8028424019103	rating	1.0		74	trustworthiness	126	1.0	1		301.1885036729909	0.6250757659909141
78.0	229.42791816790123	fix	2.0		60	trustworthiness	126	1.0	1	-1.19	301.81357943898183	0.516750321174186
79.0	229.9446684890754	face	0.0		147	trustworthiness	099	1.0	1		302.330329760156	1.2334621858281025
79.0	231.1781306749035	rating	1.0		56	trustworthiness	099	1.0	1		303.5637919459841	0.4750542738038348
79.0	231.65318494870735	fix	2.0		60	trustworthiness	099	1.0	1	1.8099999999999996	304.03884621978796	0.5001023293698381
80.0	232.1532872780772	cue	0.0		480						304.5389485491578	4.000440710544353
80.0	236.15372798862154	fix	1.0		120						308.53938925970215	1.0168164277565666
80.0	237.1705444163781	face	0.0		147	dominance	124	1.0	1		309.5562056874587	1.2334582616931584
80.0	238.40400267807127	rating	1.0		93	dominance	124	1.0	1		310.7896639491519	0.7834251782151114
80.0	239.18742785628638	fix	2.0		60	dominance	124	1.0	1	3.1500000000000004	311.573089127367	0.5167512267471466
81.0	239.70417908303352	face	0.0		147	dominance	172	1.0	1		312.08984035411413	1.2334694303826836
81.0	240.9376485134162	rating	1.0		308	dominance	172	1.0	1		313.3233097844968	2.5753026413658517
81.0	243.51295115478206	fix	2.0		60	dominance	172	1.0	1	0.54	315.89861242586267	0.5167512267471466
82.0	244.0297023815292	face	0.0		147	dominance	042	1.0	1		316.4153636526098	1.2334594691164966
82.0	245.2631618506457	rating	1.0		53	dominance	042	1.0	1		317.6488231217263	0.4500542134337593
82.0	245.71321606407946	fix	2.0		60	dominance	042	1.0	1	0.9000000000000004	318.09887733516007	0.516753641597461
83.0	246.22996970567692	face	0.0		147	dominance	034	1.0	1		318.61563097675753	1.233458563550812
83.0	247.46342826922773	rating	1.0		58	dominance	034	1.0	1		319.84908954030834	0.4917243011404935
83.0	247.95515257036823	fix	2.0		60	dominance	034	1.0	1	-0.7999999999999998	320.34081384144883	0.5167557545937598
84.0	248.471908324962	face	0.0		147	dominance	137	1.0	1		320.8575695960426	1.2334588654048275
84.0	249.70536719036681	rating	1.0		55	dominance	137	1.0	1		322.0910284614474	0.46671910921213566
84.0	250.17208629957895	fix	2.0		60	dominance	137	1.0	1	1.6600000000000001	322.55774757065956	0.5167524341704848
85.0	250.68883873374944	face	0.0		147	dominance	012	1.0	1		323.07450000483004	1.2334594691164966
85.0	251.92229820286593	rating	1.0		79	dominance	012	1.0	1		324.30795947394654	0.6667482685516006
85.0	252.58904647141753	fix	2.0		60	dominance	012	1.0	1	2.01	324.97470774249814	0.5167566601630824
86.0	253.10580313158061	face	0.0		147	dominance	043	1.0	1		325.4914644026612	1.2334633932550787
86.0	254.3392665248357	rating	1.0		64	dominance	043	1.0	1		326.7249277959163	0.5417271385922504
86.0	254.88099366342794	fix	2.0		60	dominance	043	1.0	1	0.9900000000000002	327.26665493450855	0.5167460951852263
87.0	255.39773975861317	face	0.0		147	dominance	018	1.0	1		327.7834010296938	1.2334667136747157
87.0	256.6312064722879	rating	1.0		51	dominance	018	1.0	1		329.0168677433685	0.4333769415425195
87.0	257.0645834138304	fix	2.0		60	dominance	018	1.0	1	0.5899999999999999	329.450244684911	0.5167539434514765
88.0	257.5813373572819	face	0.0		147	dominance	099	1.0	1		329.9669986283625	1.2334603746894572
88.0	258.81479773197134	rating	1.0		47	dominance	099	1.0	1		331.20045900305195	0.40004865927403443
88.0	259.2148463912454	fix	2.0		61	dominance	099	1.0	1	1.7300000000000004	331.600507662326	0.525084882057854
89.0	259.7399312733032	face	0.0		146	dominance	064	1.0	1		332.12559254438384	1.2251264175174583
89.0	260.9650576908207	rating	1.0		49	dominance	064	1.0	1		333.3507189619013	0.4167141587640799
89.0	261.38177184958477	fix	2.0		60	dominance	064	1.0	1	0.2699999999999996	333.7674331206654	0.5167530378821539
90.0	261.8985248874669	face	0.0		147	dominance	033	1.0	1		334.2841861585475	1.2334609784047643
90.0	263.1319858658717	rating	1.0		109	dominance	033	1.0	1		335.5176471369523	0.9167757374925714
90.0	264.04876160336426	fix	2.0		60	dominance	033	1.0	1	0.9400000000000004	336.43442287444486	0.5167518304588157
91.0	264.56551343382307	face	0.0		147	dominance	030	1.0	1		336.9511747049037	1.2334603746894572
91.0	265.7989738085125	rating	1.0		43	dominance	030	1.0	1		338.18463507959314	0.36671041573936236
91.0	266.1656842242519	fix	2.0		60	dominance	030	1.0	1	1.6399999999999997	338.5513454953325	0.516750924889493
92.0	266.6824351491414	face	0.0		147	dominance	006	1.0	1		339.068096420222	1.2334615821164334
92.0	267.9158967312578	rating	1.0		67	dominance	006	1.0	1		340.3015580023384	0.5667332360935688
92.0	268.4826299673514	fix	2.0		60	dominance	006	1.0	1	0.8799999999999999	340.868291238432	0.5167521323164692
93.0	268.99938209966786	face	0.0		147	dominance	024	1.0	1		341.38504337074846	1.2334664118170622
93.0	270.2328485114849	rating	1.0		48	dominance	024	1.0	1		342.6185097825655	0.40837989973442745
93.0	270.64122841121934	fix	2.0		60	dominance	024	1.0	1	1.6600000000000001	343.02688968229995	0.516747604469856
94.0	271.1579760156892	face	0.0		147	dominance	091	1.0	1		343.5436372867698	1.2334609784011263
94.0	272.3914369940903	rating	1.0		50	dominance	091	1.0	1		344.77709826517093	0.4250463047901576
94.0	272.8164832988805	fix	2.0		60	dominance	091	1.0	1	-1.25	345.2021445699611	0.516750924889493
95.0	273.33323422377	face	0.0		147	dominance	126	1.0	1		345.7188954948506	1.2334633932550787
95.0	274.56669761702506	rating	1.0		50	dominance	126	1.0	1		346.95235888810566	0.42504871964410995
95.0	274.99174633666917	fix	2.0		60	dominance	126	1.0	1	0.8799999999999999	347.3774076077498	0.5167521323164692
96.0	275.50849846898564	face	0.0		147	dominance	136	1.0	1		347.89415974006624	1.233462487682118
96.0	276.74196095666775	rating	1.0		45	dominance	136	1.0	1		349.12762222774836	0.3833777263680531
96.0	277.1253386830358	fix	2.0		60	dominance	136	1.0	1	1.67	349.5109999541164	0.5167584713017277
97.0	277.64209715433753	face	0.0		147	dominance	082	1.0	1		350.02775842541814	1.2334543375582143
97.0	278.87555149189575	rating	1.0		61	dominance	082	1.0	1		351.26121276297636	0.5167261726528523
97.0	279.3922776645486	fix	2.0		60	dominance	082	1.0	1	-1.5099999999999998	351.7779389356292	0.5167623954366718
98.0	279.9090400599853	face	0.0		147	dominance	009	1.0	1		352.2947013310659	1.2334513189925929
98.0	281.14249137897787	rating	1.0		54	dominance	009	1.0	1		353.5281526500585	0.4583881706057582
98.0	281.6008795495836	fix	2.0		60	dominance	009	1.0	1	2.6500000000000004	353.98654082066423	0.5167548490207992
99.0	282.1176343986044	face	0.0		147	dominance	092	1.0	1		354.50329566968503	1.2334609784011263
99.0	283.35109537700555	rating	1.0		178	dominance	092	1.0	1		355.73675664808616	1.49183961034214
99.0	284.8429349873477	fix	2.0		60	dominance	092	1.0	1	-0.33000000000000007	357.2285962584283	0.5167533397398074
100.0	285.3596883270875	face	0.0		147	dominance	100	1.0	1		357.7453495981681	1.233458563550812
100.0	286.5931468906383	rating	1.0		106	dominance	100	1.0	1		358.9788081617189	0.8917732622721815
100.0	287.4849201529105	fix	2.0		60	dominance	100	1.0	1	-1.0299999999999998	359.8705814239911	0.5167533397398074
101.0	288.0016734926503	face	0.0		147	dominance	011	1.0	1		360.3873347637309	1.2334612802587799
101.0	289.2351347729091	rating	1.0		80	dominance	011	1.0	1		361.6207960439897	0.6750792071543401
101.0	289.9102139800634	fix	2.0		60	dominance	011	1.0	1	-1.31	362.295875251144	0.516750924889493
102.0	290.4269649049529	face	0.0		147	dominance	141	1.0	1		362.8126261760335	1.2334639969667478
102.0	291.66042890191966	rating	1.0		65	dominance	141	1.0	1		364.04609017300027	0.5500632087569102
102.0	292.21049211067657	fix	2.0		60	dominance	141	1.0	1	-1.17	364.5961533817572	0.5167527360281383
103.0	292.7272448467047	face	0.0		147	dominance	066	1.0	1		365.1129061177853	1.2334576579814893
103.0	293.9607025046862	rating	1.0		41	dominance	066	1.0	1		366.3463637757668	0.35004280325665604
103.0	294.31074530794285	fix	2.0		60	dominance	066	1.0	1	1.7000000000000002	366.69640657902346	0.5167548490244371
104.0	294.8275001569673	face	0.0		147	dominance	005	1.0	1		367.2131614280479	1.2334579598355049
104.0	296.0609581168028	rating	1.0		54	dominance	005	1.0	1		368.4466193878834	0.4583860576094594
104.0	296.51934417441225	fix	2.0		60	dominance	005	1.0	1	-1.7599999999999998	368.90500544549286	0.5167494156048633
105.0	297.0360935900171	face	0.0		147	dominance	070	1.0	1		369.4217548610977	1.2334636951090943
105.0	298.2695572851262	rating	1.0		50	dominance	070	1.0	1		370.6552185562068	0.42504932335941703
105.0	298.6946066084856	fix	2.0		60	dominance	070	1.0	1	1.2000000000000002	371.08026787956624	0.5167521323128312
106.0	299.21135874079846	face	0.0		147	dominance	044	1.0	1		371.59702001187907	1.2334615821164334
106.0	300.4448203229149	rating	1.0		36	dominance	044	1.0	1		372.8304815939955	0.30836728213034803
106.0	300.75318760504524	fix	2.0		60	dominance	044	1.0	1	0.8200000000000003	373.13884887612585	0.5167533397434454
107.0	301.2699409447887	face	0.0		147	dominance	038	1.0	1		373.6556022158693	1.2334636951090943
107.0	302.5034046398978	rating	1.0		49	dominance	038	1.0	1		374.8890659109784	0.416714762475749
107.0	302.92011940237353	fix	2.0		60	dominance	038	1.0	1	0.8300000000000001	375.30578067345414	0.516747604466218
108.0	303.43686700683975	face	0.0		147	dominance	027	1.0	1		375.82252827792036	1.2334609784011263
108.0	304.6703279852409	rating	1.0		48	dominance	027	1.0	1		377.0559892563215	0.408390162858268
108.0	305.07871814809914	fix	2.0		60	dominance	027	1.0	1	1.5999999999999996	377.46437941917975	0.5167445859005966
109.0	305.59546273399974	face	0.0		147	dominance	087	1.0	1		377.98112400508035	1.2334594691201346
109.0	306.8289222031199	rating	1.0		53	dominance	087	1.0	1		379.2145834742005	0.4500542134337593
109.0	307.27897641655363	fix	2.0		60	dominance	087	1.0	1	-2.1100000000000003	379.66463768763424	0.5167880532426352
110.0	307.79576446979627	face	0.0		147	dominance	121	1.0	1		380.1814257408769	1.2334244537596533
110.0	309.0291889235559	rating	1.0		73	dominance	121	1.0	1		381.41485019463653	0.6167393939686008
110.0	309.6459283175245	fix	2.0		60	dominance	121	1.0	1	-1.15	382.03158958860513	0.5167521323164692
111.0	310.162680449841	face	0.0		147	dominance	036	1.0	1		382.5483417209216	1.2334609784011263
111.0	311.3961414282421	rating	1.0		70	dominance	036	1.0	1		383.7818026993227	0.5917357113175967
111.0	311.9878771395597	fix	2.0		60	dominance	036	1.0	1	1.3200000000000003	384.3735384106403	0.5167578675900586
112.0	312.5046350071498	face	0.0		147	dominance	101	1.0	1		384.8902962782304	1.2334549412698834
112.0	313.73808994841966	rating	1.0		107	dominance	101	1.0	1		386.12375121950026	0.9001075212981959
112.0	314.63819746971785	fix	2.0		60	dominance	101	1.0	1	1.9900000000000002	387.02385874079846	0.5167524341704848
113.0	315.15494990388834	face	0.0		147	dominance	144	1.0	1		387.54061117496894	1.2334600728318037
113.0	316.38840997672014	rating	1.0		76	dominance	144	1.0	1		388.77407124780075	0.6417454914735572
113.0	317.0301554681937	fix	2.0		60	dominance	144	1.0	1	1.7199999999999998	389.4158167392743	0.516747000750911
114.0	317.5469024689446	face	0.0		147	dominance	039	1.0	1		389.9325637400252	1.2335089735934162
114.0	318.780411442538	rating	1.0		47	dominance	039	1.0	1		391.16607271361863	0.3999994566584064
114.0	319.18041089919643	fix	2.0		60	dominance	039	1.0	1	0.71	391.56607217027704	0.5167497174625169
115.0	319.69716061665895	face	0.0		147	dominance	061	1.0	1		392.08282188773956	1.233464600678417
115.0	320.93062521733737	rating	1.0		44	dominance	061	1.0	1		393.316286488418	0.3750482970463054
115.0	321.30567351438367	fix	2.0		60	dominance	061	1.0	1	1.4000000000000004	393.6913347854643	0.5167439821889275
116.0	321.8224174965726	face	0.0		147	dominance	102	1.0	1		394.2080787676532	1.233464600678417
116.0	323.055882097251	rating	1.0		96	dominance	102	1.0	1		395.4415433683316	0.8084665929345647
116.0	323.8643486901856	fix	2.0		60	dominance	102	1.0	1	-1.6800000000000002	396.2500099612662	0.5167137965327129
117.0	324.3810624867183	face	0.0		147	dominance	117	1.0	1		396.7667237577989	1.2334597709741502
117.0	325.61452225769244	rating	1.0		61	dominance	117	1.0	1		398.00018352877305	0.5167282856491511
117.0	326.1312505433416	fix	2.0		60	dominance	117	1.0	1	2.13	398.5169118144222	0.5167524341704848
118.0	326.6480029775121	face	0.0		147	dominance	130	1.0	1		399.0336642485927	1.2334588654084655
118.0	327.88146184292054	rating	1.0		44	dominance	130	1.0	1		400.26712311400115	0.37504618405000656
118.0	328.25650802697055	fix	2.0		60	dominance	130	1.0	1	-1.5	400.64216929805116	0.5167518304588157
119.0	328.77325985742937	face	0.0		147	dominance	062	1.0	1		401.15892112851	1.2334597709741502
119.0	330.0067196284035	rating	1.0		168	dominance	062	1.0	1		402.3923808994841	1.408501246063679
119.0	331.4152208744672	fix	2.0		60	dominance	062	1.0	1	1.38	403.8008821455478	0.5000712381443009
120.0	331.9152921126115	cue	0.0		3600						404.3009533836921	30.003607185633882
120.0	361.9188992982454	fix	1.0		120						434.304560569326	1.0001207426139445
120.0	362.9190200408593	cue	0.0		480						435.30468131193993	4.000481763036078
120.0	366.9195018038954	fix	1.0		120						439.305163074976	1.0168182388952118
120.0	367.9363200427906	face	0.0		147	trustworthiness	144	2.0	1		440.3219813138712	1.2334537338465452
120.0	369.16977377663716	rating	1.0		236	trustworthiness	144	2.0	1		441.55543504771776	1.9752541028319683
120.0	371.1450278794691	fix	2.0		60	trustworthiness	144	2.0	1	0.9299999999999997	443.53068915054973	0.5167726585605124
121.0	371.66180053802964	face	0.0		147	trustworthiness	092	2.0	1		444.04746180911025	1.2334304908908962
121.0	372.89523102892053	rating	1.0		327	trustworthiness	092	2.0	1		445.28089230000114	2.7336544684440014
121.0	375.62888549736454	fix	2.0		60	trustworthiness	092	2.0	1	0.7699999999999996	448.01454676844514	0.516753641597461
122.0	376.145639138962	face	0.0		147	trustworthiness	137	2.0	1		448.5313004100426	1.2334673173863848
122.0	377.3791064563484	rating	1.0		59	trustworthiness	137	2.0	1		449.764767727429	0.5000513156119268
122.0	377.8791577719603	fix	2.0		60	trustworthiness	137	2.0	1	0.6900000000000004	450.2648190430409	0.5167524341704848
123.0	378.3959102061308	face	0.0		147	trustworthiness	042	2.0	1		450.7815714772114	1.2334606765471108
123.0	379.6293708826779	rating	1.0		51	trustworthiness	042	2.0	1		452.0150321537585	0.4333835823854315
123.0	380.06275446506334	fix	2.0		60	trustworthiness	042	2.0	1	-1.7799999999999998	452.44841573614394	0.5167548490207992
124.0	380.57950931408413	face	0.0		147	trustworthiness	044	2.0	1		452.96517058516474	1.2334582616931584
124.0	381.8129675757773	rating	1.0		73	trustworthiness	044	2.0	1		454.1986288468579	0.6167396958262543
124.0	382.42970727160355	fix	2.0		60	trustworthiness	044	2.0	1	-1.81	454.81536854268415	0.5167500193201704
125.0	382.9464572909237	face	0.0		147	trustworthiness	039	2.0	1		455.3321185620043	1.233461883970449
125.0	384.17991917489417	rating	1.0		56	trustworthiness	039	2.0	1		456.5655804459748	0.47505517937315744
125.0	384.6549743542673	fix	2.0		60	trustworthiness	039	2.0	1	1.37	457.04063562534793	0.5167548490244371
126.0	385.17172920329176	face	0.0		147	trustworthiness	005	2.0	1		457.55739047437237	1.2334579598355049
126.0	386.40518716312727	rating	1.0		107	trustworthiness	005	2.0	1		458.7908484342079	0.9001156714257377
126.0	387.305302834553	fix	2.0		60	trustworthiness	005	2.0	1	1.7400000000000002	459.6909641056336	0.5167448877582501
127.0	387.82204772231125	face	0.0		147	trustworthiness	121	2.0	1		460.20770899339186	1.2334606765471108
127.0	389.05550839885836	rating	1.0		277	trustworthiness	121	2.0	1		461.441169669939	2.316949969088455
127.0	391.3724583679468	fix	2.0		60	trustworthiness	121	2.0	1	-1.2000000000000002	463.7581196390274	0.5167554527361062
128.0	391.8892138206829	face	0.0		147	trustworthiness	100	2.0	1		464.27487509176353	1.2334504134232702
128.0	393.1226642341062	rating	1.0		62	trustworthiness	100	2.0	1		465.5083255051868	0.5250628465328191
128.0	393.647727080639	fix	2.0		60	trustworthiness	100	2.0	1	-1.3399999999999999	466.0333883517196	0.5167500193165324
129.0	394.16447709995555	face	0.0		147	trustworthiness	061	2.0	1		466.55013837103616	1.233461883970449
129.0	395.397938983926	rating	1.0		80	trustworthiness	061	2.0	1		467.7836002550066	0.6750849424315675
129.0	396.07302392635756	fix	2.0		60	trustworthiness	061	2.0	1	-3.11	468.4586851974382	0.5167466988968954
130.0	396.58977062525446	face	0.0		147	trustworthiness	043	2.0	1		468.97543189633507	1.2334667136747157
130.0	397.8232373389292	rating	1.0		118	trustworthiness	043	2.0	1		470.2088986100098	0.9917858798762609
130.0	398.81502321880544	fix	2.0		60	trustworthiness	043	2.0	1	1.5	471.20068448988604	0.5167439821889275
131.0	399.33176720099436	face	0.0		147	trustworthiness	130	2.0	1		471.71742847207497	1.2334627895397716
131.0	400.56522999053414	rating	1.0		51	trustworthiness	130	2.0	1		472.95089126161474	0.47506453692767536
131.0	401.0402945274618	fix	2.0		60	trustworthiness	130	2.0	1	1.3099999999999996	473.4259557985424	0.5167403599116369
132.0	401.55703488737345	face	0.0		147	trustworthiness	034	2.0	1		473.94269615845405	1.2334636951090943
132.0	402.79049858248254	rating	1.0		129	trustworthiness	034	2.0	1		475.17615985356315	1.083459408746421
132.0	403.87395799122896	fix	2.0		60	trustworthiness	034	2.0	1	-1.69	476.25961926230957	0.5167581694477121
133.0	404.3907161606767	face	0.0		147	trustworthiness	101	2.0	1		476.7763774317573	1.2334582616895204
133.0	405.6241744223662	rating	1.0		49	trustworthiness	101	2.0	1		478.0098356934468	0.416711442056112
133.0	406.0408858644223	fix	2.0		60	trustworthiness	101	2.0	1	0.9900000000000002	478.4265471355029	0.5167925810892484
134.0	406.55767844551156	face	0.0		147	trustworthiness	066	2.0	1		478.94333971659216	1.2334304908908962
134.0	407.79110893640245	rating	1.0		142	trustworthiness	066	2.0	1		480.17677020748306	1.1918047760955233
134.0	408.982913712498	fix	2.0		60	trustworthiness	066	2.0	1	-1.1099999999999999	481.3685749835786	0.5167530378857919
135.0	409.49966675038377	face	0.0		147	trustworthiness	038	2.0	1		481.8853280214644	1.233459167258843
135.0	410.7331259176426	rating	1.0		237	trustworthiness	038	2.0	1		483.1187871887232	1.983566326336586
135.0	412.7166922439792	fix	2.0		60	trustworthiness	038	2.0	1	1.7999999999999998	485.1023535150598	0.516750321174186
136.0	413.2334425651534	face	0.0		147	trustworthiness	006	2.0	1		485.619103836234	1.2334612802587799
136.0	414.46690384541216	rating	1.0		57	trustworthiness	006	2.0	1		486.85256511649277	0.4833906458261481
136.0	414.9502944912383	fix	2.0		60	trustworthiness	006	2.0	1	1.2599999999999998	487.3359557623189	0.5167515286011621
137.0	415.4670460198395	face	0.0		147	trustworthiness	062	2.0	1		487.8527072909201	1.2334630913974252
137.0	416.7005091112369	rating	1.0		51	trustworthiness	062	2.0	1		489.0861703823175	0.4334176921765902
137.0	417.1339268034135	fix	2.0		60	trustworthiness	062	2.0	1	0.8700000000000001	489.5195880744941	0.5167168150983343
138.0	417.6506436185118	face	0.0		147	trustworthiness	136	2.0	1		490.03630488959243	1.2334609784011263
138.0	418.88410459691295	rating	1.0		58	trustworthiness	136	2.0	1		491.26976586799356	0.49172490485580056
138.0	419.37582950176875	fix	2.0		60	trustworthiness	136	2.0	1	-2.17	491.76149077284936	0.5168016367861128
139.0	419.89263113855486	face	0.0		147	trustworthiness	070	2.0	1		492.27829240963547	1.233409964646853
139.0	421.1260411032017	rating	1.0		93	trustworthiness	070	2.0	1		493.5117023742823	0.7834339320543222
139.0	421.90947503525604	fix	2.0		60	trustworthiness	070	2.0	1	-3.3	494.29513630633664	0.5167415673386131
140.0	422.42621660259465	face	0.0		147	trustworthiness	030	2.0	1		494.81187787367526	1.2334627895397716
140.0	423.6596793921344	rating	1.0		49	trustworthiness	030	2.0	1		496.04534066321503	0.4167183847530396
140.0	424.07639777688746	fix	2.0		60	trustworthiness	030	2.0	1	1.3099999999999996	496.46205904796807	0.5167940903738781
141.0	424.59319186726134	face	0.0		147	trustworthiness	018	2.0	1		496.97885313834195	1.2334138887817971
141.0	425.82660575604314	rating	1.0		58	trustworthiness	018	2.0	1		498.21226702712374	0.4917264141367923
141.0	426.31833217017993	fix	2.0		60	trustworthiness	018	2.0	1	1.62	498.70399344126054	0.5167524341704848
142.0	426.8350846043504	face	0.0		147	trustworthiness	126	2.0	1		499.220745875431	1.2334600728318037
142.0	428.0685446771822	rating	1.0		129	trustworthiness	126	2.0	1		500.4542059482628	1.0834609180310508
142.0	429.15200559521327	fix	2.0		60	trustworthiness	126	2.0	1	-1.2599999999999998	501.5376668662939	0.5167527360281383
143.0	429.6687583312414	face	0.0		147	trustworthiness	117	2.0	1		502.054419602322	1.2334636951090943
143.0	430.9022220263505	rating	1.0		71	trustworthiness	117	2.0	1		503.2878832974311	0.600068762920273
143.0	431.5022907892708	fix	2.0		60	trustworthiness	117	2.0	1	2.0300000000000002	503.8879520603514	0.5167545471667836
144.0	432.01904533643756	face	0.0		147	trustworthiness	036	2.0	1		504.40470660751816	1.2334582616931584
144.0	433.2525035981307	rating	1.0		112	trustworthiness	036	2.0	1		505.6381648692113	0.9417788164319063
144.0	434.1942824145626	fix	2.0		60	trustworthiness	036	2.0	1	1.33	506.57994368564323	0.5167518304588157
145.0	434.71103424502144	face	0.0		147	trustworthiness	099	2.0	1		507.09669551610205	1.2334609784011263
145.0	435.94449522342256	rating	1.0		107	trustworthiness	099	2.0	1		508.33015649450317	0.9001032953092363
145.0	436.8445985187318	fix	2.0		60	trustworthiness	099	2.0	1	1.21	509.2302597898124	0.5167626972906874
146.0	437.3613612160225	face	0.0		147	trustworthiness	011	2.0	1		509.7470224871031	1.233449205996294
146.0	438.5948104220188	rating	1.0		146	trustworthiness	011	2.0	1		510.9804716930994	1.2251502641847765
146.0	439.81996068620356	fix	2.0		60	trustworthiness	011	2.0	1	-1.17	512.2056219572842	0.516753641597461
147.0	440.336714327801	face	0.0		147	trustworthiness	141	2.0	1		512.7223755988816	1.2334579598391429
147.0	441.57017228764016	rating	1.0		169	trustworthiness	141	2.0	1		513.9558335587208	1.4168596536110272
147.0	442.9870319412512	fix	2.0		60	trustworthiness	141	2.0	1	-1.06	515.3726932123318	0.5167288893608202
148.0	443.503760830612	face	0.0		147	trustworthiness	082	2.0	1		515.8894221016926	1.2334600728318037
148.0	444.7372209034438	rating	1.0		56	trustworthiness	082	2.0	1		517.1228821745244	0.4750581979424169
148.0	445.21227910138623	fix	2.0		60	trustworthiness	082	2.0	1	1.2599999999999998	517.5979403724668	0.5167500193165324
149.0	445.72902912070276	face	0.0		147	trustworthiness	124	2.0	1		518.1146903917834	1.2334682229593454
149.0	446.9624973436621	rating	1.0		217	trustworthiness	124	2.0	1		519.3481586147427	1.8168766179514932
149.0	448.7793739616136	fix	2.0		60	trustworthiness	124	2.0	1	2.88	521.1650352326942	0.5168013349320972
150.0	449.2961752965457	face	0.0		147	trustworthiness	024	2.0	1		521.6818365676263	1.2334163036321115
150.0	450.5295916001778	rating	1.0		265	trustworthiness	024	2.0	1		522.9152528712584	2.216925579083181
150.0	452.746517179261	fix	2.0		60	trustworthiness	024	2.0	1	-1.5899999999999999	525.1321784503416	0.5167645084329706
151.0	453.26328168769396	face	0.0		147	trustworthiness	091	2.0	1		525.6489429587746	1.2334479985693179
151.0	454.4967296862633	rating	1.0		38	trustworthiness	091	2.0	1		526.8823909573439	0.3250430447405961
151.0	454.8217727310039	fix	2.0		60	trustworthiness	091	2.0	1	-0.54	527.2074340020845	0.516747604466218
152.0	455.3385203354701	face	0.0		147	trustworthiness	009	2.0	1		527.7241816065507	1.2334609784047643
152.0	456.57198131387486	rating	1.0		37	trustworthiness	009	2.0	1		528.9576425849555	0.3167027485833387
152.0	456.8886840624582	fix	2.0		60	trustworthiness	009	2.0	1	1.12	529.2743453335388	0.5167518304588157
153.0	457.405435892917	face	0.0		147	trustworthiness	033	2.0	1		529.7910971639976	1.233462487682118
153.0	458.63889838059913	rating	1.0		40	trustworthiness	033	2.0	1		531.0245596516797	0.34170643123434274
153.0	458.9806048118335	fix	2.0		60	trustworthiness	033	2.0	1	-1.12	531.3662660829141	0.5167491137508478
154.0	459.4973539255843	face	0.0		147	trustworthiness	087	2.0	1		531.8830151966649	1.2334606765434728
154.0	460.7308146021278	rating	1.0		83	trustworthiness	087	2.0	1		533.1164758732084	0.7001263571473828
154.0	461.4309409592752	fix	2.0		60	trustworthiness	087	2.0	1	-1.31	533.8166022303558	0.5167122872517211
155.0	461.9476532465269	face	0.0		147	trustworthiness	012	2.0	1		534.3333145176075	1.2334561486968596
155.0	463.18110939522376	rating	1.0		95	trustworthiness	012	2.0	1		535.5667706663044	0.8001042612486344
155.0	463.9812136564724	fix	2.0		60	trustworthiness	012	2.0	1	-1.19	536.366874927553	0.516747604466218
156.0	464.4979612609386	face	0.0		147	trustworthiness	064	2.0	1		536.8836225320192	1.2334573561238358
156.0	465.73141861706245	rating	1.0		96	trustworthiness	064	2.0	1		538.117079888143	0.8084798746203887
156.0	466.53989849168283	fix	2.0		60	trustworthiness	064	2.0	1	-1.56	538.9255597627634	0.5167002129892353
157.0	467.05659870467207	face	0.0		147	trustworthiness	172	2.0	1		539.4422599757527	1.2334609784047643
157.0	468.29005968307683	rating	1.0		116	trustworthiness	172	2.0	1		540.6757209541574	0.9751152488242951
157.0	469.26517493190113	fix	2.0		60	trustworthiness	172	2.0	1	0.7599999999999998	541.6508362029817	0.5167551508820907
158.0	469.7819300827832	face	0.0		147	trustworthiness	027	2.0	1		542.1675913538638	1.233461280255142
158.0	471.01539136303836	rating	1.0		208	trustworthiness	027	2.0	1		543.401052634119	1.7418713052757084
158.0	472.75726266831407	fix	2.0		60	trustworthiness	027	2.0	1	0.9199999999999999	545.1429239393947	0.5167551508820907
159.0	473.27401781919616	face	0.0		147	trustworthiness	102	2.0	1		545.6596790902768	1.2334588654048275
159.0	474.507476684601	rating	1.0		62	trustworthiness	102	2.0	1		546.8931379556816	0.5250610353941738
159.0	475.03253771999516	fix	2.0		60	trustworthiness	102	2.0	1	0.7999999999999998	547.4181989910758	0.5001050460741681
160.0	475.53264276606933	cue	0.0		480						547.9183040371499	4.000437691978732
160.0	479.53308045804806	fix	1.0		120						551.9187417291287	1.016815522190882
160.0	480.54989598023894	face	0.0		147	attractiveness	092	2.0	1		552.9355572513196	1.2334579598355049
160.0	481.78335394007445	rating	1.0		69	attractiveness	092	2.0	1		554.169015211155	0.5833993392952834
160.0	482.36675327936973	fix	2.0		60	attractiveness	092	2.0	1	-1.7599999999999998	554.7524145504503	0.5167554527361062
161.0	482.88350873210584	face	0.0		147	attractiveness	099	2.0	1		555.2691700031864	1.2334636951127322
161.0	484.11697242721857	rating	1.0		51	attractiveness	099	2.0	1		556.5026336982992	0.4334228237348725
161.0	484.55039525095344	fix	2.0		60	attractiveness	099	2.0	1	-1.3199999999999998	556.936056522034	0.516708363116777
162.0	485.0671036140702	face	0.0		147	attractiveness	005	2.0	1		557.4527648851508	1.233461280255142
162.0	486.30056489432536	rating	1.0		77	attractiveness	005	2.0	1		558.686226165406	0.6500773356456193
162.0	486.950642229971	fix	2.0		60	attractiveness	005	2.0	1	-2.7199999999999998	559.3363035010516	0.516757565732405
163.0	487.4673997957034	face	0.0		147	attractiveness	064	2.0	1		559.853061066784	1.2334531301312381
163.0	488.7008529258346	rating	1.0		171	attractiveness	064	2.0	1		561.0865141969152	1.4335058342840057
163.0	490.13435876011863	fix	2.0		60	attractiveness	064	2.0	1	-2.19	562.5200200311992	0.5167524341704848
164.0	490.6511111942891	face	0.0		147	attractiveness	042	2.0	1		563.0367724653697	1.2334606765471108
164.0	491.8845718708362	rating	1.0		131	attractiveness	042	2.0	1		564.2702331419168	1.100137888064637
164.0	492.98470975890086	fix	2.0		60	attractiveness	042	2.0	1	-0.81	565.3703710299815	0.5167521323164692
165.0	493.50146189121733	face	0.0		147	attractiveness	011	2.0	1		565.8871231622979	1.2334540357005608
165.0	494.7349159269179	rating	1.0		57	attractiveness	011	2.0	1		567.1205771979985	0.4833894384028099
165.0	495.2183053653207	fix	2.0		60	attractiveness	011	2.0	1	-0.5299999999999998	567.6039666364013	0.5167542453091301
166.0	495.73505961062983	face	0.0		147	attractiveness	039	2.0	1		568.1207208817104	1.233458563550812
166.0	496.96851817418064	rating	1.0		40	attractiveness	039	2.0	1		569.3541794452613	0.3417127702196012
166.0	497.31023094440025	fix	2.0		60	attractiveness	039	2.0	1	0.5800000000000001	569.6958922154809	0.5167466988968954
167.0	497.82697764329714	face	0.0		147	attractiveness	087	2.0	1		570.2126389143777	1.2335086717357626
167.0	499.0604863150329	rating	1.0		70	attractiveness	087	2.0	1		571.4461475861135	0.5916859049902996
167.0	499.6521722200232	fix	2.0		60	attractiveness	087	2.0	1	-1.54	572.0378334911038	0.5167485100355407
168.0	500.16892073005874	face	0.0		147	attractiveness	018	2.0	1		572.5545820011394	1.233464600678417
168.0	501.40238533073716	rating	1.0		140	attractiveness	018	2.0	1		573.7880466018178	1.1751395784631313
168.0	502.5775249092003	fix	2.0		60	attractiveness	018	2.0	1	1.13	574.9631861802809	0.5167524341741228
169.0	503.0942773433744	face	0.0		147	attractiveness	027	2.0	1		575.479938614455	1.2334603746858193
169.0	504.32773771806023	rating	1.0		80	attractiveness	027	2.0	1		576.7133989891408	0.6750798108696472
169.0	505.0028175289299	fix	2.0		60	attractiveness	027	2.0	1	0.5700000000000003	577.3884788000105	0.5167512267471466
170.0	505.519568755677	face	0.0		147	attractiveness	024	2.0	1		577.9052300267576	1.2334630913974252
170.0	506.75303184707445	rating	1.0		48	attractiveness	024	2.0	1		579.1386931181551	0.4083774848804751
170.0	507.1614093319549	fix	2.0		60	attractiveness	024	2.0	1	-0.94	579.5470706030355	0.5167587731593812
171.0	507.6781681051143	face	0.0		147	attractiveness	101	2.0	1		580.0638293761949	1.2334655062477395
171.0	508.91163361136205	rating	1.0		62	attractiveness	101	2.0	1		581.2972948824427	0.5250528852666321
171.0	509.4366864966287	fix	2.0		60	attractiveness	101	2.0	1	1.62	581.8223477677093	0.5167533397398074
172.0	509.9534398363685	face	0.0		147	attractiveness	038	2.0	1		582.3391011074491	1.233459167262481
172.0	511.18689900363097	rating	1.0		65	attractiveness	038	2.0	1		583.5725602747116	0.5500695477494446
172.0	511.7369685513804	fix	2.0		60	attractiveness	038	2.0	1	-3.42	584.122629822461	0.5167479063202336
173.0	512.2537164577006	face	0.0		147	attractiveness	141	2.0	1		584.6393777287813	1.2334588654084655
173.0	513.4871753231091	rating	1.0		76	attractiveness	141	2.0	1		585.8728365941897	0.6417430766159669
173.0	514.1289183997251	fix	2.0		60	attractiveness	141	2.0	1	-0.52	586.5145796708057	0.516750924889493
174.0	514.6456693246146	face	0.0		147	attractiveness	043	2.0	1		587.0313305956952	1.2334630913974252
174.0	515.879132416012	rating	1.0		39	attractiveness	043	2.0	1		588.2647936870926	0.3333697573543759
174.0	516.2125021733664	fix	2.0		60	attractiveness	043	2.0	1	0.6200000000000001	588.598163444447	0.5167563583090669
175.0	516.7292585316754	face	0.0		147	attractiveness	009	2.0	1		589.114919802756	1.2334627895397716
175.0	517.9627213212152	rating	1.0		58	attractiveness	009	2.0	1		590.3483825922958	0.49171705658591236
175.0	518.4544383778011	fix	2.0		60	attractiveness	009	2.0	1	1.7800000000000002	590.8400996488817	0.516753641593823
176.0	518.971192019395	face	0.0		147	attractiveness	036	2.0	1		591.3568532904756	1.2334612802587799
176.0	520.2046532996537	rating	1.0		84	attractiveness	036	2.0	1		592.5903145707343	0.708416243262036
176.0	520.9130695429158	fix	2.0		60	attractiveness	036	2.0	1	1.88	593.2987308139964	0.516750924889493
177.0	521.4298204678053	face	0.0		147	attractiveness	100	2.0	1		593.8154817388859	1.2334606765471108
177.0	522.6632811443524	rating	1.0		55	attractiveness	100	2.0	1		595.048942415433	0.4667218259164656
177.0	523.1300029702688	fix	2.0		60	attractiveness	100	2.0	1	0.4900000000000002	595.5156642413494	0.5167524341704848
178.0	523.6467554044393	face	0.0		147	attractiveness	044	2.0	1		596.0324166755199	1.233461883970449
178.0	524.8802172884098	rating	1.0		53	attractiveness	044	2.0	1		597.2658785594904	0.45005149672579137
178.0	525.3302687851356	fix	2.0		61	attractiveness	044	2.0	1	-1.44	597.7159300562162	0.5250860894848302
179.0	525.8553548746204	face	0.0		146	attractiveness	172	2.0	1		598.241016145701	1.225133963933331
179.0	527.0804888385537	rating	1.0		79	attractiveness	172	2.0	1		599.4661501096343	0.6667364961467683
179.0	527.7472253347005	fix	2.0		60	attractiveness	172	2.0	1	-1.58	600.1328866057811	0.5167560564477753
180.0	528.2639813911483	face	0.0		147	attractiveness	102	2.0	1		600.6496426622289	1.2334588654048275
180.0	529.4974402565531	rating	1.0		103	attractiveness	102	2.0	1		601.8831015276337	0.8667689759095083
180.0	530.3642092324626	fix	2.0		60	attractiveness	102	2.0	1	-2.54	602.7498705035432	0.5167533397434454
181.0	530.880962572206	face	0.0		147	attractiveness	006	2.0	1		603.2666238432867	1.233458563547174
181.0	532.1144211357532	rating	1.0		108	attractiveness	006	2.0	1		604.5000824068338	0.9084399691855651
181.0	533.0228611049388	fix	2.0		60	attractiveness	006	2.0	1	-2.62	605.4085223760194	0.5167539434551145
182.0	533.5396150483939	face	0.0		147	attractiveness	144	2.0	1		605.9252763194745	1.233459167262481
182.0	534.7730742156564	rating	1.0		40	attractiveness	144	2.0	1		607.158735486737	0.3417061293766892
182.0	535.1147803450331	fix	2.0		60	attractiveness	144	2.0	1	0.6200000000000001	607.5004416161137	0.5167563583090669
183.0	535.6315367033421	face	0.0		147	attractiveness	130	2.0	1		608.0171979744227	1.233464600678417
183.0	536.8650013040206	rating	1.0		40	attractiveness	130	2.0	1		609.2506625751012	0.34170582752267364
183.0	537.2067071315432	fix	2.0		60	attractiveness	130	2.0	1	-0.8799999999999999	609.5923684026238	0.5167473026085645
184.0	537.7234544341518	face	0.0		147	attractiveness	137	2.0	1		610.1091157052324	1.2334582616931584
184.0	538.956912695845	rating	1.0		114	attractiveness	137	2.0	1		611.3425739669256	0.9584461270605971
184.0	539.9153588229055	fix	2.0		60	attractiveness	137	2.0	1	1.12	612.3010200939862	0.516750321174186
185.0	540.4321091440797	face	0.0		147	attractiveness	117	2.0	1		612.8177704151603	1.2334649025360704
185.0	541.6655740466158	rating	1.0		75	attractiveness	117	2.0	1		614.0512353176964	0.6334054971703154
185.0	542.2989795437861	fix	2.0		60	attractiveness	117	2.0	1	1.12	614.6846408148667	0.5167506230318395
186.0	542.815730166818	face	0.0		147	attractiveness	070	2.0	1		615.2013914378986	1.2334664118207002
186.0	544.0491965786387	rating	1.0		43	attractiveness	070	2.0	1		616.4348578497193	0.36670709531972534
186.0	544.4159036739584	fix	2.0		60	attractiveness	070	2.0	1	-2.1100000000000003	616.801564945039	0.5167530378821539
187.0	544.9326567118405	face	0.0		147	attractiveness	033	2.0	1		617.3183179829211	1.2334606765471108
187.0	546.1661173883876	rating	1.0		128	attractiveness	033	2.0	1		618.5517786594683	1.0751556372306368
187.0	547.2412730256183	fix	2.0		60	attractiveness	033	2.0	1	-0.9300000000000002	619.6269342966989	0.5167201355216093
188.0	547.7579931611399	face	0.0		147	attractiveness	082	2.0	1		620.1436544322205	1.2334627895397716
188.0	548.9914559506797	rating	1.0		51	attractiveness	082	2.0	1		621.3771172217603	0.43338237495845533
188.0	549.4248383256381	fix	2.0		60	attractiveness	082	2.0	1	1.0300000000000002	621.8104995967187	0.5167566601630824
189.0	549.9415949858012	face	0.0		147	attractiveness	030	2.0	1		622.3272562568818	1.2335026346045197
189.0	551.1750976204057	rating	1.0		58	attractiveness	030	2.0	1		623.5607588914863	0.491678720802156
189.0	551.6667763412079	fix	2.0		60	attractiveness	030	2.0	1	1.7400000000000002	624.0524376122885	0.5167548490244371
190.0	552.1835311902323	face	0.0		147	attractiveness	136	2.0	1		624.5691924613129	1.2334588654048275
190.0	553.4169900556371	rating	1.0		45	attractiveness	136	2.0	1		625.8026513267178	0.3833843672146031
190.0	553.8003744228517	fix	2.0		60	attractiveness	136	2.0	1	-2.83	626.1860356939324	0.516796807081846
191.0	554.3171712299336	face	0.0		147	attractiveness	124	2.0	1		626.7028325010142	1.233406040511909
191.0	555.5505772704455	rating	1.0		122	attractiveness	124	2.0	1		627.9362385415261	1.0251235196956259
191.0	556.5757007901411	fix	2.0		60	attractiveness	124	2.0	1	3.08	628.9613620612217	0.5167518304588157
192.0	557.0924526205999	face	0.0		147	attractiveness	066	2.0	1		629.4781138916806	1.2334615821127954
192.0	558.3259142027127	rating	1.0		84	attractiveness	066	2.0	1		630.7115754737933	0.7084153376927134
192.0	559.0343295404055	fix	2.0		60	attractiveness	066	2.0	1	2.42	631.4199908114861	0.5167548490244371
193.0	559.5510843894299	face	0.0		147	attractiveness	126	2.0	1		631.9367456605105	1.2334621858281025
193.0	560.784546575258	rating	1.0		136	attractiveness	126	2.0	1		633.1702078463386	1.1417983163628378
193.0	561.9263448916208	fix	2.0		60	attractiveness	126	2.0	1	-0.71	634.3120061627014	0.5167524341704848
194.0	562.4430973257913	face	0.0		147	attractiveness	034	2.0	1		634.8287585968719	1.2334612802587799
194.0	563.6765586060501	rating	1.0		58	attractiveness	034	2.0	1		636.0622198771307	0.49172430114413146
194.0	564.1682829071942	fix	2.0		60	attractiveness	034	2.0	1	-1.9100000000000001	636.5539441782748	0.5167533397398074
195.0	564.685036246934	face	0.0		147	attractiveness	062	2.0	1		637.0706975180146	1.2334673173900228
195.0	565.918503564324	rating	1.0		88	attractiveness	062	2.0	1		638.3041648354047	0.7417451292421902
195.0	566.6602486935662	fix	2.0		60	attractiveness	062	2.0	1	-2.94	639.0459099646469	0.5167545471667836
196.0	567.177003240733	face	0.0		147	attractiveness	061	2.0	1		639.5626645118136	1.233459167262481
196.0	568.4104624079955	rating	1.0		95	attractiveness	061	2.0	1		640.7961236790761	0.8001450118790672
196.0	569.2106074198746	fix	2.0		60	attractiveness	061	2.0	1	-3.24	641.5962686909552	0.5167029297008412
197.0	569.7273103495754	face	0.0		147	attractiveness	121	2.0	1		642.112971620656	1.2334600728318037
197.0	570.9607704224072	rating	1.0		135	attractiveness	121	2.0	1		643.3464316934878	1.1334694907563971
197.0	572.0942399131636	fix	2.0		60	attractiveness	121	2.0	1	-0.79	644.4799011842442	0.516756962017098
198.0	572.6109968751807	face	0.0		147	attractiveness	012	2.0	1		644.9966581462613	1.2334537338465452
198.0	573.8444506090273	rating	1.0		41	attractiveness	012	2.0	1		646.2301118801079	0.3500403884027037
198.0	574.19449099743	fix	2.0		60	attractiveness	012	2.0	1	0.8399999999999999	646.5801522685106	0.5167560564514133
199.0	574.7112470538814	face	0.0		147	attractiveness	091	2.0	1		647.096908324962	1.2334606765434728
199.0	575.9447077304249	rating	1.0		67	attractiveness	091	2.0	1		648.3303690015055	0.5667326323818997
199.0	576.5114403628068	fix	2.0		60	attractiveness	091	2.0	1	-0.6499999999999999	648.8971016338874	0.5000573527431698
200.0	577.0114977155499	cue	0.0		480						649.3971589866305	4.000489611305966
200.0	581.0119873268559	fix	1.0		120						653.3976485979365	1.016805560921057
200.0	582.028792887777	face	0.0		147	dominance	137	2.0	1		654.4144541588576	1.2334531301312381
200.0	583.2622460179082	rating	1.0		155	dominance	137	2.0	1		655.6479072889888	1.300169764119346
200.0	584.5624157820275	fix	2.0		60	dominance	137	2.0	1	1.29	656.9480770531081	0.5167491137472098
201.0	585.0791648957747	face	0.0		147	dominance	087	2.0	1		657.4648261668553	1.2334576579814893
201.0	586.3126225537562	rating	1.0		40	dominance	087	2.0	1		658.6982838248368	0.3417034126687213
201.0	586.654325966425	fix	2.0		60	dominance	087	2.0	1	-2.46	659.0399872375056	0.516753641597461
202.0	587.1710796080224	face	0.0		147	dominance	117	2.0	1		659.556740879103	1.2334612802587799
202.0	588.4045408882812	rating	1.0		49	dominance	117	2.0	1		660.7902021593618	0.4167126494794502
202.0	588.8212535377606	fix	2.0		60	dominance	117	2.0	1	0.8499999999999996	661.2069148088412	0.516753641597461
203.0	589.3380071793581	face	0.0		147	dominance	005	2.0	1		661.7236684504387	1.233465204390086
203.0	590.5714723837482	rating	1.0		43	dominance	005	2.0	1		662.9571336548288	0.3667004544768133
203.0	590.938172838225	fix	2.0		60	dominance	005	2.0	1	-1.4300000000000002	663.3238341093056	0.5167578675900586
204.0	591.4549307058151	face	0.0		147	dominance	064	2.0	1		663.8405919768957	1.233484523210791
204.0	592.6884152290258	rating	1.0		37	dominance	064	2.0	1		665.0740765001065	0.3166831279086182
204.0	593.0050983569345	fix	2.0		60	dominance	064	2.0	1	1.0099999999999998	665.3907596280151	0.5167512267471466
205.0	593.5218495836816	face	0.0		147	dominance	027	2.0	1		665.9075108547622	1.2334549412698834
205.0	594.7553045249515	rating	1.0		56	dominance	027	2.0	1		667.1409657960321	0.47505517937315744
205.0	595.2303597043247	fix	2.0		60	dominance	027	2.0	1	1.0599999999999996	667.6160209754053	0.5167614898673492
206.0	595.747121194192	face	0.0		147	dominance	038	2.0	1		668.1327824652726	1.2334464892883261
206.0	596.9805676834803	rating	1.0		146	dominance	038	2.0	1		669.3662289545609	1.2251967500924366
206.0	598.2057644335728	fix	2.0		60	dominance	038	2.0	1	-0.7799999999999998	670.5914257046534	0.5167056464088091
207.0	598.7224700799816	face	0.0		147	dominance	043	2.0	1		671.1081313510622	1.2334621858281025
207.0	599.9559322658097	rating	1.0		51	dominance	043	2.0	1		672.3415935368903	0.43338328052777797
207.0	600.3893155463375	fix	2.0		60	dominance	043	2.0	1	-1.4500000000000002	672.7749768174181	0.5167548490244371
208.0	600.9060703953619	face	0.0		147	dominance	009	2.0	1		673.2917316664425	1.2335098791591008
208.0	602.139580274521	rating	1.0		37	dominance	009	2.0	1		674.5252415456016	0.31665686639098567
208.0	602.456237140912	fix	2.0		60	dominance	009	2.0	1	0.9100000000000001	674.8418984119926	0.516747604466218
209.0	602.9729847453782	face	0.0		147	dominance	030	2.0	1		675.3586460164588	1.2334594691201346
209.0	604.2064442144983	rating	1.0		54	dominance	030	2.0	1		676.5921054855789	0.45838635946347495
209.0	604.6648305739618	fix	2.0		60	dominance	030	2.0	1	1.3499999999999996	677.0504918450424	0.5167554527361062
210.0	605.1815860266979	face	0.0		147	dominance	092	2.0	1		677.5672472977785	1.233465808109031
210.0	606.415051834807	rating	1.0		95	dominance	092	2.0	1		678.8007131058876	0.8000861498549057
210.0	607.2151379846619	fix	2.0		60	dominance	092	2.0	1	-1.79	679.6007992557425	0.516753641597461
211.0	607.7318916262593	face	0.0		147	dominance	066	2.0	1		680.1175528973399	1.2334594691164966
211.0	608.9653510953758	rating	1.0		95	dominance	066	2.0	1		681.3510123664564	0.8000955074094236
211.0	609.7654466027852	fix	2.0		60	dominance	066	2.0	1	2.08	682.1511078738658	0.5167557545937598
212.0	610.282202357379	face	0.0		147	dominance	070	2.0	1		682.6678636284596	1.233487843634066
212.0	611.5156902010131	rating	1.0		241	dominance	070	2.0	1		683.9013514720937	2.016878006492334
212.0	613.5325682075054	fix	2.0		60	dominance	070	2.0	1	0.9400000000000004	685.918229478586	0.5167518304551777
213.0	614.0493200379606	face	0.0		147	dominance	061	2.0	1		686.4349813090412	1.2334661099630466
213.0	615.2827861479236	rating	1.0		159	dominance	061	2.0	1		687.6684474190042	1.333485368410038
213.0	616.6162715163337	fix	2.0		60	dominance	061	2.0	1	1.21	689.0019327874143	0.5167539434551145
214.0	617.1330254597888	face	0.0		147	dominance	126	2.0	1		689.5186867308694	1.2334612802587799
214.0	618.3664867400475	rating	1.0		66	dominance	126	2.0	1		690.7521480111282	0.5583923362246423
214.0	618.9248790762722	fix	2.0		60	dominance	126	2.0	1	1.7400000000000002	691.3105403473528	0.5167560564477753
215.0	619.44163513272	face	0.0		147	dominance	036	2.0	1		691.8272964038006	1.2334597709777881
215.0	620.6750949036978	rating	1.0		227	dominance	036	2.0	1		693.0607561747784	1.900232489904738
215.0	622.5753273936025	fix	2.0		60	dominance	036	2.0	1	-0.5800000000000001	694.9609886646831	0.516750321174186
216.0	623.0920777147767	face	0.0		147	dominance	141	2.0	1		695.4777389858573	1.2334573561238358
216.0	624.3255350709005	rating	1.0		75	dominance	141	2.0	1		696.7111963419811	0.6334079120206297
216.0	624.9589429829211	fix	2.0		60	dominance	141	2.0	1	-0.9100000000000001	697.3446042540018	0.5167614898673492
217.0	625.4757044727885	face	0.0		147	dominance	100	2.0	1		697.8613657438691	1.2334528282772226
217.0	626.7091573010657	rating	1.0		117	dominance	100	2.0	1		699.0948185721463	0.9834504134232702
217.0	627.692607714489	fix	2.0		60	dominance	100	2.0	1	1.12	700.0782689855696	0.5167548490207992
218.0	628.2093625635098	face	0.0		147	dominance	172	2.0	1		700.5950238345904	1.2334561486968596
218.0	629.4428187122066	rating	1.0		82	dominance	172	2.0	1		701.8284799832873	0.6917483289253141
218.0	630.134567041132	fix	2.0		60	dominance	172	2.0	1	1.2400000000000002	702.5202283122126	0.5167578675864206
219.0	630.6513249087184	face	0.0		147	dominance	099	2.0	1		703.036986179799	1.2334564505545131
219.0	631.8847813592729	rating	1.0		49	dominance	099	2.0	1		704.2704426303535	0.4167226107456372
219.0	632.3015039700185	fix	2.0		60	dominance	099	2.0	1	0.8700000000000001	704.6871652410991	0.5167485100355407
220.0	632.8182524800541	face	0.0		147	dominance	136	2.0	1		705.2039137511347	1.2334627895397716
220.0	634.0517152695938	rating	1.0		37	dominance	136	2.0	1		706.4373765406744	0.3167087857182196
220.0	634.3684240553121	fix	2.0		60	dominance	136	2.0	1	1.2000000000000002	706.7540853263927	0.5167391524810228
221.0	634.8851632077931	face	0.0		147	dominance	082	2.0	1		707.2708244788737	1.2334603746894572
221.0	636.1186235824825	rating	1.0		84	dominance	082	2.0	1		708.5042848535631	0.7084168469737051
221.0	636.8270404294562	fix	2.0		60	dominance	082	2.0	1	-1.1600000000000001	709.2127017005369	0.5167530378857919
222.0	637.343793467342	face	0.0		147	dominance	102	2.0	1		709.7294547384226	1.2334600728318037
222.0	638.5772535401738	rating	1.0		73	dominance	102	2.0	1		710.9629148112544	0.6167384883992781
222.0	639.1939920285731	fix	2.0		60	dominance	102	2.0	1	-2.23	711.5796532996537	0.5167530378857919
223.0	639.7107450664589	face	0.0		147	dominance	033	2.0	1		712.0964063375395	1.2334594691164966
223.0	640.9442045355754	rating	1.0		117	dominance	033	2.0	1		713.329865806656	0.9834528282772226
223.0	641.9276573638526	fix	2.0		60	dominance	033	2.0	1	1.5	714.3133186349332	0.5167515286011621
224.0	642.4444088924538	face	0.0		147	dominance	062	2.0	1		714.8300701635344	1.2335089735897782
224.0	643.6779178660436	rating	1.0		70	dominance	062	2.0	1		716.0635791371242	0.5916859049902996
224.0	644.2696037710339	fix	2.0		60	dominance	062	2.0	1	1.5700000000000003	716.6552650421145	0.5167533397398074
225.0	644.7863571107737	face	0.0		147	dominance	011	2.0	1		717.1720183818543	1.2334612802587799
225.0	646.0198183910325	rating	1.0		189	dominance	011	2.0	1		718.4054796621131	1.5835218930515111
225.0	647.603340284084	fix	2.0		60	dominance	011	2.0	1	-0.8199999999999998	719.9890015551646	0.516750924889493
226.0	648.1200912089735	face	0.0		147	dominance	039	2.0	1		720.5057524800541	1.233461883970449
226.0	649.3535530929439	rating	1.0		82	dominance	039	2.0	1		721.7392143640245	0.6917474233523535
226.0	650.0453005162963	fix	2.0		60	dominance	039	2.0	1	-0.81	722.4309617873769	0.5167572638747515
227.0	650.562057780171	face	0.0		147	dominance	012	2.0	1		722.9477190512516	1.2334549412698834
227.0	651.7955127214409	rating	1.0		59	dominance	012	2.0	1		724.1811739925215	0.5000597675971221
227.0	652.295572489038	fix	2.0		60	dominance	012	2.0	1	1.0300000000000002	724.6812337601186	0.5167539434514765
228.0	652.8123264324895	face	0.0		147	dominance	130	2.0	1		725.1979877035701	1.2334646006820549
228.0	654.0457910331716	rating	1.0		63	dominance	130	2.0	1		726.4314523042522	0.53339680370118
228.0	654.5791878368727	fix	2.0		60	dominance	130	2.0	1	-1.2000000000000002	726.9648491079533	0.5167494156048633
229.0	655.0959372524776	face	0.0		147	dominance	124	2.0	1		727.4815985235582	1.2334621858281025
229.0	656.3293994383057	rating	1.0		241	dominance	124	2.0	1		728.7150607093863	2.016900645732676
229.0	658.3463000840384	fix	2.0		60	dominance	124	2.0	1	2.6500000000000004	730.731961355119	0.5167554527361062
230.0	658.8630555367745	face	0.0		147	dominance	042	2.0	1		731.2487168078551	1.2334594691164966
230.0	660.096515005891	rating	1.0		63	dominance	042	2.0	1		732.4821762769716	0.5333937851391966
230.0	660.6299087910302	fix	2.0		60	dominance	042	2.0	1	1.2599999999999998	733.0155700621108	0.5167578675864206
231.0	661.1466666586166	face	0.0		147	dominance	024	2.0	1		733.5323279296972	1.2334564505545131
231.0	662.3801231091711	rating	1.0		216	dominance	024	2.0	1		734.7657843802517	1.8085465849144384
231.0	664.1886696940855	fix	2.0		60	dominance	024	2.0	1	-0.6699999999999999	736.5743309651662	0.5167521323164692
232.0	664.705421826402	face	0.0		147	dominance	091	2.0	1		737.0910830974826	1.233461883970449
232.0	665.9388837103725	rating	1.0		49	dominance	091	2.0	1		738.3245449814531	0.41671747918371693
232.0	666.3556011895562	fix	2.0		60	dominance	091	2.0	1	-1.35	738.7412624606368	0.516750321174186
233.0	666.8723515107304	face	0.0		147	dominance	121	2.0	1		739.258012781811	1.2334603746894572
233.0	668.1058118854198	rating	1.0		39	dominance	121	2.0	1		740.4914731565004	0.3333718703506747
233.0	668.4391837557705	fix	2.0		60	dominance	121	2.0	1	0.8399999999999999	740.8248450268511	0.5167533397434454
234.0	668.955937095514	face	0.0		147	dominance	006	2.0	1		741.3415983665946	1.2334576579778513
234.0	670.1893947534918	rating	1.0		57	dominance	006	2.0	1		742.5750560245724	0.48339819224202074
234.0	670.6727929457338	fix	2.0		60	dominance	006	2.0	1	0.8099999999999996	743.0584542168144	0.5084894132887712
235.0	671.1812823590226	face	0.0		148	dominance	044	2.0	1		743.5669436301032	1.2417188677245576
235.0	672.4230012267471	rating	1.0		54	dominance	044	2.0	1		744.8086624978278	0.45839239659471787
235.0	672.8813936233419	fix	2.0		60	dominance	044	2.0	1	-2.56	745.2670548944225	0.5167460951852263
236.0	673.3981397185271	face	0.0		147	dominance	144	2.0	1		745.7838009896077	1.2334594691164966
236.0	674.6315991876436	rating	1.0		143	dominance	144	2.0	1		747.0172604587242	1.2001417518295057
236.0	675.8317409394731	fix	2.0		60	dominance	144	2.0	1	0.9900000000000002	748.2174022105537	0.5167512267471466
237.0	676.3484921662202	face	0.0		147	dominance	018	2.0	1		748.7341534373008	1.233467921101692
237.0	677.5819600873219	rating	1.0		54	dominance	018	2.0	1		749.9676213584025	0.4583791149088938
237.0	678.0403392022308	fix	2.0		60	dominance	018	2.0	1	-0.3900000000000001	750.4260004733114	0.5167590750133968
238.0	678.5570982772442	face	0.0		147	dominance	034	2.0	1		750.9427595483248	1.2334573561238358
238.0	679.7905556333681	rating	1.0		43	dominance	034	2.0	1		752.1762169044487	0.36670769903139444
238.0	680.1572633323995	fix	2.0		60	dominance	034	2.0	1	-2.06	752.5429246034801	0.516750321174186
239.0	680.6740136535736	face	0.0		147	dominance	101	2.0	1		753.0596749246542	1.233462487685756
239.0	681.9074761412594	rating	1.0		89	dominance	101	2.0	1		754.29313741234	0.7500941792386584
239.0	682.657570320498	fix	2.0		60	dominance	101	2.0	1	1.6399999999999997	755.0432315915787	0.5000597675971221
