trial_nr	onset	event_type	phase	response	nr_frames	face_age	face_sex	face_eth	attractiveness	expression	face_id	sub_id	ses	run	trial_type	catch	onset_abs	duration
-1.0	0.05507790674619173	fix	0.0		714												11.610258594433617	5.9663633144791675
-1.0	0.7050328853738392	pulse	0.0	t													12.260213573061264	
-1.0	1.4049958480127316	pulse	0.0	t													12.960176535700157	
-1.0	2.104990505215028	pulse	0.0	t													13.660171192902453	
-1.0	2.8049601086186158	pulse	0.0	t													14.360140796306041	
-1.0	3.5049448046729594	pulse	0.0	t													15.060125492360385	
-1.0	4.204949724876315	pulse	0.0	t													15.76013041256374	
-1.0	4.904901820807936	pulse	0.0	t													16.46008250849536	
-1.0	5.604885007596749	pulse	0.0	t													17.160065695284175	
0.0	6.021441221225359	face	0.0		144	22.0	male	black	2.767608436132113	neutral	044	sub-03	1.0	5.0	044_neutral	0.0	17.576621908912784	1.2332879849527671
0.0	6.3048763444157885	pulse	0.0	t		22.0	male	black	2.767608436132113	neutral	044	sub-03	1.0	5.0	044_neutral	0.0	17.860057032103214	
0.0	7.004848664497331	pulse	0.0	t		22.0	male	black	2.767608436132113	neutral	044	sub-03	1.0	5.0	044_neutral	0.0	18.560029352184756	
0.0	7.254729206178126	fix	1.0		444	22.0	male	black	2.767608436132113	neutral	044	sub-03	1.0	5.0	044_neutral	0.0	18.80990989386555	3.7582287387585893
0.0	7.704846038375763	pulse	1.0	t		22.0	male	black	2.767608436132113	neutral	044	sub-03	1.0	5.0	044_neutral	0.0	19.260026726063188	
0.0	8.404816245486472	pulse	1.0	t		22.0	male	black	2.767608436132113	neutral	044	sub-03	1.0	5.0	044_neutral	0.0	19.959996933173898	
0.0	9.10480305451074	pulse	1.0	t		22.0	male	black	2.767608436132113	neutral	044	sub-03	1.0	5.0	044_neutral	0.0	20.659983742198165	
0.0	9.80476541344342	pulse	1.0	t		22.0	male	black	2.767608436132113	neutral	044	sub-03	1.0	5.0	044_neutral	0.0	21.359946101130845	
0.0	10.504751015056172	pulse	1.0	t		22.0	male	black	2.767608436132113	neutral	044	sub-03	1.0	5.0	044_neutral	0.0	22.059931702743597	
1.0	11.012957944936716	face	0.0		146	25.0	female	west_asian	2.6756864305610826	neutral	064	sub-03	1.0	5.0	064_neutral	0.0	22.56813863262414	1.2416375403690836
1.0	11.204726957373168	pulse	0.0	t		25.0	female	west_asian	2.6756864305610826	neutral	064	sub-03	1.0	5.0	064_neutral	0.0	22.759907645060593	
1.0	11.904711351574406	pulse	0.0	t		25.0	female	west_asian	2.6756864305610826	neutral	064	sub-03	1.0	5.0	064_neutral	0.0	23.45989203926183	
1.0	12.2545954853058	fix	1.0		444	25.0	female	west_asian	2.6756864305610826	neutral	064	sub-03	1.0	5.0	064_neutral	0.0	23.809776172993224	3.7582269276408624
1.0	12.604698764304885	pulse	1.0	t		25.0	female	west_asian	2.6756864305610826	neutral	064	sub-03	1.0	5.0	064_neutral	0.0	24.15987945199231	
1.0	13.30467712144582	pulse	1.0	t		25.0	female	west_asian	2.6756864305610826	neutral	064	sub-03	1.0	5.0	064_neutral	0.0	24.859857809133246	
1.0	14.004650648938878	pulse	1.0	t		25.0	female	west_asian	2.6756864305610826	neutral	064	sub-03	1.0	5.0	064_neutral	0.0	25.559831336626303	
1.0	14.704638061669357	pulse	1.0	t		25.0	female	west_asian	2.6756864305610826	neutral	064	sub-03	1.0	5.0	064_neutral	0.0	26.259818749356782	
1.0	15.40461732436961	pulse	1.0	t		25.0	female	west_asian	2.6756864305610826	neutral	064	sub-03	1.0	5.0	064_neutral	0.0	26.959798012057036	
2.0	16.01282241294666	face	0.0		146	28.0	male	white	3.9076800636689217	smiling	033	sub-03	1.0	5.0	033_smiling	1.0	27.568003100634087	1.2416360311044627
2.0	16.104612887130315	pulse	0.0	t		28.0	male	white	3.9076800636689217	smiling	033	sub-03	1.0	5.0	033_smiling	1.0	27.65979357481774	
2.0	16.80458430165254	pulse	0.0	t		28.0	male	white	3.9076800636689217	smiling	033	sub-03	1.0	5.0	033_smiling	1.0	28.359764989339965	
2.0	17.254458444051124	fix	1.0		236	28.0	male	white	3.9076800636689217	smiling	033	sub-03	1.0	5.0	033_smiling	1.0	28.80963913173855	2.008303975614581
2.0	17.504565979176732	pulse	1.0	t		28.0	male	white	3.9076800636689217	smiling	033	sub-03	1.0	5.0	033_smiling	1.0	29.059746666864157	
2.0	18.204547052994712	pulse	1.0	t		28.0	male	white	3.9076800636689217	smiling	033	sub-03	1.0	5.0	033_smiling	1.0	29.759727740682138	
2.0	18.904519976781557	pulse	1.0	t		28.0	male	white	3.9076800636689217	smiling	033	sub-03	1.0	5.0	033_smiling	1.0	30.459700664468983	
2.0	19.262762419665705	rating	2.0		234	28.0	male	white	3.9076800636689217	smiling	033	sub-03	1.0	5.0	033_smiling	1.0	30.81794310735313	1.9915921869578597
2.0	19.59937256838566	pulse	2.0	t		28.0	male	white	3.9076800636689217	smiling	033	sub-03	1.0	5.0	033_smiling	1.0	31.154553256073086	
2.0	19.92949831128408	response	2.0	e		28.0	male	white	3.9076800636689217	smiling	033	sub-03	1.0	5.0	033_smiling	1.0	31.484678998971503	
2.0	20.30448272812373	pulse	2.0	t		28.0	male	white	3.9076800636689217	smiling	033	sub-03	1.0	5.0	033_smiling	1.0	31.859663415811156	
2.0	21.00446138711777	pulse	2.0	t		28.0	male	white	3.9076800636689217	smiling	033	sub-03	1.0	5.0	033_smiling	1.0	32.5596420748052	
2.0	21.254354606623565	fix	3.0		445	28.0	male	white	3.9076800636689217	smiling	033	sub-03	1.0	5.0	033_smiling	1.0	32.80953529431099	3.7582220979929843
2.0	21.70444970540666	pulse	3.0	t		28.0	male	white	3.9076800636689217	smiling	033	sub-03	1.0	5.0	033_smiling	1.0	33.259630393094085	
2.0	22.404431382930852	pulse	3.0	t		28.0	male	white	3.9076800636689217	smiling	033	sub-03	1.0	5.0	033_smiling	1.0	33.95961207061828	
2.0	23.10441819195512	pulse	3.0	t		28.0	male	white	3.9076800636689217	smiling	033	sub-03	1.0	5.0	033_smiling	1.0	34.659598879642544	
2.0	23.804383871271057	pulse	3.0	t		28.0	male	white	3.9076800636689217	smiling	033	sub-03	1.0	5.0	033_smiling	1.0	35.35956455895848	
2.0	24.504382452561913	pulse	3.0	t		28.0	male	white	3.9076800636689217	smiling	033	sub-03	1.0	5.0	033_smiling	1.0	36.05956314024934	
3.0	25.01257670461655	face	0.0		146	26.0	male	white	2.7966573816155993	smiling	117	sub-03	1.0	5.0	117_smiling	0.0	36.567757392303974	1.2416496144887788
3.0	25.204360809702848	pulse	0.0	t		26.0	male	white	2.7966573816155993	smiling	117	sub-03	1.0	5.0	117_smiling	0.0	36.75954149739027	
3.0	25.904335846460526	pulse	0.0	t		26.0	male	white	2.7966573816155993	smiling	117	sub-03	1.0	5.0	117_smiling	0.0	37.45951653414795	
3.0	26.254226319105328	fix	1.0		444	26.0	male	white	2.7966573816155993	smiling	117	sub-03	1.0	5.0	117_smiling	0.0	37.80940700679275	3.7582160609335915
3.0	26.604317222131613	pulse	1.0	t		26.0	male	white	2.7966573816155993	smiling	117	sub-03	1.0	5.0	117_smiling	0.0	38.15949790981904	
3.0	27.304295277419442	pulse	1.0	t		26.0	male	white	2.7966573816155993	smiling	117	sub-03	1.0	5.0	117_smiling	0.0	38.85947596510687	
3.0	28.004253410410456	pulse	1.0	t		26.0	male	white	2.7966573816155993	smiling	117	sub-03	1.0	5.0	117_smiling	0.0	39.55943409809788	
3.0	28.704267989909567	pulse	1.0	t		26.0	male	white	2.7966573816155993	smiling	117	sub-03	1.0	5.0	117_smiling	0.0	40.25944867759699	
3.0	29.404236989608762	pulse	1.0	t		26.0	male	white	2.7966573816155993	smiling	117	sub-03	1.0	5.0	117_smiling	0.0	40.95941767729619	
4.0	30.01244238003892	face	0.0		146	37.0	male	white	3.898925586947871	smiling	101	sub-03	1.0	5.0	101_smiling	0.0	41.567623067726345	1.2416375403690836
4.0	30.104233457928785	pulse	0.0	t		37.0	male	white	3.898925586947871	smiling	101	sub-03	1.0	5.0	101_smiling	0.0	41.65941414561621	
4.0	30.804197326126086	pulse	0.0	t		37.0	male	white	3.898925586947871	smiling	101	sub-03	1.0	5.0	101_smiling	0.0	42.35937801381351	
4.0	31.254079920408003	fix	1.0		444	37.0	male	white	3.898925586947871	smiling	101	sub-03	1.0	5.0	101_smiling	0.0	42.80926060809543	3.758220286874348
4.0	31.50420164262414	pulse	1.0	t		37.0	male	white	3.898925586947871	smiling	101	sub-03	1.0	5.0	101_smiling	0.0	43.059382330311564	
4.0	32.204158870055835	pulse	1.0	t		37.0	male	white	3.898925586947871	smiling	101	sub-03	1.0	5.0	101_smiling	0.0	43.75933955774326	
4.0	32.90414598093321	pulse	1.0	t		37.0	male	white	3.898925586947871	smiling	101	sub-03	1.0	5.0	101_smiling	0.0	44.45932666862063	
4.0	33.60412252695642	pulse	1.0	t		37.0	male	white	3.898925586947871	smiling	101	sub-03	1.0	5.0	101_smiling	0.0	45.15930321464384	
4.0	34.30411567489409	pulse	1.0	t		37.0	male	white	3.898925586947871	smiling	101	sub-03	1.0	5.0	101_smiling	0.0	45.85929636258152	
5.0	35.01230020728235	face	0.0		147	20.0	male	black	2.609629924393156	smiling	043	sub-03	1.0	5.0	043_smiling	0.0	46.567480894969776	1.2416411626054469
5.0	35.005544737479795	pulse	0.0	t		20.0	male	black	2.609629924393156	smiling	043	sub-03	1.0	5.0	043_smiling	0.0	46.56072542516722	
5.0	35.70407269102907	pulse	0.0	t		20.0	male	black	2.609629924393156	smiling	043	sub-03	1.0	5.0	043_smiling	0.0	47.259253378716494	
5.0	36.2539413698878	fix	1.0		443	20.0	male	black	2.609629924393156	smiling	043	sub-03	1.0	5.0	043_smiling	0.0	47.80912205757522	3.758327142831149
5.0	36.404061914877275	pulse	1.0	t		20.0	male	black	2.609629924393156	smiling	043	sub-03	1.0	5.0	043_smiling	0.0	47.9592426025647	
5.0	37.104039970165104	pulse	1.0	t		20.0	male	black	2.609629924393156	smiling	043	sub-03	1.0	5.0	043_smiling	0.0	48.65922065785253	
5.0	37.80400353651021	pulse	1.0	t		20.0	male	black	2.609629924393156	smiling	043	sub-03	1.0	5.0	043_smiling	0.0	49.359184224197634	
5.0	38.50399245850531	pulse	1.0	t		20.0	male	black	2.609629924393156	smiling	043	sub-03	1.0	5.0	043_smiling	0.0	50.059173146192734	
5.0	39.20397172120556	pulse	1.0	t		20.0	male	black	2.609629924393156	smiling	043	sub-03	1.0	5.0	043_smiling	0.0	50.75915240889299	
5.0	39.90394736166945	pulse	1.0	t		20.0	male	black	2.609629924393156	smiling	043	sub-03	1.0	5.0	043_smiling	0.0	51.45912804935688	
6.0	40.01226851271895	face	0.0		147	28.0	female	white	5.676880222841227	smiling	124	sub-03	1.0	5.0	124_smiling	0.0	51.56744920040637	1.2415394381496299
6.0	40.60393749107698	pulse	0.0	t		28.0	female	white	5.676880222841227	smiling	124	sub-03	1.0	5.0	124_smiling	0.0	52.1591181787644	
6.0	41.25380795086858	fix	1.0		443	28.0	female	white	5.676880222841227	smiling	124	sub-03	1.0	5.0	124_smiling	0.0	52.808988638556	3.758259829615781
6.0	41.30391343339397	pulse	1.0	t		28.0	female	white	5.676880222841227	smiling	124	sub-03	1.0	5.0	124_smiling	0.0	52.8590941210814	
6.0	42.00389843130051	pulse	1.0	t		28.0	female	white	5.676880222841227	smiling	124	sub-03	1.0	5.0	124_smiling	0.0	53.55907911898794	
6.0	42.70387829770607	pulse	1.0	t		28.0	female	white	5.676880222841227	smiling	124	sub-03	1.0	5.0	124_smiling	0.0	54.259058985393494	
6.0	43.40387989752708	pulse	1.0	t		28.0	female	white	5.676880222841227	smiling	124	sub-03	1.0	5.0	124_smiling	0.0	54.9590605852145	
6.0	44.103845576843014	pulse	1.0	t		28.0	female	white	5.676880222841227	smiling	124	sub-03	1.0	5.0	124_smiling	0.0	55.65902626453044	
6.0	44.80382000989539	pulse	1.0	t		28.0	female	white	5.676880222841227	smiling	124	sub-03	1.0	5.0	124_smiling	0.0	56.359000697582815	
7.0	45.01206778048436	face	0.0		146	20.0	female	white	3.9502586549940313	neutral	091	sub-03	1.0	5.0	091_neutral	0.0	56.56724846817178	1.2416145995421175
7.0	45.50381768562693	pulse	0.0	t		20.0	female	white	3.9502586549940313	neutral	091	sub-03	1.0	5.0	091_neutral	0.0	57.05899837331435	
7.0	46.203781855677335	pulse	0.0	t		20.0	female	white	3.9502586549940313	neutral	091	sub-03	1.0	5.0	091_neutral	0.0	57.75896254336476	
7.0	46.253682380026476	fix	1.0		445	20.0	female	white	3.9502586549940313	neutral	091	sub-03	1.0	5.0	091_neutral	0.0	57.8088630677139	3.7665490144345313
7.0	46.90377047582024	pulse	1.0	t		20.0	female	white	3.9502586549940313	neutral	091	sub-03	1.0	5.0	091_neutral	0.0	58.45895116350766	
7.0	47.603755775579884	pulse	1.0	t		20.0	female	white	3.9502586549940313	neutral	091	sub-03	1.0	5.0	091_neutral	0.0	59.15893646326731	
7.0	48.30372779380832	pulse	1.0	t		20.0	female	white	3.9502586549940313	neutral	091	sub-03	1.0	5.0	091_neutral	0.0	59.858908481495746	
7.0	49.00370645280236	pulse	1.0	t		20.0	female	white	3.9502586549940313	neutral	091	sub-03	1.0	5.0	091_neutral	0.0	60.55888714048979	
7.0	49.70368631920792	pulse	1.0	t		20.0	female	white	3.9502586549940313	neutral	091	sub-03	1.0	5.0	091_neutral	0.0	61.25886700689534	
8.0	50.02023139446101	face	0.0		145	19.0	male	white	2.243931555909272	smiling	130	sub-03	1.0	5.0	130_smiling	0.0	61.57541208214843	1.2333136424576878
8.0	50.40368550420499	pulse	0.0	t		19.0	male	white	2.243931555909272	smiling	130	sub-03	1.0	5.0	130_smiling	0.0	61.95886619189241	
8.0	51.10365450390327	pulse	0.0	t		19.0	male	white	2.243931555909272	smiling	130	sub-03	1.0	5.0	130_smiling	0.0	62.6588351915907	
8.0	51.253545036918695	fix	1.0		444	19.0	male	white	2.243931555909272	smiling	130	sub-03	1.0	5.0	130_smiling	0.0	62.80872572460612	3.758196440488973
8.0	51.80367451675647	pulse	1.0	t		19.0	male	white	2.243931555909272	smiling	130	sub-03	1.0	5.0	130_smiling	0.0	63.3588552044439	
8.0	52.50361242559757	pulse	1.0	t		19.0	male	white	2.243931555909272	smiling	130	sub-03	1.0	5.0	130_smiling	0.0	64.05879311328499	
8.0	53.20359349941555	pulse	1.0	t		19.0	male	white	2.243931555909272	smiling	130	sub-03	1.0	5.0	130_smiling	0.0	64.75877418710297	
8.0	53.90356823432012	pulse	1.0	t		19.0	male	white	2.243931555909272	smiling	130	sub-03	1.0	5.0	130_smiling	0.0	65.45874892200754	
8.0	54.60355413778598	pulse	1.0	t		19.0	male	white	2.243931555909272	smiling	130	sub-03	1.0	5.0	130_smiling	0.0	66.1587348254734	
9.0	55.01174147740767	face	0.0		146	24.0	female	east_asian	2.9076800636689217	smiling	034	sub-03	1.0	5.0	034_smiling	0.0	66.5669221650951	1.2416583682252167
9.0	55.3035442671935	pulse	0.0	t		24.0	female	east_asian	2.9076800636689217	smiling	034	sub-03	1.0	5.0	034_smiling	0.0	66.85872495488093	
9.0	56.00351296503868	pulse	0.0	t		24.0	female	east_asian	2.9076800636689217	smiling	034	sub-03	1.0	5.0	034_smiling	0.0	67.5586936527261	
9.0	56.253399845632885	fix	1.0		444	24.0	female	east_asian	2.9076800636689217	smiling	034	sub-03	1.0	5.0	034_smiling	0.0	67.80858053332031	3.7665601829949082
9.0	56.7035027925931	pulse	1.0	t		24.0	female	east_asian	2.9076800636689217	smiling	034	sub-03	1.0	5.0	034_smiling	0.0	68.25868348028052	
9.0	57.40347994232252	pulse	1.0	t		24.0	female	east_asian	2.9076800636689217	smiling	034	sub-03	1.0	5.0	034_smiling	0.0	68.95866063000994	
9.0	58.10347580693633	pulse	1.0	t		24.0	female	east_asian	2.9076800636689217	smiling	034	sub-03	1.0	5.0	034_smiling	0.0	69.65865649462376	
9.0	58.8034435992231	pulse	1.0	t		24.0	female	east_asian	2.9076800636689217	smiling	034	sub-03	1.0	5.0	034_smiling	0.0	70.35862428691053	
9.0	59.50342889898275	pulse	1.0	t		24.0	female	east_asian	2.9076800636689217	smiling	034	sub-03	1.0	5.0	034_smiling	0.0	71.05860958667017	
10.0	60.01996002862779	face	0.0		145	28.0	male	white	3.9076800636689217	neutral	033	sub-03	1.0	5.0	033_neutral	0.0	71.57514071631522	1.2333169628400356
10.0	60.20341238762376	pulse	0.0	t		28.0	male	white	3.9076800636689217	neutral	033	sub-03	1.0	5.0	033_neutral	0.0	71.75859307531118	
10.0	60.90338138732295	pulse	0.0	t		28.0	male	white	3.9076800636689217	neutral	033	sub-03	1.0	5.0	033_neutral	0.0	72.45856207501038	
10.0	61.25327699146783	fix	1.0		444	28.0	male	white	3.9076800636689217	neutral	033	sub-03	1.0	5.0	033_neutral	0.0	72.80845767915525	3.7583407262163746
10.0	61.60337151672957	pulse	1.0	t		28.0	male	white	3.9076800636689217	neutral	033	sub-03	1.0	5.0	033_neutral	0.0	73.15855220441699	
10.0	62.30333810160482	pulse	1.0	t		28.0	male	white	3.9076800636689217	neutral	033	sub-03	1.0	5.0	033_neutral	0.0	73.85851878929225	
10.0	63.00332702359992	pulse	1.0	t		28.0	male	white	3.9076800636689217	neutral	033	sub-03	1.0	5.0	033_neutral	0.0	74.55850771128735	
10.0	63.70330658815328	pulse	1.0	t		28.0	male	white	3.9076800636689217	neutral	033	sub-03	1.0	5.0	033_neutral	0.0	75.25848727584071	
10.0	64.40328705826505	pulse	1.0	t		28.0	male	white	3.9076800636689217	neutral	033	sub-03	1.0	5.0	033_neutral	0.0	75.95846774595248	
11.0	65.0116177176842	face	0.0		146	23.0	male	white	2.6275368085953046	smiling	141	sub-03	1.0	5.0	141_smiling	0.0	76.56679840537163	1.24150200837812
11.0	65.10327718767257	pulse	0.0	t		23.0	male	white	2.6275368085953046	smiling	141	sub-03	1.0	5.0	141_smiling	0.0	76.65845787536	
11.0	65.80324950775321	pulse	0.0	t		23.0	male	white	2.6275368085953046	smiling	141	sub-03	1.0	5.0	141_smiling	0.0	77.35843019544063	
11.0	66.25311972606232	fix	1.0		444	23.0	male	white	2.6275368085953046	smiling	141	sub-03	1.0	5.0	141_smiling	0.0	77.80830041374975	3.7665508255531677
11.0	66.50324929645649	pulse	1.0	t		23.0	male	white	2.6275368085953046	smiling	141	sub-03	1.0	5.0	141_smiling	0.0	78.05842998414391	
11.0	67.20321437206621	pulse	1.0	t		23.0	male	white	2.6275368085953046	smiling	141	sub-03	1.0	5.0	141_smiling	0.0	78.75839505975364	
11.0	67.90319091808942	pulse	1.0	t		23.0	male	white	2.6275368085953046	smiling	141	sub-03	1.0	5.0	141_smiling	0.0	79.45837160577685	
11.0	68.60318376417308	pulse	1.0	t		23.0	male	white	2.6275368085953046	smiling	141	sub-03	1.0	5.0	141_smiling	0.0	80.1583644518605	
11.0	69.30317449728682	pulse	1.0	t		23.0	male	white	2.6275368085953046	smiling	141	sub-03	1.0	5.0	141_smiling	0.0	80.85835518497424	
12.0	70.01967055161549	face	0.0		146	34.0	male	white	2.651014723438122	smiling	121	sub-03	1.0	5.0	121_smiling	0.0	81.57485123930292	1.2333202832223833
12.0	70.00595223901018	pulse	0.0	t		34.0	male	white	2.651014723438122	smiling	121	sub-03	1.0	5.0	121_smiling	0.0	81.56113292669761	
12.0	70.7031197411552	pulse	0.0	t		34.0	male	white	2.651014723438122	smiling	121	sub-03	1.0	5.0	121_smiling	0.0	82.25830042884263	
12.0	71.25299083483787	fix	1.0		443	34.0	male	white	2.651014723438122	smiling	121	sub-03	1.0	5.0	121_smiling	0.0	82.8081715225253	3.7665625978197568
12.0	71.40310534276796	pulse	1.0	t		34.0	male	white	2.651014723438122	smiling	121	sub-03	1.0	5.0	121_smiling	0.0	82.95828603045538	
12.0	72.103084001762	pulse	1.0	t		34.0	male	white	2.651014723438122	smiling	121	sub-03	1.0	5.0	121_smiling	0.0	83.65826468944942	
12.0	72.80305269960718	pulse	1.0	t		34.0	male	white	2.651014723438122	smiling	121	sub-03	1.0	5.0	121_smiling	0.0	84.3582333872946	
12.0	73.50305097904493	pulse	1.0	t		34.0	male	white	2.651014723438122	smiling	121	sub-03	1.0	5.0	121_smiling	0.0	85.05823166673235	
12.0	74.2030187713317	pulse	1.0	t		34.0	male	white	2.651014723438122	smiling	121	sub-03	1.0	5.0	121_smiling	0.0	85.75819945901912	
12.0	74.90300618406218	pulse	1.0	t		34.0	male	white	2.651014723438122	smiling	121	sub-03	1.0	5.0	121_smiling	0.0	86.4581868717496	
13.0	75.01955343265763	face	0.0		146	25.0	female	black	3.858336649423	smiling	126	sub-03	1.0	5.0	126_smiling	1.0	86.57473412034506	1.2333130387505662
13.0	75.60298816343948	pulse	0.0	t		25.0	female	black	3.858336649423	smiling	126	sub-03	1.0	5.0	126_smiling	1.0	87.1581688511269	
13.0	76.2528664714082	fix	1.0		236	25.0	female	black	3.858336649423	smiling	126	sub-03	1.0	5.0	126_smiling	1.0	87.80804715909562	1.9999354034616772
13.0	76.30297195393359	pulse	1.0	t		25.0	female	black	3.858336649423	smiling	126	sub-03	1.0	5.0	126_smiling	1.0	87.85815264162102	
13.0	77.00294457586824	pulse	1.0	t		25.0	female	black	3.858336649423	smiling	126	sub-03	1.0	5.0	126_smiling	1.0	88.55812526355567	
13.0	77.70293168674561	pulse	1.0	t		25.0	female	black	3.858336649423	smiling	126	sub-03	1.0	5.0	126_smiling	1.0	89.25811237443304	
13.0	78.25280187486987	rating	2.0		235	25.0	female	black	3.858336649423	smiling	126	sub-03	1.0	5.0	126_smiling	1.0	89.8079825625573	1.9999444590503117
13.0	78.3978150673538	pulse	2.0	t		25.0	female	black	3.858336649423	smiling	126	sub-03	1.0	5.0	126_smiling	1.0	89.95299575504123	
13.0	79.09765789250469	pulse	2.0	t		25.0	female	black	3.858336649423	smiling	126	sub-03	1.0	5.0	126_smiling	1.0	90.65283858019211	
13.0	79.79763292926327	pulse	2.0	t		25.0	female	black	3.858336649423	smiling	126	sub-03	1.0	5.0	126_smiling	1.0	91.3528136169507	
13.0	79.84451824414555	response	2.0	b		25.0	female	black	3.858336649423	smiling	126	sub-03	1.0	5.0	126_smiling	1.0	91.39969893183297	
13.0	80.25274633392019	fix	3.0		444	25.0	female	black	3.858336649423	smiling	126	sub-03	1.0	5.0	126_smiling	1.0	91.80792702160761	3.7665574663187726
13.0	80.50285658572284	pulse	3.0	t		25.0	female	black	3.858336649423	smiling	126	sub-03	1.0	5.0	126_smiling	1.0	92.05803727341026	
13.0	81.20282649098044	pulse	3.0	t		25.0	female	black	3.858336649423	smiling	126	sub-03	1.0	5.0	126_smiling	1.0	92.75800717866787	
13.0	81.90280454626827	pulse	3.0	t		25.0	female	black	3.858336649423	smiling	126	sub-03	1.0	5.0	126_smiling	1.0	93.4579852339557	
13.0	82.60279437382269	pulse	3.0	t		25.0	female	black	3.858336649423	smiling	126	sub-03	1.0	5.0	126_smiling	1.0	94.15797506151011	
13.0	83.30277242911052	pulse	3.0	t		25.0	female	black	3.858336649423	smiling	126	sub-03	1.0	5.0	126_smiling	1.0	94.85795311679794	
14.0	84.01930380023896	face	0.0		146	30.0	female	black	2.7345801830481498	neutral	062	sub-03	1.0	5.0	062_neutral	0.0	95.57448448792638	1.2333051905734465
14.0	84.00563680264077	pulse	0.0	t		30.0	female	black	2.7345801830481498	neutral	062	sub-03	1.0	5.0	062_neutral	0.0	95.56081749032819	
14.0	84.70274363233602	pulse	0.0	t		30.0	female	black	2.7345801830481498	neutral	062	sub-03	1.0	5.0	062_neutral	0.0	96.25792432002345	
14.0	85.2526089908124	fix	1.0		443	30.0	female	black	2.7345801830481498	neutral	062	sub-03	1.0	5.0	062_neutral	0.0	96.80778967849983	3.7665653144958924
14.0	85.40272259318317	pulse	1.0	t		30.0	female	black	2.7345801830481498	neutral	062	sub-03	1.0	5.0	062_neutral	0.0	96.9579032808706	
14.0	86.10270245958873	pulse	1.0	t		30.0	female	black	2.7345801830481498	neutral	062	sub-03	1.0	5.0	062_neutral	0.0	97.65788314727615	
14.0	86.8026895704661	pulse	1.0	t		30.0	female	black	2.7345801830481498	neutral	062	sub-03	1.0	5.0	062_neutral	0.0	98.35787025815353	
14.0	87.5026591738706	pulse	1.0	t		30.0	female	black	2.7345801830481498	neutral	062	sub-03	1.0	5.0	062_neutral	0.0	99.05783986155802	
14.0	88.2026538310729	pulse	1.0	t		30.0	female	black	2.7345801830481498	neutral	062	sub-03	1.0	5.0	062_neutral	0.0	99.75783451876032	
14.0	88.90262252891898	pulse	1.0	t		30.0	female	black	2.7345801830481498	neutral	062	sub-03	1.0	5.0	062_neutral	0.0	100.45780321660641	
15.0	89.0191743053083	face	0.0		146	40.0	female	west_asian	1.5777954635893354	neutral	038	sub-03	1.0	5.0	038_neutral	0.0	100.57435499299572	1.2333027757495074
15.0	89.60261386573802	pulse	0.0	t		40.0	female	west_asian	1.5777954635893354	neutral	038	sub-03	1.0	5.0	038_neutral	0.0	101.15779455342545	
15.0	90.2524770810578	fix	1.0		443	40.0	female	west_asian	1.5777954635893354	neutral	038	sub-03	1.0	5.0	038_neutral	0.0	101.80765776874523	3.7665598811427117
15.0	90.30258709137797	pulse	1.0	t		40.0	female	west_asian	1.5777954635893354	neutral	038	sub-03	1.0	5.0	038_neutral	0.0	101.8577677790654	
15.0	91.00256846704906	pulse	1.0	t		40.0	female	west_asian	1.5777954635893354	neutral	038	sub-03	1.0	5.0	038_neutral	0.0	102.55774915473648	
15.0	91.70254622048378	pulse	1.0	t		40.0	female	west_asian	1.5777954635893354	neutral	038	sub-03	1.0	5.0	038_neutral	0.0	103.25772690817121	
15.0	92.40253665174441	pulse	1.0	t		40.0	female	west_asian	1.5777954635893354	neutral	038	sub-03	1.0	5.0	038_neutral	0.0	103.95771733943184	
15.0	93.10251289591451	pulse	1.0	t		40.0	female	west_asian	1.5777954635893354	neutral	038	sub-03	1.0	5.0	038_neutral	0.0	104.65769358360194	
15.0	93.80248642340757	pulse	1.0	t		40.0	female	west_asian	1.5777954635893354	neutral	038	sub-03	1.0	5.0	038_neutral	0.0	105.357667111095	
16.0	94.01903696220052	face	0.0		145	24.0	female	black	3.0955033824114606	neutral	099	sub-03	1.0	5.0	099_neutral	0.0	105.57421764988794	1.233300662777765
16.0	94.50247715652131	pulse	0.0	t		24.0	female	black	3.0955033824114606	neutral	099	sub-03	1.0	5.0	099_neutral	0.0	106.05765784420873	
16.0	95.20245340069141	pulse	0.0	t		24.0	female	black	3.0955033824114606	neutral	099	sub-03	1.0	5.0	099_neutral	0.0	106.75763408837884	
16.0	95.25233762497828	fix	1.0		445	24.0	female	black	3.0955033824114606	neutral	099	sub-03	1.0	5.0	099_neutral	0.0	106.8075183126657	3.7665638052312715
16.0	95.9024537931	pulse	1.0	t		24.0	female	black	3.0955033824114606	neutral	099	sub-03	1.0	5.0	099_neutral	0.0	107.45763448078742	
16.0	96.60243577247638	pulse	1.0	t		24.0	female	black	3.0955033824114606	neutral	099	sub-03	1.0	5.0	099_neutral	0.0	108.15761646016381	
16.0	97.30239269805588	pulse	1.0	t		24.0	female	black	3.0955033824114606	neutral	099	sub-03	1.0	5.0	099_neutral	0.0	108.85757338574331	
16.0	98.00236652740205	pulse	1.0	t		24.0	female	black	3.0955033824114606	neutral	099	sub-03	1.0	5.0	099_neutral	0.0	109.55754721508947	
16.0	98.70236993834078	pulse	1.0	t		24.0	female	black	3.0955033824114606	neutral	099	sub-03	1.0	5.0	099_neutral	0.0	110.2575506260282	
17.0	99.01890143020955	face	0.0		145	27.0	female	white	3.504576203740549	smiling	144	sub-03	1.0	5.0	144_smiling	0.0	110.57408211789698	1.2333039831619317
17.0	99.40234829548172	pulse	0.0	t		27.0	female	white	3.504576203740549	smiling	144	sub-03	1.0	5.0	144_smiling	0.0	110.95752898316914	
17.0	100.10232695447576	pulse	0.0	t		27.0	female	white	3.504576203740549	smiling	144	sub-03	1.0	5.0	144_smiling	0.0	111.65750764216318	
17.0	100.25220541337148	fix	1.0		444	27.0	female	white	3.504576203740549	smiling	144	sub-03	1.0	5.0	144_smiling	0.0	111.80738610105891	3.766562295965741
17.0	100.80230531161669	pulse	1.0	t		27.0	female	white	3.504576203740549	smiling	144	sub-03	1.0	5.0	144_smiling	0.0	112.35748599930412	
17.0	101.50228880025861	pulse	1.0	t		27.0	female	white	3.504576203740549	smiling	144	sub-03	1.0	5.0	144_smiling	0.0	113.05746948794604	
17.0	102.20225447957364	pulse	1.0	t		27.0	female	white	3.504576203740549	smiling	144	sub-03	1.0	5.0	144_smiling	0.0	113.75743516726106	
17.0	102.90224098674571	pulse	1.0	t		27.0	female	white	3.504576203740549	smiling	144	sub-03	1.0	5.0	144_smiling	0.0	114.45742167443314	
17.0	103.6022223624168	pulse	1.0	t		27.0	female	white	3.504576203740549	smiling	144	sub-03	1.0	5.0	144_smiling	0.0	115.15740305010422	
18.0	104.01876770933723	face	0.0		145	19.0	male	white	3.2522881018702745	neutral	018	sub-03	1.0	5.0	018_neutral	0.0	115.57394839702465	1.2333012664848866
18.0	104.30222034000144	pulse	0.0	t		19.0	male	white	3.2522881018702745	neutral	018	sub-03	1.0	5.0	018_neutral	0.0	115.85740102768887	
18.0	105.00219688602465	pulse	0.0	t		19.0	male	white	3.2522881018702745	neutral	018	sub-03	1.0	5.0	018_neutral	0.0	116.55737757371207	
18.0	105.25206897582211	fix	1.0		444	19.0	male	white	3.2522881018702745	neutral	018	sub-03	1.0	5.0	018_neutral	0.0	116.80724966350954	3.7665610885542264
18.0	105.70217222463543	pulse	1.0	t		19.0	male	white	3.2522881018702745	neutral	018	sub-03	1.0	5.0	018_neutral	0.0	117.25735291232286	
18.0	106.40215118548258	pulse	1.0	t		19.0	male	white	3.2522881018702745	neutral	018	sub-03	1.0	5.0	018_neutral	0.0	117.95733187317	
18.0	107.10213708894844	pulse	1.0	t		19.0	male	white	3.2522881018702745	neutral	018	sub-03	1.0	5.0	018_neutral	0.0	118.65731777663586	
18.0	107.80210639049983	pulse	1.0	t		19.0	male	white	3.2522881018702745	neutral	018	sub-03	1.0	5.0	018_neutral	0.0	119.35728707818726	
18.0	108.50209380323031	pulse	1.0	t		19.0	male	white	3.2522881018702745	neutral	018	sub-03	1.0	5.0	018_neutral	0.0	120.05727449091773	
19.0	109.01863006437634	face	0.0		145	31.0	male	west_asian	1.9538400318344609	smiling	070	sub-03	1.0	5.0	070_smiling	0.0	120.57381075206376	1.2333154535754147
19.0	109.20208031040147	pulse	0.0	t		31.0	male	west_asian	1.9538400318344609	smiling	070	sub-03	1.0	5.0	070_smiling	0.0	120.7572609980889	
19.0	109.90206500645581	pulse	0.0	t		31.0	male	west_asian	1.9538400318344609	smiling	070	sub-03	1.0	5.0	070_smiling	0.0	121.45724569414324	
19.0	110.25194551795175	fix	1.0		444	31.0	male	west_asian	1.9538400318344609	smiling	070	sub-03	1.0	5.0	070_smiling	0.0	121.80712620563918	3.766548712581425
19.0	110.60204728768531	pulse	1.0	t		31.0	male	west_asian	1.9538400318344609	smiling	070	sub-03	1.0	5.0	070_smiling	0.0	122.15722797537273	
19.0	111.30201236329503	pulse	1.0	t		31.0	male	west_asian	1.9538400318344609	smiling	070	sub-03	1.0	5.0	070_smiling	0.0	122.85719305098246	
19.0	112.00198951302355	pulse	1.0	t		31.0	male	west_asian	1.9538400318344609	smiling	070	sub-03	1.0	5.0	070_smiling	0.0	123.55717020071097	
19.0	112.70198054799039	pulse	1.0	t		31.0	male	west_asian	1.9538400318344609	smiling	070	sub-03	1.0	5.0	070_smiling	0.0	124.25716123567781	
19.0	113.401957999572	pulse	1.0	t		31.0	male	west_asian	1.9538400318344609	smiling	070	sub-03	1.0	5.0	070_smiling	0.0	124.95713868725943	
20.0	114.01849423053318	face	0.0		145	54.0	female	white	2.286908077994429	smiling	136	sub-03	1.0	5.0	136_smiling	0.0	125.5736749182206	1.2333054924265525
20.0	114.10196201421695	pulse	0.0	t		54.0	female	white	2.286908077994429	smiling	136	sub-03	1.0	5.0	136_smiling	0.0	125.65714270190438	
20.0	114.80192105276728	pulse	0.0	t		54.0	female	white	2.286908077994429	smiling	136	sub-03	1.0	5.0	136_smiling	0.0	126.35710174045471	
20.0	115.25179972295973	fix	1.0		444	54.0	female	white	2.286908077994429	smiling	136	sub-03	1.0	5.0	136_smiling	0.0	126.80698041064716	3.7665559570532423
20.0	115.5019045414083	pulse	1.0	t		54.0	female	white	2.286908077994429	smiling	136	sub-03	1.0	5.0	136_smiling	0.0	127.05708522909572	
20.0	116.2019124801418	pulse	1.0	t		54.0	female	white	2.286908077994429	smiling	136	sub-03	1.0	5.0	136_smiling	0.0	127.75709316782923	
20.0	116.9018636705141	pulse	1.0	t		54.0	female	white	2.286908077994429	smiling	136	sub-03	1.0	5.0	136_smiling	0.0	128.45704435820153	
20.0	117.60184806471534	pulse	1.0	t		54.0	female	white	2.286908077994429	smiling	136	sub-03	1.0	5.0	136_smiling	0.0	129.15702875240277	
20.0	118.30182672370938	pulse	1.0	t		54.0	female	white	2.286908077994429	smiling	136	sub-03	1.0	5.0	136_smiling	0.0	129.8570074113968	
21.0	119.01835568001297	face	0.0		146	47.0	male	east_asian	2.171110226820533	neutral	024	sub-03	1.0	5.0	024_neutral	0.0	130.5735363677004	1.2333208869285954
21.0	119.00465366746903	pulse	0.0	t		47.0	male	east_asian	2.171110226820533	neutral	024	sub-03	1.0	5.0	024_neutral	0.0	130.55983435515645	
21.0	119.7018054732589	pulse	0.0	t		47.0	male	east_asian	2.171110226820533	neutral	024	sub-03	1.0	5.0	024_neutral	0.0	131.25698616094633	
21.0	120.25167656694157	fix	1.0		443	47.0	male	east_asian	2.171110226820533	neutral	024	sub-03	1.0	5.0	024_neutral	0.0	131.806857254629	3.7665360347564274
21.0	120.40177598222272	pulse	1.0	t		47.0	male	east_asian	2.171110226820533	neutral	024	sub-03	1.0	5.0	024_neutral	0.0	131.95695666991014	
21.0	121.10175705603979	pulse	1.0	t		47.0	male	east_asian	2.171110226820533	neutral	024	sub-03	1.0	5.0	024_neutral	0.0	132.6569377437272	
21.0	121.80172515017966	pulse	1.0	t		47.0	male	east_asian	2.171110226820533	neutral	024	sub-03	1.0	5.0	024_neutral	0.0	133.3569058378671	
21.0	122.50170833696848	pulse	1.0	t		47.0	male	east_asian	2.171110226820533	neutral	024	sub-03	1.0	5.0	024_neutral	0.0	134.0568890246559	
21.0	123.20169424043434	pulse	1.0	t		47.0	male	east_asian	2.171110226820533	neutral	024	sub-03	1.0	5.0	024_neutral	0.0	134.75687492812176	
21.0	123.9016747105461	pulse	1.0	t		47.0	male	east_asian	2.171110226820533	neutral	024	sub-03	1.0	5.0	024_neutral	0.0	135.45685539823353	
22.0	124.018212601698	face	0.0		146	19.0	male	white	2.243931555909272	neutral	130	sub-03	1.0	5.0	130_neutral	0.0	135.57339328938542	1.2333115294859454
22.0	124.60166393439431	pulse	0.0	t		19.0	male	white	2.243931555909272	neutral	130	sub-03	1.0	5.0	130_neutral	0.0	136.15684462208173	
22.0	125.25152413118394	fix	1.0		443	19.0	male	white	2.243931555909272	neutral	130	sub-03	1.0	5.0	130_neutral	0.0	136.80670481887137	3.7582302480241196
22.0	125.3016392730051	pulse	1.0	t		19.0	male	white	2.243931555909272	neutral	130	sub-03	1.0	5.0	130_neutral	0.0	136.85681996069252	
22.0	126.00161732829383	pulse	1.0	t		19.0	male	white	2.243931555909272	neutral	130	sub-03	1.0	5.0	130_neutral	0.0	137.55679801598126	
22.0	126.70159508172856	pulse	1.0	t		19.0	male	white	2.243931555909272	neutral	130	sub-03	1.0	5.0	130_neutral	0.0	138.25677576941598	
22.0	127.40157736295805	pulse	1.0	t		19.0	male	white	2.243931555909272	neutral	130	sub-03	1.0	5.0	130_neutral	0.0	138.95675805064548	
22.0	128.10157111460103	pulse	1.0	t		19.0	male	white	2.243931555909272	neutral	130	sub-03	1.0	5.0	130_neutral	0.0	139.65675180228845	
22.0	128.8015392087409	pulse	1.0	t		19.0	male	white	2.243931555909272	neutral	130	sub-03	1.0	5.0	130_neutral	0.0	140.35671989642833	
23.0	129.00975437920806	face	0.0		146	20.0	female	white	3.9502586549940313	smiling	091	sub-03	1.0	5.0	091_smiling	0.0	140.5649350668955	1.2416351255451445
23.0	129.50152994185464	pulse	0.0	t		20.0	female	white	3.9502586549940313	smiling	091	sub-03	1.0	5.0	091_smiling	0.0	141.05671062954207	
23.0	130.2014980359936	pulse	0.0	t		20.0	female	white	3.9502586549940313	smiling	091	sub-03	1.0	5.0	091_smiling	0.0	141.75667872368103	
23.0	130.2513895047532	fix	1.0		1185	20.0	female	white	3.9502586549940313	smiling	091	sub-03	1.0	5.0	091_smiling	0.0	141.80657019244063	10.016394843022681
23.0	130.90149691913757	pulse	1.0	t		20.0	female	white	3.9502586549940313	smiling	091	sub-03	1.0	5.0	091_smiling	0.0	142.456677606825	
23.0	131.6014616928942	pulse	1.0	t		20.0	female	white	3.9502586549940313	smiling	091	sub-03	1.0	5.0	091_smiling	0.0	143.15664238058162	
23.0	132.30145544453808	pulse	1.0	t		20.0	female	white	3.9502586549940313	smiling	091	sub-03	1.0	5.0	091_smiling	0.0	143.8566361322255	
23.0	133.00144225356235	pulse	1.0	t		20.0	female	white	3.9502586549940313	smiling	091	sub-03	1.0	5.0	091_smiling	0.0	144.55662294124977	
23.0	133.7014031032304	pulse	1.0	t		20.0	female	white	3.9502586549940313	smiling	091	sub-03	1.0	5.0	091_smiling	0.0	145.25658379091783	
23.0	134.40139051596088	pulse	1.0	t		20.0	female	white	3.9502586549940313	smiling	091	sub-03	1.0	5.0	091_smiling	0.0	145.9565712036483	
23.0	135.10136555271856	pulse	1.0	t		20.0	female	white	3.9502586549940313	smiling	091	sub-03	1.0	5.0	091_smiling	0.0	146.656546240406	
23.0	135.80134632468344	pulse	1.0	t		20.0	female	white	3.9502586549940313	smiling	091	sub-03	1.0	5.0	091_smiling	0.0	147.35652701237086	
23.0	136.50132890776604	pulse	1.0	t		20.0	female	white	3.9502586549940313	smiling	091	sub-03	1.0	5.0	091_smiling	0.0	148.05650959545346	
23.0	137.20131028343712	pulse	1.0	t		20.0	female	white	3.9502586549940313	smiling	091	sub-03	1.0	5.0	091_smiling	0.0	148.75649097112455	
23.0	137.9012844146364	pulse	1.0	t		20.0	female	white	3.9502586549940313	smiling	091	sub-03	1.0	5.0	091_smiling	0.0	149.45646510232382	
23.0	138.6012790718387	pulse	1.0	t		20.0	female	white	3.9502586549940313	smiling	091	sub-03	1.0	5.0	091_smiling	0.0	150.15645975952611	
23.0	139.30125893824425	pulse	1.0	t		20.0	female	white	3.9502586549940313	smiling	091	sub-03	1.0	5.0	091_smiling	0.0	150.85643962593167	
23.0	140.00123397500283	pulse	1.0	t		20.0	female	white	3.9502586549940313	smiling	091	sub-03	1.0	5.0	091_smiling	0.0	151.55641466269026	
24.0	140.2677843477759	face	0.0		145	32.0	male	white	2.389176283326701	neutral	092	sub-03	1.0	5.0	092_neutral	1.0	151.8229650354633	1.2333012664848866
24.0	140.70122168958642	pulse	0.0	t		32.0	male	white	2.389176283326701	neutral	092	sub-03	1.0	5.0	092_neutral	1.0	152.25640237727384	
24.0	141.4011967263441	pulse	0.0	t		32.0	male	white	2.389176283326701	neutral	092	sub-03	1.0	5.0	092_neutral	1.0	152.95637741403152	
24.0	141.50108561426077	fix	1.0		237	32.0	male	white	2.389176283326701	neutral	092	sub-03	1.0	5.0	092_neutral	1.0	153.0562663019482	1.999943251638797
24.0	142.10118323351617	pulse	1.0	t		32.0	male	white	2.389176283326701	neutral	092	sub-03	1.0	5.0	092_neutral	1.0	153.6563639212036	
24.0	142.8011555535968	pulse	1.0	t		32.0	male	white	2.389176283326701	neutral	092	sub-03	1.0	5.0	092_neutral	1.0	154.35633624128423	
24.0	143.50102886589957	rating	2.0		235	32.0	male	white	2.389176283326701	neutral	092	sub-03	1.0	5.0	092_neutral	1.0	155.056209553587	1.999945666462736
24.0	143.4962275923208	pulse	2.0	t		32.0	male	white	2.389176283326701	neutral	092	sub-03	1.0	5.0	092_neutral	1.0	155.05140828000822	
24.0	144.00422262140637	response	2.0	y		32.0	male	white	2.389176283326701	neutral	092	sub-03	1.0	5.0	092_neutral	1.0	155.5594033090938	
24.0	144.19586183705906	pulse	2.0	t		32.0	male	white	2.389176283326701	neutral	092	sub-03	1.0	5.0	092_neutral	1.0	155.75104252474648	
24.0	144.9011144714059	pulse	2.0	t		32.0	male	white	2.389176283326701	neutral	092	sub-03	1.0	5.0	092_neutral	1.0	156.45629515909332	
24.0	145.5009745323623	fix	3.0		443	32.0	male	white	2.389176283326701	neutral	092	sub-03	1.0	5.0	092_neutral	1.0	157.05615522004973	3.758300277915623
24.0	145.60108769704584	pulse	3.0	t		32.0	male	white	2.389176283326701	neutral	092	sub-03	1.0	5.0	092_neutral	1.0	157.15626838473327	
24.0	146.30106001712738	pulse	3.0	t		32.0	male	white	2.389176283326701	neutral	092	sub-03	1.0	5.0	092_neutral	1.0	157.8562407048148	
24.0	147.00104410947552	pulse	3.0	t		32.0	male	white	2.389176283326701	neutral	092	sub-03	1.0	5.0	092_neutral	1.0	158.55622479716294	
24.0	147.70102427773418	pulse	3.0	t		32.0	male	white	2.389176283326701	neutral	092	sub-03	1.0	5.0	092_neutral	1.0	159.2562049654216	
24.0	148.40101108675844	pulse	3.0	t		32.0	male	white	2.389176283326701	neutral	092	sub-03	1.0	5.0	092_neutral	1.0	159.95619177444587	
24.0	149.10100000875445	pulse	3.0	t		32.0	male	white	2.389176283326701	neutral	092	sub-03	1.0	5.0	092_neutral	1.0	160.65618069644188	
25.0	149.25927481027793	face	0.0		147	24.0	male	white	3.1153999204138483	neutral	012	sub-03	1.0	5.0	012_neutral	0.0	160.81445549796535	1.2415675104766706
25.0	149.80097595107145	pulse	0.0	t		24.0	male	white	3.1153999204138483	neutral	012	sub-03	1.0	5.0	012_neutral	0.0	161.35615663875888	
25.0	150.5008423207546	fix	1.0		444	24.0	male	white	3.1153999204138483	neutral	012	sub-03	1.0	5.0	012_neutral	0.0	162.05602300844203	3.7665595792896056
25.0	150.50843845112013	pulse	1.0	t		24.0	male	white	3.1153999204138483	neutral	012	sub-03	1.0	5.0	012_neutral	0.0	162.06361913880755	
25.0	151.20093508017726	pulse	1.0	t		24.0	male	white	3.1153999204138483	neutral	012	sub-03	1.0	5.0	012_neutral	0.0	162.75611576786469	
25.0	151.9009074002579	pulse	1.0	t		24.0	male	white	3.1153999204138483	neutral	012	sub-03	1.0	5.0	012_neutral	0.0	163.45608808794532	
25.0	152.60088817222277	pulse	1.0	t		24.0	male	white	3.1153999204138483	neutral	012	sub-03	1.0	5.0	012_neutral	0.0	164.1560688599102	
25.0	153.30087618865946	pulse	1.0	t		24.0	male	white	3.1153999204138483	neutral	012	sub-03	1.0	5.0	012_neutral	0.0	164.85605687634688	
25.0	154.00085213097645	pulse	1.0	t		24.0	male	white	3.1153999204138483	neutral	012	sub-03	1.0	5.0	012_neutral	0.0	165.55603281866388	
26.0	154.2674019000442	face	0.0		145	24.0	female	east_asian	2.9076800636689217	neutral	034	sub-03	1.0	5.0	034_neutral	1.0	165.82258258773163	1.2332997572193563
26.0	154.7008434677964	pulse	0.0	t		24.0	female	east_asian	2.9076800636689217	neutral	034	sub-03	1.0	5.0	034_neutral	1.0	166.25602415548383	
26.0	155.40082756014363	pulse	0.0	t		24.0	female	east_asian	2.9076800636689217	neutral	034	sub-03	1.0	5.0	034_neutral	1.0	166.95600824783105	
26.0	155.50070165726356	fix	1.0		237	24.0	female	east_asian	2.9076800636689217	neutral	034	sub-03	1.0	5.0	034_neutral	1.0	167.055882344951	1.9999468738751602
26.0	156.10080410616683	pulse	1.0	t		24.0	female	east_asian	2.9076800636689217	neutral	034	sub-03	1.0	5.0	034_neutral	1.0	167.65598479385426	
26.0	156.80078367071928	pulse	1.0	t		24.0	female	east_asian	2.9076800636689217	neutral	034	sub-03	1.0	5.0	034_neutral	1.0	168.3559643584067	
26.0	157.50064853113872	rating	2.0		235	24.0	female	east_asian	2.9076800636689217	neutral	034	sub-03	1.0	5.0	034_neutral	1.0	169.05582921882615	1.999959249847052
26.0	157.49583307047033	pulse	2.0	t		24.0	female	east_asian	2.9076800636689217	neutral	034	sub-03	1.0	5.0	034_neutral	1.0	169.05101375815775	
26.0	158.19550806536154	pulse	2.0	t		24.0	female	east_asian	2.9076800636689217	neutral	034	sub-03	1.0	5.0	034_neutral	1.0	169.75068875304896	
26.0	158.70906383013426	response	2.0	e		24.0	female	east_asian	2.9076800636689217	neutral	034	sub-03	1.0	5.0	034_neutral	1.0	170.26424451782168	
26.0	158.89560052293018	pulse	2.0	t		24.0	female	east_asian	2.9076800636689217	neutral	034	sub-03	1.0	5.0	034_neutral	1.0	170.4507812106176	
26.0	159.50060778098577	fix	3.0		443	24.0	female	east_asian	2.9076800636689217	neutral	034	sub-03	1.0	5.0	034_neutral	1.0	171.0557884686732	3.7665493162876373
26.0	159.6007577717337	pulse	3.0	t		24.0	female	east_asian	2.9076800636689217	neutral	034	sub-03	1.0	5.0	034_neutral	1.0	171.15593845942112	
26.0	160.30068602127903	pulse	3.0	t		24.0	female	east_asian	2.9076800636689217	neutral	034	sub-03	1.0	5.0	034_neutral	1.0	171.85586670896646	
26.0	161.00066347286156	pulse	3.0	t		24.0	female	east_asian	2.9076800636689217	neutral	034	sub-03	1.0	5.0	034_neutral	1.0	172.555844160549	
26.0	161.70065088559204	pulse	3.0	t		24.0	female	east_asian	2.9076800636689217	neutral	034	sub-03	1.0	5.0	034_neutral	1.0	173.25583157327947	
26.0	162.4006250167904	pulse	3.0	t		24.0	female	east_asian	2.9076800636689217	neutral	034	sub-03	1.0	5.0	034_neutral	1.0	173.95580570447783	
26.0	163.10061212766868	pulse	3.0	t		24.0	female	east_asian	2.9076800636689217	neutral	034	sub-03	1.0	5.0	034_neutral	1.0	174.6557928153561	
27.0	163.2671570972734	face	0.0		146	31.0	female	white	2.1822522881018704	smiling	102	sub-03	1.0	5.0	102_smiling	0.0	174.82233778496084	1.2333060961318552
27.0	163.80059440889818	pulse	0.0	t		31.0	female	white	2.1822522881018704	smiling	102	sub-03	1.0	5.0	102_smiling	0.0	175.3557750965856	
27.0	164.50046319340527	fix	1.0		444	31.0	female	white	2.1822522881018704	smiling	102	sub-03	1.0	5.0	102_smiling	0.0	176.0556438810927	3.7665414681105176
27.0	164.50801374396997	pulse	1.0	t		31.0	female	white	2.1822522881018704	smiling	102	sub-03	1.0	5.0	102_smiling	0.0	176.0631944316574	
27.0	165.20056198988732	pulse	1.0	t		31.0	female	white	2.1822522881018704	smiling	102	sub-03	1.0	5.0	102_smiling	0.0	176.75574267757474	
27.0	165.90052917846788	pulse	1.0	t		31.0	female	white	2.1822522881018704	smiling	102	sub-03	1.0	5.0	102_smiling	0.0	177.4557098661553	
27.0	166.60051779861078	pulse	1.0	t		31.0	female	white	2.1822522881018704	smiling	102	sub-03	1.0	5.0	102_smiling	0.0	178.1556984862982	
27.0	167.30049796686944	pulse	1.0	t		31.0	female	white	2.1822522881018704	smiling	102	sub-03	1.0	5.0	102_smiling	0.0	178.85567865455687	
27.0	168.00048115365826	pulse	1.0	t		31.0	female	white	2.1822522881018704	smiling	102	sub-03	1.0	5.0	102_smiling	0.0	179.55566184134568	
28.0	168.26700466151578	face	0.0		145	31.0	female	west_asian	2.364902506963788	smiling	006	sub-03	1.0	5.0	006_smiling	0.0	179.8221853492032	1.2333196795170807
28.0	168.7004733960366	pulse	0.0	t		31.0	female	west_asian	2.364902506963788	smiling	006	sub-03	1.0	5.0	006_smiling	0.0	180.25565408372404	
28.0	169.40043394385157	pulse	0.0	t		31.0	female	west_asian	2.364902506963788	smiling	006	sub-03	1.0	5.0	006_smiling	0.0	180.955614631539	
28.0	169.50032434103287	fix	1.0		444	31.0	female	west_asian	2.364902506963788	smiling	006	sub-03	1.0	5.0	006_smiling	0.0	181.0555050287203	3.7583123520353183
28.0	170.10043463811326	pulse	1.0	t		31.0	female	west_asian	2.364902506963788	smiling	006	sub-03	1.0	5.0	006_smiling	0.0	181.65561532580068	
28.0	170.80039760075215	pulse	1.0	t		31.0	female	west_asian	2.364902506963788	smiling	006	sub-03	1.0	5.0	006_smiling	0.0	182.35557828843957	
28.0	171.5003901449836	pulse	1.0	t		31.0	female	west_asian	2.364902506963788	smiling	006	sub-03	1.0	5.0	006_smiling	0.0	183.05557083267104	
28.0	172.200359446535	pulse	1.0	t		31.0	female	west_asian	2.364902506963788	smiling	006	sub-03	1.0	5.0	006_smiling	0.0	183.75554013422243	
28.0	172.9003414259114	pulse	1.0	t		31.0	female	west_asian	2.364902506963788	smiling	006	sub-03	1.0	5.0	006_smiling	0.0	184.45552211359882	
29.0	173.25863669306818	face	0.0		146	47.0	male	east_asian	2.171110226820533	smiling	024	sub-03	1.0	5.0	024_smiling	0.0	184.8138173807556	1.2415503048559913
29.0	173.60033789423142	pulse	0.0	t		47.0	male	east_asian	2.171110226820533	smiling	024	sub-03	1.0	5.0	024_smiling	0.0	185.15551858191884	
29.0	174.30030146057652	pulse	0.0	t		47.0	male	east_asian	2.171110226820533	smiling	024	sub-03	1.0	5.0	024_smiling	0.0	185.85548214826395	
29.0	174.50018699792417	fix	1.0		444	47.0	male	east_asian	2.171110226820533	smiling	024	sub-03	1.0	5.0	024_smiling	0.0	186.0553676856116	3.7665641070843776
29.0	175.000296419631	pulse	1.0	t		47.0	male	east_asian	2.171110226820533	smiling	024	sub-03	1.0	5.0	024_smiling	0.0	186.55547710731844	
29.0	175.70026873971256	pulse	1.0	t		47.0	male	east_asian	2.171110226820533	smiling	024	sub-03	1.0	5.0	024_smiling	0.0	187.25544942739998	
29.0	176.4002473987066	pulse	1.0	t		47.0	male	east_asian	2.171110226820533	smiling	024	sub-03	1.0	5.0	024_smiling	0.0	187.95542808639402	
29.0	177.10024597999745	pulse	1.0	t		47.0	male	east_asian	2.171110226820533	smiling	024	sub-03	1.0	5.0	024_smiling	0.0	188.65542666768488	
29.0	177.8002179982259	pulse	1.0	t		47.0	male	east_asian	2.171110226820533	smiling	024	sub-03	1.0	5.0	024_smiling	0.0	189.35539868591331	
30.0	178.26675110500855	face	0.0		145	23.0	male	white	2.6275368085953046	neutral	141	sub-03	1.0	5.0	141_neutral	1.0	189.82193179269598	1.2333051905734465
30.0	178.50019967575008	pulse	0.0	t		23.0	male	white	2.6275368085953046	neutral	141	sub-03	1.0	5.0	141_neutral	1.0	190.0553803634375	
30.0	179.200170184713	pulse	0.0	t		23.0	male	white	2.6275368085953046	neutral	141	sub-03	1.0	5.0	141_neutral	1.0	190.7553508724004	
30.0	179.500056295582	fix	1.0		236	23.0	male	white	2.6275368085953046	neutral	141	sub-03	1.0	5.0	141_neutral	1.0	191.05523698326942	1.99994536460963
30.0	179.90016242709135	pulse	1.0	t		23.0	male	white	2.6275368085953046	neutral	141	sub-03	1.0	5.0	141_neutral	1.0	191.45534311477877	
30.0	180.60013233234895	pulse	1.0	t		23.0	male	white	2.6275368085953046	neutral	141	sub-03	1.0	5.0	141_neutral	1.0	192.15531302003637	
30.0	181.30011370802004	pulse	1.0	t		23.0	male	white	2.6275368085953046	neutral	141	sub-03	1.0	5.0	141_neutral	1.0	192.85529439570746	
30.0	181.50000166019163	rating	2.0		235	23.0	male	white	2.6275368085953046	neutral	141	sub-03	1.0	5.0	141_neutral	1.0	193.05518234787905	1.999945968315842
30.0	181.99486638628605	pulse	2.0	t		23.0	male	white	2.6275368085953046	neutral	141	sub-03	1.0	5.0	141_neutral	1.0	193.55004707397347	
30.0	182.69484685639782	pulse	2.0	t		23.0	male	white	2.6275368085953046	neutral	141	sub-03	1.0	5.0	141_neutral	1.0	194.25002754408524	
30.0	183.04487286103267	response	2.0	n		23.0	male	white	2.6275368085953046	neutral	141	sub-03	1.0	5.0	141_neutral	1.0	194.6000535487201	
30.0	183.4000520998252	pulse	2.0	t		23.0	male	white	2.6275368085953046	neutral	141	sub-03	1.0	5.0	141_neutral	1.0	194.9552327875126	
30.0	183.49994762850747	fix	3.0		444	23.0	male	white	2.6275368085953046	neutral	141	sub-03	1.0	5.0	141_neutral	1.0	195.0551283161949	3.7665583718771813
30.0	184.10004404035044	pulse	3.0	t		23.0	male	white	2.6275368085953046	neutral	141	sub-03	1.0	5.0	141_neutral	1.0	195.65522472803787	
30.0	184.8000233030507	pulse	3.0	t		23.0	male	white	2.6275368085953046	neutral	141	sub-03	1.0	5.0	141_neutral	1.0	196.35520399073812	
30.0	185.5000122250458	pulse	3.0	t		23.0	male	white	2.6275368085953046	neutral	141	sub-03	1.0	5.0	141_neutral	1.0	197.05519291273322	
30.0	186.19998092289188	pulse	3.0	t		23.0	male	white	2.6275368085953046	neutral	141	sub-03	1.0	5.0	141_neutral	1.0	197.7551616105793	
30.0	186.89996229856206	pulse	3.0	t		23.0	male	white	2.6275368085953046	neutral	141	sub-03	1.0	5.0	141_neutral	1.0	198.45514298624948	
31.0	187.26650600038465	face	0.0		145	22.0	female	west_asian	3.8205332272184642	neutral	066	sub-03	1.0	5.0	066_neutral	0.0	198.82168668807208	1.2333045868672343
31.0	187.59995484279352	pulse	0.0	t		22.0	female	west_asian	3.8205332272184642	neutral	066	sub-03	1.0	5.0	066_neutral	0.0	199.15513553048095	
31.0	188.2999356147584	pulse	0.0	t		22.0	female	west_asian	3.8205332272184642	neutral	066	sub-03	1.0	5.0	066_neutral	0.0	199.85511630244582	
31.0	188.4998105872519	fix	1.0		444	22.0	female	west_asian	3.8205332272184642	neutral	066	sub-03	1.0	5.0	066_neutral	0.0	200.0549912749393	3.7665435810813506
31.0	188.9999112552223	pulse	1.0	t		22.0	female	west_asian	3.8205332272184642	neutral	066	sub-03	1.0	5.0	066_neutral	0.0	200.5550919429097	
31.0	189.69989323459959	pulse	1.0	t		22.0	female	west_asian	3.8205332272184642	neutral	066	sub-03	1.0	5.0	066_neutral	0.0	201.255073922287	
31.0	190.3998776287999	pulse	1.0	t		22.0	female	west_asian	3.8205332272184642	neutral	066	sub-03	1.0	5.0	066_neutral	0.0	201.95505831648734	
31.0	191.0998593063241	pulse	1.0	t		22.0	female	west_asian	3.8205332272184642	neutral	066	sub-03	1.0	5.0	066_neutral	0.0	202.65503999401153	
31.0	191.79982498564004	pulse	1.0	t		22.0	female	west_asian	3.8205332272184642	neutral	066	sub-03	1.0	5.0	066_neutral	0.0	203.35500567332747	
32.0	192.26635416833324	face	0.0		145	19.0	male	white	3.2522881018702745	smiling	018	sub-03	1.0	5.0	018_smiling	0.0	203.82153485602066	1.2333229998994284
32.0	192.49981873728302	pulse	0.0	t		19.0	male	white	3.2522881018702745	smiling	018	sub-03	1.0	5.0	018_smiling	0.0	204.05499942497045	
32.0	193.19979588701153	pulse	0.0	t		19.0	male	white	3.2522881018702745	smiling	018	sub-03	1.0	5.0	018_smiling	0.0	204.75497657469896	
32.0	193.49967716823267	fix	1.0		444	19.0	male	white	3.2522881018702745	smiling	018	sub-03	1.0	5.0	018_smiling	0.0	205.0548578559201	3.7665601829958177
32.0	193.89979627942103	pulse	1.0	t		19.0	male	white	3.2522881018702745	smiling	018	sub-03	1.0	5.0	018_smiling	0.0	205.45497696710845	
32.0	194.59974746979333	pulse	1.0	t		19.0	male	white	3.2522881018702745	smiling	018	sub-03	1.0	5.0	018_smiling	0.0	206.15492815748075	
32.0	195.2997282417582	pulse	1.0	t		19.0	male	white	3.2522881018702745	smiling	018	sub-03	1.0	5.0	018_smiling	0.0	206.85490892944563	
32.0	195.99970991928149	pulse	1.0	t		19.0	male	white	3.2522881018702745	smiling	018	sub-03	1.0	5.0	018_smiling	0.0	207.5548906069689	
32.0	196.69996084966806	pulse	1.0	t		19.0	male	white	3.2522881018702745	smiling	018	sub-03	1.0	5.0	018_smiling	0.0	208.25514153735548	
33.0	197.26623735122848	face	0.0		145	31.0	female	east_asian	3.395941106247513	smiling	087	sub-03	1.0	5.0	087_smiling	0.0	208.8214180389159	1.2333036813079161
33.0	197.39969047994964	pulse	0.0	t		31.0	female	east_asian	3.395941106247513	smiling	087	sub-03	1.0	5.0	087_smiling	0.0	208.95487116763707	
33.0	198.09965917779482	pulse	0.0	t		31.0	female	east_asian	3.395941106247513	smiling	087	sub-03	1.0	5.0	087_smiling	0.0	209.65483986548224	
33.0	198.4995410325364	fix	1.0		444	31.0	female	east_asian	3.395941106247513	smiling	087	sub-03	1.0	5.0	087_smiling	0.0	210.05472172022382	3.7665592774364995
33.0	198.79965111832007	pulse	1.0	t		31.0	female	east_asian	3.395941106247513	smiling	087	sub-03	1.0	5.0	087_smiling	0.0	210.3548318060075	
33.0	199.49962464581313	pulse	1.0	t		31.0	female	east_asian	3.395941106247513	smiling	087	sub-03	1.0	5.0	087_smiling	0.0	211.05480533350055	
33.0	200.1996045122196	pulse	1.0	t		31.0	female	east_asian	3.395941106247513	smiling	087	sub-03	1.0	5.0	087_smiling	0.0	211.75478519990702	
33.0	200.89959584903863	pulse	1.0	t		31.0	female	east_asian	3.395941106247513	smiling	087	sub-03	1.0	5.0	087_smiling	0.0	212.45477653672606	
33.0	201.59955518944207	pulse	1.0	t		31.0	female	east_asian	3.395941106247513	smiling	087	sub-03	1.0	5.0	087_smiling	0.0	213.1547358771295	
34.0	202.2661003099729	face	0.0		145	31.0	male	west_asian	1.9538400318344609	neutral	070	sub-03	1.0	5.0	070_neutral	0.0	213.82128099766032	1.2333115294859454
34.0	202.2995966338567	pulse	0.0	t		31.0	male	west_asian	1.9538400318344609	neutral	070	sub-03	1.0	5.0	070_neutral	0.0	213.85477732154413	
34.0	202.99953273157917	pulse	0.0	t		31.0	male	west_asian	1.9538400318344609	neutral	070	sub-03	1.0	5.0	070_neutral	0.0	214.5547134192666	
34.0	203.49941183945884	fix	1.0		443	31.0	male	west_asian	1.9538400318344609	neutral	070	sub-03	1.0	5.0	070_neutral	0.0	215.05459252714627	3.7665327143740797
34.0	203.69951289983874	pulse	1.0	t		31.0	male	west_asian	1.9538400318344609	neutral	070	sub-03	1.0	5.0	070_neutral	0.0	215.25469358752616	
34.0	204.39949035142035	pulse	1.0	t		31.0	male	west_asian	1.9538400318344609	neutral	070	sub-03	1.0	5.0	070_neutral	0.0	215.95467103910778	
34.0	205.09948017897477	pulse	1.0	t		31.0	male	west_asian	1.9538400318344609	neutral	070	sub-03	1.0	5.0	070_neutral	0.0	216.6546608666622	
34.0	205.79945974352813	pulse	1.0	t		31.0	male	west_asian	1.9538400318344609	neutral	070	sub-03	1.0	5.0	070_neutral	0.0	217.35464043121556	
34.0	206.49943568584513	pulse	1.0	t		31.0	male	west_asian	1.9538400318344609	neutral	070	sub-03	1.0	5.0	070_neutral	0.0	218.05461637353255	
34.0	207.19941313742675	pulse	1.0	t		31.0	male	west_asian	1.9538400318344609	neutral	070	sub-03	1.0	5.0	070_neutral	0.0	218.75459382511417	
35.0	207.26594455383292	face	0.0		146	31.0	female	west_asian	2.364902506963788	neutral	006	sub-03	1.0	5.0	006_neutral	0.0	218.82112524152035	1.2333236036056405
35.0	207.89940175756965	pulse	0.0	t		31.0	female	west_asian	2.364902506963788	neutral	006	sub-03	1.0	5.0	006_neutral	0.0	219.45458244525707	
35.0	208.49926815743856	fix	1.0		443	31.0	female	west_asian	2.364902506963788	neutral	006	sub-03	1.0	5.0	006_neutral	0.0	220.054448845126	3.7582248146700294
35.0	208.59938252953452	pulse	1.0	t		31.0	female	west_asian	2.364902506963788	neutral	006	sub-03	1.0	5.0	006_neutral	0.0	220.15456321722195	
35.0	209.29937416820667	pulse	1.0	t		31.0	female	west_asian	2.364902506963788	neutral	006	sub-03	1.0	5.0	006_neutral	0.0	220.8545548558941	
35.0	209.99933592343314	pulse	1.0	t		31.0	female	west_asian	2.364902506963788	neutral	006	sub-03	1.0	5.0	006_neutral	0.0	221.55451661112056	
35.0	210.69941992911936	pulse	1.0	t		31.0	female	west_asian	2.364902506963788	neutral	006	sub-03	1.0	5.0	006_neutral	0.0	222.25460061680678	
35.0	211.39935270645947	pulse	1.0	t		31.0	female	west_asian	2.364902506963788	neutral	006	sub-03	1.0	5.0	006_neutral	0.0	222.9545333941469	
35.0	212.09929755791927	pulse	1.0	t		31.0	female	west_asian	2.364902506963788	neutral	006	sub-03	1.0	5.0	006_neutral	0.0	223.6544782456067	
36.0	212.2574929721086	face	0.0		147	28.0	male	east_asian	1.5563072025467568	neutral	005	sub-03	1.0	5.0	005_neutral	0.0	223.81267365979602	1.2416405588983253
36.0	212.79927289653006	pulse	0.0	t		28.0	male	east_asian	1.5563072025467568	neutral	005	sub-03	1.0	5.0	005_neutral	0.0	224.35445358421748	
36.0	213.49913353100692	fix	1.0		445	28.0	male	east_asian	1.5563072025467568	neutral	005	sub-03	1.0	5.0	005_neutral	0.0	225.05431421869434	3.7748934383498636
36.0	213.5066261257989	pulse	1.0	t		28.0	male	east_asian	1.5563072025467568	neutral	005	sub-03	1.0	5.0	005_neutral	0.0	225.06180681348633	
36.0	214.1992284034004	pulse	1.0	t		28.0	male	east_asian	1.5563072025467568	neutral	005	sub-03	1.0	5.0	005_neutral	0.0	225.75440909108784	
36.0	214.89920857165907	pulse	1.0	t		28.0	male	east_asian	1.5563072025467568	neutral	005	sub-03	1.0	5.0	005_neutral	0.0	226.4543892593465	
36.0	215.59918813621243	pulse	1.0	t		28.0	male	east_asian	1.5563072025467568	neutral	005	sub-03	1.0	5.0	005_neutral	0.0	227.15436882389986	
36.0	216.299162871117	pulse	1.0	t		28.0	male	east_asian	1.5563072025467568	neutral	005	sub-03	1.0	5.0	005_neutral	0.0	227.85434355880443	
36.0	216.99914847272976	pulse	1.0	t		28.0	male	east_asian	1.5563072025467568	neutral	005	sub-03	1.0	5.0	005_neutral	0.0	228.55432916041718	
37.0	217.27402696935678	face	0.0		145	25.0	female	black	3.858336649423	neutral	126	sub-03	1.0	5.0	126_neutral	0.0	228.8292076570442	1.2333009646317805
37.0	217.6991331687832	pulse	0.0	t		25.0	female	black	3.858336649423	neutral	126	sub-03	1.0	5.0	126_neutral	0.0	229.25431385647062	
37.0	218.39912420375003	pulse	0.0	t		25.0	female	black	3.858336649423	neutral	126	sub-03	1.0	5.0	126_neutral	0.0	229.95430489143746	
37.0	218.50732793398856	fix	1.0		444	25.0	female	black	3.858336649423	neutral	126	sub-03	1.0	5.0	126_neutral	0.0	230.062508621676	3.7665472033168044
37.0	219.09909682568377	pulse	1.0	t		25.0	female	black	3.858336649423	neutral	126	sub-03	1.0	5.0	126_neutral	0.0	230.6542775133712	
37.0	219.79910114218183	pulse	1.0	t		25.0	female	black	3.858336649423	neutral	126	sub-03	1.0	5.0	126_neutral	0.0	231.35428182986925	
37.0	220.4990556529374	pulse	1.0	t		25.0	female	black	3.858336649423	neutral	126	sub-03	1.0	5.0	126_neutral	0.0	232.0542363406248	
37.0	221.19902918043044	pulse	1.0	t		25.0	female	black	3.858336649423	neutral	126	sub-03	1.0	5.0	126_neutral	0.0	232.75420986811787	
37.0	221.8990036134819	pulse	1.0	t		25.0	female	black	3.858336649423	neutral	126	sub-03	1.0	5.0	126_neutral	0.0	233.45418430116933	
38.0	222.27387513730537	face	0.0		145	24.0	female	east_asian	4.409868682849185	smiling	030	sub-03	1.0	5.0	030_smiling	0.0	233.8290558249928	1.2333190758108685
38.0	222.59901366518716	pulse	0.0	t		24.0	female	east_asian	4.409868682849185	smiling	030	sub-03	1.0	5.0	030_smiling	0.0	234.15419435287458	
38.0	223.29898447600317	pulse	0.0	t		24.0	female	east_asian	4.409868682849185	smiling	030	sub-03	1.0	5.0	030_smiling	0.0	234.8541651636906	
38.0	223.50719421311624	fix	1.0		444	24.0	female	east_asian	4.409868682849185	smiling	030	sub-03	1.0	5.0	030_smiling	0.0	235.06237490080366	3.7665444866406688
38.0	223.9989619275848	pulse	1.0	t		24.0	female	east_asian	4.409868682849185	smiling	030	sub-03	1.0	5.0	030_smiling	0.0	235.5541426152722	
38.0	224.6989442088152	pulse	1.0	t		24.0	female	east_asian	4.409868682849185	smiling	030	sub-03	1.0	5.0	030_smiling	0.0	236.25412489650262	
38.0	225.39892196224991	pulse	1.0	t		24.0	female	east_asian	4.409868682849185	smiling	030	sub-03	1.0	5.0	030_smiling	0.0	236.95410264993734	
38.0	226.09890877127418	pulse	1.0	t		24.0	female	east_asian	4.409868682849185	smiling	030	sub-03	1.0	5.0	030_smiling	0.0	237.6540894589616	
38.0	226.79887777097338	pulse	1.0	t		24.0	female	east_asian	4.409868682849185	smiling	030	sub-03	1.0	5.0	030_smiling	0.0	238.3540584586608	
39.0	227.2737386997569	face	0.0		145	31.0	female	east_asian	3.395941106247513	neutral	087	sub-03	1.0	5.0	087_neutral	0.0	238.82891938744433	1.233319075809959
39.0	227.49887001335082	pulse	0.0	t		31.0	female	east_asian	3.395941106247513	neutral	087	sub-03	1.0	5.0	087_neutral	0.0	239.05405070103825	
39.0	228.19883539081366	pulse	0.0	t		31.0	female	east_asian	3.395941106247513	neutral	087	sub-03	1.0	5.0	087_neutral	0.0	239.75401607850108	
39.0	228.50705777556686	fix	1.0		444	31.0	female	east_asian	3.395941106247513	neutral	087	sub-03	1.0	5.0	087_neutral	0.0	240.0622384632543	3.749898501933785
39.0	228.89884091472322	pulse	1.0	t		31.0	female	east_asian	3.395941106247513	neutral	087	sub-03	1.0	5.0	087_neutral	0.0	240.45402160241065	
39.0	229.59880387736212	pulse	1.0	t		31.0	female	east_asian	3.395941106247513	neutral	087	sub-03	1.0	5.0	087_neutral	0.0	241.15398456504954	
39.0	230.29879672344669	pulse	1.0	t		31.0	female	east_asian	3.395941106247513	neutral	087	sub-03	1.0	5.0	087_neutral	0.0	241.8539774111341	
39.0	230.99876210090952	pulse	1.0	t		31.0	female	east_asian	3.395941106247513	neutral	087	sub-03	1.0	5.0	087_neutral	0.0	242.55394278859694	
39.0	231.69875494699318	pulse	1.0	t		31.0	female	east_asian	3.395941106247513	neutral	087	sub-03	1.0	5.0	087_neutral	0.0	243.2539356346806	
40.0	232.25695627750065	fix	0.0		720												243.81213696518807	5.99984152718298
40.0	232.39873783192888	pulse	0.0	t													243.9539185196163	
40.0	233.0987146798052	pulse	0.0	t													244.65389536749262	
40.0	233.79868096282644	pulse	0.0	t													245.35386165051386	
40.0	234.49867199779328	pulse	0.0	t													246.0538526854807	
40.0	235.19865246790505	pulse	0.0	t													246.75383315559247	
40.0	235.89862690095742	pulse	0.0	t													247.45380758864485	
40.0	236.59861884148268	pulse	0.0	t													248.1537995291701	
40.0	237.29859478379967	pulse	0.0	t													248.8537754714871	
40.0	237.99858038541242	pulse	0.0	t													249.55376107309985	
