trial_nr	onset	event_type	phase	response	nr_frames	trial_type	stim_name	task_probe	onset_abs	duration
0.0	0.054750726791098714	baseline	0.0		701		baseline	0.0	22.68450497773665	5.84962317955069
0.0	0.7046450323296085	pulse	0.0	t			baseline	0.0	23.33439928327516	
0.0	1.4045989391006515	pulse	0.0	t			baseline	0.0	24.034353190046204	
0.0	2.1045833332073016	pulse	0.0	t			baseline	0.0	24.734337584152854	
0.0	2.8045674254590267	pulse	0.0	t			baseline	0.0	25.43432167640458	
0.0	3.504543971340354	pulse	0.0	t			baseline	0.0	26.134298222285906	
0.0	4.204531987704286	pulse	0.0	t			baseline	0.0	26.834286238649838	
0.0	4.904513363262595	pulse	0.0	t			baseline	0.0	27.534267614208147	
0.0	5.604506813013359	pulse	0.0	t			baseline	0.0	28.23426106395891	
0.0	5.904373906341789	ISI	1.0		4		baseline	0.0	28.53412815728734	0.12501075357795344
1.0	6.029384659919742	house	0.0		45	place	house-46.jpg	0.0	28.659138910865295	0.37495347662752465
1.0	6.304475510670272	pulse	0.0	t		place	house-46.jpg	0.0	28.934229761615825	
1.0	6.404338136547267	ISI	1.0		352	place	house-46.jpg	0.0	29.03409238749282	3.016632501733511
1.0	7.004486467999413	pulse	1.0	t		place	house-46.jpg	0.0	29.634240718944966	
1.0	7.704464523155366	pulse	1.0	t		place	house-46.jpg	0.0	30.33421877410092	
1.0	8.404467934114109	pulse	1.0	t		place	house-46.jpg	0.0	31.03422218505966	
1.0	9.104439650319364	pulse	1.0	t		place	house-46.jpg	0.0	31.734193901264916	
2.0	9.420970638280778	adult	0.0		46	face	adult-16.jpg	0.0	32.05072488922633	0.3832882915648952
2.0	9.804258929845673	ISI	1.0		353	face	adult-16.jpg	0.0	32.434013180791226	3.0166279739114543
2.0	9.856208142170544	pulse	1.0	t		face	adult-16.jpg	0.0	32.4859623931161	
2.0	10.504350482408881	pulse	1.0	t		face	adult-16.jpg	0.0	33.134104733354434	
2.0	11.204325820871418	pulse	1.0	t		face	adult-16.jpg	0.0	33.83408007181697	
2.0	11.904322591024538	pulse	1.0	t		face	adult-16.jpg	0.0	34.53407684197009	
2.0	12.604305475857473	pulse	1.0	t		face	adult-16.jpg	0.0	35.234059726803025	
3.0	12.820886903757128	limb	0.0		46	body	limb-91.jpg	0.0	35.45064115470268	0.38329885648363415
3.0	13.204185760240762	ISI	1.0		233	body	limb-91.jpg	0.0	35.833940011186314	2.0166451796349065
3.0	13.304298020043461	pulse	1.0	t		body	limb-91.jpg	0.0	35.934052270989014	
3.0	14.00427637705343	pulse	1.0	t		body	limb-91.jpg	0.0	36.63403062799898	
3.0	14.704255941483098	pulse	1.0	t		body	limb-91.jpg	0.0	37.33401019242865	
4.0	15.220830939875668	limb	0.0		46	body	limb-86.jpg	0.0	37.85058519082122	0.3833190807563369
4.0	15.404241844863463	pulse	0.0	t		body	limb-86.jpg	0.0	38.033996095809016	
4.0	15.604150020632005	ISI	1.0		232	body	limb-86.jpg	0.0	38.23390427157756	2.016662989068209
4.0	16.104298684123933	pulse	1.0	t		body	limb-86.jpg	0.0	38.734052935069485	
4.0	16.804268589199637	pulse	1.0	t		body	limb-86.jpg	0.0	39.43402284014519	
4.0	17.50427079273959	pulse	1.0	t		body	limb-86.jpg	0.0	40.13402504368514	
5.0	17.620813009700214	number	0.0		46	character	number-30.jpg	0.0	40.25056726064577	0.3832716895512931
5.0	18.004084699251507	ISI	1.0		233	character	number-30.jpg	0.0	40.63383895019706	2.0166279739114543
5.0	18.20418093056378	pulse	1.0	t		character	number-30.jpg	0.0	40.83393518150933	
5.0	18.904167437653996	pulse	1.0	t		character	number-30.jpg	0.0	41.53392168859955	
5.0	19.604141266841907	pulse	1.0	t		character	number-30.jpg	0.0	42.23389551778746	
6.0	20.02071267316296	house	0.0		46	place	house-62.jpg	0.0	42.650466924108514	0.38332089188406826
6.0	20.304149809333467	pulse	0.0	t		place	house-62.jpg	0.0	42.93390406027902	
6.0	20.40403356504703	ISI	1.0		233	place	house-62.jpg	0.0	43.03378781599258	2.016626464636829
6.0	21.004120619973037	pulse	1.0	t		place	house-62.jpg	0.0	43.63387487091859	
6.0	21.704120106820483	pulse	1.0	t		place	house-62.jpg	0.0	44.333874357766035	
7.0	22.42066002968386	number	0.0		45	character	number-69.jpg	0.0	45.05041428062941	0.38330640285403206
7.0	22.412504818356865	pulse	0.0	t		character	number-69.jpg	0.0	45.04225906930242	
7.0	22.80396643253789	ISI	1.0		235	character	number-69.jpg	0.0	45.43372068348344	2.0167001172103483
7.0	23.104088895032874	pulse	1.0	t		character	number-69.jpg	0.0	45.733843145978426	
7.0	23.804135773084454	pulse	1.0	t		character	number-69.jpg	0.0	46.433890024030006	
7.0	24.504112017111765	pulse	1.0	t		character	number-69.jpg	0.0	47.13386626805732	
8.0	24.82066654974824	car	0.0		46	object	car-52.jpg	0.0	47.45042080069379	0.3832641431799857
8.0	25.203930692928225	ISI	1.0		356	object	car-52.jpg	0.0	47.83368494387378	3.0166204275410564
8.0	25.235394226905555	pulse	1.0	t		object	car-52.jpg	0.0	47.86514847785111	
8.0	25.904029490006906	pulse	1.0	t		object	car-52.jpg	0.0	48.53378374095246	
8.0	26.603999696937535	pulse	1.0	t		object	car-52.jpg	0.0	49.23375394788309	
8.0	27.3039856003179	pulse	1.0	t		object	car-52.jpg	0.0	49.933739851263454	
8.0	28.003974522246608	pulse	1.0	t		object	car-52.jpg	0.0	50.63372877319216	
9.0	28.22055112046928	adult	0.0		46	face	adult-129.jpg	0.0	50.850305371414834	0.38330911954744806
9.0	28.60386024001673	ISI	1.0		233	face	adult-129.jpg	0.0	51.23361449096228	2.0166457833447566
9.0	28.70397189610958	pulse	1.0	t		face	adult-129.jpg	0.0	51.33372614705513	
9.0	29.403939084491867	pulse	1.0	t		face	adult-129.jpg	0.0	52.03369333543742	
9.0	30.103938873194238	pulse	1.0	t		face	adult-129.jpg	0.0	52.73369312413979	
10.0	30.620506023361486	car	0.0		46	object	car-9.jpg	0.0	53.25026027430704	0.38333477720516385
10.0	30.80392507842953	pulse	0.0	t		object	car-9.jpg	0.0	53.43367932937508	
10.0	31.00384080056665	ISI	1.0		234	object	car-9.jpg	0.0	53.6335950515122	2.0166460851996817
10.0	31.50397557873839	pulse	1.0	t		object	car-9.jpg	0.0	54.13372982968394	
10.0	32.20395212461972	pulse	1.0	t		object	car-9.jpg	0.0	54.83370637556527	
10.0	32.90395312074088	pulse	1.0	t		object	car-9.jpg	0.0	55.53370737168643	
11.0	33.02048688576633	number	0.0		46	character	number-105.jpg	0.0	55.650241136711884	0.3832750099536497
11.0	33.40376189571998	ISI	1.0		236	character	number-105.jpg	0.0	56.033516146665534	2.0166270683475886
11.0	33.60384424171207	pulse	1.0	t		character	number-105.jpg	0.0	56.23359849265762	
11.0	34.30384010630132	pulse	1.0	t		character	number-105.jpg	0.0	56.933594357246875	
11.0	35.0038235948432	pulse	1.0	t		character	number-105.jpg	0.0	57.63357784578875	
12.0	35.42038896406757	adult	0.0		46	face	adult-70.jpg	0.0	58.05014321501312	0.3833048935794068
12.0	35.703811309352204	pulse	0.0	t		face	adult-70.jpg	0.0	58.33356556029776	
12.0	35.80369385764698	ISI	1.0		954	face	adult-70.jpg	0.0	58.43344810859253	8.016566697385315
12.0	36.40380838136116	pulse	1.0	t		face	adult-70.jpg	0.0	59.03356263230671	
12.0	37.103795492160316	pulse	1.0	t		face	adult-70.jpg	0.0	59.73354974310587	
12.0	37.80376660465572	pulse	1.0	t		face	adult-70.jpg	0.0	60.43352085560127	
12.0	38.50376518593748	pulse	1.0	t		face	adult-70.jpg	0.0	61.133519436883034	
12.0	39.20380300834495	pulse	1.0	t		face	adult-70.jpg	0.0	61.8335572592905	
12.0	39.903788911725314	pulse	1.0	t		face	adult-70.jpg	0.0	62.53354316267087	
12.0	40.60378115405729	pulse	1.0	t		face	adult-70.jpg	0.0	63.23353540500284	
12.0	41.30376102034188	pulse	1.0	t		face	adult-70.jpg	0.0	63.93351527128743	
12.0	42.003765638720324	pulse	1.0	t		face	adult-70.jpg	0.0	64.63351988966588	
12.0	42.70373071411905	pulse	1.0	t		face	adult-70.jpg	0.0	65.3334849650646	
12.0	43.40372899354679	pulse	1.0	t		face	adult-70.jpg	0.0	66.03348324449234	
13.0	43.82026055503229	limb	0.0		46	body	limb-124.jpg	0.0	66.45001480597784	0.38327199140530865
13.0	44.10364426290198	pulse	0.0	t		body	limb-124.jpg	0.0	66.73339851384753	
13.0	44.2035325464376	ISI	1.0		234	body	limb-124.jpg	0.0	66.83328679738315	2.0166255590729634
13.0	44.80361748838095	pulse	1.0	t		body	limb-124.jpg	0.0	67.4333717393265	
13.0	45.503599769503126	pulse	1.0	t		body	limb-124.jpg	0.0	68.13335402044868	
14.0	46.22015810551056	adult	0.0		45	face	adult-103.jpg	0.0	68.84991235645612	0.38330640285403206
14.0	46.21197361426766	pulse	0.0	t		face	adult-103.jpg	0.0	68.84172786521322	
14.0	46.603464508364596	ISI	1.0		594	face	adult-103.jpg	0.0	69.23321875931015	5.016612277460808
14.0	46.90357187811969	pulse	1.0	t		face	adult-103.jpg	0.0	69.53332612906524	
14.0	47.60355778150006	pulse	1.0	t		face	adult-103.jpg	0.0	70.23331203244561	
14.0	48.3035509293959	pulse	1.0	t		face	adult-103.jpg	0.0	70.93330518034145	
14.0	49.003541058743394	pulse	1.0	t		face	adult-103.jpg	0.0	71.63329530968895	
14.0	49.70350794527076	pulse	1.0	t		face	adult-103.jpg	0.0	72.33326219621631	
14.0	50.40357897170725	pulse	1.0	t		face	adult-103.jpg	0.0	73.0333332226528	
14.0	51.103552499040234	pulse	1.0	t		face	adult-103.jpg	0.0	73.73330674998579	
15.0	51.620076785825404	number	0.0		46	character	number-118.jpg	0.0	74.24983103677096	0.383273802534859
15.0	51.80348316299114	pulse	0.0	t		character	number-118.jpg	0.0	74.4332374139367	
15.0	52.00335058836026	ISI	1.0		833	character	number-118.jpg	0.0	74.63310483930582	7.016593864317656
15.0	52.503471783064924	pulse	1.0	t		character	number-118.jpg	0.0	75.13322603401048	
15.0	53.20345285676922	pulse	1.0	t		character	number-118.jpg	0.0	75.83320710771477	
15.0	53.90343543974632	pulse	1.0	t		character	number-118.jpg	0.0	76.53318969069187	
15.0	54.60340866522529	pulse	1.0	t		character	number-118.jpg	0.0	77.23316291617084	
15.0	55.30339366304088	pulse	1.0	t		character	number-118.jpg	0.0	77.93314791398643	
15.0	56.003390735049834	pulse	1.0	t		character	number-118.jpg	0.0	78.63314498599539	
15.0	56.70336245125418	pulse	1.0	t		character	number-118.jpg	0.0	79.33311670219973	
15.0	57.403361334390866	pulse	1.0	t		character	number-118.jpg	0.0	80.03311558533642	
15.0	58.10341455139405	pulse	1.0	t		character	number-118.jpg	0.0	80.7331688023396	
15.0	58.803399549209644	pulse	1.0	t		character	number-118.jpg	0.0	81.4331538001552	
16.0	59.01994445267792	number	0.0		46	character	number-51.jpg	0.0	81.64969870362347	0.3832662561644611
16.0	59.40321070884238	ISI	1.0		233	character	number-51.jpg	0.0	82.03296495978793	2.016642161087475
16.0	59.50332296864508	pulse	1.0	t		character	number-51.jpg	0.0	82.13307721959063	
16.0	60.20330857017052	pulse	1.0	t		character	number-51.jpg	0.0	82.83306282111607	
16.0	60.90328330492321	pulse	1.0	t		character	number-51.jpg	0.0	83.53303755586876	
17.0	61.419852869929855	number	0.0		46	character	number-63.jpg	0.0	84.04960712087541	0.38329010269353603
17.0	61.603266491611066	pulse	0.0	t		character	number-63.jpg	0.0	84.23302074255662	
17.0	61.80314297262339	ISI	1.0		355	character	number-63.jpg	0.0	84.43289722356894	3.0166264646377385
17.0	62.303260846925696	pulse	1.0	t		character	number-63.jpg	0.0	84.93301509787125	
17.0	63.00324675030606	pulse	1.0	t		character	number-63.jpg	0.0	85.63300100125161	
17.0	63.703218466511316	pulse	1.0	t		character	number-63.jpg	0.0	86.33297271745687	
17.0	64.40319772908606	pulse	1.0	t		character	number-63.jpg	0.0	87.03295198003161	
18.0	64.81976943726113	car	0.0		46	object	car-69.jpg	0.0	87.44952368820668	0.3833350790600889
18.0	65.10322347730107	pulse	0.0	t		object	car-69.jpg	0.0	87.73297772824662	
18.0	65.20310451632122	ISI	1.0		355	object	car-69.jpg	0.0	87.83285876726677	3.0166412555227
18.0	65.80324167914569	pulse	1.0	t		object	car-69.jpg	0.0	88.43299593009124	
18.0	66.50323180849318	pulse	1.0	t		object	car-69.jpg	0.0	89.13298605943874	
18.0	67.20321318405149	pulse	1.0	t		object	car-69.jpg	0.0	89.83296743499704	
18.0	67.90321236904401	pulse	1.0	t		object	car-69.jpg	0.0	90.53296661998957	
19.0	68.21974577184392	car	0.0		46	object	car-69.jpg	1.0	90.84950002278947	0.3832695765668177
19.0	68.60301534841074	ISI	1.0		713	object	car-69.jpg	1.0	91.23276959935629	6.01657937528762
19.0	68.65214010530508	pulse	1.0	t		object	car-69.jpg	1.0	91.28189435625063	
19.0	69.19477302178711	response	1.0	b		object	car-69.jpg	1.0	91.82452727273267	
19.0	69.30309060081436	pulse	1.0	t		object	car-69.jpg	1.0	91.93284485175991	
19.0	70.00309340806416	pulse	1.0	t		object	car-69.jpg	1.0	92.63284765900971	
19.0	70.70306844467177	pulse	1.0	t		object	car-69.jpg	1.0	93.33282269561732	
19.0	71.40306612038967	pulse	1.0	t		object	car-69.jpg	1.0	94.03282037133522	
19.0	72.1030414588522	pulse	1.0	t		object	car-69.jpg	1.0	94.73279570979776	
19.0	72.80303400303819	pulse	1.0	t		object	car-69.jpg	1.0	95.43278825398374	
19.0	73.50302232125705	pulse	1.0	t		object	car-69.jpg	1.0	96.1327765722026	
19.0	74.2029928300426	pulse	1.0	t		object	car-69.jpg	1.0	96.83274708098816	
20.0	74.61959472369836	limb	0.0		46	body	limb-25.jpg	0.0	97.24934897464391	0.38327138769636804
20.0	74.90298748721216	pulse	0.0	t		body	limb-25.jpg	0.0	97.53274173815771	
20.0	75.00286611139472	ISI	1.0		355	body	limb-25.jpg	0.0	97.63262036234028	3.016636123990793
20.0	75.6029679572066	pulse	1.0	t		body	limb-25.jpg	0.0	98.23272220815215	
20.0	76.30294571050672	pulse	1.0	t		body	limb-25.jpg	0.0	98.93269996145227	
20.0	77.00293795283869	pulse	1.0	t		body	limb-25.jpg	0.0	99.63269220378425	
20.0	77.70292657291247	pulse	1.0	t		body	limb-25.jpg	0.0	100.33268082385803	
21.0	78.01950223538552	house	0.0		46	place	house-141.jpg	0.0	100.64925648633107	0.38330579914418195
21.0	78.4028080345297	ISI	1.0		233	place	house-141.jpg	0.0	101.03256228547525	2.016632199878586
21.0	78.45348160843878	pulse	1.0	t		place	house-141.jpg	0.0	101.08323585938433	
21.0	79.10289415370607	pulse	1.0	t		place	house-141.jpg	0.0	101.73264840465163	
21.0	79.80286828474891	pulse	1.0	t		place	house-141.jpg	0.0	102.43262253569446	
22.0	80.41944023440828	adult	0.0		46	face	adult-88.jpg	0.0	103.04919448535384	0.3833495680910346
22.0	80.50287048828886	pulse	0.0	t		face	adult-88.jpg	0.0	103.13262473923442	
22.0	80.80278980249932	ISI	1.0		235	face	adult-88.jpg	0.0	103.43254405344487	2.016632501733511
22.0	81.20291827190522	pulse	1.0	t		face	adult-88.jpg	0.0	103.83267252285077	
22.0	81.90289844004474	pulse	1.0	t		face	adult-88.jpg	0.0	104.53265269099029	
22.0	82.60288615455374	pulse	1.0	t		face	adult-88.jpg	0.0	105.2326404054993	
23.0	82.81942230423283	car	0.0		46	object	car-2.jpg	0.0	105.44917655517838	0.38331666591693647
23.0	83.20273897014977	ISI	1.0		353	object	car-2.jpg	0.0	105.83249322109532	3.0166125793157335
23.0	83.30288775438385	pulse	1.0	t		object	car-2.jpg	0.0	105.9326420053294	
23.0	84.00286037615297	pulse	1.0	t		object	car-2.jpg	0.0	106.63261462709852	
23.0	84.70282092372963	pulse	1.0	t		object	car-2.jpg	0.0	107.33257517467518	
23.0	85.40282735323763	pulse	1.0	t		object	car-2.jpg	0.0	108.03258160418318	
23.0	86.1028108417795	pulse	1.0	t		object	car-2.jpg	0.0	108.73256509272505	
24.0	86.2193515494655	adult	0.0		46	face	adult-92.jpg	0.0	108.84910580041105	0.38330217688690027
24.0	86.6026537263524	ISI	1.0		235	face	adult-92.jpg	0.0	109.23240797729795	2.0166445759250564
24.0	86.80281395088423	pulse	1.0	t		face	adult-92.jpg	0.0	109.43256820182978	
24.0	87.50278536523365	pulse	1.0	t		face	adult-92.jpg	0.0	110.1325396161792	
24.0	88.20276674079196	pulse	1.0	t		face	adult-92.jpg	0.0	110.83252099173751	
25.0	88.61929830227746	adult	0.0		46	face	adult-133.jpg	0.0	111.24905255322301	0.3833184770464868
25.0	88.9027333254644	pulse	0.0	t		face	adult-133.jpg	0.0	111.53248757640995	
25.0	89.00261677932394	ISI	1.0		233	face	adult-133.jpg	0.0	111.6323710302695	2.016632501733511
25.0	89.60275273472871	pulse	1.0	t		face	adult-133.jpg	0.0	112.23250698567426	
25.0	90.3027211305307	pulse	1.0	t		face	adult-133.jpg	0.0	112.93247538147625	
26.0	91.01924928105745	house	0.0		45	place	house-81.jpg	0.0	113.64900353200301	0.38330247874091583
26.0	91.00668427285109	pulse	0.0	t		place	house-81.jpg	0.0	113.63643852379664	
26.0	91.40255175979837	ISI	1.0		354	place	house-81.jpg	0.0	114.03230601074392	3.016641557377625
26.0	91.7026962576947	pulse	1.0	t		place	house-81.jpg	0.0	114.33245050864025	
26.0	92.40268306663893	pulse	1.0	t		place	house-81.jpg	0.0	115.03243731758448	
26.0	93.10267500711598	pulse	1.0	t		place	house-81.jpg	0.0	115.73242925806153	
26.0	93.80266030678649	pulse	1.0	t		place	house-81.jpg	0.0	116.43241455773205	
27.0	94.419193317176	car	0.0		46	object	car-66.jpg	0.0	117.04894756812155	0.38330036575734994
27.0	94.50261391170261	pulse	0.0	t		object	car-66.jpg	0.0	117.13236816264816	
27.0	94.80249368293335	ISI	1.0		234	object	car-66.jpg	0.0	117.4322479338789	2.016633407297377
27.0	95.20262456717774	pulse	1.0	t		object	car-66.jpg	0.0	117.83237881812329	
27.0	95.90261107426795	pulse	1.0	t		object	car-66.jpg	0.0	118.5323653252135	
27.0	96.60259063869762	pulse	1.0	t		object	car-66.jpg	0.0	119.23234488964317	
28.0	96.81912709023072	adult	0.0		46	face	adult-99.jpg	0.0	119.44888134117627	0.3832997620484093
28.0	97.20242685227913	ISI	1.0		354	face	adult-99.jpg	0.0	119.83218110322468	3.016629785040095
28.0	97.30277606810523	pulse	1.0	t		face	adult-99.jpg	0.0	119.93253031905078	
28.0	98.00257482150573	pulse	1.0	t		face	adult-99.jpg	0.0	120.63232907245128	
28.0	98.7025456321453	pulse	1.0	t		face	adult-99.jpg	0.0	121.33229988309085	
28.0	99.40254059117069	pulse	1.0	t		face	adult-99.jpg	0.0	122.03229484211624	
28.0	100.10252407971257	pulse	1.0	t		face	adult-99.jpg	0.0	122.73227833065812	
29.0	100.21905663731923	adult	0.0		46	face	adult-99.jpg	1.0	122.84881088826478	0.3833151566432207
29.0	100.60237179396245	ISI	1.0		232	face	adult-99.jpg	1.0	123.232126044908	2.0166481981832476
29.0	100.80254711123416	pulse	1.0	t		face	adult-99.jpg	1.0	123.43230136217971	
29.0	101.04416709353973	response	1.0	b		face	adult-99.jpg	1.0	123.67392134448528	
29.0	101.50246207873533	pulse	1.0	t		face	adult-99.jpg	1.0	124.13221632968089	
29.0	102.20248963807899	pulse	1.0	t		face	adult-99.jpg	1.0	124.83224388902454	
30.0	102.6190199921457	number	0.0		46	character	number-47.jpg	0.0	125.24877424309125	0.3832876878550451
30.0	102.90242332057733	pulse	0.0	t		character	number-47.jpg	0.0	125.53217757152288	
30.0	103.00230768000074	ISI	1.0		233	character	number-47.jpg	0.0	125.63206193094629	2.016646990764457
30.0	103.60245570959887	pulse	1.0	t		character	number-47.jpg	0.0	126.23220996054442	
30.0	104.30242440725488	pulse	1.0	t		character	number-47.jpg	0.0	126.93217865820043	
31.0	105.0189546707652	number	0.0		45	character	number-13.jpg	0.0	127.64870892171075	0.3833163640620114
31.0	105.00763783218736	pulse	0.0	t		character	number-13.jpg	0.0	127.63739208313291	
31.0	105.40227103482721	ISI	1.0		475	character	number-13.jpg	0.0	128.03202528577276	4.016589034641584
31.0	105.70241191046625	pulse	1.0	t		character	number-13.jpg	0.0	128.3321661614118	
31.0	106.402391173041	pulse	1.0	t		character	number-13.jpg	0.0	129.03214542398655	
31.0	107.10237043561574	pulse	1.0	t		character	number-13.jpg	0.0	129.7321246865613	
31.0	107.80236479093037	pulse	1.0	t		character	number-13.jpg	0.0	130.43211904187592	
31.0	108.50233741269949	pulse	1.0	t		character	number-13.jpg	0.0	131.13209166364504	
31.0	109.20232331607986	pulse	1.0	t		character	number-13.jpg	0.0	131.8320775670254	
32.0	109.41886006946879	adult	0.0		46	face	adult-60.jpg	0.0	132.04861432041434	0.3833012713221251
32.0	109.80216134079092	ISI	1.0		233	face	adult-60.jpg	0.0	132.43191559173647	2.0166481981832476
32.0	109.90231314357334	pulse	1.0	t		face	adult-60.jpg	0.0	132.5320673945189	
32.0	110.60230629146918	pulse	1.0	t		face	adult-60.jpg	0.0	133.23206054241473	
32.0	111.30227981880216	pulse	1.0	t		face	adult-60.jpg	0.0	133.93203406974771	
33.0	111.81880953897416	adult	0.0		46	face	adult-21.jpg	0.0	134.44856378991972	0.38326927471189265
33.0	112.00220263452775	pulse	0.0	t		face	adult-21.jpg	0.0	134.6319568854733	
33.0	112.20207881368606	ISI	1.0		595	face	adult-21.jpg	0.0	134.8318330646316	5.016597486575847
33.0	112.70218763234425	pulse	1.0	t		face	adult-21.jpg	0.0	135.3319418832898	
33.0	113.40218289322365	pulse	1.0	t		face	adult-21.jpg	0.0	136.0319371441692	
33.0	114.10216577805659	pulse	1.0	t		face	adult-21.jpg	0.0	136.73192002900214	
33.0	114.80214141837314	pulse	1.0	t		face	adult-21.jpg	0.0	137.4318956693187	
33.0	115.50213366070511	pulse	1.0	t		face	adult-21.jpg	0.0	138.13188791165067	
33.0	116.20210779174795	pulse	1.0	t		face	adult-21.jpg	0.0	138.8318620426935	
33.0	116.90209973222409	pulse	1.0	t		face	adult-21.jpg	0.0	139.53185398316964	
34.0	117.2186763002619	house	0.0		46	place	house-38.jpg	0.0	139.84843055120746	0.3833045917244817
34.0	117.60198089198639	ISI	1.0		474	place	house-38.jpg	0.0	140.23173514293194	4.016622238670607
34.0	117.64849007697558	pulse	1.0	t		place	house-38.jpg	0.0	140.27824432792113	
34.0	118.30213130623724	pulse	1.0	t		place	house-38.jpg	0.0	140.9318855571828	
34.0	119.00212505784293	pulse	1.0	t		place	house-38.jpg	0.0	141.63187930878848	
34.0	119.7021085463848	pulse	1.0	t		place	house-38.jpg	0.0	142.33186279733036	
34.0	120.40208479041121	pulse	1.0	t		place	house-38.jpg	0.0	143.03183904135676	
34.0	121.10207129750142	pulse	1.0	t		place	house-38.jpg	0.0	143.73182554844698	
35.0	121.618603130657	limb	0.0		46	body	limb-135.jpg	0.0	144.24835738160255	0.383268369148027
35.0	121.80199320766314	pulse	0.0	t		body	limb-135.jpg	0.0	144.4317474586087	
35.0	122.00187149980502	ISI	1.0		715	body	limb-135.jpg	0.0	144.63162575075057	6.016611371896943
35.0	122.50198967596134	pulse	1.0	t		body	limb-135.jpg	0.0	145.1317439269069	
35.0	123.20196652369759	pulse	1.0	t		body	limb-135.jpg	0.0	145.83172077464314	
35.0	123.9019427677249	pulse	1.0	t		body	limb-135.jpg	0.0	146.53169701867046	
35.0	124.60192806739542	pulse	1.0	t		body	limb-135.jpg	0.0	147.23168231834097	
35.0	125.30191608375935	pulse	1.0	t		body	limb-135.jpg	0.0	147.9316703347049	
35.0	126.00190349641434	pulse	1.0	t		body	limb-135.jpg	0.0	148.6316577473599	
35.0	126.70187611818346	pulse	1.0	t		body	limb-135.jpg	0.0	149.33163036912902	
35.0	127.40188466067411	pulse	1.0	t		body	limb-135.jpg	0.0	150.03163891161967	
36.0	128.01848287170196	adult	0.0		46	face	adult-47.jpg	0.0	150.64823712264752	0.3832704821306834
36.0	128.10197530767255	pulse	0.0	t		face	adult-47.jpg	0.0	150.7317295586181	
36.0	128.40175335383265	ISI	1.0		474	face	adult-47.jpg	0.0	151.0315076047782	4.016599901414338
36.0	128.80185495816113	pulse	1.0	t		face	adult-47.jpg	0.0	151.43160920910668	
36.0	129.5018357300096	pulse	1.0	t		face	adult-47.jpg	0.0	152.13158998095514	
36.0	130.201821029681	pulse	1.0	t		face	adult-47.jpg	0.0	152.83157528062657	
36.0	130.90179485886893	pulse	1.0	t		face	adult-47.jpg	0.0	153.53154910981448	
36.0	131.6017858937812	pulse	1.0	t		face	adult-47.jpg	0.0	154.23154014472675	
36.0	132.30178266393523	pulse	1.0	t		face	adult-47.jpg	0.0	154.93153691488078	
37.0	132.41835325524698	number	0.0		46	character	number-85.jpg	0.0	155.04810750619254	0.3833076102728228
37.0	132.8016608655198	ISI	1.0		234	character	number-85.jpg	0.0	155.43141511646536	2.016678081809914
37.0	133.00177037844423	pulse	1.0	t		character	number-85.jpg	0.0	155.6315246293898	
37.0	133.7017460187617	pulse	1.0	t		character	number-85.jpg	0.0	156.33150026970725	
37.0	134.40179772648935	pulse	1.0	t		character	number-85.jpg	0.0	157.0315519774349	
38.0	134.81833894732972	house	0.0		46	place	house-43.jpg	0.0	157.44809319827527	0.3832529745523061
38.0	135.10171722181258	pulse	0.0	t		place	house-43.jpg	0.0	157.73147147275813	
38.0	135.20159192188203	ISI	1.0		236	place	house-43.jpg	0.0	157.83134617282758	2.0166436703611907
38.0	135.80169527696853	pulse	1.0	t		place	house-43.jpg	0.0	158.43144952791408	
38.0	136.5016751432522	pulse	1.0	t		place	house-43.jpg	0.0	159.13142939419777	
39.0	137.21823559224322	car	0.0		45	object	car-4.jpg	0.0	159.84798984318877	0.38332360857748426
39.0	137.21025938081675	pulse	0.0	t		object	car-4.jpg	0.0	159.8400136317623	
39.0	137.6015592008207	ISI	1.0		594	object	car-4.jpg	0.0	160.23131345176625	5.016615899719
39.0	137.90166596686595	pulse	1.0	t		object	car-4.jpg	0.0	160.5314202178115	
39.0	138.60163466452286	pulse	1.0	t		object	car-4.jpg	0.0	161.23138891546841	
39.0	139.30162117161308	pulse	1.0	t		object	car-4.jpg	0.0	161.93137542255863	
39.0	140.00160345273616	pulse	1.0	t		object	car-4.jpg	0.0	162.63135770368172	
39.0	140.7015914691001	pulse	1.0	t		object	car-4.jpg	0.0	163.33134572004565	
39.0	141.40165223247277	pulse	1.0	t		object	car-4.jpg	0.0	164.03140648341832	
39.0	142.10164296553012	pulse	1.0	t		object	car-4.jpg	0.0	164.73139721647567	
40.0	142.6181751005397	adult	0.0		46	face	adult-125.jpg	0.0	165.24792935148525	0.3832535782630657
40.0	142.8015491792412	pulse	0.0	t		face	adult-125.jpg	0.0	165.43130343018674	
40.0	143.00142867880277	ISI	1.0		473	face	adult-125.jpg	0.0	165.63118292974832	4.0166074477838265
40.0	143.5015468549591	pulse	1.0	t		face	adult-125.jpg	0.0	166.13130110590464	
40.0	144.20152279713147	pulse	1.0	t		face	adult-125.jpg	0.0	166.83127704807703	
40.0	144.90151020978556	pulse	1.0	t		face	adult-125.jpg	0.0	167.5312644607311	
40.0	145.60148222784483	pulse	1.0	t		face	adult-125.jpg	0.0	168.23123647879038	
40.0	146.3014835258209	pulse	1.0	t		face	adult-125.jpg	0.0	168.93123777676647	
41.0	147.0180361265866	limb	0.0		45	body	limb-23.jpg	0.0	169.64779037753215	0.38330368616061605
41.0	147.01003999274326	pulse	0.0	t		body	limb-23.jpg	0.0	169.6397942436888	
41.0	147.4013398127472	ISI	1.0		354	body	limb-23.jpg	0.0	170.03109406369276	3.016670233584591
41.0	147.70144748435723	pulse	1.0	t		body	limb-23.jpg	0.0	170.33120173530278	
41.0	148.40142403023856	pulse	1.0	t		body	limb-23.jpg	0.0	171.0311782811841	
41.0	149.10148026578918	pulse	1.0	t		body	limb-23.jpg	0.0	171.73123451673473	
41.0	149.80147130070145	pulse	1.0	t		body	limb-23.jpg	0.0	172.431225551647	
42.0	150.4180100463318	car	0.0		46	object	car-71.jpg	0.0	173.04776429727735	0.38325267269738106
42.0	150.50140649247442	pulse	0.0	t		object	car-71.jpg	0.0	173.13116074341997	
42.0	150.80126271902918	ISI	1.0		236	object	car-71.jpg	0.0	173.43101696997473	2.0166457833447566
42.0	151.201367341906	pulse	1.0	t		object	car-71.jpg	0.0	173.83112159285156	
42.0	151.90135898052722	pulse	1.0	t		object	car-71.jpg	0.0	174.53111323147277	
42.0	152.6013436764888	pulse	1.0	t		object	car-71.jpg	0.0	175.23109792743435	
43.0	152.81790850237394	car	0.0		46	object	car-128.jpg	0.0	175.4476627533195	0.38331968446527753
43.0	153.20122818683922	ISI	1.0		234	object	car-128.jpg	0.0	175.83098243778477	2.016645481490741
43.0	153.30133199470765	pulse	1.0	t		object	car-128.jpg	0.0	175.9310862456532	
43.0	154.00132061478143	pulse	1.0	t		object	car-128.jpg	0.0	176.631074865727	
43.0	154.70128810501865	pulse	1.0	t		object	car-128.jpg	0.0	177.3310423559642	
44.0	155.21787366832996	limb	0.0		46	body	limb-66.jpg	0.0	177.8476279192755	0.38330368615970656
44.0	155.40129423267172	pulse	0.0	t		body	limb-66.jpg	0.0	178.03104848361727	
44.0	155.60117735448966	ISI	1.0		475	body	limb-66.jpg	0.0	178.23093160543522	4.016616805283775
44.0	156.10126866556948	pulse	1.0	t		body	limb-66.jpg	0.0	178.73102291651503	
44.0	156.80131011023423	pulse	1.0	t		body	limb-66.jpg	0.0	179.43106436117978	
44.0	157.50130295627514	pulse	1.0	t		body	limb-66.jpg	0.0	180.1310572072207	
44.0	158.20129972642917	pulse	1.0	t		body	limb-66.jpg	0.0	180.83105397737472	
44.0	158.90128321497104	pulse	1.0	t		body	limb-66.jpg	0.0	181.5310374659166	
45.0	159.61779415977344	house	0.0		45	place	house-96.jpg	0.0	182.247548410719	0.38330519543433184
45.0	159.6098004407686	pulse	0.0	t		place	house-96.jpg	0.0	182.23955469171415	
45.0	160.00109935520777	ISI	1.0		355	place	house-96.jpg	0.0	182.63085360615332	3.016629181330245
45.0	160.30125894584398	pulse	1.0	t		place	house-96.jpg	0.0	182.93101319678954	
45.0	161.00123881212858	pulse	1.0	t		place	house-96.jpg	0.0	183.63099306307413	
45.0	161.70120811349443	pulse	1.0	t		place	house-96.jpg	0.0	184.33096236443998	
45.0	162.40120880776067	pulse	1.0	t		place	house-96.jpg	0.0	185.03096305870622	
46.0	163.01772853653802	car	0.0		46	object	car-129.jpg	0.0	185.64748278748357	0.3832707839865179
46.0	163.1011168326013	pulse	0.0	t		object	car-129.jpg	0.0	185.73087108354684	
46.0	163.40099932052453	ISI	1.0		353	object	car-129.jpg	0.0	186.0307535714701	3.016639142539134
46.0	163.80110726380371	pulse	1.0	t		object	car-129.jpg	0.0	186.43086151474927	
46.0	164.5010783762982	pulse	1.0	t		object	car-129.jpg	0.0	187.13083262724376	
46.0	165.20108148540294	pulse	1.0	t		object	car-129.jpg	0.0	187.8308357363485	
46.0	165.90105410717206	pulse	1.0	t		object	car-129.jpg	0.0	188.5308083581176	
47.0	166.41763846306367	number	0.0		46	character	number-27.jpg	0.0	189.04739271400922	0.3832873860010295
47.0	166.60104695321297	pulse	0.0	t		character	number-27.jpg	0.0	189.23080120415852	
47.0	166.8009258490647	ISI	1.0		355	character	number-27.jpg	0.0	189.43068010001025	3.0166753651155886
47.0	167.30103044175485	pulse	1.0	t		character	number-27.jpg	0.0	189.9307846927004	
47.0	168.00103053231123	pulse	1.0	t		character	number-27.jpg	0.0	190.6307847832568	
47.0	168.70099500400102	pulse	1.0	t		character	number-27.jpg	0.0	191.33074925494657	
47.0	169.40105365439013	pulse	1.0	t		character	number-27.jpg	0.0	192.03080790533568	
48.0	169.81760121418029	limb	0.0		46	body	limb-24.jpg	0.0	192.44735546512584	0.3832517671335154
48.0	170.10098039422792	pulse	0.0	t		body	limb-24.jpg	0.0	192.73073464517347	
48.0	170.2008529813138	ISI	1.0		234	body	limb-24.jpg	0.0	192.83060723225935	2.0166551408437954
48.0	170.8009741458336	pulse	1.0	t		body	limb-24.jpg	0.0	193.43072839677916	
48.0	171.50094706945765	pulse	1.0	t		body	limb-24.jpg	0.0	194.1307013204032	
49.0	172.2175081221576	house	0.0		45	place	house-73.jpg	0.0	194.84726237310315	0.38329674350006826
49.0	172.20921013350744	pulse	0.0	t		place	house-73.jpg	0.0	194.838964384453	
49.0	172.60080486565766	ISI	1.0		235	place	house-73.jpg	0.0	195.23055911660322	2.0166412555227
49.0	172.900911329848	pulse	1.0	t		place	house-73.jpg	0.0	195.53066558079354	
49.0	173.6008954220997	pulse	1.0	t		place	house-73.jpg	0.0	196.23064967304526	
49.0	174.30088464588334	pulse	1.0	t		place	house-73.jpg	0.0	196.9306388968289	
50.0	174.61744612118036	house	0.0		46	place	house-73.jpg	1.0	197.24720037212592	0.3833045917253912
50.0	175.00075071290576	ISI	1.0		233	place	house-73.jpg	1.0	197.6305049638513	2.016701324629139
50.0	175.05221967423222	pulse	1.0	t		place	house-73.jpg	1.0	197.68197392517777	
50.0	175.63419393145068	response	1.0	b		place	house-73.jpg	1.0	198.26394818239623	
50.0	175.700832606115	pulse	1.0	t		place	house-73.jpg	1.0	198.33058685706055	
50.0	176.4009078585177	pulse	1.0	t		place	house-73.jpg	1.0	199.03066210946326	
51.0	177.0174520375349	limb	0.0		46	body	limb-74.jpg	0.0	199.64720628848045	0.3832635394710451
51.0	177.10082765569587	pulse	0.0	t		body	limb-74.jpg	0.0	199.73058190664142	
51.0	177.40071557700594	ISI	1.0		234	body	limb-74.jpg	0.0	200.0304698279515	2.0166451796349065
51.0	177.80081476649502	pulse	1.0	t		body	limb-74.jpg	0.0	200.43056901744058	
51.0	178.50079644390826	pulse	1.0	t		body	limb-74.jpg	0.0	201.1305506948538	
51.0	179.20077963059612	pulse	1.0	t		body	limb-74.jpg	0.0	201.83053388154167	
52.0	179.41736075664085	house	0.0		46	place	house-137.jpg	0.0	202.0471150075864	0.3832882915658047
52.0	179.80064904820665	ISI	1.0		353	place	house-137.jpg	0.0	202.4304032991522	3.016627068346679
52.0	179.9007646284117	pulse	1.0	t		place	house-137.jpg	0.0	202.53051887935726	
52.0	180.6007405705841	pulse	1.0	t		place	house-137.jpg	0.0	203.23049482152965	
52.0	181.30073009622174	pulse	1.0	t		place	house-137.jpg	0.0	203.9304843471673	
52.0	182.0007159996021	pulse	1.0	t		place	house-137.jpg	0.0	204.63047025054766	
52.0	182.70070009185383	pulse	1.0	t		place	house-137.jpg	0.0	205.33045434279938	
53.0	182.81727611655333	car	0.0		46	object	car-96.jpg	0.0	205.44703036749888	0.383332966076523
53.0	183.20060908262985	ISI	1.0		235	object	car-96.jpg	0.0	205.8303633335754	2.0166485000381726
53.0	183.4007569311143	pulse	1.0	t		object	car-96.jpg	0.0	206.03051118205985	
53.0	184.10078811271615	pulse	1.0	t		object	car-96.jpg	0.0	206.7305423636617	
53.0	184.80073507682664	pulse	1.0	t		object	car-96.jpg	0.0	207.4304893277722	
54.0	185.21725758266803	limb	0.0		46	body	limb-8.jpg	0.0	207.84701183361358	0.38328798970997013
54.0	185.50064279981143	pulse	0.0	t		body	limb-8.jpg	0.0	208.13039705075698	
54.0	185.600545572378	ISI	1.0		235	body	limb-8.jpg	0.0	208.23029982332355	2.016637029555568
54.0	186.2006362495622	pulse	1.0	t		body	limb-8.jpg	0.0	208.83039050050775	
54.0	186.90061188987966	pulse	1.0	t		body	limb-8.jpg	0.0	209.5303661408252	
55.0	187.61718260193356	house	0.0		45	place	house-98.jpg	0.0	210.24693685287912	0.38329191382308636
55.0	187.6070550712966	pulse	0.0	t		place	house-98.jpg	0.0	210.23680932224215	
55.0	188.00047451575665	ISI	1.0		473	place	house-98.jpg	0.0	210.6302287667022	4.016632803588436
55.0	188.30059607268777	pulse	1.0	t		place	house-98.jpg	0.0	210.93035032363332	
55.0	189.0005686944569	pulse	1.0	t		place	house-98.jpg	0.0	211.63032294540244	
55.0	189.70054795703163	pulse	1.0	t		place	house-98.jpg	0.0	212.33030220797718	
55.0	190.4005365771054	pulse	1.0	t		place	house-98.jpg	0.0	213.03029082805097	
55.0	191.1005366676618	pulse	1.0	t		place	house-98.jpg	0.0	213.73029091860735	
55.0	191.80057479192328	pulse	1.0	t		place	house-98.jpg	0.0	214.43032904286883	
56.0	192.0171073193451	house	0.0		46	place	house-121.jpg	0.0	214.64686157029064	0.3833094214014636
56.0	192.40041674074655	ISI	1.0		232	place	house-121.jpg	0.0	215.0301709916921	2.016643972216116
56.0	192.50059057893031	pulse	1.0	t		place	house-121.jpg	0.0	215.13034482987587	
56.0	193.20054991908728	pulse	1.0	t		place	house-121.jpg	0.0	215.83030417003283	
56.0	193.90053612432257	pulse	1.0	t		place	house-121.jpg	0.0	216.53029037526812	
57.0	194.41706071296267	limb	0.0		46	body	limb-125.jpg	0.0	217.04681496390822	0.38331877890050237
57.0	194.60048942738467	pulse	0.0	t		body	limb-125.jpg	0.0	217.23024367833023	
57.0	194.80037949186317	ISI	1.0		472	body	limb-125.jpg	0.0	217.43013374280872	4.0165884309317335
57.0	195.30051577930863	pulse	1.0	t		body	limb-125.jpg	0.0	217.93027003025418	
57.0	196.00048628809418	pulse	1.0	t		body	limb-125.jpg	0.0	218.63024053903973	
57.0	196.7004779267163	pulse	1.0	t		body	limb-125.jpg	0.0	219.33023217766186	
57.0	197.4004704709023	pulse	1.0	t		body	limb-125.jpg	0.0	220.03022472184784	
57.0	198.1004554687188	pulse	1.0	t		body	limb-125.jpg	0.0	220.73020971966434	
58.0	198.8169679227949	number	0.0		45	character	number-21.jpg	0.0	221.44672217374045	0.38331817519156175
58.0	198.80404491478748	pulse	0.0	t		character	number-21.jpg	0.0	221.43379916573303	
58.0	199.20028609798646	ISI	1.0		352	character	number-21.jpg	0.0	221.83004034893202	3.016625559072054
58.0	199.50040886233637	pulse	1.0	t		character	number-21.jpg	0.0	222.13016311328192	
58.0	200.20040714176412	pulse	1.0	t		character	number-21.jpg	0.0	222.83016139270967	
58.0	200.90038157466188	pulse	1.0	t		character	number-21.jpg	0.0	223.53013582560743	
58.0	201.60037381699294	pulse	1.0	t		character	number-21.jpg	0.0	224.2301280679385	
59.0	202.21691165705852	limb	0.0		46	body	limb-6.jpg	0.0	224.84666590800407	0.3832852730174636
59.0	202.30033466642453	pulse	0.0	t		body	limb-6.jpg	0.0	224.93008891737009	
59.0	202.60019693007598	ISI	1.0		232	body	limb-6.jpg	0.0	225.22995118102153	2.0166488018930977
59.0	203.00034532189966	pulse	1.0	t		body	limb-6.jpg	0.0	225.6300995728452	
59.0	203.70032066036129	pulse	1.0	t		body	limb-6.jpg	0.0	226.33007491130684	
59.0	204.40031139341863	pulse	1.0	t		body	limb-6.jpg	0.0	227.03006564436419	
60.0	204.61684573196908	house	0.0		46	place	house-21.jpg	0.0	227.24659998291463	0.3833163640620114
60.0	205.0001620960311	ISI	1.0		353	place	house-21.jpg	0.0	227.62991634697664	3.0166264646377385
60.0	205.10031721921678	pulse	1.0	t		place	house-21.jpg	0.0	227.73007147016233	
60.0	205.80028833171127	pulse	1.0	t		place	house-21.jpg	0.0	228.43004258265682	
60.0	206.5002760462212	pulse	1.0	t		place	house-21.jpg	0.0	229.13003029716674	
60.0	207.20026315702034	pulse	1.0	t		place	house-21.jpg	0.0	229.8300174079659	
60.0	207.9002372880641	pulse	1.0	t		place	house-21.jpg	0.0	230.52999153900964	
61.0	208.01678856066883	limb	0.0		46	body	limb-93.jpg	0.0	230.64654281161438	0.3833027805958409
61.0	208.40009134126467	ISI	1.0		473	body	limb-93.jpg	0.0	231.02984559221022	4.016593562462731
61.0	208.60022470071817	pulse	1.0	t		body	limb-93.jpg	0.0	231.22997895166372	
61.0	209.30021452821165	pulse	1.0	t		body	limb-93.jpg	0.0	231.9299687791572	
61.0	210.0001874518348	pulse	1.0	t		body	limb-93.jpg	0.0	232.62994170278034	
61.0	210.70017426077993	pulse	1.0	t		body	limb-93.jpg	0.0	233.32992851172548	
61.0	211.4001689179495	pulse	1.0	t		body	limb-93.jpg	0.0	234.02992316889504	
61.0	212.1001617639913	pulse	1.0	t		body	limb-93.jpg	0.0	234.72991601493686	
62.0	212.4166849037274	car	0.0		46	object	car-102.jpg	0.0	235.04643915467295	0.3833136473695049
62.0	212.7999985510969	ISI	1.0		232	object	car-102.jpg	0.0	235.42975280204246	2.0166457833447566
62.0	212.86021526473723	pulse	1.0	t		object	car-102.jpg	0.0	235.4899695156828	
62.0	213.50011727059245	pulse	1.0	t		object	car-102.jpg	0.0	236.129871521538	
62.0	214.20011132405307	pulse	1.0	t		object	car-102.jpg	0.0	236.82986557499862	
63.0	214.81664433444166	number	0.0		46	character	number-93.jpg	0.0	237.44639858538721	0.3832807451954068
63.0	214.9000818328377	pulse	0.0	t		character	number-93.jpg	0.0	237.52983608378327	
63.0	215.19992507963707	ISI	1.0		233	character	number-93.jpg	0.0	237.82967933058262	2.01665423527902
63.0	215.60007377331476	pulse	1.0	t		character	number-93.jpg	0.0	238.2298280242603	
63.0	216.30006480822703	pulse	1.0	t		character	number-93.jpg	0.0	238.9298190591726	
63.0	217.00004588193042	pulse	1.0	t		character	number-93.jpg	0.0	239.62980013287597	
64.0	217.2165793149161	car	0.0		46	object	car-127.jpg	0.0	239.84633356586164	0.3833163640620114
64.0	217.5998956789781	ISI	1.0		592	object	car-127.jpg	0.0	240.22964992992365	5.01657877157777
64.0	217.70004295393846	pulse	1.0	t		object	car-127.jpg	0.0	240.32979720488402	
64.0	218.4000119534503	pulse	1.0	t		object	car-127.jpg	0.0	241.02976620439586	
64.0	219.10000872360342	pulse	1.0	t		object	car-127.jpg	0.0	241.72976297454898	
64.0	219.79998043980868	pulse	1.0	t		object	car-127.jpg	0.0	242.42973469075423	
64.0	220.49996664504397	pulse	1.0	t		object	car-127.jpg	0.0	243.12972089598952	
64.0	221.19995254842433	pulse	1.0	t		object	car-127.jpg	0.0	243.8297067993699	
64.0	221.89995565752815	pulse	1.0	t		object	car-127.jpg	0.0	244.5297099084737	
65.0	222.61647445055587	number	0.0		45	character	number-46.jpg	0.0	245.24622870150142	0.38329191382308636
65.0	222.60843062365257	pulse	0.0	t		character	number-46.jpg	0.0	245.23818487459812	
65.0	222.99976636437896	ISI	1.0		239	character	number-46.jpg	0.0	245.6295206153245	2.0000084519342636
65.0	223.29997998702584	pulse	1.0	t		character	number-46.jpg	0.0	245.9297342379714	
65.0	223.9999088398481	pulse	1.0	t		character	number-46.jpg	0.0	246.62966309079366	
65.0	224.69987814121396	pulse	1.0	t		character	number-46.jpg	0.0	247.3296323921595	
66.0	224.99977481631322	baseline	0.0		708		baseline	0.0	247.62952906725877	5.899876873424546
66.0	225.39988094846376	pulse	0.0	t			baseline	0.0	248.0296351994093	
66.0	226.0998574943451	pulse	0.0	t			baseline	0.0	248.72961174529064	
66.0	226.79983071982406	pulse	0.0	t			baseline	0.0	249.4295849707696	
66.0	227.49983564005743	pulse	0.0	t			baseline	0.0	250.12958989100298	
66.0	228.19981882674438	pulse	0.0	t			baseline	0.0	250.82957307768993	
66.0	228.8997914485135	pulse	0.0	t			baseline	0.0	251.52954569945905	
66.0	229.59977433334552	pulse	0.0	t			baseline	0.0	252.22952858429107	
66.0	230.2997665756775	pulse	0.0	t			baseline	0.0	252.92952082662305	
66.0	230.89965168973777	ISI	1.0		12		baseline	0.0	253.52940594068332	0.09999876239544392
