trial_nr	onset	event_type	phase	response	nr_frames	face_age	face_sex	face_eth	attractiveness	expression	face_id	sub_id	ses	run	trial_type	catch	onset_abs	duration
-1.0	0.05962019046273781	fix	0.0		713												112.37560049878175	5.957892414163325
-1.0	0.7011305299838568	pulse	0.0	t													113.01711083830287	
-1.0	1.4011061704486565	pulse	0.0	t													113.71708647876767	
-1.0	2.1010760757053504	pulse	0.0	t													114.41705638402436	
-1.0	2.8010523198754527	pulse	0.0	t													115.11703262819447	
-1.0	3.501049090048582	pulse	0.0	t													115.8170293983676	
-1.0	4.20103348424982	pulse	0.0	t													116.51701379256883	
-1.0	4.900991617240834	pulse	0.0	t													117.21697192555985	
-1.0	5.60097148364639	pulse	0.0	t													117.9169517919654	
0.0	6.017512604626063	face	0.0		144	31.0	female	west_asian	2.364902506963788	neutral	006	sub-04	1.0	1.0	006_neutral	0.0	118.33349291294508	1.2333106239266272
0.0	6.300977913115275	pulse	0.0	t		31.0	female	west_asian	2.364902506963788	neutral	006	sub-04	1.0	1.0	006_neutral	0.0	118.61695822143429	
0.0	7.000949629490606	pulse	0.0	t		31.0	female	west_asian	2.364902506963788	neutral	006	sub-04	1.0	1.0	006_neutral	0.0	119.31692993780962	
0.0	7.25082322855269	fix	1.0		444	31.0	female	west_asian	2.364902506963788	neutral	006	sub-04	1.0	1.0	006_neutral	0.0	119.5668035368717	3.7665556552010457
0.0	7.700936740367979	pulse	1.0	t		31.0	female	west_asian	2.364902506963788	neutral	006	sub-04	1.0	1.0	006_neutral	0.0	120.01691704868699	
0.0	8.400923549392246	pulse	1.0	t		31.0	female	west_asian	2.364902506963788	neutral	006	sub-04	1.0	1.0	006_neutral	0.0	120.71690385771126	
0.0	9.1008777582947	pulse	1.0	t		31.0	female	west_asian	2.364902506963788	neutral	006	sub-04	1.0	1.0	006_neutral	0.0	121.41685806661371	
0.0	9.800880867380329	pulse	1.0	t		31.0	female	west_asian	2.364902506963788	neutral	006	sub-04	1.0	1.0	006_neutral	0.0	122.11686117569934	
0.0	10.500855904138916	pulse	1.0	t		31.0	female	west_asian	2.364902506963788	neutral	006	sub-04	1.0	1.0	006_neutral	0.0	122.81683621245793	
1.0	11.017378883753736	face	0.0		145	37.0	male	white	3.898925586947871	smiling	101	sub-04	1.0	1.0	101_smiling	0.0	123.33335919207275	1.2333094165151124
1.0	11.200845127987122	pulse	0.0	t		37.0	male	white	3.898925586947871	smiling	101	sub-04	1.0	1.0	101_smiling	0.0	123.51682543630614	
1.0	11.900819561039498	pulse	0.0	t		37.0	male	white	3.898925586947871	smiling	101	sub-04	1.0	1.0	101_smiling	0.0	124.21679986935851	
1.0	12.250688300268848	fix	1.0		444	37.0	male	white	3.898925586947871	smiling	101	sub-04	1.0	1.0	101_smiling	0.0	124.56666860858786	3.7665677293198314
1.0	12.600798823738842	pulse	1.0	t		37.0	male	white	3.898925586947871	smiling	101	sub-04	1.0	1.0	101_smiling	0.0	124.91677913205785	
1.0	13.300788047587048	pulse	1.0	t		37.0	male	white	3.898925586947871	smiling	101	sub-04	1.0	1.0	101_smiling	0.0	125.61676835590606	
1.0	14.000751613932152	pulse	1.0	t		37.0	male	white	3.898925586947871	smiling	101	sub-04	1.0	1.0	101_smiling	0.0	126.31673192225117	
1.0	14.700728763661573	pulse	1.0	t		37.0	male	white	3.898925586947871	smiling	101	sub-04	1.0	1.0	101_smiling	0.0	127.01670907198059	
1.0	15.400717685656673	pulse	1.0	t		37.0	male	white	3.898925586947871	smiling	101	sub-04	1.0	1.0	101_smiling	0.0	127.71669799397569	
2.0	16.01725602958868	face	0.0		145	27.0	female	white	4.181058495821727	smiling	039	sub-04	1.0	1.0	039_smiling	1.0	128.3332363379077	1.2333184721046564
2.0	16.10071234285897	pulse	0.0	t		27.0	female	white	4.181058495821727	smiling	039	sub-04	1.0	1.0	039_smiling	1.0	128.41669265117798	
2.0	16.800695227794677	pulse	0.0	t		27.0	female	white	4.181058495821727	smiling	039	sub-04	1.0	1.0	039_smiling	1.0	129.1166755361137	
2.0	17.250574501693336	fix	1.0		237	27.0	female	white	4.181058495821727	smiling	039	sub-04	1.0	1.0	039_smiling	1.0	129.56655481001235	2.008304579320793
2.0	17.500676301612657	pulse	1.0	t		27.0	female	white	4.181058495821727	smiling	039	sub-04	1.0	1.0	039_smiling	1.0	129.81665660993167	
2.0	18.200640169809958	pulse	1.0	t		27.0	female	white	4.181058495821727	smiling	039	sub-04	1.0	1.0	039_smiling	1.0	130.51662047812897	
2.0	18.900618225097787	pulse	1.0	t		27.0	female	white	4.181058495821727	smiling	039	sub-04	1.0	1.0	039_smiling	1.0	131.2165985334168	
2.0	19.25887908101413	rating	2.0		235	27.0	female	white	4.181058495821727	smiling	039	sub-04	1.0	1.0	039_smiling	1.0	131.57485938933314	1.9915695479849091
2.0	19.60061076932925	pulse	2.0	t		27.0	female	white	4.181058495821727	smiling	039	sub-04	1.0	1.0	039_smiling	1.0	131.91659107764826	
2.0	20.300603917266926	pulse	2.0	t		27.0	female	white	4.181058495821727	smiling	039	sub-04	1.0	1.0	039_smiling	1.0	132.61658422558594	
2.0	21.00057684105377	pulse	2.0	t		27.0	female	white	4.181058495821727	smiling	039	sub-04	1.0	1.0	039_smiling	1.0	133.31655714937278	
2.0	21.250448628999038	fix	3.0		444	27.0	female	white	4.181058495821727	smiling	039	sub-04	1.0	1.0	039_smiling	1.0	133.56642893731805	3.758215759079576
2.0	21.700553085223873	pulse	3.0	t		27.0	female	white	4.181058495821727	smiling	039	sub-04	1.0	1.0	039_smiling	1.0	134.0165333935429	
2.0	22.400554383191775	pulse	3.0	t		27.0	female	white	4.181058495821727	smiling	039	sub-04	1.0	1.0	039_smiling	1.0	134.7165346915108	
2.0	23.100511912476577	pulse	3.0	t		27.0	female	white	4.181058495821727	smiling	039	sub-04	1.0	1.0	039_smiling	1.0	135.4164922207956	
2.0	23.800491778883043	pulse	3.0	t		27.0	female	white	4.181058495821727	smiling	039	sub-04	1.0	1.0	039_smiling	1.0	136.11647208720206	
2.0	24.500669358993946	pulse	3.0	t		27.0	female	white	4.181058495821727	smiling	039	sub-04	1.0	1.0	039_smiling	1.0	136.81664966731296	
3.0	25.008664388078614	face	0.0		146	28.0	male	white	3.9076800636689217	smiling	033	sub-04	1.0	1.0	033_smiling	0.0	137.32464469639763	1.2416644052846095
3.0	25.201446117280284	pulse	0.0	t		28.0	male	white	3.9076800636689217	smiling	033	sub-04	1.0	1.0	033_smiling	0.0	137.5174264255993	
3.0	25.90044315036721	pulse	0.0	t		28.0	male	white	3.9076800636689217	smiling	033	sub-04	1.0	1.0	033_smiling	0.0	138.21642345868622	
3.0	26.250328793363224	fix	1.0		444	28.0	male	white	3.9076800636689217	smiling	033	sub-04	1.0	1.0	033_smiling	0.0	138.56630910168224	3.7582127405503343
3.0	26.600424526037386	pulse	1.0	t		28.0	male	white	3.9076800636689217	smiling	033	sub-04	1.0	1.0	033_smiling	0.0	138.9164048343564	
3.0	27.300401977619913	pulse	1.0	t		28.0	male	white	3.9076800636689217	smiling	033	sub-04	1.0	1.0	033_smiling	0.0	139.61638228593893	
3.0	28.000384560702514	pulse	1.0	t		28.0	male	white	3.9076800636689217	smiling	033	sub-04	1.0	1.0	033_smiling	0.0	140.31636486902153	
3.0	28.700359295607996	pulse	1.0	t		28.0	male	white	3.9076800636689217	smiling	033	sub-04	1.0	1.0	033_smiling	0.0	141.016339603927	
3.0	29.40034157683749	pulse	1.0	t		28.0	male	white	3.9076800636689217	smiling	033	sub-04	1.0	1.0	033_smiling	0.0	141.7163218851565	
4.0	30.008541533913558	face	0.0		146	36.0	female	white	2.7548746518105847	smiling	011	sub-04	1.0	1.0	011_smiling	0.0	142.32452184223257	1.2416547459897629
4.0	30.10032506547941	pulse	0.0	t		36.0	female	white	2.7548746518105847	smiling	011	sub-04	1.0	1.0	011_smiling	0.0	142.41630537379842	
4.0	30.800315798592237	pulse	0.0	t		36.0	female	white	2.7548746518105847	smiling	011	sub-04	1.0	1.0	011_smiling	0.0	143.11629610691125	
4.0	31.25019627990332	fix	1.0		444	36.0	female	white	2.7548746518105847	smiling	011	sub-04	1.0	1.0	011_smiling	0.0	143.56617658822233	3.7665254699022626
4.0	31.500301098351883	pulse	1.0	t		36.0	female	white	2.7548746518105847	smiling	011	sub-04	1.0	1.0	011_smiling	0.0	143.8162814066709	
4.0	32.20026164616684	pulse	1.0	t		36.0	female	white	2.7548746518105847	smiling	011	sub-04	1.0	1.0	011_smiling	0.0	144.51624195448585	
4.0	32.90024302183792	pulse	1.0	t		36.0	female	white	2.7548746518105847	smiling	011	sub-04	1.0	1.0	011_smiling	0.0	145.21622333015694	
4.0	33.60024220683499	pulse	1.0	t		36.0	female	white	2.7548746518105847	smiling	011	sub-04	1.0	1.0	011_smiling	0.0	145.916222515154	
4.0	34.30021633803426	pulse	1.0	t		36.0	female	white	2.7548746518105847	smiling	011	sub-04	1.0	1.0	011_smiling	0.0	146.61619664635327	
5.0	35.01672174980558	face	0.0		146	24.0	female	east_asian	2.9076800636689217	smiling	034	sub-04	1.0	1.0	034_smiling	0.0	147.3327020581246	1.233319075809959
5.0	35.00305958185527	pulse	0.0	t		24.0	female	east_asian	2.9076800636689217	smiling	034	sub-04	1.0	1.0	034_smiling	0.0	147.31903989017428	
5.0	35.70018814496507	pulse	0.0	t		24.0	female	east_asian	2.9076800636689217	smiling	034	sub-04	1.0	1.0	034_smiling	0.0	148.01616845328408	
5.0	36.25004082561554	fix	1.0		443	24.0	female	east_asian	2.9076800636689217	smiling	034	sub-04	1.0	1.0	034_smiling	0.0	148.56602113393456	3.7583244261550135
5.0	36.40015503169252	pulse	1.0	t		24.0	female	east_asian	2.9076800636689217	smiling	034	sub-04	1.0	1.0	034_smiling	0.0	148.71613534001153	
5.0	37.10012614436255	pulse	1.0	t		24.0	female	east_asian	2.9076800636689217	smiling	034	sub-04	1.0	1.0	034_smiling	0.0	149.41610645268156	
5.0	37.80012683862424	pulse	1.0	t		24.0	female	east_asian	2.9076800636689217	smiling	034	sub-04	1.0	1.0	034_smiling	0.0	150.11610714694325	
5.0	38.500101875381915	pulse	1.0	t		24.0	female	east_asian	2.9076800636689217	smiling	034	sub-04	1.0	1.0	034_smiling	0.0	150.81608218370093	
5.0	39.20005125463649	pulse	1.0	t		24.0	female	east_asian	2.9076800636689217	smiling	034	sub-04	1.0	1.0	034_smiling	0.0	151.5160315629555	
5.0	39.90005496742833	pulse	1.0	t		24.0	female	east_asian	2.9076800636689217	smiling	034	sub-04	1.0	1.0	034_smiling	0.0	152.21603527574734	
6.0	40.008365251770556	face	0.0		147	27.0	female	white	3.504576203740549	neutral	144	sub-04	1.0	1.0	144_neutral	0.0	152.32434556008957	1.2415427585319776
6.0	40.60002758936298	pulse	0.0	t		27.0	female	white	3.504576203740549	neutral	144	sub-04	1.0	1.0	144_neutral	0.0	152.916007897682	
6.0	41.24990801030253	fix	1.0		443	27.0	female	white	3.504576203740549	neutral	144	sub-04	1.0	1.0	144_neutral	0.0	153.56588831862155	3.7665656163489984
6.0	41.300028585477776	pulse	1.0	t		27.0	female	white	3.504576203740549	neutral	144	sub-04	1.0	1.0	144_neutral	0.0	153.6160088937968	
6.0	42.00000573520629	pulse	1.0	t		27.0	female	white	3.504576203740549	neutral	144	sub-04	1.0	1.0	144_neutral	0.0	154.3159860435253	
6.0	42.700170335639086	pulse	1.0	t		27.0	female	white	3.504576203740549	neutral	144	sub-04	1.0	1.0	144_neutral	0.0	155.0161506439581	
6.0	43.399978145843306	pulse	1.0	t		27.0	female	white	3.504576203740549	neutral	144	sub-04	1.0	1.0	144_neutral	0.0	155.71595845416232	
6.0	44.09995257889568	pulse	1.0	t		27.0	female	white	3.504576203740549	neutral	144	sub-04	1.0	1.0	144_neutral	0.0	156.4159328872147	
6.0	44.79993365271366	pulse	1.0	t		27.0	female	white	3.504576203740549	neutral	144	sub-04	1.0	1.0	144_neutral	0.0	157.11591396103267	
7.0	45.01647362665153	face	0.0		145	26.0	male	white	2.7966573816155993	smiling	117	sub-04	1.0	1.0	117_smiling	0.0	157.33245393497054	1.2333184721046564
7.0	45.499923178414974	pulse	0.0	t		26.0	male	white	2.7966573816155993	smiling	117	sub-04	1.0	1.0	117_smiling	0.0	157.815903486734	
7.0	46.19990485593917	pulse	0.0	t		26.0	male	white	2.7966573816155993	smiling	117	sub-04	1.0	1.0	117_smiling	0.0	158.51588516425818	
7.0	46.24979209875619	fix	1.0		445	26.0	male	white	2.7966573816155993	smiling	117	sub-04	1.0	1.0	117_smiling	0.0	158.5657724070752	3.7665302995501406
7.0	46.89987325193124	pulse	1.0	t		26.0	male	white	2.7966573816155993	smiling	117	sub-04	1.0	1.0	117_smiling	0.0	159.21585356025025	
7.0	47.5998591553971	pulse	1.0	t		26.0	male	white	2.7966573816155993	smiling	117	sub-04	1.0	1.0	117_smiling	0.0	159.9158394637161	
7.0	48.29983238103705	pulse	1.0	t		26.0	male	white	2.7966573816155993	smiling	117	sub-04	1.0	1.0	117_smiling	0.0	160.61581268935606	
7.0	48.99981677523829	pulse	1.0	t		26.0	male	white	2.7966573816155993	smiling	117	sub-04	1.0	1.0	117_smiling	0.0	161.3157970835573	
7.0	49.69979301940839	pulse	1.0	t		26.0	male	white	2.7966573816155993	smiling	117	sub-04	1.0	1.0	117_smiling	0.0	162.0157733277274	
8.0	50.01632239830633	face	0.0		145	24.0	female	east_asian	2.9076800636689217	neutral	034	sub-04	1.0	1.0	034_neutral	0.0	162.33230270662534	1.2333163591338234
8.0	50.399780733991975	pulse	0.0	t		24.0	female	east_asian	2.9076800636689217	neutral	034	sub-04	1.0	1.0	034_neutral	0.0	162.715761042311	
8.0	51.09976301522147	pulse	0.0	t		24.0	female	east_asian	2.9076800636689217	neutral	034	sub-04	1.0	1.0	034_neutral	0.0	163.41574332354048	
8.0	51.24963875744015	fix	1.0		444	24.0	female	east_asian	2.9076800636689217	neutral	034	sub-04	1.0	1.0	034_neutral	0.0	163.56561906575917	3.7665653144958924
8.0	51.79974167421551	pulse	1.0	t		24.0	female	east_asian	2.9076800636689217	neutral	034	sub-04	1.0	1.0	034_neutral	0.0	164.11572198253452	
8.0	52.49972818138667	pulse	1.0	t		24.0	female	east_asian	2.9076800636689217	neutral	034	sub-04	1.0	1.0	034_neutral	0.0	164.81570848970568	
8.0	53.199698992203594	pulse	1.0	t		24.0	female	east_asian	2.9076800636689217	neutral	034	sub-04	1.0	1.0	034_neutral	0.0	165.5156793005226	
8.0	53.899678556756044	pulse	1.0	t		24.0	female	east_asian	2.9076800636689217	neutral	034	sub-04	1.0	1.0	034_neutral	0.0	166.21565886507506	
8.0	54.599668082457356	pulse	1.0	t		24.0	female	east_asian	2.9076800636689217	neutral	034	sub-04	1.0	1.0	034_neutral	0.0	166.91564839077637	
9.0	55.016204071936045	face	0.0		145	26.0	male	white	2.7966573816155993	neutral	117	sub-04	1.0	1.0	117_neutral	0.0	167.33218438025506	1.2333003609255684
9.0	55.29964583589299	pulse	0.0	t		26.0	male	white	2.7966573816155993	neutral	117	sub-04	1.0	1.0	117_neutral	0.0	167.615626144212	
9.0	55.99959883738302	pulse	0.0	t		26.0	male	white	2.7966573816155993	neutral	117	sub-04	1.0	1.0	117_neutral	0.0	168.31557914570203	
9.0	56.24950443286161	fix	1.0		444	26.0	male	white	2.7966573816155993	neutral	117	sub-04	1.0	1.0	117_neutral	0.0	168.56548474118063	3.76655142925938
9.0	56.69961039835198	pulse	1.0	t		26.0	male	white	2.7966573816155993	neutral	117	sub-04	1.0	1.0	117_neutral	0.0	169.015590706671	
9.0	57.39959298143458	pulse	1.0	t		26.0	male	white	2.7966573816155993	neutral	117	sub-04	1.0	1.0	117_neutral	0.0	169.7155732897536	
9.0	58.09959307199097	pulse	1.0	t		26.0	male	white	2.7966573816155993	neutral	117	sub-04	1.0	1.0	117_neutral	0.0	170.41557338030998	
9.0	58.79956327910077	pulse	1.0	t		26.0	male	white	2.7966573816155993	neutral	117	sub-04	1.0	1.0	117_neutral	0.0	171.11554358741978	
9.0	59.49954405106564	pulse	1.0	t		26.0	male	white	2.7966573816155993	neutral	117	sub-04	1.0	1.0	117_neutral	0.0	171.81552435938465	
10.0	60.01605586212099	face	0.0		145	22.0	male	black	2.767608436132113	smiling	044	sub-04	1.0	1.0	044_smiling	0.0	172.33203617044	1.2333293388119273
10.0	60.19951818226491	pulse	0.0	t		22.0	male	black	2.767608436132113	smiling	044	sub-04	1.0	1.0	044_smiling	0.0	172.51549849058392	
10.0	60.89950016164221	pulse	0.0	t		22.0	male	black	2.767608436132113	smiling	044	sub-04	1.0	1.0	044_smiling	0.0	173.21548046996122	
10.0	61.24938520093292	fix	1.0		444	22.0	male	black	2.767608436132113	smiling	044	sub-04	1.0	1.0	044_smiling	0.0	173.56536550925193	3.766534827344003
10.0	61.599490894755036	pulse	1.0	t		22.0	male	black	2.767608436132113	smiling	044	sub-04	1.0	1.0	044_smiling	0.0	173.91547120307405	
10.0	62.29946321483658	pulse	1.0	t		22.0	male	black	2.767608436132113	smiling	044	sub-04	1.0	1.0	044_smiling	0.0	174.6154435231556	
10.0	62.99944127012441	pulse	1.0	t		22.0	male	black	2.767608436132113	smiling	044	sub-04	1.0	1.0	044_smiling	0.0	175.31542157844342	
10.0	63.699428079149584	pulse	1.0	t		22.0	male	black	2.767608436132113	smiling	044	sub-04	1.0	1.0	044_smiling	0.0	176.0154083874686	
10.0	64.39939707884787	pulse	1.0	t		22.0	male	black	2.767608436132113	smiling	044	sub-04	1.0	1.0	044_smiling	0.0	176.71537738716688	
11.0	65.01592002827692	face	0.0		145	40.0	female	west_asian	1.5777954635893354	smiling	038	sub-04	1.0	1.0	038_smiling	1.0	177.33190033659594	1.2333142461629905
11.0	65.09938418972524	pulse	0.0	t		40.0	female	west_asian	1.5777954635893354	smiling	038	sub-04	1.0	1.0	038_smiling	1.0	177.41536449804426	
11.0	65.79936103760156	pulse	0.0	t		40.0	female	west_asian	1.5777954635893354	smiling	038	sub-04	1.0	1.0	038_smiling	1.0	178.11534134592057	
11.0	66.24923427443991	fix	1.0		236	40.0	female	west_asian	1.5777954635893354	smiling	038	sub-04	1.0	1.0	038_smiling	1.0	178.56521458275893	1.999963777641824
11.0	66.49934543180188	pulse	1.0	t		40.0	female	west_asian	1.5777954635893354	smiling	038	sub-04	1.0	1.0	038_smiling	1.0	178.8153257401209	
11.0	67.19931895929494	pulse	1.0	t		40.0	female	west_asian	1.5777954635893354	smiling	038	sub-04	1.0	1.0	038_smiling	1.0	179.51529926761395	
11.0	67.89928041266921	pulse	1.0	t		40.0	female	west_asian	1.5777954635893354	smiling	038	sub-04	1.0	1.0	038_smiling	1.0	180.21526072098823	
11.0	68.24919805208174	rating	2.0		235	40.0	female	west_asian	1.5777954635893354	smiling	038	sub-04	1.0	1.0	038_smiling	1.0	180.56517836040075	1.9999314793731173
11.0	68.59929680328605	pulse	2.0	t		40.0	female	west_asian	1.5777954635893354	smiling	038	sub-04	1.0	1.0	038_smiling	1.0	180.91527711160506	
11.0	69.29927848081024	pulse	2.0	t		40.0	female	west_asian	1.5777954635893354	smiling	038	sub-04	1.0	1.0	038_smiling	1.0	181.61525878912926	
11.0	69.42426101106867	response	2.0	n		40.0	female	west_asian	1.5777954635893354	smiling	038	sub-04	1.0	1.0	038_smiling	1.0	181.74024131938768	
11.0	69.99924717865542	pulse	2.0	t		40.0	female	west_asian	1.5777954635893354	smiling	038	sub-04	1.0	1.0	038_smiling	1.0	182.31522748697444	
11.0	70.24912953145486	fix	3.0		445	40.0	female	west_asian	1.5777954635893354	smiling	038	sub-04	1.0	1.0	038_smiling	1.0	182.56510983977387	3.7748792512593354
11.0	70.69923187470886	pulse	3.0	t		40.0	female	west_asian	1.5777954635893354	smiling	038	sub-04	1.0	1.0	038_smiling	1.0	183.01521218302787	
11.0	71.3992229096757	pulse	3.0	t		40.0	female	west_asian	1.5777954635893354	smiling	038	sub-04	1.0	1.0	038_smiling	1.0	183.7152032179947	
11.0	72.09919040010936	pulse	3.0	t		40.0	female	west_asian	1.5777954635893354	smiling	038	sub-04	1.0	1.0	038_smiling	1.0	184.41517070842838	
11.0	72.79917177577954	pulse	3.0	t		40.0	female	west_asian	1.5777954635893354	smiling	038	sub-04	1.0	1.0	038_smiling	1.0	185.11515208409855	
11.0	73.49915345330373	pulse	3.0	t		40.0	female	west_asian	1.5777954635893354	smiling	038	sub-04	1.0	1.0	038_smiling	1.0	185.81513376162275	
12.0	74.02400878271419	face	0.0		145	20.0	female	white	3.9502586549940313	smiling	091	sub-04	1.0	1.0	091_smiling	0.0	186.3399890910332	1.2333118313390514
12.0	74.19913965862179	pulse	0.0	t		20.0	female	white	3.9502586549940313	smiling	091	sub-04	1.0	1.0	091_smiling	0.0	186.5151199669408	
12.0	74.89910805461477	pulse	0.0	t		20.0	female	white	3.9502586549940313	smiling	091	sub-04	1.0	1.0	091_smiling	0.0	187.21508836293378	
12.0	75.25732061405324	fix	1.0		444	20.0	female	white	3.9502586549940313	smiling	091	sub-04	1.0	1.0	091_smiling	0.0	187.57330092237225	3.7665716534083913
12.0	75.59911237111191	pulse	1.0	t		20.0	female	white	3.9502586549940313	smiling	091	sub-04	1.0	1.0	091_smiling	0.0	187.91509267943093	
12.0	76.29909133195906	pulse	1.0	t		20.0	female	white	3.9502586549940313	smiling	091	sub-04	1.0	1.0	091_smiling	0.0	188.61507164027807	
12.0	76.99906455759992	pulse	1.0	t		20.0	female	white	3.9502586549940313	smiling	091	sub-04	1.0	1.0	091_smiling	0.0	189.31504486591894	
12.0	77.69904804624093	pulse	1.0	t		20.0	female	white	3.9502586549940313	smiling	091	sub-04	1.0	1.0	091_smiling	0.0	190.01502835455995	
12.0	78.39902670523497	pulse	1.0	t		20.0	female	white	3.9502586549940313	smiling	091	sub-04	1.0	1.0	091_smiling	0.0	190.715007013554	
13.0	79.02389226746163	face	0.0		145	54.0	female	white	2.286908077994429	smiling	136	sub-04	1.0	1.0	136_smiling	0.0	191.33987257578065	1.2332949275723877
13.0	79.09900989202379	pulse	0.0	t		54.0	female	white	2.286908077994429	smiling	136	sub-04	1.0	1.0	136_smiling	0.0	191.4149902003428	
13.0	79.79899519178343	pulse	0.0	t		54.0	female	white	2.286908077994429	smiling	136	sub-04	1.0	1.0	136_smiling	0.0	192.11497550010245	
13.0	80.25718719503402	fix	1.0		444	54.0	female	white	2.286908077994429	smiling	136	sub-04	1.0	1.0	136_smiling	0.0	192.57316750335303	3.7665716534083913
13.0	80.49896841742338	pulse	1.0	t		54.0	female	white	2.286908077994429	smiling	136	sub-04	1.0	1.0	136_smiling	0.0	192.8149487257424	
13.0	81.19896065980174	pulse	1.0	t		54.0	female	white	2.286908077994429	smiling	136	sub-04	1.0	1.0	136_smiling	0.0	193.51494096812075	
13.0	81.89892271688223	pulse	1.0	t		54.0	female	white	2.286908077994429	smiling	136	sub-04	1.0	1.0	136_smiling	0.0	194.21490302520124	
13.0	82.59890801664187	pulse	1.0	t		54.0	female	white	2.286908077994429	smiling	136	sub-04	1.0	1.0	136_smiling	0.0	194.91488832496088	
13.0	83.29892440725871	pulse	1.0	t		54.0	female	white	2.286908077994429	smiling	136	sub-04	1.0	1.0	136_smiling	0.0	195.61490471557772	
13.0	83.99887801245495	pulse	1.0	t		54.0	female	white	2.286908077994429	smiling	136	sub-04	1.0	1.0	136_smiling	0.0	196.31485832077396	
14.0	84.02375884844241	face	0.0		146	28.0	male	white	3.9076800636689217	neutral	033	sub-04	1.0	1.0	033_neutral	0.0	196.33973915676142	1.2333106239275367
14.0	84.69885576588968	pulse	0.0	t		28.0	male	white	3.9076800636689217	neutral	033	sub-04	1.0	1.0	033_neutral	0.0	197.0148360742087	
14.0	85.25706947236995	fix	1.0		443	28.0	male	white	3.9076800636689217	neutral	033	sub-04	1.0	1.0	033_neutral	0.0	197.57304978068896	3.758370307808036
14.0	85.39884468788568	pulse	1.0	t		28.0	male	white	3.9076800636689217	neutral	033	sub-04	1.0	1.0	033_neutral	0.0	197.7148249962047	
14.0	86.09880644311215	pulse	1.0	t		28.0	male	white	3.9076800636689217	neutral	033	sub-04	1.0	1.0	033_neutral	0.0	198.41478675143117	
14.0	86.798810155904	pulse	1.0	t		28.0	male	white	3.9076800636689217	neutral	033	sub-04	1.0	1.0	033_neutral	0.0	199.114790464223	
14.0	87.49878851304493	pulse	1.0	t		28.0	male	white	3.9076800636689217	neutral	033	sub-04	1.0	1.0	033_neutral	0.0	199.81476882136394	
14.0	88.19876445536192	pulse	1.0	t		28.0	male	white	3.9076800636689217	neutral	033	sub-04	1.0	1.0	033_neutral	0.0	200.51474476368094	
14.0	88.89874462362059	pulse	1.0	t		28.0	male	white	3.9076800636689217	neutral	033	sub-04	1.0	1.0	033_neutral	0.0	201.2147249319396	
15.0	89.01543978017799	face	0.0		147	28.0	male	east_asian	1.5563072025467568	smiling	005	sub-04	1.0	1.0	005_smiling	1.0	201.331420088497	1.2414983861435758
15.0	89.59873535673432	pulse	0.0	t		28.0	male	east_asian	1.5563072025467568	smiling	005	sub-04	1.0	1.0	005_smiling	1.0	201.91471566505334	
15.0	90.25693816632156	fix	1.0		236	28.0	male	east_asian	1.5563072025467568	smiling	005	sub-04	1.0	1.0	005_smiling	1.0	202.57291847464057	1.9999489868450837
15.0	90.2987100916389	pulse	1.0	t		28.0	male	east_asian	1.5563072025467568	smiling	005	sub-04	1.0	1.0	005_smiling	1.0	202.6146903999579	
15.0	90.99870263587036	pulse	1.0	t		28.0	male	east_asian	1.5563072025467568	smiling	005	sub-04	1.0	1.0	005_smiling	1.0	203.31468294418937	
15.0	91.69867646521652	pulse	1.0	t		28.0	male	east_asian	1.5563072025467568	smiling	005	sub-04	1.0	1.0	005_smiling	1.0	204.01465677353553	
15.0	92.25688715316664	rating	2.0		235	28.0	male	east_asian	1.5563072025467568	smiling	005	sub-04	1.0	1.0	005_smiling	1.0	204.57286746148566	1.999943553491903
15.0	92.39865995385844	pulse	2.0	t		28.0	male	east_asian	1.5563072025467568	smiling	005	sub-04	1.0	1.0	005_smiling	1.0	204.71464026217745	
15.0	92.80170764270588	response	2.0	w		28.0	male	east_asian	1.5563072025467568	smiling	005	sub-04	1.0	1.0	005_smiling	1.0	205.1176879510249	
15.0	93.09862412390885	pulse	2.0	t		28.0	male	east_asian	1.5563072025467568	smiling	005	sub-04	1.0	1.0	005_smiling	1.0	205.41460443222786	
15.0	93.79860580143304	pulse	2.0	t		28.0	male	east_asian	1.5563072025467568	smiling	005	sub-04	1.0	1.0	005_smiling	1.0	206.11458610975205	
15.0	94.25683070665855	fix	3.0		444	28.0	male	east_asian	1.5563072025467568	smiling	005	sub-04	1.0	1.0	005_smiling	1.0	206.57281101497756	3.7665484107292286
15.0	94.49859261045731	pulse	3.0	t		28.0	male	east_asian	1.5563072025467568	smiling	005	sub-04	1.0	1.0	005_smiling	1.0	206.81457291877632	
15.0	95.1985622138618	pulse	3.0	t		28.0	male	east_asian	1.5563072025467568	smiling	005	sub-04	1.0	1.0	005_smiling	1.0	207.51454252218082	
15.0	95.89855747477031	pulse	3.0	t		28.0	male	east_asian	1.5563072025467568	smiling	005	sub-04	1.0	1.0	005_smiling	1.0	208.21453778308933	
15.0	96.59852979485186	pulse	3.0	t		28.0	male	east_asian	1.5563072025467568	smiling	005	sub-04	1.0	1.0	005_smiling	1.0	208.91451010317087	
15.0	97.29850724643347	pulse	3.0	t		28.0	male	east_asian	1.5563072025467568	smiling	005	sub-04	1.0	1.0	005_smiling	1.0	209.6144875547525	
15.0	97.99850099807645	pulse	3.0	t		28.0	male	east_asian	1.5563072025467568	smiling	005	sub-04	1.0	1.0	005_smiling	1.0	210.31448130639546	
16.0	98.02337911738778	face	0.0		146	28.0	female	white	5.676880222841227	smiling	124	sub-04	1.0	1.0	124_smiling	0.0	210.3393594257068	1.2333027757495074
16.0	98.69847422371731	pulse	0.0	t		28.0	female	white	5.676880222841227	smiling	124	sub-04	1.0	1.0	124_smiling	0.0	211.01445453203632	
16.0	99.25668189313728	fix	1.0		443	28.0	female	white	5.676880222841227	smiling	124	sub-04	1.0	1.0	124_smiling	0.0	211.5726622014563	3.758318087241605
16.0	99.39846344756552	pulse	1.0	t		28.0	female	white	5.676880222841227	smiling	124	sub-04	1.0	1.0	124_smiling	0.0	211.71444375588453	
16.0	100.09843576764706	pulse	1.0	t		28.0	female	white	5.676880222841227	smiling	124	sub-04	1.0	1.0	124_smiling	0.0	212.41441607596607	
16.0	100.7984147284933	pulse	1.0	t		28.0	female	white	5.676880222841227	smiling	124	sub-04	1.0	1.0	124_smiling	0.0	213.1143950368123	
16.0	101.49841330978415	pulse	1.0	t		28.0	female	white	5.676880222841227	smiling	124	sub-04	1.0	1.0	124_smiling	0.0	213.81439361810317	
16.0	102.19838170577714	pulse	1.0	t		28.0	female	white	5.676880222841227	smiling	124	sub-04	1.0	1.0	124_smiling	0.0	214.51436201409615	
16.0	102.89836791109519	pulse	1.0	t		28.0	female	white	5.676880222841227	smiling	124	sub-04	1.0	1.0	124_smiling	0.0	215.2143482194142	
17.0	103.01499998037889	face	0.0		147	23.0	male	white	2.6275368085953046	smiling	141	sub-04	1.0	1.0	141_smiling	1.0	215.3309802886979	1.2415454752090227
17.0	103.59834536267772	pulse	0.0	t		23.0	male	white	2.6275368085953046	smiling	141	sub-04	1.0	1.0	141_smiling	1.0	215.91432567099673	
17.0	104.25654545558791	fix	1.0		236	23.0	male	white	2.6275368085953046	smiling	141	sub-04	1.0	1.0	141_smiling	1.0	216.57252576390692	1.9999622683772031
17.0	104.2983264364957	pulse	1.0	t		23.0	male	white	2.6275368085953046	smiling	141	sub-04	1.0	1.0	141_smiling	1.0	216.6143067448147	
17.0	104.99830298251891	pulse	1.0	t		23.0	male	white	2.6275368085953046	smiling	141	sub-04	1.0	1.0	141_smiling	1.0	217.31428329083792	
17.0	105.69828133965984	pulse	1.0	t		23.0	male	white	2.6275368085953046	smiling	141	sub-04	1.0	1.0	141_smiling	1.0	218.01426164797886	
17.0	106.25650772396511	rating	2.0		235	23.0	male	white	2.6275368085953046	smiling	141	sub-04	1.0	1.0	141_smiling	1.0	218.57248803228413	1.9999311775191018
17.0	106.39828082650911	pulse	2.0	t		23.0	male	white	2.6275368085953046	smiling	141	sub-04	1.0	1.0	141_smiling	1.0	218.71426113482812	
17.0	107.09822628167512	pulse	2.0	t		23.0	male	white	2.6275368085953046	smiling	141	sub-04	1.0	1.0	141_smiling	1.0	219.41420658999414	
17.0	107.42330383525314	response	2.0	w		23.0	male	white	2.6275368085953046	smiling	141	sub-04	1.0	1.0	141_smiling	1.0	219.73928414357215	
17.0	107.79821671293575	pulse	2.0	t		23.0	male	white	2.6275368085953046	smiling	141	sub-04	1.0	1.0	141_smiling	1.0	220.11419702125477	
17.0	108.25643890148422	fix	3.0		444	23.0	male	white	2.6275368085953046	smiling	141	sub-04	1.0	1.0	141_smiling	1.0	220.57241920980323	3.7665514292584703
17.0	108.49821197384335	pulse	3.0	t		23.0	male	white	2.6275368085953046	smiling	141	sub-04	1.0	1.0	141_smiling	1.0	220.81419228216237	
17.0	109.19818550133641	pulse	3.0	t		23.0	male	white	2.6275368085953046	smiling	141	sub-04	1.0	1.0	141_smiling	1.0	221.51416580965542	
17.0	109.89818257336265	pulse	3.0	t		23.0	male	white	2.6275368085953046	smiling	141	sub-04	1.0	1.0	141_smiling	1.0	222.21416288168166	
17.0	110.59815911938585	pulse	3.0	t		23.0	male	white	2.6275368085953046	smiling	141	sub-04	1.0	1.0	141_smiling	1.0	222.91413942770487	
17.0	111.29813415614444	pulse	3.0	t		23.0	male	white	2.6275368085953046	smiling	141	sub-04	1.0	1.0	141_smiling	1.0	223.61411446446346	
17.0	111.99811583366773	pulse	3.0	t		23.0	male	white	2.6275368085953046	smiling	141	sub-04	1.0	1.0	141_smiling	1.0	224.31409614198674	
18.0	112.02299033074269	face	0.0		146	24.0	female	east_asian	4.409868682849185	neutral	030	sub-04	1.0	1.0	030_neutral	0.0	224.3389706390617	1.2333196795170807
18.0	112.69811139642934	pulse	0.0	t		24.0	female	east_asian	4.409868682849185	neutral	030	sub-04	1.0	1.0	030_neutral	0.0	225.01409170474835	
18.0	113.25631001025977	fix	1.0		443	24.0	female	east_asian	4.409868682849185	neutral	030	sub-04	1.0	1.0	030_neutral	0.0	225.57229031857878	3.7582251165231355
18.0	113.39809428136505	pulse	1.0	t		24.0	female	east_asian	4.409868682849185	neutral	030	sub-04	1.0	1.0	030_neutral	0.0	225.71407458968406	
18.0	114.09806418662174	pulse	1.0	t		24.0	female	east_asian	4.409868682849185	neutral	030	sub-04	1.0	1.0	030_neutral	0.0	226.41404449494075	
18.0	114.79804646785215	pulse	1.0	t		24.0	female	east_asian	4.409868682849185	neutral	030	sub-04	1.0	1.0	030_neutral	0.0	227.11402677617116	
18.0	115.49802663611081	pulse	1.0	t		24.0	female	east_asian	4.409868682849185	neutral	030	sub-04	1.0	1.0	030_neutral	0.0	227.81400694442982	
18.0	116.1980089173403	pulse	1.0	t		24.0	female	east_asian	4.409868682849185	neutral	030	sub-04	1.0	1.0	030_neutral	0.0	228.51398922565932	
18.0	116.89798938745298	pulse	1.0	t		24.0	female	east_asian	4.409868682849185	neutral	030	sub-04	1.0	1.0	030_neutral	0.0	229.213969695772	
19.0	117.0145351267829	face	0.0		147	31.0	male	west_asian	1.9538400318344609	smiling	070	sub-04	1.0	1.0	070_smiling	0.0	229.33051543510192	1.2416390496337044
19.0	117.59797136682937	pulse	0.0	t		31.0	male	west_asian	1.9538400318344609	smiling	070	sub-04	1.0	1.0	070_smiling	0.0	229.91395167514838	
19.0	118.25617417641661	fix	1.0		443	31.0	male	west_asian	1.9538400318344609	smiling	070	sub-04	1.0	1.0	070_smiling	0.0	230.57215448473562	3.7665432792282445
19.0	118.29796059067758	pulse	1.0	t		31.0	male	west_asian	1.9538400318344609	smiling	070	sub-04	1.0	1.0	070_smiling	0.0	230.6139408989966	
19.0	118.99793653299457	pulse	1.0	t		31.0	male	west_asian	1.9538400318344609	smiling	070	sub-04	1.0	1.0	070_smiling	0.0	231.31391684131358	
19.0	119.69790855122301	pulse	1.0	t		31.0	male	west_asian	1.9538400318344609	smiling	070	sub-04	1.0	1.0	070_smiling	0.0	232.01388885954202	
19.0	120.39790079360137	pulse	1.0	t		31.0	male	west_asian	1.9538400318344609	smiling	070	sub-04	1.0	1.0	070_smiling	0.0	232.71388110192038	
19.0	121.09786345438715	pulse	1.0	t		31.0	male	west_asian	1.9538400318344609	smiling	070	sub-04	1.0	1.0	070_smiling	0.0	233.41384376270616	
19.0	121.79785177267695	pulse	1.0	t		31.0	male	west_asian	1.9538400318344609	smiling	070	sub-04	1.0	1.0	070_smiling	0.0	234.11383208099596	
20.0	122.02271745564485	face	0.0		145	34.0	male	white	2.651014723438122	neutral	121	sub-04	1.0	1.0	121_neutral	0.0	234.33869776396386	1.2333332629004872
20.0	122.49783586502417	pulse	0.0	t		34.0	male	white	2.651014723438122	neutral	121	sub-04	1.0	1.0	121_neutral	0.0	234.81381617334318	
20.0	123.1978262962848	pulse	0.0	t		34.0	male	white	2.651014723438122	neutral	121	sub-04	1.0	1.0	121_neutral	0.0	235.51380660460381	
20.0	123.25605071854534	fix	1.0		444	34.0	male	white	2.651014723438122	neutral	121	sub-04	1.0	1.0	121_neutral	0.0	235.57203102686435	3.7665345254918066
20.0	123.89781280345596	pulse	1.0	t		34.0	male	white	2.651014723438122	neutral	121	sub-04	1.0	1.0	121_neutral	0.0	236.21379311177498	
20.0	124.59777093644698	pulse	1.0	t		34.0	male	white	2.651014723438122	neutral	121	sub-04	1.0	1.0	121_neutral	0.0	236.913751244766	
20.0	125.29776589550238	pulse	1.0	t		34.0	male	white	2.651014723438122	neutral	121	sub-04	1.0	1.0	121_neutral	0.0	237.6137462038214	
20.0	125.99774636561415	pulse	1.0	t		34.0	male	white	2.651014723438122	neutral	121	sub-04	1.0	1.0	121_neutral	0.0	238.31372667393316	
20.0	126.69773347649152	pulse	1.0	t		34.0	male	white	2.651014723438122	neutral	121	sub-04	1.0	1.0	121_neutral	0.0	239.01371378481053	
21.0	127.02258524403715	face	0.0		145	26.0	female	white	4.854755272582572	neutral	027	sub-04	1.0	1.0	027_neutral	0.0	239.33856555235616	1.2333296406650334
21.0	127.39778427834972	pulse	0.0	t		26.0	female	white	4.854755272582572	neutral	027	sub-04	1.0	1.0	027_neutral	0.0	239.71376458666873	
21.0	128.09768687039104	pulse	0.0	t		26.0	female	white	4.854755272582572	neutral	027	sub-04	1.0	1.0	027_neutral	0.0	240.41366717871006	
21.0	128.25591488470218	fix	1.0		444	26.0	female	white	4.854755272582572	neutral	027	sub-04	1.0	1.0	027_neutral	0.0	240.5718951930212	3.7665354310511248
21.0	128.7976673405028	pulse	1.0	t		26.0	female	white	4.854755272582572	neutral	027	sub-04	1.0	1.0	027_neutral	0.0	241.11364764882182	
21.0	129.49765324396867	pulse	1.0	t		26.0	female	white	4.854755272582572	neutral	027	sub-04	1.0	1.0	027_neutral	0.0	241.81363355228768	
21.0	130.19763461963976	pulse	1.0	t		26.0	female	white	4.854755272582572	neutral	027	sub-04	1.0	1.0	027_neutral	0.0	242.51361492795877	
21.0	130.89761237307448	pulse	1.0	t		26.0	female	white	4.854755272582572	neutral	027	sub-04	1.0	1.0	027_neutral	0.0	243.2135926813935	
21.0	131.59760008765807	pulse	1.0	t		26.0	female	white	4.854755272582572	neutral	027	sub-04	1.0	1.0	027_neutral	0.0	243.91358039597708	
22.0	132.0224503157533	face	0.0		145	24.0	male	white	3.1153999204138483	neutral	012	sub-04	1.0	1.0	012_neutral	0.0	244.33843062407232	1.233314849868293
22.0	132.2975718040334	pulse	0.0	t		24.0	male	white	3.1153999204138483	neutral	012	sub-04	1.0	1.0	012_neutral	0.0	244.6135521123524	
22.0	132.9975480482035	pulse	0.0	t		24.0	male	white	3.1153999204138483	neutral	012	sub-04	1.0	1.0	012_neutral	0.0	245.3135283565225	
22.0	133.2557651656216	fix	1.0		444	24.0	male	white	3.1153999204138483	neutral	012	sub-04	1.0	1.0	012_neutral	0.0	245.5717454739406	3.7665490144354408
22.0	133.69754542208193	pulse	1.0	t		24.0	male	white	3.1153999204138483	neutral	012	sub-04	1.0	1.0	012_neutral	0.0	246.01352573040094	
22.0	134.39751049769166	pulse	1.0	t		24.0	male	white	3.1153999204138483	neutral	012	sub-04	1.0	1.0	012_neutral	0.0	246.71349080601067	
22.0	135.09748372333252	pulse	1.0	t		24.0	male	white	3.1153999204138483	neutral	012	sub-04	1.0	1.0	012_neutral	0.0	247.41346403165153	
22.0	135.79748502130042	pulse	1.0	t		24.0	male	white	3.1153999204138483	neutral	012	sub-04	1.0	1.0	012_neutral	0.0	248.11346532961943	
22.0	136.49745251173317	pulse	1.0	t		24.0	male	white	3.1153999204138483	neutral	012	sub-04	1.0	1.0	012_neutral	0.0	248.81343282005218	
23.0	137.02231418005704	face	0.0		145	22.0	male	black	2.767608436132113	neutral	044	sub-04	1.0	1.0	044_neutral	0.0	249.33829448837605	1.2333172646922321
23.0	137.1974429429938	pulse	0.0	t		22.0	male	black	2.767608436132113	neutral	044	sub-04	1.0	1.0	044_neutral	0.0	249.51342325131282	
23.0	137.8974179797524	pulse	0.0	t		22.0	male	black	2.767608436132113	neutral	044	sub-04	1.0	1.0	044_neutral	0.0	250.2133982880714	
23.0	138.25563144474927	fix	1.0		1185	22.0	male	black	2.767608436132113	neutral	044	sub-04	1.0	1.0	044_neutral	0.0	250.57161175306828	10.016395144875787
23.0	138.59740388321734	pulse	1.0	t		22.0	male	black	2.767608436132113	neutral	044	sub-04	1.0	1.0	044_neutral	0.0	250.91338419153635	
23.0	139.29737861812282	pulse	1.0	t		22.0	male	black	2.767608436132113	neutral	044	sub-04	1.0	1.0	044_neutral	0.0	251.61335892644183	
23.0	139.99736904938345	pulse	1.0	t		22.0	male	black	2.767608436132113	neutral	044	sub-04	1.0	1.0	044_neutral	0.0	252.31334935770246	
23.0	140.69733925649325	pulse	1.0	t		22.0	male	black	2.767608436132113	neutral	044	sub-04	1.0	1.0	044_neutral	0.0	253.01331956481226	
23.0	141.3973375359319	pulse	1.0	t		22.0	male	black	2.767608436132113	neutral	044	sub-04	1.0	1.0	044_neutral	0.0	253.71331784425092	
23.0	142.0972998948646	pulse	1.0	t		22.0	male	black	2.767608436132113	neutral	044	sub-04	1.0	1.0	044_neutral	0.0	254.4132802031836	
23.0	142.7972957594784	pulse	1.0	t		22.0	male	black	2.767608436132113	neutral	044	sub-04	1.0	1.0	044_neutral	0.0	255.11327606779741	
23.0	143.4972665702944	pulse	1.0	t		22.0	male	black	2.767608436132113	neutral	044	sub-04	1.0	1.0	044_neutral	0.0	255.81324687861343	
23.0	144.19725277561338	pulse	1.0	t		22.0	male	black	2.767608436132113	neutral	044	sub-04	1.0	1.0	044_neutral	0.0	256.5132330839324	
23.0	144.8972371698137	pulse	1.0	t		22.0	male	black	2.767608436132113	neutral	044	sub-04	1.0	1.0	044_neutral	0.0	257.2132174781327	
23.0	145.5972194510441	pulse	1.0	t		22.0	male	black	2.767608436132113	neutral	044	sub-04	1.0	1.0	044_neutral	0.0	257.9131997593631	
23.0	146.29721018415694	pulse	1.0	t		22.0	male	black	2.767608436132113	neutral	044	sub-04	1.0	1.0	044_neutral	0.0	258.61319049247595	
23.0	146.99717978756144	pulse	1.0	t		22.0	male	black	2.767608436132113	neutral	044	sub-04	1.0	1.0	044_neutral	0.0	259.31316009588045	
23.0	147.69716720029191	pulse	1.0	t		22.0	male	black	2.767608436132113	neutral	044	sub-04	1.0	1.0	044_neutral	0.0	260.0131475086109	
24.0	148.27202658962506	face	0.0		145	40.0	female	west_asian	1.5777954635893354	neutral	038	sub-04	1.0	1.0	038_neutral	0.0	260.58800689794407	1.2332922108953426
24.0	148.39714948152232	pulse	0.0	t		40.0	female	west_asian	1.5777954635893354	neutral	038	sub-04	1.0	1.0	038_neutral	0.0	260.71312978984133	
24.0	149.09710942563106	pulse	0.0	t		40.0	female	west_asian	1.5777954635893354	neutral	038	sub-04	1.0	1.0	038_neutral	0.0	261.4130897339501	
24.0	149.5053188005204	fix	1.0		444	40.0	female	west_asian	1.5777954635893354	neutral	038	sub-04	1.0	1.0	038_neutral	0.0	261.8212991088394	3.7665725589677095
24.0	149.79710166800942	pulse	1.0	t		40.0	female	west_asian	1.5777954635893354	neutral	038	sub-04	1.0	1.0	038_neutral	0.0	262.11308197632843	
24.0	150.49707489364937	pulse	1.0	t		40.0	female	west_asian	1.5777954635893354	neutral	038	sub-04	1.0	1.0	038_neutral	0.0	262.8130552019684	
24.0	151.1970970194734	pulse	1.0	t		40.0	female	west_asian	1.5777954635893354	neutral	038	sub-04	1.0	1.0	038_neutral	0.0	263.5130773277924	
24.0	151.89705002096343	pulse	1.0	t		40.0	female	west_asian	1.5777954635893354	neutral	038	sub-04	1.0	1.0	038_neutral	0.0	264.21303032928245	
24.0	152.59702566142732	pulse	1.0	t		40.0	female	west_asian	1.5777954635893354	neutral	038	sub-04	1.0	1.0	038_neutral	0.0	264.91300596974634	
25.0	153.2718913594881	face	0.0		145	40.0	male	white	1.868682849184242	smiling	172	sub-04	1.0	1.0	172_smiling	0.0	265.5878716678071	1.2333009646317805
25.0	153.29710302634794	pulse	0.0	t		40.0	male	white	1.868682849184242	smiling	172	sub-04	1.0	1.0	172_smiling	0.0	265.61308333466695	
25.0	153.9969953553882	pulse	0.0	t		40.0	male	white	1.868682849184242	smiling	172	sub-04	1.0	1.0	172_smiling	0.0	266.3129756637072	
25.0	154.5051923241199	fix	1.0		443	40.0	male	white	1.868682849184242	smiling	172	sub-04	1.0	1.0	172_smiling	0.0	266.8211726324389	3.7583165779769843
25.0	154.69696918473437	pulse	1.0	t		40.0	male	white	1.868682849184242	smiling	172	sub-04	1.0	1.0	172_smiling	0.0	267.0129494930534	
25.0	155.39694301408053	pulse	1.0	t		40.0	male	white	1.868682849184242	smiling	172	sub-04	1.0	1.0	172_smiling	0.0	267.71292332239955	
25.0	156.09692016380905	pulse	1.0	t		40.0	male	white	1.868682849184242	smiling	172	sub-04	1.0	1.0	172_smiling	0.0	268.41290047212806	
25.0	156.79690727468733	pulse	1.0	t		40.0	male	white	1.868682849184242	smiling	172	sub-04	1.0	1.0	172_smiling	0.0	269.11288758300634	
25.0	157.4969070633897	pulse	1.0	t		40.0	male	white	1.868682849184242	smiling	172	sub-04	1.0	1.0	172_smiling	0.0	269.8128873717087	
25.0	158.1968639889692	pulse	1.0	t		40.0	male	white	1.868682849184242	smiling	172	sub-04	1.0	1.0	172_smiling	0.0	270.5128442972882	
26.0	158.26350890209687	face	0.0		147	22.0	female	west_asian	3.8205332272184642	smiling	066	sub-04	1.0	1.0	066_smiling	0.0	270.5794892104159	1.2415638882412168
26.0	158.89685562764134	pulse	0.0	t		22.0	female	west_asian	3.8205332272184642	smiling	066	sub-04	1.0	1.0	066_smiling	0.0	271.21283593596036	
26.0	159.5050727903381	fix	1.0		443	22.0	female	west_asian	3.8205332272184642	smiling	066	sub-04	1.0	1.0	066_smiling	0.0	271.8210530986571	3.7665339217855944
26.0	159.59685028484364	pulse	1.0	t		22.0	female	west_asian	3.8205332272184642	smiling	066	sub-04	1.0	1.0	066_smiling	0.0	271.91283059316265	
26.0	160.29682320863049	pulse	1.0	t		22.0	female	west_asian	3.8205332272184642	smiling	066	sub-04	1.0	1.0	066_smiling	0.0	272.6128035169495	
26.0	160.99679220832877	pulse	1.0	t		22.0	female	west_asian	3.8205332272184642	smiling	066	sub-04	1.0	1.0	066_smiling	0.0	273.3127725166478	
26.0	161.6967947137091	pulse	1.0	t		22.0	female	west_asian	3.8205332272184642	smiling	066	sub-04	1.0	1.0	066_smiling	0.0	274.0127750220281	
26.0	162.39675526152405	pulse	1.0	t		22.0	female	west_asian	3.8205332272184642	smiling	066	sub-04	1.0	1.0	066_smiling	0.0	274.71273556984306	
26.0	163.09673331681188	pulse	1.0	t		22.0	female	west_asian	3.8205332272184642	smiling	066	sub-04	1.0	1.0	066_smiling	0.0	275.4127136251309	
27.0	163.27160671212368	face	0.0		146	25.0	female	black	3.858336649423	neutral	126	sub-04	1.0	1.0	126_neutral	0.0	275.5875870204427	1.2416653108439277
27.0	163.7967231443663	pulse	0.0	t		25.0	female	black	3.858336649423	neutral	126	sub-04	1.0	1.0	126_neutral	0.0	276.1127034526853	
27.0	164.49670844412594	pulse	0.0	t		25.0	female	black	3.858336649423	neutral	126	sub-04	1.0	1.0	126_neutral	0.0	276.81268875244496	
27.0	164.5132720229676	fix	1.0		443	25.0	female	black	3.858336649423	neutral	126	sub-04	1.0	1.0	126_neutral	0.0	276.8292523312866	3.758197346047382
27.0	165.19672423103657	pulse	1.0	t		25.0	female	black	3.858336649423	neutral	126	sub-04	1.0	1.0	126_neutral	0.0	277.5127045393556	
27.0	165.89666817693796	pulse	1.0	t		25.0	female	black	3.858336649423	neutral	126	sub-04	1.0	1.0	126_neutral	0.0	278.212648485257	
27.0	166.5966592119039	pulse	1.0	t		25.0	female	black	3.858336649423	neutral	126	sub-04	1.0	1.0	126_neutral	0.0	278.9126395202229	
27.0	167.29662006157196	pulse	1.0	t		25.0	female	black	3.858336649423	neutral	126	sub-04	1.0	1.0	126_neutral	0.0	279.61260036989097	
27.0	167.99661471877425	pulse	1.0	t		25.0	female	black	3.858336649423	neutral	126	sub-04	1.0	1.0	126_neutral	0.0	280.31259502709327	
28.0	168.271469369015	face	0.0		145	40.0	male	white	1.868682849184242	neutral	172	sub-04	1.0	1.0	172_neutral	1.0	280.587449677334	1.2333344703129114
28.0	168.69660243335784	pulse	0.0	t		40.0	male	white	1.868682849184242	neutral	172	sub-04	1.0	1.0	172_neutral	1.0	281.01258274167685	
28.0	169.39657777196862	pulse	0.0	t		40.0	male	white	1.868682849184242	neutral	172	sub-04	1.0	1.0	172_neutral	1.0	281.71255808028764	
28.0	169.5048038393279	fix	1.0		237	40.0	male	white	1.868682849184242	neutral	172	sub-04	1.0	1.0	172_neutral	1.0	281.8207841476469	2.00826654584489
28.0	170.0965525068741	pulse	1.0	t		40.0	male	white	1.868682849184242	neutral	172	sub-04	1.0	1.0	172_neutral	1.0	282.4125328151931	
28.0	170.79653810848595	pulse	1.0	t		40.0	male	white	1.868682849184242	neutral	172	sub-04	1.0	1.0	172_neutral	1.0	283.11251841680496	
28.0	171.49651676748	pulse	1.0	t		40.0	male	white	1.868682849184242	neutral	172	sub-04	1.0	1.0	172_neutral	1.0	283.812497075799	
28.0	171.5130703851728	rating	2.0		235	40.0	male	white	1.868682849184242	neutral	172	sub-04	1.0	1.0	172_neutral	1.0	283.8290506934918	1.991623277815961
28.0	172.02984812870727	response	2.0	w		40.0	male	white	1.868682849184242	neutral	172	sub-04	1.0	1.0	172_neutral	1.0	284.3458284370263	
28.0	172.1965002561219	pulse	2.0	t		40.0	male	white	1.868682849184242	neutral	172	sub-04	1.0	1.0	172_neutral	1.0	284.5124805644409	
28.0	172.89647831140974	pulse	2.0	t		40.0	male	white	1.868682849184242	neutral	172	sub-04	1.0	1.0	172_neutral	1.0	285.21245861972875	
28.0	173.50469366298876	fix	3.0		443	40.0	male	white	1.868682849184242	neutral	172	sub-04	1.0	1.0	172_neutral	1.0	285.82067397130777	3.7665517311115764
28.0	173.59646602599332	pulse	3.0	t		40.0	male	white	1.868682849184242	neutral	172	sub-04	1.0	1.0	172_neutral	1.0	285.91244633431234	
28.0	174.29643562939782	pulse	3.0	t		40.0	male	white	1.868682849184242	neutral	172	sub-04	1.0	1.0	172_neutral	1.0	286.61241593771683	
28.0	174.99639557350656	pulse	3.0	t		40.0	male	white	1.868682849184242	neutral	172	sub-04	1.0	1.0	172_neutral	1.0	287.3123758818256	
28.0	175.69640411594628	pulse	3.0	t		40.0	male	white	1.868682849184242	neutral	172	sub-04	1.0	1.0	172_neutral	1.0	288.0123844242653	
28.0	176.3963806619695	pulse	3.0	t		40.0	male	white	1.868682849184242	neutral	172	sub-04	1.0	1.0	172_neutral	1.0	288.7123609702885	
28.0	177.09636747099375	pulse	3.0	t		40.0	male	white	1.868682849184242	neutral	172	sub-04	1.0	1.0	172_neutral	1.0	289.41234777931277	
29.0	177.27124539410033	face	0.0		146	32.0	male	white	2.389176283326701	smiling	092	sub-04	1.0	1.0	092_smiling	0.0	289.58722570241935	1.2416342199867358
29.0	177.79636031707832	pulse	0.0	t		32.0	male	white	2.389176283326701	smiling	092	sub-04	1.0	1.0	092_smiling	0.0	290.11234062539734	
29.0	178.49632961862972	pulse	0.0	t		32.0	male	white	2.389176283326701	smiling	092	sub-04	1.0	1.0	092_smiling	0.0	290.8123099269487	
29.0	178.51287961408707	fix	1.0		443	32.0	male	white	2.389176283326701	smiling	092	sub-04	1.0	1.0	092_smiling	0.0	290.8288599224061	3.749891559315074
29.0	179.1963040516821	pulse	1.0	t		32.0	male	white	2.389176283326701	smiling	092	sub-04	1.0	1.0	092_smiling	0.0	291.5122843600011	
29.0	179.89629840703128	pulse	1.0	t		32.0	male	white	2.389176283326701	smiling	092	sub-04	1.0	1.0	092_smiling	0.0	292.2122787153503	
29.0	180.59626589746495	pulse	1.0	t		32.0	male	white	2.389176283326701	smiling	092	sub-04	1.0	1.0	092_smiling	0.0	292.91224620578396	
29.0	181.29626115837254	pulse	1.0	t		32.0	male	white	2.389176283326701	smiling	092	sub-04	1.0	1.0	092_smiling	0.0	293.61224146669156	
29.0	181.99623227104166	pulse	1.0	t		32.0	male	white	2.389176283326701	smiling	092	sub-04	1.0	1.0	092_smiling	0.0	294.3122125793607	
30.0	182.26277117340214	face	0.0		146	30.0	female	black	2.7345801830481498	neutral	062	sub-04	1.0	1.0	062_neutral	0.0	294.57875148172116	1.2416393514868105
30.0	182.6962664709854	pulse	0.0	t		30.0	female	black	2.7345801830481498	neutral	062	sub-04	1.0	1.0	062_neutral	0.0	295.0122467793044	
30.0	183.39618536308808	pulse	0.0	t		30.0	female	black	2.7345801830481498	neutral	062	sub-04	1.0	1.0	062_neutral	0.0	295.7121656714071	
30.0	183.50441052488895	fix	1.0		444	30.0	female	black	2.7345801830481498	neutral	062	sub-04	1.0	1.0	062_neutral	0.0	295.82039083320797	3.7665650126427863
30.0	184.09617368137788	pulse	1.0	t		30.0	female	black	2.7345801830481498	neutral	062	sub-04	1.0	1.0	062_neutral	0.0	296.4121539896969	
30.0	184.79616290522608	pulse	1.0	t		30.0	female	black	2.7345801830481498	neutral	062	sub-04	1.0	1.0	062_neutral	0.0	297.1121432135451	
30.0	185.49613522530763	pulse	1.0	t		30.0	female	black	2.7345801830481498	neutral	062	sub-04	1.0	1.0	062_neutral	0.0	297.81211553362664	
30.0	186.19614557886507	pulse	1.0	t		30.0	female	black	2.7345801830481498	neutral	062	sub-04	1.0	1.0	062_neutral	0.0	298.5121258871841	
30.0	186.89610854150305	pulse	1.0	t		30.0	female	black	2.7345801830481498	neutral	062	sub-04	1.0	1.0	062_neutral	0.0	299.21208884982207	
31.0	187.27097553753174	face	0.0		145	36.0	female	white	2.7548746518105847	neutral	011	sub-04	1.0	1.0	011_neutral	0.0	299.58695584585075	1.2333000590724623
31.0	187.59608840790952	pulse	0.0	t		36.0	female	white	2.7548746518105847	neutral	011	sub-04	1.0	1.0	011_neutral	0.0	299.91206871622853	
31.0	188.29606163354947	pulse	0.0	t		36.0	female	white	2.7548746518105847	neutral	011	sub-04	1.0	1.0	011_neutral	0.0	300.6120419418685	
31.0	188.5042755966042	fix	1.0		444	36.0	female	white	2.7548746518105847	neutral	011	sub-04	1.0	1.0	011_neutral	0.0	300.8202559049232	3.766558673731197
31.0	188.99604210366124	pulse	1.0	t		36.0	female	white	2.7548746518105847	neutral	011	sub-04	1.0	1.0	011_neutral	0.0	301.31202241198025	
31.0	189.6960340441865	pulse	1.0	t		36.0	female	white	2.7548746518105847	neutral	011	sub-04	1.0	1.0	011_neutral	0.0	302.0120143525055	
31.0	190.39600153462015	pulse	1.0	t		36.0	female	white	2.7548746518105847	neutral	011	sub-04	1.0	1.0	011_neutral	0.0	302.71198184293917	
31.0	191.09597596767253	pulse	1.0	t		36.0	female	white	2.7548746518105847	neutral	011	sub-04	1.0	1.0	011_neutral	0.0	303.41195627599154	
31.0	191.7959691156102	pulse	1.0	t		36.0	female	white	2.7548746518105847	neutral	011	sub-04	1.0	1.0	011_neutral	0.0	304.1119494239292	
32.0	192.2708342703354	face	0.0		145	27.0	male	black	3.5523278949462798	neutral	042	sub-04	1.0	1.0	042_neutral	0.0	304.5868145786544	1.2333130387505662
32.0	192.4959643765178	pulse	0.0	t		27.0	male	black	3.5523278949462798	neutral	042	sub-04	1.0	1.0	042_neutral	0.0	304.8119446848368	
32.0	193.1959394132764	pulse	0.0	t		27.0	male	black	3.5523278949462798	neutral	042	sub-04	1.0	1.0	042_neutral	0.0	305.5119197215954	
32.0	193.50414730908597	fix	1.0		444	27.0	male	black	3.5523278949462798	neutral	042	sub-04	1.0	1.0	042_neutral	0.0	305.820127617405	3.7665420718167297
32.0	193.89591263891634	pulse	1.0	t		27.0	male	black	3.5523278949462798	neutral	042	sub-04	1.0	1.0	042_neutral	0.0	306.21189294723536	
32.0	194.59590005164682	pulse	1.0	t		27.0	male	black	3.5523278949462798	neutral	042	sub-04	1.0	1.0	042_neutral	0.0	306.91188035996583	
32.0	195.29586995690443	pulse	1.0	t		27.0	male	black	3.5523278949462798	neutral	042	sub-04	1.0	1.0	042_neutral	0.0	307.61185026522344	
32.0	195.99586159557657	pulse	1.0	t		27.0	male	black	3.5523278949462798	neutral	042	sub-04	1.0	1.0	042_neutral	0.0	308.3118419038956	
32.0	196.69583572677584	pulse	1.0	t		27.0	male	black	3.5523278949462798	neutral	042	sub-04	1.0	1.0	042_neutral	0.0	309.01181603509485	
33.0	197.2706893809027	face	0.0		145	31.0	female	west_asian	2.364902506963788	smiling	006	sub-04	1.0	1.0	006_smiling	0.0	309.5866696892217	1.2333444314608641
33.0	197.39581981912306	pulse	0.0	t		31.0	female	west_asian	2.364902506963788	smiling	006	sub-04	1.0	1.0	006_smiling	0.0	309.7118001274421	
33.0	198.09578881882226	pulse	0.0	t		31.0	female	west_asian	2.364902506963788	smiling	006	sub-04	1.0	1.0	006_smiling	0.0	310.41176912714127	
33.0	198.50403381236356	fix	1.0		444	31.0	female	west_asian	2.364902506963788	smiling	006	sub-04	1.0	1.0	006_smiling	0.0	310.8200141206826	3.7665206402543845
33.0	198.79579162605478	pulse	1.0	t		31.0	female	west_asian	2.364902506963788	smiling	006	sub-04	1.0	1.0	006_smiling	0.0	311.1117719343738	
33.0	199.49577179431344	pulse	1.0	t		31.0	female	west_asian	2.364902506963788	smiling	006	sub-04	1.0	1.0	006_smiling	0.0	311.81175210263245	
33.0	200.1957329458346	pulse	1.0	t		31.0	female	west_asian	2.364902506963788	smiling	006	sub-04	1.0	1.0	006_smiling	0.0	312.5117132541536	
33.0	200.89571703818183	pulse	1.0	t		31.0	female	west_asian	2.364902506963788	smiling	006	sub-04	1.0	1.0	006_smiling	0.0	313.21169734650084	
33.0	201.5957104879726	pulse	1.0	t		31.0	female	west_asian	2.364902506963788	smiling	006	sub-04	1.0	1.0	006_smiling	0.0	313.9116907962916	
34.0	202.27055445261794	face	0.0		145	21.0	male	black	2.969757262236371	neutral	137	sub-04	1.0	1.0	137_neutral	0.0	314.58653476093696	1.2333299425181394
34.0	202.29568763770112	pulse	0.0	t		21.0	male	black	2.969757262236371	neutral	137	sub-04	1.0	1.0	137_neutral	0.0	314.61166794602013	
34.0	202.99567384302009	pulse	0.0	t		21.0	male	black	2.969757262236371	neutral	137	sub-04	1.0	1.0	137_neutral	0.0	315.3116541513391	
34.0	203.50388439513608	fix	1.0		443	21.0	male	black	2.969757262236371	neutral	137	sub-04	1.0	1.0	137_neutral	0.0	315.8198647034551	3.7665330162271857
34.0	203.6956570298089	pulse	1.0	t		21.0	male	black	2.969757262236371	neutral	137	sub-04	1.0	1.0	137_neutral	0.0	316.0116373381279	
34.0	204.39566315742468	pulse	1.0	t		21.0	male	black	2.969757262236371	neutral	137	sub-04	1.0	1.0	137_neutral	0.0	316.7116434657437	
34.0	205.09560831073668	pulse	1.0	t		21.0	male	black	2.969757262236371	neutral	137	sub-04	1.0	1.0	137_neutral	0.0	317.4115886190557	
34.0	205.79559904385042	pulse	1.0	t		21.0	male	black	2.969757262236371	neutral	137	sub-04	1.0	1.0	137_neutral	0.0	318.11157935216943	
34.0	206.49556894910802	pulse	1.0	t		21.0	male	black	2.969757262236371	neutral	137	sub-04	1.0	1.0	137_neutral	0.0	318.81154925742703	
34.0	207.19554277845418	pulse	1.0	t		21.0	male	black	2.969757262236371	neutral	137	sub-04	1.0	1.0	137_neutral	0.0	319.5115230867732	
35.0	207.27041741136327	face	0.0		146	20.0	male	black	3.1070433744528456	smiling	082	sub-04	1.0	1.0	082_smiling	0.0	319.5863977196823	1.233335074018214
35.0	207.89554950977526	pulse	0.0	t		20.0	male	black	3.1070433744528456	smiling	082	sub-04	1.0	1.0	082_smiling	0.0	320.2115298180943	
35.0	208.50375248538148	fix	1.0		443	20.0	male	black	3.1070433744528456	smiling	082	sub-04	1.0	1.0	082_smiling	0.0	320.8197327937005	3.766529092138626
35.0	208.59551428353188	pulse	1.0	t		20.0	male	black	3.1070433744528456	smiling	082	sub-04	1.0	1.0	082_smiling	0.0	320.9114945918509	
35.0	209.29548901843737	pulse	1.0	t		20.0	male	black	3.1070433744528456	smiling	082	sub-04	1.0	1.0	082_smiling	0.0	321.6114693267564	
35.0	209.9954866941689	pulse	1.0	t		20.0	male	black	3.1070433744528456	smiling	082	sub-04	1.0	1.0	082_smiling	0.0	322.3114670024879	
35.0	210.69546625872226	pulse	1.0	t		20.0	male	black	3.1070433744528456	smiling	082	sub-04	1.0	1.0	082_smiling	0.0	323.0114465670413	
35.0	211.3954446158632	pulse	1.0	t		20.0	male	black	3.1070433744528456	smiling	082	sub-04	1.0	1.0	082_smiling	0.0	323.7114249241822	
35.0	212.09541603038542	pulse	1.0	t		20.0	male	black	3.1070433744528456	smiling	082	sub-04	1.0	1.0	082_smiling	0.0	324.41139633870444	
36.0	212.2702815775201	face	0.0		146	19.0	female	white	4.298846000795861	smiling	100	sub-04	1.0	1.0	100_smiling	0.0	324.5862618858391	1.2416704423440024
36.0	212.79541249870545	pulse	0.0	t		19.0	female	white	4.298846000795861	smiling	100	sub-04	1.0	1.0	100_smiling	0.0	325.11139280702446	
36.0	213.49538300766926	pulse	0.0	t		19.0	female	white	4.298846000795861	smiling	100	sub-04	1.0	1.0	100_smiling	0.0	325.8113633159883	
36.0	213.5119520198641	fix	1.0		443	19.0	female	white	4.298846000795861	smiling	100	sub-04	1.0	1.0	100_smiling	0.0	325.8279323281831	3.7499733614740762
36.0	214.19537223151747	pulse	1.0	t		19.0	female	white	4.298846000795861	smiling	100	sub-04	1.0	1.0	100_smiling	0.0	326.5113525398365	
36.0	214.89534787198136	pulse	1.0	t		19.0	female	white	4.298846000795861	smiling	100	sub-04	1.0	1.0	100_smiling	0.0	327.21132818030037	
36.0	215.59533166247638	pulse	1.0	t		19.0	female	white	4.298846000795861	smiling	100	sub-04	1.0	1.0	100_smiling	0.0	327.9113119707954	
36.0	216.29530700108717	pulse	1.0	t		19.0	female	white	4.298846000795861	smiling	100	sub-04	1.0	1.0	100_smiling	0.0	328.6112873094062	
36.0	216.99528113228644	pulse	1.0	t		19.0	female	white	4.298846000795861	smiling	100	sub-04	1.0	1.0	100_smiling	0.0	329.31126144060545	
37.0	217.2619253813382	face	0.0		146	21.0	male	east_asian/white	3.501790688420215	neutral	036	sub-04	1.0	1.0	036_neutral	0.0	329.5779056896572	1.2415424566788715
37.0	217.69528212840123	pulse	0.0	t		21.0	male	east_asian/white	3.501790688420215	neutral	036	sub-04	1.0	1.0	036_neutral	0.0	330.01126243672024	
37.0	218.39525535404118	pulse	0.0	t		21.0	male	east_asian/white	3.501790688420215	neutral	036	sub-04	1.0	1.0	036_neutral	0.0	330.7112356623602	
37.0	218.50346783801706	fix	1.0		444	21.0	male	east_asian/white	3.501790688420215	neutral	036	sub-04	1.0	1.0	036_neutral	0.0	330.8194481463361	3.7665478070230165
37.0	219.09524276677257	pulse	1.0	t		21.0	male	east_asian/white	3.501790688420215	neutral	036	sub-04	1.0	1.0	036_neutral	0.0	331.4112230750916	
37.0	219.79520663496987	pulse	1.0	t		21.0	male	east_asian/white	3.501790688420215	neutral	036	sub-04	1.0	1.0	036_neutral	0.0	332.1111869432889	
37.0	220.49519978290755	pulse	1.0	t		21.0	male	east_asian/white	3.501790688420215	neutral	036	sub-04	1.0	1.0	036_neutral	0.0	332.81118009122656	
37.0	221.19519987346303	pulse	1.0	t		21.0	male	east_asian/white	3.501790688420215	neutral	036	sub-04	1.0	1.0	036_neutral	0.0	333.51118018178204	
37.0	221.89516042127798	pulse	1.0	t		21.0	male	east_asian/white	3.501790688420215	neutral	036	sub-04	1.0	1.0	036_neutral	0.0	334.211140729597	
38.0	222.27001564504008	face	0.0		145	25.0	female	west_asian	2.6756864305610826	neutral	064	sub-04	1.0	1.0	064_neutral	0.0	334.5859959533591	1.2333389981076834
38.0	222.59513938212513	pulse	0.0	t		25.0	female	west_asian	2.6756864305610826	neutral	064	sub-04	1.0	1.0	064_neutral	0.0	334.91111969044414	
38.0	223.29510415588175	pulse	0.0	t		25.0	female	west_asian	2.6756864305610826	neutral	064	sub-04	1.0	1.0	064_neutral	0.0	335.61108446420076	
38.0	223.50335464314776	fix	1.0		444	25.0	female	west_asian	2.6756864305610826	neutral	064	sub-04	1.0	1.0	064_neutral	0.0	335.8193349514668	3.7665402606980933
38.0	223.99510002049556	pulse	1.0	t		25.0	female	west_asian	2.6756864305610826	neutral	064	sub-04	1.0	1.0	064_neutral	0.0	336.31108032881457	
38.0	224.6950717368709	pulse	1.0	t		25.0	female	west_asian	2.6756864305610826	neutral	064	sub-04	1.0	1.0	064_neutral	0.0	337.0110520451899	
38.0	225.39505311254197	pulse	1.0	t		25.0	female	west_asian	2.6756864305610826	neutral	064	sub-04	1.0	1.0	064_neutral	0.0	337.711033420861	
38.0	226.09502603632882	pulse	1.0	t		25.0	female	west_asian	2.6756864305610826	neutral	064	sub-04	1.0	1.0	064_neutral	0.0	338.41100634464783	
38.0	226.7950385028571	pulse	1.0	t		25.0	female	west_asian	2.6756864305610826	neutral	064	sub-04	1.0	1.0	064_neutral	0.0	339.1110188111761	
39.0	227.26989490384585	face	0.0		145	37.0	male	white	3.898925586947871	neutral	101	sub-04	1.0	1.0	101_neutral	0.0	339.58587521216486	1.2333172646931416
39.0	227.49500750255538	pulse	0.0	t		37.0	male	white	3.898925586947871	neutral	101	sub-04	1.0	1.0	101_neutral	0.0	339.8109878108744	
39.0	228.19499280231503	pulse	0.0	t		37.0	male	white	3.898925586947871	neutral	101	sub-04	1.0	1.0	101_neutral	0.0	340.51097311063404	
39.0	228.503212168539	fix	1.0		444	37.0	male	white	3.898925586947871	neutral	101	sub-04	1.0	1.0	101_neutral	0.0	340.819192476858	3.749893068579695
39.0	228.89498142245793	pulse	1.0	t		37.0	male	white	3.898925586947871	neutral	101	sub-04	1.0	1.0	101_neutral	0.0	341.21096173077694	
39.0	229.59498422969045	pulse	1.0	t		37.0	male	white	3.898925586947871	neutral	101	sub-04	1.0	1.0	101_neutral	0.0	341.91096453800947	
39.0	230.2949248552086	pulse	1.0	t		37.0	male	white	3.898925586947871	neutral	101	sub-04	1.0	1.0	101_neutral	0.0	342.6109051635276	
39.0	230.9949140790568	pulse	1.0	t		37.0	male	white	3.898925586947871	neutral	101	sub-04	1.0	1.0	101_neutral	0.0	343.3108943873758	
39.0	231.69493077152674	pulse	1.0	t		37.0	male	white	3.898925586947871	neutral	101	sub-04	1.0	1.0	101_neutral	0.0	344.01091107984576	
40.0	232.2531052371187	fix	0.0		720												344.5690855454377	5.999843036447601
40.0	232.3948849804292	pulse	0.0	t													344.7108652887482	
40.0	233.09484552824415	pulse	0.0	t													345.41082583656316	
40.0	233.79484863732978	pulse	0.0	t													346.1108289456488	
40.0	234.49481069440935	pulse	0.0	t													346.81079100272837	
40.0	235.1948147090543	pulse	0.0	t													347.5107950173733	
40.0	235.8947725401922	pulse	0.0	t													348.2107528485112	
40.0	236.5947671973945	pulse	0.0	t													348.9107475057135	
40.0	237.29474525268233	pulse	0.0	t													349.61072556100135	
40.0	237.99472421352948	pulse	0.0	t													350.3107045218485	
