trial_nr	onset	event_type	phase	response	nr_frames	face_age	face_sex	face_eth	attractiveness	expression	face_id	sub_id	ses	run	trial_type	catch	onset_abs	duration
-1.0	0.05899444922579278	fix	0.0		713												22.398190874320335	5.957917769813321
-1.0	0.7005044868938057	pulse	0.0	t													23.039700911988348	
-1.0	1.4004885792414825	pulse	0.0	t													23.739685004336025	
-1.0	2.1004590882048433	pulse	0.0	t													24.439655513299385	
-1.0	2.8004416712878992	pulse	0.0	t													25.13963809638244	
-1.0	3.5004127839570174	pulse	0.0	t													25.83960920905156	
-1.0	4.200405630041132	pulse	0.0	t													26.539602055135674	
-1.0	4.900379761240401	pulse	0.0	t													27.239576186334943	
-1.0	5.600362646176109	pulse	0.0	t													27.93955907127065	
0.0	6.0169122190391136	face	0.0		144	31.0	female	east_asian	3.395941106247513	smiling	087	sub-03	1.0	3.0	087_smiling	0.0	28.356108644133656	1.2332900979240549
0.0	6.3003515681716635	pulse	0.0	t		31.0	female	east_asian	3.395941106247513	smiling	087	sub-03	1.0	3.0	087_smiling	0.0	28.639547993266206	
0.0	7.000319058605328	pulse	0.0	t		31.0	female	east_asian	3.395941106247513	smiling	087	sub-03	1.0	3.0	087_smiling	0.0	29.33951548369987	
0.0	7.250202316963168	fix	1.0		445	31.0	female	east_asian	3.395941106247513	smiling	087	sub-03	1.0	3.0	087_smiling	0.0	29.58939874205771	3.7582311535825283
0.0	7.700312508395655	pulse	1.0	t		31.0	female	east_asian	3.395941106247513	smiling	087	sub-03	1.0	3.0	087_smiling	0.0	30.039508933490197	
0.0	8.40029207294856	pulse	1.0	t		31.0	female	east_asian	3.395941106247513	smiling	087	sub-03	1.0	3.0	087_smiling	0.0	30.7394884980431	
0.0	9.100286730150401	pulse	1.0	t		31.0	female	east_asian	3.395941106247513	smiling	087	sub-03	1.0	3.0	087_smiling	0.0	31.439483155244943	
0.0	9.800253013172096	pulse	1.0	t		31.0	female	east_asian	3.395941106247513	smiling	087	sub-03	1.0	3.0	087_smiling	0.0	32.13944943826664	
0.0	10.50023499254894	pulse	1.0	t		31.0	female	east_asian	3.395941106247513	smiling	087	sub-03	1.0	3.0	087_smiling	0.0	32.83943141764348	
1.0	11.008433470545697	face	0.0		146	24.0	female	east_asian	2.9076800636689217	neutral	034	sub-03	1.0	3.0	034_neutral	0.0	33.34762989564024	1.241647803370597
1.0	11.200222405279419	pulse	0.0	t		24.0	female	east_asian	2.9076800636689217	neutral	034	sub-03	1.0	3.0	034_neutral	0.0	33.53941883037396	
1.0	11.900192310537022	pulse	0.0	t		24.0	female	east_asian	2.9076800636689217	neutral	034	sub-03	1.0	3.0	034_neutral	0.0	34.239388735631564	
1.0	12.250081273916294	fix	1.0		444	24.0	female	east_asian	2.9076800636689217	neutral	034	sub-03	1.0	3.0	034_neutral	0.0	34.589277699010836	3.7582157590804854
1.0	12.60017791214932	pulse	1.0	t		24.0	female	east_asian	2.9076800636689217	neutral	034	sub-03	1.0	3.0	034_neutral	0.0	34.93937433724386	
1.0	13.300154760025634	pulse	1.0	t		24.0	female	east_asian	2.9076800636689217	neutral	034	sub-03	1.0	3.0	034_neutral	0.0	35.63935118512018	
1.0	14.000143380168083	pulse	1.0	t		24.0	female	east_asian	2.9076800636689217	neutral	034	sub-03	1.0	3.0	034_neutral	0.0	36.339339805262625	
1.0	14.700123548426745	pulse	1.0	t		24.0	female	east_asian	2.9076800636689217	neutral	034	sub-03	1.0	3.0	034_neutral	0.0	37.03931997352129	
1.0	15.400106433362453	pulse	1.0	t		24.0	female	east_asian	2.9076800636689217	neutral	034	sub-03	1.0	3.0	034_neutral	0.0	37.739302858456995	
2.0	16.00829703299678	face	0.0		146	47.0	male	east_asian	2.171110226820533	neutral	024	sub-03	1.0	3.0	024_neutral	0.0	38.34749345809132	1.2416459922524155
2.0	16.100089620151266	pulse	0.0	t		47.0	male	east_asian	2.171110226820533	neutral	024	sub-03	1.0	3.0	024_neutral	0.0	38.43928604524581	
2.0	16.80005952540887	pulse	0.0	t		47.0	male	east_asian	2.171110226820533	neutral	024	sub-03	1.0	3.0	024_neutral	0.0	39.13925595050341	
2.0	17.249943025249195	fix	1.0		444	47.0	male	east_asian	2.171110226820533	neutral	024	sub-03	1.0	3.0	024_neutral	0.0	39.58913945034374	3.7582133442565464
2.0	17.500047239992455	pulse	1.0	t		47.0	male	east_asian	2.171110226820533	neutral	024	sub-03	1.0	3.0	024_neutral	0.0	39.839243665087	
2.0	18.20002378601521	pulse	1.0	t		47.0	male	east_asian	2.171110226820533	neutral	024	sub-03	1.0	3.0	024_neutral	0.0	40.53922021110975	
2.0	18.900006369098264	pulse	1.0	t		47.0	male	east_asian	2.171110226820533	neutral	024	sub-03	1.0	3.0	024_neutral	0.0	41.239202794192806	
2.0	19.599980198444428	pulse	1.0	t		47.0	male	east_asian	2.171110226820533	neutral	024	sub-03	1.0	3.0	024_neutral	0.0	41.93917662353897	
2.0	20.299970025998846	pulse	1.0	t		47.0	male	east_asian	2.171110226820533	neutral	024	sub-03	1.0	3.0	024_neutral	0.0	42.63916645109339	
3.0	21.00815636950574	face	0.0		147	27.0	female	white	4.181058495821727	neutral	039	sub-03	1.0	3.0	039_neutral	1.0	43.34735279460028	1.2416526330180204
3.0	21.00079145852669	pulse	0.0	t		27.0	female	white	4.181058495821727	neutral	039	sub-03	1.0	3.0	039_neutral	1.0	43.339987883621234	
3.0	21.699936701429124	pulse	0.0	t		27.0	female	white	4.181058495821727	neutral	039	sub-03	1.0	3.0	039_neutral	1.0	44.039133126523666	
3.0	22.24980900252376	fix	1.0		236	27.0	female	white	4.181058495821727	neutral	039	sub-03	1.0	3.0	039_neutral	1.0	44.589005427618304	2.008310012674883
3.0	22.399914153011196	pulse	1.0	t		27.0	female	white	4.181058495821727	neutral	039	sub-03	1.0	3.0	039_neutral	1.0	44.73911057810574	
3.0	23.09987983232668	pulse	1.0	t		27.0	female	white	4.181058495821727	neutral	039	sub-03	1.0	3.0	039_neutral	1.0	45.43907625742122	
3.0	23.79987418767587	pulse	1.0	t		27.0	female	white	4.181058495821727	neutral	039	sub-03	1.0	3.0	039_neutral	1.0	46.13907061277041	
3.0	24.258119015198645	rating	2.0		234	27.0	female	white	4.181058495821727	neutral	039	sub-03	1.0	3.0	039_neutral	1.0	46.59731544029319	1.9915789054266497
3.0	24.49986582634847	pulse	2.0	t		27.0	female	white	4.181058495821727	neutral	039	sub-03	1.0	3.0	039_neutral	1.0	46.83906225144301	
3.0	25.066508475579212	response	2.0	e		27.0	female	white	4.181058495821727	neutral	039	sub-03	1.0	3.0	039_neutral	1.0	47.405704900673754	
3.0	25.199830901958194	pulse	2.0	t		27.0	female	white	4.181058495821727	neutral	039	sub-03	1.0	3.0	039_neutral	1.0	47.539027327052736	
3.0	25.89981439059966	pulse	2.0	t		27.0	female	white	4.181058495821727	neutral	039	sub-03	1.0	3.0	039_neutral	1.0	48.2390108156942	
3.0	26.249697920625295	fix	3.0		444	27.0	female	white	4.181058495821727	neutral	039	sub-03	1.0	3.0	039_neutral	1.0	48.58889434571984	3.7582450388199504
3.0	26.59980059591817	pulse	3.0	t		27.0	female	white	4.181058495821727	neutral	039	sub-03	1.0	3.0	039_neutral	1.0	48.93899702101271	
3.0	27.299777443794483	pulse	3.0	t		27.0	female	white	4.181058495821727	neutral	039	sub-03	1.0	3.0	039_neutral	1.0	49.638973868889025	
3.0	27.999753687964585	pulse	3.0	t		27.0	female	white	4.181058495821727	neutral	039	sub-03	1.0	3.0	039_neutral	1.0	50.33895011305913	
3.0	28.699741100695064	pulse	3.0	t		27.0	female	white	4.181058495821727	neutral	039	sub-03	1.0	3.0	039_neutral	1.0	51.038937525789606	
3.0	29.399714930041227	pulse	3.0	t		27.0	female	white	4.181058495821727	neutral	039	sub-03	1.0	3.0	039_neutral	1.0	51.73891135513577	
4.0	30.007942959445245	face	0.0		146	24.0	female	black	3.0955033824114606	smiling	099	sub-03	1.0	3.0	099_smiling	0.0	52.34713938453979	1.2416200328962077
4.0	30.09973132065852	pulse	0.0	t		24.0	female	black	3.0955033824114606	smiling	099	sub-03	1.0	3.0	099_smiling	0.0	52.43892774575306	
4.0	30.79968311473658	pulse	0.0	t		24.0	female	black	3.0955033824114606	smiling	099	sub-03	1.0	3.0	099_smiling	0.0	53.13887953983112	
4.0	31.249562992341453	fix	1.0		445	24.0	female	black	3.0955033824114606	smiling	099	sub-03	1.0	3.0	099_smiling	0.0	53.588759417435995	3.7665384495803664
4.0	31.4996666033785	pulse	1.0	t		24.0	female	black	3.0955033824114606	smiling	099	sub-03	1.0	3.0	099_smiling	0.0	53.83886302847304	
4.0	32.19964345125436	pulse	1.0	t		24.0	female	black	3.0955033824114606	smiling	099	sub-03	1.0	3.0	099_smiling	0.0	54.5388398763489	
4.0	32.89962573248431	pulse	1.0	t		24.0	female	black	3.0955033824114606	smiling	099	sub-03	1.0	3.0	099_smiling	0.0	55.23882215757885	
4.0	33.59960499518411	pulse	1.0	t		24.0	female	black	3.0955033824114606	smiling	099	sub-03	1.0	3.0	099_smiling	0.0	55.93880142027865	
4.0	34.29958184305997	pulse	1.0	t		24.0	female	black	3.0955033824114606	smiling	099	sub-03	1.0	3.0	099_smiling	0.0	56.63877826815451	
5.0	35.01610144192182	face	0.0		146	32.0	male	white	2.389176283326701	smiling	092	sub-03	1.0	3.0	092_smiling	0.0	57.35529786701636	1.2333329610478359
5.0	35.00215402290041	pulse	0.0	t		32.0	male	white	2.389176283326701	smiling	092	sub-03	1.0	3.0	092_smiling	0.0	57.341350447994955	
5.0	35.69952467210487	pulse	0.0	t		32.0	male	white	2.389176283326701	smiling	092	sub-03	1.0	3.0	092_smiling	0.0	58.038721097199414	
5.0	36.249434402969655	fix	1.0		443	32.0	male	white	2.389176283326701	smiling	092	sub-03	1.0	3.0	092_smiling	0.0	58.5886308280642	3.76654871258188
5.0	36.399533214544135	pulse	1.0	t		32.0	male	white	2.389176283326701	smiling	092	sub-03	1.0	3.0	092_smiling	0.0	58.73872963963868	
5.0	37.099510364273556	pulse	1.0	t		32.0	male	white	2.389176283326701	smiling	092	sub-03	1.0	3.0	092_smiling	0.0	59.4387067893681	
5.0	37.79949566403275	pulse	1.0	t		32.0	male	white	2.389176283326701	smiling	092	sub-03	1.0	3.0	092_smiling	0.0	60.13869208912729	
5.0	38.49946104149558	pulse	1.0	t		32.0	male	white	2.389176283326701	smiling	092	sub-03	1.0	3.0	092_smiling	0.0	60.83865746659012	
5.0	39.199456000550526	pulse	1.0	t		32.0	male	white	2.389176283326701	smiling	092	sub-03	1.0	3.0	092_smiling	0.0	61.53865242564507	
5.0	39.899429829897144	pulse	1.0	t		32.0	male	white	2.389176283326701	smiling	092	sub-03	1.0	3.0	092_smiling	0.0	62.238626254991686	
6.0	40.015983115551535	face	0.0		146	40.0	female	west_asian	1.5777954635893354	smiling	038	sub-03	1.0	3.0	038_smiling	0.0	62.35517954064608	1.2333070016911734
6.0	40.59941331853861	pulse	0.0	t		40.0	female	west_asian	1.5777954635893354	smiling	038	sub-03	1.0	3.0	038_smiling	0.0	62.93860974363315	
6.0	41.24929011724271	fix	1.0		444	40.0	female	west_asian	1.5777954635893354	smiling	038	sub-03	1.0	3.0	038_smiling	0.0	63.58848654233725	3.7582184757575305
6.0	41.29939559976856	pulse	1.0	t		40.0	female	west_asian	1.5777954635893354	smiling	038	sub-03	1.0	3.0	038_smiling	0.0	63.6385920248631	
6.0	41.99938029582199	pulse	1.0	t		40.0	female	west_asian	1.5777954635893354	smiling	038	sub-03	1.0	3.0	038_smiling	0.0	64.33857672091654	
6.0	42.699351408491566	pulse	1.0	t		40.0	female	west_asian	1.5777954635893354	smiling	038	sub-03	1.0	3.0	038_smiling	0.0	65.03854783358611	
6.0	43.39933429342727	pulse	1.0	t		40.0	female	west_asian	1.5777954635893354	smiling	038	sub-03	1.0	3.0	038_smiling	0.0	65.73853071852182	
6.0	44.09935551369199	pulse	1.0	t		40.0	female	west_asian	1.5777954635893354	smiling	038	sub-03	1.0	3.0	038_smiling	0.0	66.43855193878653	
6.0	44.7993006670049	pulse	1.0	t		40.0	female	west_asian	1.5777954635893354	smiling	038	sub-03	1.0	3.0	038_smiling	0.0	67.13849709209944	
7.0	45.00750859300024	face	0.0		146	31.0	female	white	2.1822522881018704	neutral	102	sub-03	1.0	3.0	102_neutral	0.0	67.34670501809478	1.2416462941055215
7.0	45.49928717417606	pulse	0.0	t		31.0	female	white	2.1822522881018704	neutral	102	sub-03	1.0	3.0	102_neutral	0.0	67.8384835992706	
7.0	46.199261607228436	pulse	0.0	t		31.0	female	white	2.1822522881018704	neutral	102	sub-03	1.0	3.0	102_neutral	0.0	68.53845803232298	
7.0	46.24915488710576	fix	1.0		446	31.0	female	white	2.1822522881018704	neutral	102	sub-03	1.0	3.0	102_neutral	0.0	68.5883513122003	3.774881364230623
7.0	46.89924962366513	pulse	1.0	t		31.0	female	white	2.1822522881018704	neutral	102	sub-03	1.0	3.0	102_neutral	0.0	69.23844604875967	
7.0	47.59922375486394	pulse	1.0	t		31.0	female	white	2.1822522881018704	neutral	102	sub-03	1.0	3.0	102_neutral	0.0	69.93842017995848	
7.0	48.2992033194173	pulse	1.0	t		31.0	female	white	2.1822522881018704	neutral	102	sub-03	1.0	3.0	102_neutral	0.0	70.63839974451184	
7.0	48.9991856006468	pulse	1.0	t		31.0	female	white	2.1822522881018704	neutral	102	sub-03	1.0	3.0	102_neutral	0.0	71.33838202574134	
7.0	49.69916395778773	pulse	1.0	t		31.0	female	white	2.1822522881018704	neutral	102	sub-03	1.0	3.0	102_neutral	0.0	72.03836038288227	
8.0	50.02403625133638	face	0.0		145	19.0	female	white	4.298846000795861	smiling	100	sub-03	1.0	3.0	100_smiling	1.0	72.36323267643093	1.2333160572807174
8.0	50.39915106866556	pulse	0.0	t		19.0	female	white	4.298846000795861	smiling	100	sub-03	1.0	3.0	100_smiling	1.0	72.7383474937601	
8.0	51.099127010982556	pulse	0.0	t		19.0	female	white	4.298846000795861	smiling	100	sub-03	1.0	3.0	100_smiling	1.0	73.4383234360771	
8.0	51.2573523086171	fix	1.0		237	19.0	female	white	4.298846000795861	smiling	100	sub-03	1.0	3.0	100_smiling	1.0	73.59654873371164	1.9999474775804629
8.0	51.799114423713036	pulse	1.0	t		19.0	female	white	4.298846000795861	smiling	100	sub-03	1.0	3.0	100_smiling	1.0	74.13831084880758	
8.0	52.49908583823526	pulse	1.0	t		19.0	female	white	4.298846000795861	smiling	100	sub-03	1.0	3.0	100_smiling	1.0	74.8382822633298	
8.0	53.199067213906346	pulse	1.0	t		19.0	female	white	4.298846000795861	smiling	100	sub-03	1.0	3.0	100_smiling	1.0	75.53826363900089	
8.0	53.257299786197564	rating	2.0		236	19.0	female	white	4.298846000795861	smiling	100	sub-03	1.0	3.0	100_smiling	1.0	75.5964962112921	1.999943855345009
8.0	53.89906368222637	pulse	2.0	t		19.0	female	white	4.298846000795861	smiling	100	sub-03	1.0	3.0	100_smiling	1.0	76.23826010732091	
8.0	54.190709508459804	response	2.0	b		19.0	female	white	4.298846000795861	smiling	100	sub-03	1.0	3.0	100_smiling	1.0	76.52990593355435	
8.0	54.59902483374708	pulse	2.0	t		19.0	female	white	4.298846000795861	smiling	100	sub-03	1.0	3.0	100_smiling	1.0	76.93822125884162	
8.0	55.25724364154257	fix	3.0		444	19.0	female	white	4.298846000795861	smiling	100	sub-03	1.0	3.0	100_smiling	1.0	77.59644006663711	3.7665544477886215
8.0	55.29901345388953	pulse	3.0	t		19.0	female	white	4.298846000795861	smiling	100	sub-03	1.0	3.0	100_smiling	1.0	77.63820987898407	
8.0	55.999001168473114	pulse	3.0	t		19.0	female	white	4.298846000795861	smiling	100	sub-03	1.0	3.0	100_smiling	1.0	78.33819759356766	
8.0	56.69897892190829	pulse	3.0	t		19.0	female	white	4.298846000795861	smiling	100	sub-03	1.0	3.0	100_smiling	1.0	79.03817534700283	
8.0	57.398931621545216	pulse	3.0	t		19.0	female	white	4.298846000795861	smiling	100	sub-03	1.0	3.0	100_smiling	1.0	79.73812804663976	
8.0	58.09893050468918	pulse	3.0	t		19.0	female	white	4.298846000795861	smiling	100	sub-03	1.0	3.0	100_smiling	1.0	80.43812692978372	
8.0	58.79892153965557	pulse	3.0	t		19.0	female	white	4.298846000795861	smiling	100	sub-03	1.0	3.0	100_smiling	1.0	81.13811796475011	
9.0	59.023798089331194	face	0.0		145	40.0	male	white	1.868682849184242	neutral	172	sub-03	1.0	3.0	172_neutral	0.0	81.36299451442574	1.233310925780188
9.0	59.498905028297486	pulse	0.0	t		40.0	male	white	1.868682849184242	neutral	172	sub-03	1.0	3.0	172_neutral	0.0	81.83810145339203	
9.0	60.198880668761376	pulse	0.0	t		40.0	male	white	1.868682849184242	neutral	172	sub-03	1.0	3.0	172_neutral	0.0	82.53807709385592	
9.0	60.25710901511138	fix	1.0		445	40.0	male	white	1.868682849184242	neutral	172	sub-03	1.0	3.0	172_neutral	0.0	82.59630544020592	3.7583582336887957
9.0	60.89886898705117	pulse	1.0	t		40.0	male	white	1.868682849184242	neutral	172	sub-03	1.0	3.0	172_neutral	0.0	83.23806541214572	
9.0	61.59884191083802	pulse	1.0	t		40.0	male	white	1.868682849184242	neutral	172	sub-03	1.0	3.0	172_neutral	0.0	83.93803833593256	
9.0	62.29882177724403	pulse	1.0	t		40.0	male	white	1.868682849184242	neutral	172	sub-03	1.0	3.0	172_neutral	0.0	84.63801820233857	
9.0	62.99880073809118	pulse	1.0	t		40.0	male	white	1.868682849184242	neutral	172	sub-03	1.0	3.0	172_neutral	0.0	85.33799716318572	
9.0	63.69878694340969	pulse	1.0	t		40.0	male	white	1.868682849184242	neutral	172	sub-03	1.0	3.0	172_neutral	0.0	86.03798336850423	
10.0	64.01546724880018	face	0.0		146	36.0	female	white	2.7548746518105847	smiling	011	sub-03	1.0	3.0	011_smiling	0.0	86.35466367389472	1.2415083472915285
10.0	64.39876862093342	pulse	0.0	t		36.0	female	white	2.7548746518105847	smiling	011	sub-03	1.0	3.0	011_smiling	0.0	86.73796504602797	
10.0	65.09875150586913	pulse	0.0	t		36.0	female	white	2.7548746518105847	smiling	011	sub-03	1.0	3.0	011_smiling	0.0	87.43794793096367	
10.0	65.2569755960917	fix	1.0		444	36.0	female	white	2.7548746518105847	smiling	011	sub-03	1.0	3.0	011_smiling	0.0	87.59617202118625	3.766547505170365
10.0	65.79873590006991	pulse	1.0	t		36.0	female	white	2.7548746518105847	smiling	011	sub-03	1.0	3.0	011_smiling	0.0	88.13793232516446	
10.0	66.4987048997682	pulse	1.0	t		36.0	female	white	2.7548746518105847	smiling	011	sub-03	1.0	3.0	011_smiling	0.0	88.83790132486274	
10.0	67.19869110508716	pulse	1.0	t		36.0	female	white	2.7548746518105847	smiling	011	sub-03	1.0	3.0	011_smiling	0.0	89.5378875301817	
10.0	67.89867127334583	pulse	1.0	t		36.0	female	white	2.7548746518105847	smiling	011	sub-03	1.0	3.0	011_smiling	0.0	90.23786769844037	
10.0	68.5986550638404	pulse	1.0	t		36.0	female	white	2.7548746518105847	smiling	011	sub-03	1.0	3.0	011_smiling	0.0	90.93785148893494	
11.0	69.02352310126207	face	0.0		145	24.0	female	black	3.0955033824114606	neutral	099	sub-03	1.0	3.0	099_neutral	0.0	91.36271952635661	1.2333157554276113
11.0	69.29864036360004	pulse	0.0	t		24.0	female	black	3.0955033824114606	neutral	099	sub-03	1.0	3.0	099_neutral	0.0	91.63783678869459	
11.0	69.99862264483	pulse	0.0	t		24.0	female	black	3.0955033824114606	neutral	099	sub-03	1.0	3.0	099_neutral	0.0	92.33781906992454	
11.0	70.25683885668968	fix	1.0		444	24.0	female	black	3.0955033824114606	neutral	099	sub-03	1.0	3.0	099_neutral	0.0	92.59603528178422	3.7665496181407434
11.0	70.6986022093829	pulse	1.0	t		24.0	female	black	3.0955033824114606	neutral	099	sub-03	1.0	3.0	099_neutral	0.0	93.03779863447744	
11.0	71.39857694428792	pulse	1.0	t		24.0	female	black	3.0955033824114606	neutral	099	sub-03	1.0	3.0	099_neutral	0.0	93.73777336938247	
11.0	72.09855831995901	pulse	1.0	t		24.0	female	black	3.0955033824114606	neutral	099	sub-03	1.0	3.0	099_neutral	0.0	94.43775474505355	
11.0	72.79853637524684	pulse	1.0	t		24.0	female	black	3.0955033824114606	neutral	099	sub-03	1.0	3.0	099_neutral	0.0	95.13773280034138	
11.0	73.49851111015187	pulse	1.0	t		24.0	female	black	3.0955033824114606	neutral	099	sub-03	1.0	3.0	099_neutral	0.0	95.83770753524641	
12.0	74.02338847483043	face	0.0		145	40.0	female	west_asian	1.5777954635893354	neutral	038	sub-03	1.0	3.0	038_neutral	0.0	96.36258489992497	1.2333148498692026
12.0	74.19851995444469	pulse	0.0	t		40.0	female	west_asian	1.5777954635893354	neutral	038	sub-03	1.0	3.0	038_neutral	0.0	96.53771637953923	
12.0	74.89846933369881	pulse	0.0	t		40.0	female	west_asian	1.5777954635893354	neutral	038	sub-03	1.0	3.0	038_neutral	0.0	97.23766575879336	
12.0	75.25670332469963	fix	1.0		444	40.0	female	west_asian	1.5777954635893354	neutral	038	sub-03	1.0	3.0	038_neutral	0.0	97.59589974979417	3.7665469014636983
12.0	75.59846972610785	pulse	1.0	t		40.0	female	west_asian	1.5777954635893354	neutral	038	sub-03	1.0	3.0	038_neutral	0.0	97.9376661512024	
12.0	76.29846317589818	pulse	1.0	t		40.0	female	west_asian	1.5777954635893354	neutral	038	sub-03	1.0	3.0	038_neutral	0.0	98.63765960099272	
12.0	76.99842674224283	pulse	1.0	t		40.0	female	west_asian	1.5777954635893354	neutral	038	sub-03	1.0	3.0	038_neutral	0.0	99.33762316733737	
12.0	77.69840600494263	pulse	1.0	t		40.0	female	west_asian	1.5777954635893354	neutral	038	sub-03	1.0	3.0	038_neutral	0.0	100.03760243003717	
12.0	78.39838134355387	pulse	1.0	t		40.0	female	west_asian	1.5777954635893354	neutral	038	sub-03	1.0	3.0	038_neutral	0.0	100.7375777686484	
13.0	79.02325022616333	face	0.0		145	20.0	male	black	3.1070433744528456	smiling	082	sub-03	1.0	3.0	082_smiling	0.0	101.36244665125787	1.2333079072504916
13.0	79.0983784155801	pulse	0.0	t		20.0	male	black	3.1070433744528456	smiling	082	sub-03	1.0	3.0	082_smiling	0.0	101.43757484067464	
13.0	79.79835375419088	pulse	0.0	t		20.0	male	black	3.1070433744528456	smiling	082	sub-03	1.0	3.0	082_smiling	0.0	102.13755017928543	
13.0	80.25655813341382	fix	1.0		444	20.0	male	black	3.1070433744528456	smiling	082	sub-03	1.0	3.0	082_smiling	0.0	102.59575455850836	3.766560182995363
13.0	80.49833573356773	pulse	1.0	t		20.0	male	black	3.1070433744528456	smiling	082	sub-03	1.0	3.0	082_smiling	0.0	102.83753215866227	
13.0	81.19830926106124	pulse	1.0	t		20.0	male	black	3.1070433744528456	smiling	082	sub-03	1.0	3.0	082_smiling	0.0	103.53750568615578	
13.0	81.89829305155581	pulse	1.0	t		20.0	male	black	3.1070433744528456	smiling	082	sub-03	1.0	3.0	082_smiling	0.0	104.23748947665035	
13.0	82.59826959757902	pulse	1.0	t		20.0	male	black	3.1070433744528456	smiling	082	sub-03	1.0	3.0	082_smiling	0.0	104.93746602267356	
13.0	83.29825067139654	pulse	1.0	t		20.0	male	black	3.1070433744528456	smiling	082	sub-03	1.0	3.0	082_smiling	0.0	105.63744709649109	
13.0	83.99823808412702	pulse	1.0	t		20.0	male	black	3.1070433744528456	smiling	082	sub-03	1.0	3.0	082_smiling	0.0	106.33743450922157	
14.0	84.02311831640918	face	0.0		146	22.0	female	white	4.614007162753682	smiling	009	sub-03	1.0	3.0	009_smiling	0.0	106.36231474150372	1.2333094165151124
14.0	84.69822187462205	pulse	0.0	t		22.0	female	white	4.614007162753682	smiling	009	sub-03	1.0	3.0	009_smiling	0.0	107.03741829971659	
14.0	85.2564277329243	fix	1.0		443	22.0	female	white	4.614007162753682	smiling	009	sub-03	1.0	3.0	009_smiling	0.0	107.59562415801884	3.7583075223874403
14.0	85.39820234473382	pulse	1.0	t		22.0	female	white	4.614007162753682	smiling	009	sub-03	1.0	3.0	009_smiling	0.0	107.73739876982836	
14.0	86.09818100372786	pulse	1.0	t		22.0	female	white	4.614007162753682	smiling	009	sub-03	1.0	3.0	009_smiling	0.0	108.4373774288224	
14.0	86.79815754975061	pulse	1.0	t		22.0	female	white	4.614007162753682	smiling	009	sub-03	1.0	3.0	009_smiling	0.0	109.13735397484515	
14.0	87.49813741615662	pulse	1.0	t		22.0	female	white	4.614007162753682	smiling	009	sub-03	1.0	3.0	009_smiling	0.0	109.83733384125117	
14.0	88.19812090479854	pulse	1.0	t		22.0	female	white	4.614007162753682	smiling	009	sub-03	1.0	3.0	009_smiling	0.0	110.53731732989309	
14.0	88.89812129720713	pulse	1.0	t		22.0	female	white	4.614007162753682	smiling	009	sub-03	1.0	3.0	009_smiling	0.0	111.23731772230167	
15.0	89.01473525531173	face	0.0		147	23.0	male	white	2.6275368085953046	smiling	141	sub-03	1.0	3.0	141_smiling	0.0	111.35393168040628	1.2415581530344753
15.0	89.59809150431784	pulse	0.0	t		23.0	male	white	2.6275368085953046	smiling	141	sub-03	1.0	3.0	141_smiling	0.0	111.93728792941238	
15.0	90.25629340834621	fix	1.0		443	23.0	male	white	2.6275368085953046	smiling	141	sub-03	1.0	3.0	141_smiling	0.0	112.59548983344075	3.7582178720508637
15.0	90.29807318184157	pulse	1.0	t		23.0	male	white	2.6275368085953046	smiling	141	sub-03	1.0	3.0	141_smiling	0.0	112.63726960693612	
15.0	90.99803584262736	pulse	1.0	t		23.0	male	white	2.6275368085953046	smiling	141	sub-03	1.0	3.0	141_smiling	0.0	113.3372322677219	
15.0	91.69802204794587	pulse	1.0	t		23.0	male	white	2.6275368085953046	smiling	141	sub-03	1.0	3.0	141_smiling	0.0	114.03721847304041	
15.0	92.39800583844044	pulse	1.0	t		23.0	male	white	2.6275368085953046	smiling	141	sub-03	1.0	3.0	141_smiling	0.0	114.73720226353498	
15.0	93.09799687340683	pulse	1.0	t		23.0	male	white	2.6275368085953046	smiling	141	sub-03	1.0	3.0	141_smiling	0.0	115.43719329850137	
15.0	93.79797372128314	pulse	1.0	t		23.0	male	white	2.6275368085953046	smiling	141	sub-03	1.0	3.0	141_smiling	0.0	116.13717014637768	
16.0	94.01451128039707	face	0.0		146	28.0	male	white	3.9076800636689217	neutral	033	sub-03	1.0	3.0	033_neutral	0.0	116.35370770549162	1.2416465959586276
16.0	94.49795630436574	pulse	0.0	t		28.0	male	white	3.9076800636689217	neutral	033	sub-03	1.0	3.0	033_neutral	0.0	116.83715272946029	
16.0	95.19793043556501	pulse	0.0	t		28.0	male	white	3.9076800636689217	neutral	033	sub-03	1.0	3.0	033_neutral	0.0	117.53712686065955	
16.0	95.2561578763557	fix	1.0		445	28.0	male	white	3.9076800636689217	neutral	033	sub-03	1.0	3.0	033_neutral	0.0	117.59535430145024	3.7665499199938495
16.0	95.89791845200125	pulse	1.0	t		28.0	male	white	3.9076800636689217	neutral	033	sub-03	1.0	3.0	033_neutral	0.0	118.23711487709579	
16.0	96.59788714984688	pulse	1.0	t		28.0	male	white	3.9076800636689217	neutral	033	sub-03	1.0	3.0	033_neutral	0.0	118.93708357494143	
16.0	97.29787607184244	pulse	1.0	t		28.0	male	white	3.9076800636689217	neutral	033	sub-03	1.0	3.0	033_neutral	0.0	119.63707249693698	
16.0	97.99785141045368	pulse	1.0	t		28.0	male	white	3.9076800636689217	neutral	033	sub-03	1.0	3.0	033_neutral	0.0	120.33704783554822	
16.0	98.69783701206597	pulse	1.0	t		28.0	male	white	3.9076800636689217	neutral	033	sub-03	1.0	3.0	033_neutral	0.0	121.03703343716052	
17.0	99.02270779634955	face	0.0		145	24.0	female	east_asian	4.409868682849185	neutral	030	sub-03	1.0	3.0	030_neutral	0.0	121.36190422144409	1.233315151721854
17.0	99.39782593406153	pulse	0.0	t		24.0	female	east_asian	4.409868682849185	neutral	030	sub-03	1.0	3.0	030_neutral	0.0	121.73702235915607	
17.0	100.09779855599572	pulse	0.0	t		24.0	female	east_asian	4.409868682849185	neutral	030	sub-03	1.0	3.0	030_neutral	0.0	122.43699498109027	
17.0	100.2560229480714	fix	1.0		445	24.0	female	east_asian	4.409868682849185	neutral	030	sub-03	1.0	3.0	030_neutral	0.0	122.59521937316595	3.758366383719931
17.0	100.79778536502045	pulse	1.0	t		24.0	female	east_asian	4.409868682849185	neutral	030	sub-03	1.0	3.0	030_neutral	0.0	123.13698179011499	
17.0	101.497752553601	pulse	1.0	t		24.0	female	east_asian	4.409868682849185	neutral	030	sub-03	1.0	3.0	030_neutral	0.0	123.83694897869555	
17.0	102.19773815521376	pulse	1.0	t		24.0	female	east_asian	4.409868682849185	neutral	030	sub-03	1.0	3.0	030_neutral	0.0	124.5369345803083	
17.0	102.89771862532552	pulse	1.0	t		24.0	female	east_asian	4.409868682849185	neutral	030	sub-03	1.0	3.0	030_neutral	0.0	125.23691505042007	
17.0	103.59770452879093	pulse	1.0	t		24.0	female	east_asian	4.409868682849185	neutral	030	sub-03	1.0	3.0	030_neutral	0.0	125.93690095388547	
18.0	104.01438933179134	face	0.0		146	31.0	male	west_asian	1.9538400318344609	smiling	070	sub-03	1.0	3.0	070_smiling	0.0	126.35358575688588	1.241495971319182
18.0	104.29768982855057	pulse	0.0	t		31.0	male	west_asian	1.9538400318344609	smiling	070	sub-03	1.0	3.0	070_smiling	0.0	126.63688625364512	
18.0	104.99766788383886	pulse	0.0	t		31.0	male	west_asian	1.9538400318344609	smiling	070	sub-03	1.0	3.0	070_smiling	0.0	127.3368643089334	
18.0	105.25588530311052	fix	1.0		445	31.0	male	west_asian	1.9538400318344609	smiling	070	sub-03	1.0	3.0	070_smiling	0.0	127.59508172820506	3.7665514292584703
18.0	105.69765227803919	pulse	1.0	t		31.0	male	west_asian	1.9538400318344609	smiling	070	sub-03	1.0	3.0	070_smiling	0.0	128.03684870313373	
18.0	106.39762369256187	pulse	1.0	t		31.0	male	west_asian	1.9538400318344609	smiling	070	sub-03	1.0	3.0	070_smiling	0.0	128.7368201176564	
18.0	107.09760899232151	pulse	1.0	t		31.0	male	west_asian	1.9538400318344609	smiling	070	sub-03	1.0	3.0	070_smiling	0.0	129.43680541741605	
18.0	107.79758372722654	pulse	1.0	t		31.0	male	west_asian	1.9538400318344609	smiling	070	sub-03	1.0	3.0	070_smiling	0.0	130.13678015232108	
18.0	108.4975641973383	pulse	1.0	t		31.0	male	west_asian	1.9538400318344609	smiling	070	sub-03	1.0	3.0	070_smiling	0.0	130.83676062243285	
19.0	109.02243673236899	face	0.0		145	21.0	male	east_asian/white	3.501790688420215	neutral	036	sub-03	1.0	3.0	036_neutral	0.0	131.36163315746353	1.23331545357496
19.0	109.19755825083439	pulse	0.0	t		21.0	male	east_asian/white	3.501790688420215	neutral	036	sub-03	1.0	3.0	036_neutral	0.0	131.53675467592893	
19.0	109.89753358944563	pulse	0.0	t		21.0	male	east_asian/white	3.501790688420215	neutral	036	sub-03	1.0	3.0	036_neutral	0.0	132.23673001454017	
19.0	110.25575218594395	fix	1.0		444	21.0	male	east_asian/white	3.501790688420215	neutral	036	sub-03	1.0	3.0	036_neutral	0.0	132.5949486110385	3.766546901464153
19.0	110.59751677623444	pulse	1.0	t		21.0	male	east_asian/white	3.501790688420215	neutral	036	sub-03	1.0	3.0	036_neutral	0.0	132.93671320132898	
19.0	111.2974969444931	pulse	1.0	t		21.0	male	east_asian/white	3.501790688420215	neutral	036	sub-03	1.0	3.0	036_neutral	0.0	133.63669336958765	
19.0	111.99747409422253	pulse	1.0	t		21.0	male	east_asian/white	3.501790688420215	neutral	036	sub-03	1.0	3.0	036_neutral	0.0	134.33667051931707	
19.0	112.69744852727445	pulse	1.0	t		21.0	male	east_asian/white	3.501790688420215	neutral	036	sub-03	1.0	3.0	036_neutral	0.0	135.036644952369	
19.0	113.39743020479818	pulse	1.0	t		21.0	male	east_asian/white	3.501790688420215	neutral	036	sub-03	1.0	3.0	036_neutral	0.0	135.73662662989273	
20.0	114.0222990874081	face	0.0		145	36.0	female	white	2.7548746518105847	neutral	011	sub-03	1.0	3.0	011_neutral	0.0	136.36149551250264	1.233315151721854
20.0	114.09742908794215	pulse	0.0	t		36.0	female	white	2.7548746518105847	neutral	011	sub-03	1.0	3.0	011_neutral	0.0	136.4366255130367	
20.0	114.79739869134664	pulse	0.0	t		36.0	female	white	2.7548746518105847	neutral	011	sub-03	1.0	3.0	011_neutral	0.0	137.13659511644119	
20.0	115.25561423912995	fix	1.0		444	36.0	female	white	2.7548746518105847	neutral	011	sub-03	1.0	3.0	011_neutral	0.0	137.5948106642245	3.766557768171424
20.0	115.49738821704796	pulse	1.0	t		36.0	female	white	2.7548746518105847	neutral	011	sub-03	1.0	3.0	011_neutral	0.0	137.8365846421425	
20.0	116.19736144268836	pulse	1.0	t		36.0	female	white	2.7548746518105847	neutral	011	sub-03	1.0	3.0	011_neutral	0.0	138.5365578677829	
20.0	116.89734191280013	pulse	1.0	t		36.0	female	white	2.7548746518105847	neutral	011	sub-03	1.0	3.0	011_neutral	0.0	139.23653833789467	
20.0	117.59732026994106	pulse	1.0	t		36.0	female	white	2.7548746518105847	neutral	011	sub-03	1.0	3.0	011_neutral	0.0	139.9365166950356	
20.0	118.29730224931791	pulse	1.0	t		36.0	female	white	2.7548746518105847	neutral	011	sub-03	1.0	3.0	011_neutral	0.0	140.63649867441245	
20.0	118.99728543610672	pulse	1.0	t		36.0	female	white	2.7548746518105847	neutral	011	sub-03	1.0	3.0	011_neutral	0.0	141.33648186120126	
21.0	119.02217200730138	face	0.0		146	21.0	male	black	2.969757262236371	smiling	137	sub-03	1.0	3.0	137_smiling	1.0	141.36136843239592	1.2333079072500368
21.0	119.6972695284544	pulse	0.0	t		21.0	male	black	2.969757262236371	smiling	137	sub-03	1.0	3.0	137_smiling	1.0	142.03646595354894	
21.0	120.25547991455142	fix	1.0		236	21.0	male	black	2.969757262236371	smiling	137	sub-03	1.0	3.0	137_smiling	1.0	142.59467633964596	1.9999477794340237
21.0	120.39725090412549	pulse	1.0	t		21.0	male	black	2.969757262236371	smiling	137	sub-03	1.0	3.0	137_smiling	1.0	142.73644732922003	
21.0	121.09723137423725	pulse	1.0	t		21.0	male	black	2.969757262236371	smiling	137	sub-03	1.0	3.0	137_smiling	1.0	143.4364277993318	
21.0	121.79720520358342	pulse	1.0	t		21.0	male	black	2.969757262236371	smiling	137	sub-03	1.0	3.0	137_smiling	1.0	144.13640162867796	
21.0	122.25542769398544	rating	2.0		235	21.0	male	black	2.969757262236371	smiling	137	sub-03	1.0	3.0	137_smiling	1.0	144.59462411907998	1.9999423460794787
21.0	122.49719865337374	pulse	2.0	t		21.0	male	black	2.969757262236371	smiling	137	sub-03	1.0	3.0	137_smiling	1.0	144.83639507846829	
21.0	122.79192036152335	response	2.0	g		21.0	male	black	2.969757262236371	smiling	137	sub-03	1.0	3.0	137_smiling	1.0	145.1311167866179	
21.0	123.19716493639544	pulse	2.0	t		21.0	male	black	2.969757262236371	smiling	137	sub-03	1.0	3.0	137_smiling	1.0	145.53636136148998	
21.0	123.89715325468478	pulse	2.0	t		21.0	male	black	2.969757262236371	smiling	137	sub-03	1.0	3.0	137_smiling	1.0	146.23634967977932	
21.0	124.25537004006492	fix	3.0		444	21.0	male	black	2.969757262236371	smiling	137	sub-03	1.0	3.0	137_smiling	1.0	146.59456646515946	3.7665487125823347
21.0	124.59713281923769	pulse	3.0	t		21.0	male	black	2.969757262236371	smiling	137	sub-03	1.0	3.0	137_smiling	1.0	146.93632924433223	
21.0	125.29711057267241	pulse	3.0	t		21.0	male	black	2.969757262236371	smiling	137	sub-03	1.0	3.0	137_smiling	1.0	147.63630699776695	
21.0	125.99710704099289	pulse	3.0	t		21.0	male	black	2.969757262236371	smiling	137	sub-03	1.0	3.0	137_smiling	1.0	148.33630346608743	
21.0	126.6970748332792	pulse	3.0	t		21.0	male	black	2.969757262236371	smiling	137	sub-03	1.0	3.0	137_smiling	1.0	149.03627125837374	
21.0	127.39716608343679	pulse	3.0	t		21.0	male	black	2.969757262236371	smiling	137	sub-03	1.0	3.0	137_smiling	1.0	149.73636250853133	
22.0	128.02191875264725	face	0.0		145	28.0	male	east_asian	1.5563072025467568	smiling	005	sub-03	1.0	3.0	005_smiling	0.0	150.3611151777418	1.2333178683984443
22.0	128.09704694206357	pulse	0.0	t		28.0	male	east_asian	1.5563072025467568	smiling	005	sub-03	1.0	3.0	005_smiling	0.0	150.4362433671581	
22.0	128.79702318623367	pulse	0.0	t		28.0	male	east_asian	1.5563072025467568	smiling	005	sub-03	1.0	3.0	005_smiling	0.0	151.13621961132822	
22.0	129.2552366210457	fix	1.0		444	28.0	male	east_asian	1.5563072025467568	smiling	005	sub-03	1.0	3.0	005_smiling	0.0	151.59443304614024	3.766546297757941
22.0	129.49700697672824	pulse	1.0	t		28.0	male	east_asian	1.5563072025467568	smiling	005	sub-03	1.0	3.0	005_smiling	0.0	151.8362034018228	
22.0	130.1969838246041	pulse	1.0	t		28.0	male	east_asian	1.5563072025467568	smiling	005	sub-03	1.0	3.0	005_smiling	0.0	152.53618024969865	
22.0	130.89696399286322	pulse	1.0	t		28.0	male	east_asian	1.5563072025467568	smiling	005	sub-03	1.0	3.0	005_smiling	0.0	153.23616041795776	
22.0	131.59693933147446	pulse	1.0	t		28.0	male	east_asian	1.5563072025467568	smiling	005	sub-03	1.0	3.0	005_smiling	0.0	153.936135756569	
22.0	132.2969210089982	pulse	1.0	t		28.0	male	east_asian	1.5563072025467568	smiling	005	sub-03	1.0	3.0	005_smiling	0.0	154.63611743409274	
22.0	132.99690811987557	pulse	1.0	t		28.0	male	east_asian	1.5563072025467568	smiling	005	sub-03	1.0	3.0	005_smiling	0.0	155.3361045449701	
23.0	133.02178291880364	face	0.0		146	40.0	male	black	2.408674890569041	smiling	061	sub-03	1.0	3.0	061_smiling	0.0	155.36097934389818	1.2333163591338234
23.0	133.6968931177821	pulse	0.0	t		40.0	male	black	2.408674890569041	smiling	061	sub-03	1.0	3.0	061_smiling	0.0	156.03608954287665	
23.0	134.25509927793746	fix	1.0		1184	40.0	male	black	2.408674890569041	smiling	061	sub-03	1.0	3.0	061_smiling	0.0	156.594295703032	10.016379750373744
23.0	134.39687026751153	pulse	1.0	t		40.0	male	black	2.408674890569041	smiling	061	sub-03	1.0	3.0	061_smiling	0.0	156.73606669260607	
23.0	135.09684500241656	pulse	1.0	t		40.0	male	black	2.408674890569041	smiling	061	sub-03	1.0	3.0	061_smiling	0.0	157.4360414275111	
23.0	135.7968272836465	pulse	1.0	t		40.0	male	black	2.408674890569041	smiling	061	sub-03	1.0	3.0	061_smiling	0.0	158.13602370874105	
23.0	136.49680382966926	pulse	1.0	t		40.0	male	black	2.408674890569041	smiling	061	sub-03	1.0	3.0	061_smiling	0.0	158.8360002547638	
23.0	137.19679003498777	pulse	1.0	t		40.0	male	black	2.408674890569041	smiling	061	sub-03	1.0	3.0	061_smiling	0.0	159.5359864600823	
23.0	137.8967702032469	pulse	1.0	t		40.0	male	black	2.408674890569041	smiling	061	sub-03	1.0	3.0	061_smiling	0.0	160.23596662834143	
23.0	138.59675188077063	pulse	1.0	t		40.0	male	black	2.408674890569041	smiling	061	sub-03	1.0	3.0	061_smiling	0.0	160.93594830586517	
23.0	139.29672842679383	pulse	1.0	t		40.0	male	black	2.408674890569041	smiling	061	sub-03	1.0	3.0	061_smiling	0.0	161.63592485188838	
23.0	139.99671100987644	pulse	1.0	t		40.0	male	black	2.408674890569041	smiling	061	sub-03	1.0	3.0	061_smiling	0.0	162.33590743497098	
23.0	140.69669208369442	pulse	1.0	t		40.0	male	black	2.408674890569041	smiling	061	sub-03	1.0	3.0	061_smiling	0.0	163.03588850878896	
23.0	141.39666923342338	pulse	1.0	t		40.0	male	black	2.408674890569041	smiling	061	sub-03	1.0	3.0	061_smiling	0.0	163.73586565851792	
23.0	142.0966337053269	pulse	1.0	t		40.0	male	black	2.408674890569041	smiling	061	sub-03	1.0	3.0	061_smiling	0.0	164.43583013042144	
23.0	142.7966322866182	pulse	1.0	t		40.0	male	black	2.408674890569041	smiling	061	sub-03	1.0	3.0	061_smiling	0.0	165.13582871171275	
23.0	143.49660943634717	pulse	1.0	t		40.0	male	black	2.408674890569041	smiling	061	sub-03	1.0	3.0	061_smiling	0.0	165.8358058614417	
23.0	144.1966025842844	pulse	1.0	t		40.0	male	black	2.408674890569041	smiling	061	sub-03	1.0	3.0	061_smiling	0.0	166.53579900937893	
24.0	144.2714790283112	face	0.0		146	28.0	female	white	5.676880222841227	neutral	124	sub-03	1.0	3.0	124_neutral	0.0	166.61067545340575	1.233315151721854
24.0	144.89659331739767	pulse	0.0	t		28.0	female	white	5.676880222841227	neutral	124	sub-03	1.0	3.0	124_neutral	0.0	167.23578974249222	
24.0	145.50479418003306	fix	1.0		443	28.0	female	white	5.676880222841227	neutral	124	sub-03	1.0	3.0	124_neutral	0.0	167.8439906051276	3.76654871258188
24.0	145.5965713726855	pulse	1.0	t		28.0	female	white	5.676880222841227	neutral	124	sub-03	1.0	3.0	124_neutral	0.0	167.93576779778004	
24.0	146.29654640944364	pulse	1.0	t		28.0	female	white	5.676880222841227	neutral	124	sub-03	1.0	3.0	124_neutral	0.0	168.63574283453818	
24.0	146.99652657770275	pulse	1.0	t		28.0	female	white	5.676880222841227	neutral	124	sub-03	1.0	3.0	124_neutral	0.0	169.3357230027973	
24.0	147.69650463299058	pulse	1.0	t		28.0	female	white	5.676880222841227	neutral	124	sub-03	1.0	3.0	124_neutral	0.0	170.03570105808512	
24.0	148.39648208457265	pulse	1.0	t		28.0	female	white	5.676880222841227	neutral	124	sub-03	1.0	3.0	124_neutral	0.0	170.7356785096672	
24.0	149.09647010100934	pulse	1.0	t		28.0	female	white	5.676880222841227	neutral	124	sub-03	1.0	3.0	124_neutral	0.0	171.4356665261039	
25.0	149.27134289261494	face	0.0		146	37.0	male	white	3.898925586947871	smiling	101	sub-03	1.0	3.0	101_smiling	0.0	171.61053931770948	1.2416496144887788
25.0	149.79645570262164	pulse	0.0	t		37.0	male	white	3.898925586947871	smiling	101	sub-03	1.0	3.0	101_smiling	0.0	172.13565212771618	
25.0	150.49642772085008	pulse	0.0	t		37.0	male	white	3.898925586947871	smiling	101	sub-03	1.0	3.0	101_smiling	0.0	172.83562414594462	
25.0	150.51299250710372	fix	1.0		443	37.0	male	white	3.898925586947871	smiling	101	sub-03	1.0	3.0	101_smiling	0.0	172.85218893219826	3.7582151553742733
25.0	151.1964142280217	pulse	1.0	t		37.0	male	white	3.898925586947871	smiling	101	sub-03	1.0	3.0	101_smiling	0.0	173.53561065311624	
25.0	151.89639499998657	pulse	1.0	t		37.0	male	white	3.898925586947871	smiling	101	sub-03	1.0	3.0	101_smiling	0.0	174.2355914250811	
25.0	152.59636852747963	pulse	1.0	t		37.0	male	white	3.898925586947871	smiling	101	sub-03	1.0	3.0	101_smiling	0.0	174.93556495257417	
25.0	153.29635171426844	pulse	1.0	t		37.0	male	white	3.898925586947871	smiling	101	sub-03	1.0	3.0	101_smiling	0.0	175.63554813936298	
25.0	153.99633580661612	pulse	1.0	t		37.0	male	white	3.898925586947871	smiling	101	sub-03	1.0	3.0	101_smiling	0.0	176.33553223171066	
26.0	154.271207662478	face	0.0		145	30.0	female	black	2.7345801830481498	smiling	062	sub-03	1.0	3.0	062_smiling	0.0	176.61040408757253	1.2333145480156418
26.0	154.69632171008197	pulse	0.0	t		30.0	female	black	2.7345801830481498	smiling	062	sub-03	1.0	3.0	062_smiling	0.0	177.03551813517652	
26.0	155.39629765239897	pulse	0.0	t		30.0	female	black	2.7345801830481498	smiling	062	sub-03	1.0	3.0	062_smiling	0.0	177.7354940774935	
26.0	155.50452221049363	fix	1.0		444	30.0	female	black	2.7345801830481498	smiling	062	sub-03	1.0	3.0	062_smiling	0.0	177.84371863558817	3.76654871258188
26.0	156.0962841595706	pulse	1.0	t		30.0	female	black	2.7345801830481498	smiling	062	sub-03	1.0	3.0	062_smiling	0.0	178.43548058466513	
26.0	156.79625617779902	pulse	1.0	t		30.0	female	black	2.7345801830481498	smiling	062	sub-03	1.0	3.0	062_smiling	0.0	179.13545260289357	
26.0	157.4962429868233	pulse	1.0	t		30.0	female	black	2.7345801830481498	smiling	062	sub-03	1.0	3.0	062_smiling	0.0	179.83543941191783	
26.0	158.1962189291403	pulse	1.0	t		30.0	female	black	2.7345801830481498	smiling	062	sub-03	1.0	3.0	062_smiling	0.0	180.53541535423483	
26.0	158.89618611772084	pulse	1.0	t		30.0	female	black	2.7345801830481498	smiling	062	sub-03	1.0	3.0	062_smiling	0.0	181.2353825428154	
27.0	159.2710709230755	face	0.0		145	19.0	male	white	3.2522881018702745	smiling	018	sub-03	1.0	3.0	018_smiling	0.0	181.61026734817005	1.233317868398899
27.0	159.59618922680693	pulse	0.0	t		19.0	male	white	3.2522881018702745	smiling	018	sub-03	1.0	3.0	018_smiling	0.0	181.93538565190147	
27.0	160.2961630561531	pulse	0.0	t		19.0	male	white	3.2522881018702745	smiling	018	sub-03	1.0	3.0	018_smiling	0.0	182.63535948124763	
27.0	160.5043887914744	fix	1.0		444	19.0	male	white	3.2522881018702745	smiling	018	sub-03	1.0	3.0	018_smiling	0.0	182.84358521656895	3.766546599611047
27.0	160.99615077073668	pulse	1.0	t		19.0	male	white	3.2522881018702745	smiling	018	sub-03	1.0	3.0	018_smiling	0.0	183.33534719583122	
27.0	161.69612278896466	pulse	1.0	t		19.0	male	white	3.2522881018702745	smiling	018	sub-03	1.0	3.0	018_smiling	0.0	184.0353192140592	
27.0	162.3961053720477	pulse	1.0	t		19.0	male	white	3.2522881018702745	smiling	018	sub-03	1.0	3.0	018_smiling	0.0	184.73530179714226	
27.0	163.0960843328944	pulse	1.0	t		19.0	male	white	3.2522881018702745	smiling	018	sub-03	1.0	3.0	018_smiling	0.0	185.43528075798895	
27.0	163.79607023636026	pulse	1.0	t		19.0	male	white	3.2522881018702745	smiling	018	sub-03	1.0	3.0	018_smiling	0.0	186.1352666614548	
28.0	164.27093539108546	face	0.0		145	31.0	female	west_asian	2.364902506963788	neutral	006	sub-03	1.0	3.0	006_neutral	0.0	186.61013181618	1.2333281314004125
28.0	164.49605583797256	pulse	0.0	t		31.0	female	west_asian	2.364902506963788	neutral	006	sub-03	1.0	3.0	006_neutral	0.0	186.8352522630671	
28.0	165.19603359140774	pulse	0.0	t		31.0	female	west_asian	2.364902506963788	neutral	006	sub-03	1.0	3.0	006_neutral	0.0	187.53523001650228	
28.0	165.50426352248587	fix	1.0		444	31.0	female	west_asian	2.364902506963788	neutral	006	sub-03	1.0	3.0	006_neutral	0.0	187.8434599475804	3.7582036849607903
28.0	165.89605300055473	pulse	1.0	t		31.0	female	west_asian	2.364902506963788	neutral	006	sub-03	1.0	3.0	006_neutral	0.0	188.23524942564927	
28.0	166.59600087054423	pulse	1.0	t		31.0	female	west_asian	2.364902506963788	neutral	006	sub-03	1.0	3.0	006_neutral	0.0	188.93519729563877	
28.0	167.29597681286123	pulse	1.0	t		31.0	female	west_asian	2.364902506963788	neutral	006	sub-03	1.0	3.0	006_neutral	0.0	189.63517323795577	
28.0	167.99595245332557	pulse	1.0	t		31.0	female	west_asian	2.364902506963788	neutral	006	sub-03	1.0	3.0	006_neutral	0.0	190.3351488784201	
28.0	168.69593473455507	pulse	1.0	t		31.0	female	west_asian	2.364902506963788	neutral	006	sub-03	1.0	3.0	006_neutral	0.0	191.0351311596496	
29.0	169.26246720744666	face	0.0		146	21.0	male	east_asian/white	3.501790688420215	smiling	036	sub-03	1.0	3.0	036_smiling	0.0	191.6016636325412	1.2416465959586276
29.0	169.39592244913865	pulse	0.0	t		21.0	male	east_asian/white	3.501790688420215	smiling	036	sub-03	1.0	3.0	036_smiling	0.0	191.7351188742332	
29.0	170.09589929701497	pulse	0.0	t		21.0	male	east_asian/white	3.501790688420215	smiling	036	sub-03	1.0	3.0	036_smiling	0.0	192.4350957221095	
29.0	170.5041138034053	fix	1.0		444	21.0	male	east_asian/white	3.501790688420215	smiling	036	sub-03	1.0	3.0	036_smiling	0.0	192.84331022849983	3.766550523699607
29.0	170.79588308750954	pulse	1.0	t		21.0	male	east_asian/white	3.501790688420215	smiling	036	sub-03	1.0	3.0	036_smiling	0.0	193.13507951260408	
29.0	171.4958566150026	pulse	1.0	t		21.0	male	east_asian/white	3.501790688420215	smiling	036	sub-03	1.0	3.0	036_smiling	0.0	193.83505304009714	
29.0	172.1958394999383	pulse	1.0	t		21.0	male	east_asian/white	3.501790688420215	smiling	036	sub-03	1.0	3.0	036_smiling	0.0	194.53503592503284	
29.0	172.89581815893234	pulse	1.0	t		21.0	male	east_asian/white	3.501790688420215	smiling	036	sub-03	1.0	3.0	036_smiling	0.0	195.23501458402689	
29.0	173.5958040623982	pulse	1.0	t		21.0	male	east_asian/white	3.501790688420215	smiling	036	sub-03	1.0	3.0	036_smiling	0.0	195.93500048749274	
30.0	174.2706643271049	face	0.0		145	27.0	male	black	3.5523278949462798	neutral	042	sub-03	1.0	3.0	042_neutral	0.0	196.60986075219944	1.2333142461629905
30.0	174.29579479551148	pulse	0.0	t		27.0	male	black	3.5523278949462798	neutral	042	sub-03	1.0	3.0	042_neutral	0.0	196.63499122060603	
30.0	174.99576862485765	pulse	0.0	t		27.0	male	black	3.5523278949462798	neutral	042	sub-03	1.0	3.0	042_neutral	0.0	197.3349650499522	
30.0	175.5039785732679	fix	1.0		443	27.0	male	black	3.5523278949462798	neutral	042	sub-03	1.0	3.0	042_neutral	0.0	197.84317499836243	3.7665499199938495
30.0	175.69575513202926	pulse	1.0	t		27.0	male	black	3.5523278949462798	neutral	042	sub-03	1.0	3.0	042_neutral	0.0	198.0349515571238	
30.0	176.39571930207967	pulse	1.0	t		27.0	male	black	3.5523278949462798	neutral	042	sub-03	1.0	3.0	042_neutral	0.0	198.7349157271742	
30.0	177.09571184631113	pulse	1.0	t		27.0	male	black	3.5523278949462798	neutral	042	sub-03	1.0	3.0	042_neutral	0.0	199.43490827140567	
30.0	177.7956892978932	pulse	1.0	t		27.0	male	black	3.5523278949462798	neutral	042	sub-03	1.0	3.0	042_neutral	0.0	200.13488572298775	
30.0	178.49566101426853	pulse	1.0	t		27.0	male	black	3.5523278949462798	neutral	042	sub-03	1.0	3.0	042_neutral	0.0	200.83485743936308	
30.0	179.1956532566469	pulse	1.0	t		27.0	male	black	3.5523278949462798	neutral	042	sub-03	1.0	3.0	042_neutral	0.0	201.53484968174143	
31.0	179.27052849326174	face	0.0		146	22.0	female	west_asian	3.8205332272184642	smiling	066	sub-03	1.0	3.0	066_smiling	1.0	201.60972491835628	1.2333139443098844
31.0	179.8956427823482	pulse	0.0	t		22.0	female	west_asian	3.8205332272184642	smiling	066	sub-03	1.0	3.0	066_smiling	1.0	202.23483920744275	
31.0	180.50384243757162	fix	1.0		236	22.0	female	west_asian	3.8205332272184642	smiling	066	sub-03	1.0	3.0	066_smiling	1.0	202.84303886266616	1.9999486849924324
31.0	180.5956256672839	pulse	1.0	t		22.0	female	west_asian	3.8205332272184642	smiling	066	sub-03	1.0	3.0	066_smiling	1.0	202.93482209237845	
31.0	181.29559979848318	pulse	1.0	t		22.0	female	west_asian	3.8205332272184642	smiling	066	sub-03	1.0	3.0	066_smiling	1.0	203.63479622357772	
31.0	181.99557302412313	pulse	1.0	t		22.0	female	west_asian	3.8205332272184642	smiling	066	sub-03	1.0	3.0	066_smiling	1.0	204.33476944921767	
31.0	182.50379112256405	rating	2.0		235	22.0	female	west_asian	3.8205332272184642	smiling	066	sub-03	1.0	3.0	066_smiling	1.0	204.8429875476586	1.9999429497861456
31.0	182.69556436094263	pulse	2.0	t		22.0	female	west_asian	3.8205332272184642	smiling	066	sub-03	1.0	3.0	066_smiling	1.0	205.03476078603717	
31.0	183.24554321614096	response	2.0	y		22.0	female	west_asian	3.8205332272184642	smiling	066	sub-03	1.0	3.0	066_smiling	1.0	205.5847396412355	
31.0	183.39552249393364	pulse	2.0	t		22.0	female	west_asian	3.8205332272184642	smiling	066	sub-03	1.0	3.0	066_smiling	1.0	205.73471891902818	
31.0	184.09551926410677	pulse	2.0	t		22.0	female	west_asian	3.8205332272184642	smiling	066	sub-03	1.0	3.0	066_smiling	1.0	206.4347156892013	
31.0	184.5037340723502	fix	3.0		444	22.0	female	west_asian	3.8205332272184642	smiling	066	sub-03	1.0	3.0	066_smiling	1.0	206.84293049744474	3.766550523699607
31.0	184.79550154533672	pulse	3.0	t		22.0	female	west_asian	3.8205332272184642	smiling	066	sub-03	1.0	3.0	066_smiling	1.0	207.13469797043126	
31.0	185.49548080803652	pulse	3.0	t		22.0	female	west_asian	3.8205332272184642	smiling	066	sub-03	1.0	3.0	066_smiling	1.0	207.83467723313106	
31.0	186.19545705220662	pulse	3.0	t		22.0	female	west_asian	3.8205332272184642	smiling	066	sub-03	1.0	3.0	066_smiling	1.0	208.53465347730116	
31.0	186.8954375223184	pulse	3.0	t		22.0	female	west_asian	3.8205332272184642	smiling	066	sub-03	1.0	3.0	066_smiling	1.0	209.23463394741293	
31.0	187.59541980354834	pulse	3.0	t		22.0	female	west_asian	3.8205332272184642	smiling	066	sub-03	1.0	3.0	066_smiling	1.0	209.93461622864288	
32.0	188.2702845960498	face	0.0		145	28.0	male	east_asian	1.5563072025467568	neutral	005	sub-03	1.0	3.0	005_neutral	0.0	210.60948102114435	1.233313642457233
32.0	188.29541597001526	pulse	0.0	t		28.0	male	east_asian	1.5563072025467568	neutral	005	sub-03	1.0	3.0	005_neutral	0.0	210.6346123951098	
32.0	188.99539372345043	pulse	0.0	t		28.0	male	east_asian	1.5563072025467568	neutral	005	sub-03	1.0	3.0	005_neutral	0.0	211.33459014854498	
32.0	189.50359823850704	fix	1.0		443	28.0	male	east_asian	1.5563072025467568	neutral	005	sub-03	1.0	3.0	005_neutral	0.0	211.84279466360158	3.7665387514334725
32.0	189.6953675527966	pulse	1.0	t		28.0	male	east_asian	1.5563072025467568	neutral	005	sub-03	1.0	3.0	005_neutral	0.0	212.03456397789114	
32.0	190.3953504377323	pulse	1.0	t		28.0	male	east_asian	1.5563072025467568	neutral	005	sub-03	1.0	3.0	005_neutral	0.0	212.73454686282685	
32.0	191.09532879487324	pulse	1.0	t		28.0	male	east_asian	1.5563072025467568	neutral	005	sub-03	1.0	3.0	005_neutral	0.0	213.43452521996778	
32.0	191.7953056427491	pulse	1.0	t		28.0	male	east_asian	1.5563072025467568	neutral	005	sub-03	1.0	3.0	005_neutral	0.0	214.13450206784364	
32.0	192.49528339618428	pulse	1.0	t		28.0	male	east_asian	1.5563072025467568	neutral	005	sub-03	1.0	3.0	005_neutral	0.0	214.83447982127882	
32.0	193.19525903664862	pulse	1.0	t		28.0	male	east_asian	1.5563072025467568	neutral	005	sub-03	1.0	3.0	005_neutral	0.0	215.53445546174316	
33.0	193.2701369899405	face	0.0		146	27.0	female	white	4.181058495821727	smiling	039	sub-03	1.0	3.0	039_smiling	0.0	215.60933341503505	1.2333269239879883
33.0	193.89525852349834	pulse	0.0	t		27.0	female	white	4.181058495821727	smiling	039	sub-03	1.0	3.0	039_smiling	0.0	216.23445494859288	
33.0	194.5034639139285	fix	1.0		443	27.0	female	white	4.181058495821727	smiling	039	sub-03	1.0	3.0	039_smiling	0.0	216.84266033902304	3.7665478070230165
33.0	194.59523959731632	pulse	1.0	t		27.0	female	white	4.181058495821727	smiling	039	sub-03	1.0	3.0	039_smiling	0.0	216.93443602241086	
33.0	195.2952119173974	pulse	1.0	t		27.0	female	white	4.181058495821727	smiling	039	sub-03	1.0	3.0	039_smiling	0.0	217.63440834249195	
33.0	195.99519389677425	pulse	1.0	t		27.0	female	white	4.181058495821727	smiling	039	sub-03	1.0	3.0	039_smiling	0.0	218.3343903218688	
33.0	196.6951674242673	pulse	1.0	t		27.0	female	white	4.181058495821727	smiling	039	sub-03	1.0	3.0	039_smiling	0.0	219.03436384936185	
33.0	197.39515634626287	pulse	1.0	t		27.0	female	white	4.181058495821727	smiling	039	sub-03	1.0	3.0	039_smiling	0.0	219.7343527713574	
33.0	198.0951319867272	pulse	1.0	t		27.0	female	white	4.181058495821727	smiling	039	sub-03	1.0	3.0	039_smiling	0.0	220.43432841182175	
34.0	198.27001172095152	face	0.0		146	21.0	male	black	2.969757262236371	neutral	137	sub-03	1.0	3.0	137_neutral	0.0	220.60920814604606	1.2416484070763545
34.0	198.79512422910557	pulse	0.0	t		21.0	male	black	2.969757262236371	neutral	137	sub-03	1.0	3.0	137_neutral	0.0	221.1343206542001	
34.0	199.495092323245	pulse	0.0	t		21.0	male	black	2.969757262236371	neutral	137	sub-03	1.0	3.0	137_neutral	0.0	221.83428874833953	
34.0	199.51166012802787	fix	1.0		443	21.0	male	black	2.969757262236371	neutral	137	sub-03	1.0	3.0	137_neutral	0.0	221.8508565531224	3.758216966492455
34.0	200.1950854711822	pulse	1.0	t		21.0	male	black	2.969757262236371	neutral	137	sub-03	1.0	3.0	137_neutral	0.0	222.53428189627675	
34.0	200.89505960238148	pulse	1.0	t		21.0	male	black	2.969757262236371	neutral	137	sub-03	1.0	3.0	137_neutral	0.0	223.23425602747602	
34.0	201.59503614840423	pulse	1.0	t		21.0	male	black	2.969757262236371	neutral	137	sub-03	1.0	3.0	137_neutral	0.0	223.93423257349878	
34.0	202.2950187314873	pulse	1.0	t		21.0	male	black	2.969757262236371	neutral	137	sub-03	1.0	3.0	137_neutral	0.0	224.63421515658183	
34.0	202.99500252198186	pulse	1.0	t		21.0	male	black	2.969757262236371	neutral	137	sub-03	1.0	3.0	137_neutral	0.0	225.3341989470764	
35.0	203.26987709452033	face	0.0		145	28.0	female	white	5.676880222841227	smiling	124	sub-03	1.0	3.0	124_smiling	0.0	225.60907351961487	1.2333121331921575
35.0	203.69499144397741	pulse	0.0	t		28.0	female	white	5.676880222841227	smiling	124	sub-03	1.0	3.0	124_smiling	0.0	226.03418786907196	
35.0	204.39496285849964	pulse	0.0	t		28.0	female	white	5.676880222841227	smiling	124	sub-03	1.0	3.0	124_smiling	0.0	226.73415928359418	
35.0	204.50318922771248	fix	1.0		444	28.0	female	white	5.676880222841227	smiling	124	sub-03	1.0	3.0	124_smiling	0.0	226.84238565280702	3.766553240376652
35.0	205.0949514786421	pulse	1.0	t		28.0	female	white	5.676880222841227	smiling	124	sub-03	1.0	3.0	124_smiling	0.0	227.43414790373663	
35.0	205.79492530798825	pulse	1.0	t		28.0	female	white	5.676880222841227	smiling	124	sub-03	1.0	3.0	124_smiling	0.0	228.1341217330828	
35.0	206.49489913733441	pulse	1.0	t		28.0	female	white	5.676880222841227	smiling	124	sub-03	1.0	3.0	124_smiling	0.0	228.83409556242896	
35.0	207.1948986241846	pulse	1.0	t		28.0	female	white	5.676880222841227	smiling	124	sub-03	1.0	3.0	124_smiling	0.0	229.53409504927913	
35.0	207.8948682275891	pulse	1.0	t		28.0	female	white	5.676880222841227	smiling	124	sub-03	1.0	3.0	124_smiling	0.0	230.23406465268363	
36.0	208.26974246808913	face	0.0		145	32.0	male	white	2.389176283326701	neutral	092	sub-03	1.0	3.0	092_neutral	0.0	230.60893889318368	1.2333124350448088
36.0	208.59486228108517	pulse	0.0	t		32.0	male	white	2.389176283326701	neutral	092	sub-03	1.0	3.0	092_neutral	0.0	230.9340587061797	
36.0	209.29483550672512	pulse	0.0	t		32.0	male	white	2.389176283326701	neutral	092	sub-03	1.0	3.0	092_neutral	0.0	231.63403193181966	
36.0	209.50305490313394	fix	1.0		444	32.0	male	white	2.389176283326701	neutral	092	sub-03	1.0	3.0	092_neutral	0.0	231.84225132822849	3.7583078242405463
36.0	209.99481778795507	pulse	1.0	t		32.0	male	white	2.389176283326701	neutral	092	sub-03	1.0	3.0	092_neutral	0.0	232.3340142130496	
36.0	210.6948115395985	pulse	1.0	t		32.0	male	white	2.389176283326701	neutral	092	sub-03	1.0	3.0	092_neutral	0.0	233.03400796469305	
36.0	211.39476997444217	pulse	1.0	t		32.0	male	white	2.389176283326701	neutral	092	sub-03	1.0	3.0	092_neutral	0.0	233.7339663995367	
36.0	212.09475225567212	pulse	1.0	t		32.0	male	white	2.389176283326701	neutral	092	sub-03	1.0	3.0	092_neutral	0.0	234.43394868076666	
36.0	212.79473695172555	pulse	1.0	t		32.0	male	white	2.389176283326701	neutral	092	sub-03	1.0	3.0	092_neutral	0.0	235.1339333768201	
37.0	213.2613627273745	face	0.0		146	54.0	female	white	2.286908077994429	neutral	136	sub-03	1.0	3.0	136_neutral	1.0	235.60055915246903	1.2415584548871266
37.0	213.4947288922508	pulse	0.0	t		54.0	female	white	2.286908077994429	neutral	136	sub-03	1.0	3.0	136_neutral	1.0	235.83392531734535	
37.0	214.19470121233235	pulse	0.0	t		54.0	female	white	2.286908077994429	neutral	136	sub-03	1.0	3.0	136_neutral	1.0	236.5338976374269	
37.0	214.50292118226162	fix	1.0		236	54.0	female	white	2.286908077994429	neutral	136	sub-03	1.0	3.0	136_neutral	1.0	236.84211760735616	1.999948383139781
37.0	214.89468922876904	pulse	1.0	t		54.0	female	white	2.286908077994429	neutral	136	sub-03	1.0	3.0	136_neutral	1.0	237.23388565386358	
37.0	215.5946597377324	pulse	1.0	t		54.0	female	white	2.286908077994429	neutral	136	sub-03	1.0	3.0	136_neutral	1.0	237.93385616282694	
37.0	216.2946426226681	pulse	1.0	t		54.0	female	white	2.286908077994429	neutral	136	sub-03	1.0	3.0	136_neutral	1.0	238.63383904776265	
37.0	216.5028695654014	rating	2.0		235	54.0	female	white	2.286908077994429	neutral	136	sub-03	1.0	3.0	136_neutral	1.0	238.84206599049594	1.9999423460799335
37.0	216.9946300353986	pulse	2.0	t		54.0	female	white	2.286908077994429	neutral	136	sub-03	1.0	3.0	136_neutral	1.0	239.33382646049313	
37.0	217.589357388199	response	2.0	b		54.0	female	white	2.286908077994429	neutral	136	sub-03	1.0	3.0	136_neutral	1.0	239.92855381329355	
37.0	217.69460416659786	pulse	2.0	t		54.0	female	white	2.286908077994429	neutral	136	sub-03	1.0	3.0	136_neutral	1.0	240.0338005916924	
37.0	218.3945773922378	pulse	2.0	t		54.0	female	white	2.286908077994429	neutral	136	sub-03	1.0	3.0	136_neutral	1.0	240.73377381733235	
37.0	218.50281191148133	fix	3.0		444	54.0	female	white	2.286908077994429	neutral	136	sub-03	1.0	3.0	136_neutral	1.0	240.84200833657587	3.76654871258188
37.0	219.09457355870518	pulse	3.0	t		54.0	female	white	2.286908077994429	neutral	136	sub-03	1.0	3.0	136_neutral	1.0	241.43376998379972	
37.0	219.7945449732274	pulse	3.0	t		54.0	female	white	2.286908077994429	neutral	136	sub-03	1.0	3.0	136_neutral	1.0	242.13374139832194	
37.0	220.49452906557508	pulse	3.0	t		54.0	female	white	2.286908077994429	neutral	136	sub-03	1.0	3.0	136_neutral	1.0	242.83372549066962	
37.0	221.19450772456912	pulse	3.0	t		54.0	female	white	2.286908077994429	neutral	136	sub-03	1.0	3.0	136_neutral	1.0	243.53370414966366	
37.0	221.89448910023975	pulse	3.0	t		54.0	female	white	2.286908077994429	neutral	136	sub-03	1.0	3.0	136_neutral	1.0	244.2336855253343	
38.0	222.2693606240632	face	0.0		145	22.0	male	black	2.767608436132113	neutral	044	sub-03	1.0	3.0	044_neutral	0.0	244.60855704915775	1.2333133406036723
38.0	222.5944777203822	pulse	0.0	t		22.0	male	black	2.767608436132113	neutral	044	sub-03	1.0	3.0	044_neutral	0.0	244.93367414547674	
38.0	223.2944503423164	pulse	0.0	t		22.0	male	black	2.767608436132113	neutral	044	sub-03	1.0	3.0	044_neutral	0.0	245.63364676741094	
38.0	223.50267396466688	fix	1.0		444	22.0	male	black	2.767608436132113	neutral	044	sub-03	1.0	3.0	044_neutral	0.0	245.84187038976143	3.7665508255531677
38.0	223.99444047172392	pulse	1.0	t		22.0	male	black	2.767608436132113	neutral	044	sub-03	1.0	3.0	044_neutral	0.0	246.33363689681846	
38.0	224.69440856586334	pulse	1.0	t		22.0	male	black	2.767608436132113	neutral	044	sub-03	1.0	3.0	044_neutral	0.0	247.03360499095788	
38.0	225.394393865623	pulse	1.0	t		22.0	male	black	2.767608436132113	neutral	044	sub-03	1.0	3.0	044_neutral	0.0	247.73359029071753	
38.0	226.09437131720506	pulse	1.0	t		22.0	male	black	2.767608436132113	neutral	044	sub-03	1.0	3.0	044_neutral	0.0	248.4335677422996	
38.0	226.79434876878713	pulse	1.0	t		22.0	male	black	2.767608436132113	neutral	044	sub-03	1.0	3.0	044_neutral	0.0	249.13354519388167	
39.0	227.26922479022005	face	0.0		145	24.0	male	white	3.1153999204138483	neutral	012	sub-03	1.0	3.0	012_neutral	0.0	249.6084212153146	1.2333148498687478
39.0	227.49434523710715	pulse	0.0	t		24.0	male	white	3.1153999204138483	neutral	012	sub-03	1.0	3.0	012_neutral	0.0	249.8335416622017	
39.0	228.1943175571887	pulse	0.0	t		24.0	male	white	3.1153999204138483	neutral	012	sub-03	1.0	3.0	012_neutral	0.0	250.53351398228324	
39.0	228.5025396400888	fix	1.0		444	24.0	male	white	3.1153999204138483	neutral	012	sub-03	1.0	3.0	012_neutral	0.0	250.84173606518334	3.749866807370381
39.0	228.89430889400774	pulse	1.0	t		24.0	male	white	3.1153999204138483	neutral	012	sub-03	1.0	3.0	012_neutral	0.0	251.23350531910228	
39.0	229.5942833270601	pulse	1.0	t		24.0	male	white	3.1153999204138483	neutral	012	sub-03	1.0	3.0	012_neutral	0.0	251.93347975215465	
39.0	230.29425987308286	pulse	1.0	t		24.0	male	white	3.1153999204138483	neutral	012	sub-03	1.0	3.0	012_neutral	0.0	252.6334562981774	
39.0	230.99424336172478	pulse	1.0	t		24.0	male	white	3.1153999204138483	neutral	012	sub-03	1.0	3.0	012_neutral	0.0	253.33343978681933	
39.0	231.69421537995322	pulse	1.0	t		24.0	male	white	3.1153999204138483	neutral	012	sub-03	1.0	3.0	012_neutral	0.0	254.03341180504776	
40.0	232.25240644745918	fix	0.0		720												254.59160287255372	5.9998677883927485
40.0	232.39421033900817	pulse	0.0	t													254.7334067641027	
40.0	233.09418748873713	pulse	0.0	t													255.43338391383168	
40.0	233.79417127923216	pulse	0.0	t													256.1333677043267	
40.0	234.49414390116635	pulse	0.0	t													256.8333403262609	
40.0	235.19412648424895	pulse	0.0	t													257.5333229093435	
40.0	235.89411057659663	pulse	0.0	t													258.2333070016912	
40.0	236.59409255597348	pulse	0.0	t													258.933288981068	
40.0	237.29407151682062	pulse	0.0	t													259.63326794191516	
40.0	237.99405047766732	pulse	0.0	t													260.33324690276186	
