trial_nr	onset	event_type	phase	response	nr_frames	rating_type	face_id	repetition	session	rating	onset_abs	duration
0.0	0.010658252516805078	cue	0.0		479						36.78192434750781	3.9921064515192484
0.0	4.0027647040360534	fix	1.0		120						40.77403079902706	1.0251440459405785
0.0	5.027908749976632	face	0.0		146	trustworthiness	024	1.0	1		41.79917484496764	1.2753378378374691
0.0	6.303246587814101	rating	1.0		777	trustworthiness	024	1.0	1		43.07451268280511	6.483902594517531
0.0	12.787149182331632	fix	2.0		60	trustworthiness	024	1.0	1	1.5499999999999998	49.55841527732264	0.5167557545928503
1.0	13.303904936924482	face	0.0		147	trustworthiness	091	1.0	1		50.07517103191549	1.2334667136756252
1.0	14.537371650600107	rating	1.0		183	trustworthiness	091	1.0	1		51.30863774559111	1.5335060757688552
1.0	16.070877726368963	fix	2.0		60	trustworthiness	091	1.0	1	2.8	52.84214382135997	0.5167494156057728
2.0	16.587627141974735	face	0.0		147	trustworthiness	092	1.0	1		53.35889323696574	1.2334594691183156
2.0	17.82108661109305	rating	1.0		102	trustworthiness	092	1.0	1		54.59235270608406	0.8501098154092688
2.0	18.67119642650232	fix	2.0		60	trustworthiness	092	1.0	1	0.0	55.442462521493326	0.5167485100355407
3.0	19.18794493653786	face	0.0		147	trustworthiness	137	1.0	1		55.959211031528866	1.2334567524103477
3.0	20.421401688948208	rating	1.0		143	trustworthiness	137	1.0	1		57.192667783939214	1.2001492982435593
3.0	21.621550987191767	fix	2.0		60	trustworthiness	137	1.0	1	0.8300000000000001	58.39281708218277	0.5167445859015061
4.0	22.138295573093274	face	0.0		147	trustworthiness	172	1.0	1		58.90956166808428	1.2334618839713585
4.0	23.371757457064632	rating	1.0		106	trustworthiness	172	1.0	1		60.14302355205564	0.8834429273802016
4.0	24.255200384444834	fix	2.0		60	trustworthiness	172	1.0	1	-2.73	61.02646647943584	0.5167463970401514
5.0	24.771946781484985	face	0.0		147	trustworthiness	027	1.0	1		61.54321287647599	1.2334609784020358
5.0	26.00540775988702	rating	1.0		202	trustworthiness	027	1.0	1		62.77667385487803	1.6918745049551944
5.0	27.697282264842215	fix	2.0		60	trustworthiness	027	1.0	1	-1.9500000000000002	64.46854835983322	0.516789562525446
6.0	28.21407182736766	face	0.0		147	trustworthiness	130	1.0	1		64.98533792235867	1.2334163036339305
6.0	29.44748813100159	rating	1.0		199	trustworthiness	130	1.0	1		66.2187542259926	1.6668720297311665
6.0	31.11436016073276	fix	2.0		60	trustworthiness	130	1.0	1	0.0	67.88562625572376	0.5167581694458931
7.0	31.63111833017865	face	0.0		147	trustworthiness	039	1.0	1		68.40238442516966	1.2334534319879822
7.0	32.864571762166634	rating	1.0		225	trustworthiness	039	1.0	1		69.63583785715764	1.883562764425733
7.0	34.74813452659237	fix	2.0		60	trustworthiness	039	1.0	1	2.0199999999999996	71.51940062158337	0.5084190807147024
8.0	35.25655360730707	face	0.0		148	trustworthiness	038	1.0	1		72.02781970229807	1.2417973504234396
8.0	36.49835095773051	rating	1.0		127	trustworthiness	038	1.0	1		73.26961705272151	1.0667854572766373
8.0	37.565136415007146	fix	2.0		60	trustworthiness	038	1.0	1	2.24	74.33640250999815	0.5167557545928503
9.0	38.081892169599996	face	0.0		147	trustworthiness	126	1.0	1		74.853158264591	1.2334624876848466
9.0	39.31535465728484	rating	1.0		132	trustworthiness	126	1.0	1		76.08662075227585	1.1084697322412467
9.0	40.42382438952609	fix	2.0		60	trustworthiness	126	1.0	1	-2.26	77.1950904845171	0.5084064027387285
10.0	40.93223079226482	face	0.0		148	trustworthiness	011	1.0	1		77.70349688725582	1.2418009727025492
10.0	42.17403176496737	rating	1.0		242	trustworthiness	011	1.0	1		78.94529785995837	2.0252373196108238
10.0	44.19926908457819	fix	2.0		60	trustworthiness	011	1.0	1	-1.58	80.9705351795692	0.5167473026103835
11.0	44.716016387188574	face	0.0		147	trustworthiness	144	1.0	1		81.48728248217958	1.2334670155323693
11.0	45.949483402720944	rating	1.0		103	trustworthiness	144	1.0	1		82.72074949771195	0.8667704851914095
11.0	46.81625388791235	fix	2.0		60	trustworthiness	144	1.0	1	-1.35	83.58751998290336	0.5167551508802717
12.0	47.333009038792625	face	0.0		147	trustworthiness	066	1.0	1		84.10427513378363	1.233459469119225
12.0	48.56646850791185	rating	1.0		502	trustworthiness	066	1.0	1		85.33773460290286	4.192151609257053
12.0	52.7586201171689	fix	2.0		60	trustworthiness	066	1.0	1	0.009999999999999787	89.52988621215991	0.508416062149081
13.0	53.267036179317984	face	0.0		148	trustworthiness	136	1.0	1		90.03830227430899	1.2418048968374933
13.0	54.50884107615548	rating	1.0		356	trustworthiness	136	1.0	1		91.28010717114648	2.9753485839300993
13.0	57.484189660085576	fix	2.0		60	trustworthiness	136	1.0	1	2.42	94.25545575507658	0.516816125900732
14.0	58.00100578598631	face	0.0		147	trustworthiness	099	1.0	1		94.77227188097731	1.23340030523741
14.0	59.23440609122372	rating	1.0		176	trustworthiness	099	1.0	1		96.00567218621472	1.475193731526815
14.0	60.70959982275053	fix	2.0		61	trustworthiness	099	1.0	1	2.6900000000000004	97.48086591774154	0.525068581805499
15.0	61.23466840455603	face	0.0		146	trustworthiness	030	1.0	1		98.00593449954704	1.225120984100613
15.0	62.459789388656645	rating	1.0		277	trustworthiness	030	1.0	1		99.23105548364765	2.3169424226762203
15.0	64.77673181133287	fix	2.0		60	trustworthiness	030	1.0	1	2.79	101.54799790632387	0.5167584713017277
16.0	65.2934902826346	face	0.0		147	trustworthiness	043	1.0	1		102.0647563776256	1.2334633932541692
16.0	66.52695367588876	rating	1.0		185	trustworthiness	043	1.0	1		103.29821977087977	1.5501751975343723
16.0	68.07712887342313	fix	2.0		60	trustworthiness	043	1.0	1	2.54	104.84839496841414	0.5167509248885835
17.0	68.59387979831172	face	0.0		147	trustworthiness	006	1.0	1		105.36514589330272	1.2334679211026014
17.0	69.82734771941432	rating	1.0		416	trustworthiness	006	1.0	1		106.59861381440533	3.4754575541410304
17.0	73.30280527355535	fix	2.0		60	trustworthiness	006	1.0	1	1.9100000000000001	110.07407136854636	0.5167041371241794
18.0	73.81950941067953	face	0.0		147	trustworthiness	101	1.0	1		110.59077550567054	1.233459469119225
18.0	75.05296887979875	rating	1.0		116	trustworthiness	101	1.0	1		111.82423497478976	0.9751243045229785
18.0	76.02809318432173	fix	2.0		60	trustworthiness	101	1.0	1	-1.71	112.79935927931274	0.5167506230318395
19.0	76.54484380735357	face	0.0		147	trustworthiness	102	1.0	1		113.31610990234458	1.2334543375573048
19.0	77.77829814491088	rating	1.0		152	trustworthiness	102	1.0	1		114.54956423990188	1.275154007205856
19.0	79.05345215211673	fix	2.0		60	trustworthiness	102	1.0	1	3.1500000000000004	115.82471824710774	0.5167482081797061
20.0	79.57020036029644	face	0.0		147	trustworthiness	018	1.0	1		116.34146645528745	1.2334667136756252
20.0	80.80366707397206	rating	1.0		91	trustworthiness	018	1.0	1		117.57493316896307	0.7667590750152158
20.0	81.57042614898728	fix	2.0		60	trustworthiness	018	1.0	1	3.25	118.34169224397829	0.5167436803312739
21.0	82.08716982931855	face	0.0		147	trustworthiness	064	1.0	1		118.85843592430956	1.233468222958436
21.0	83.32063805227699	rating	1.0		271	trustworthiness	064	1.0	1		120.091904147268	2.266938075942562
21.0	85.58757612821955	fix	2.0		60	trustworthiness	064	1.0	1	1.5499999999999998	122.35884222321056	0.5167470007536394
22.0	86.10432312897319	face	0.0		147	trustworthiness	117	1.0	1		122.8755892239642	1.2334649025360704
22.0	87.33778803150926	rating	1.0		177	trustworthiness	117	1.0	1		124.10905412650027	1.4835071624520424
22.0	88.8212951939613	fix	2.0		60	trustworthiness	117	1.0	1	0.0	125.59256128895231	0.5167530378839729
23.0	89.33804823184528	face	0.0		147	trustworthiness	034	1.0	1		126.10931432683628	1.2334612802587799
23.0	90.57150951210406	rating	1.0		242	trustworthiness	034	1.0	1		127.34277560709506	2.025233093618226
23.0	92.59674260572228	fix	2.0		60	trustworthiness	034	1.0	1	1.67	129.3680087007133	0.5167509248885835
24.0	93.11349353061087	face	0.0		147	trustworthiness	070	1.0	1		129.88475962560187	1.2334618839713585
24.0	94.34695541458223	rating	1.0		76	trustworthiness	070	1.0	1		131.11822150957323	0.6417418691926287
24.0	94.98869728377485	fix	2.0		60	trustworthiness	070	1.0	1	-2.98	131.75996337876586	0.5167512267444181
25.0	95.50544851051927	face	0.0		147	trustworthiness	044	1.0	1		132.27671460551028	1.2334606765452918
25.0	96.73890918706456	rating	1.0		174	trustworthiness	044	1.0	1		133.51017528205557	1.4585149503509456
25.0	98.19742413741551	fix	2.0		60	trustworthiness	044	1.0	1	-2.24	134.96869023240652	0.5167497174616074
26.0	98.71417385487712	face	0.0		147	trustworthiness	141	1.0	1		135.48543994986812	1.2334987104695756
26.0	99.94767256534669	rating	1.0		328	trustworthiness	141	1.0	1		136.7189386603377	2.741955825106743
26.0	102.68962839045344	fix	2.0		60	trustworthiness	141	1.0	1	2.0599999999999996	139.46089448544444	0.5167590750143063
27.0	103.20638746546774	face	0.0		147	trustworthiness	012	1.0	1		139.97765356045875	1.2334489041404595
27.0	104.4398363696082	rating	1.0		82	trustworthiness	012	1.0	1		141.2111024645992	0.6917528567701083
27.0	105.13158922637831	fix	2.0		60	trustworthiness	012	1.0	1	2.09	141.90285532136932	0.5167482081797061
28.0	105.64833743455802	face	0.0		147	trustworthiness	087	1.0	1		142.41960352954902	1.2334636951100038
28.0	106.88180112966802	rating	1.0		109	trustworthiness	087	1.0	1		143.65306722465903	0.9167754356394653
28.0	107.79857656530748	fix	2.0		60	trustworthiness	087	1.0	1	3.0599999999999996	144.5698426602985	0.5167515286020716
29.0	108.31532809390956	face	0.0		147	trustworthiness	042	1.0	1		145.08659418890056	1.233454941270793
29.0	109.54878303518035	rating	1.0		115	trustworthiness	042	1.0	1		146.32004913017136	0.9667773675209901
29.0	110.51556040270134	fix	2.0		60	trustworthiness	042	1.0	1	3.3	147.28682649769235	0.5167602824412825
30.0	111.03232068514262	face	0.0		147	trustworthiness	036	1.0	1		147.80358678013363	1.2334543375573048
30.0	112.26577502269993	rating	1.0		427	trustworthiness	036	1.0	1		149.03704111769093	3.567094256515702
30.0	115.83286927921563	fix	2.0		60	trustworthiness	036	1.0	1	1.13	152.60413537420663	0.5167521323146502
31.0	116.34962141153028	face	0.0		147	trustworthiness	124	1.0	1		153.12088750652129	1.2334573561229263
31.0	117.5830787676532	rating	1.0		171	trustworthiness	124	1.0	1		154.3543448626442	1.4335034194309628
31.0	119.01658218708417	fix	2.0		60	trustworthiness	124	1.0	1	3.17	155.78784828207517	0.5167539434532955
32.0	119.53333613053746	face	0.0		147	trustworthiness	005	1.0	1		156.30460222552847	1.2334664118197907
32.0	120.76680254235725	rating	1.0		234	trustworthiness	005	1.0	1		157.53806863734826	1.9585590214046533
32.0	122.72536156376191	fix	2.0		60	trustworthiness	005	1.0	1	2.66	159.4966276587529	0.5167494156057728
33.0	123.24211097936768	face	0.0		147	trustworthiness	062	1.0	1		160.0133770743587	1.2334694303845026
33.0	124.47558040975218	rating	1.0		146	trustworthiness	062	1.0	1		161.2468465047432	1.225140001062755
33.0	125.70072041081494	fix	2.0		60	trustworthiness	062	1.0	1	-1.7599999999999998	162.47198650580594	0.5167593768719598
34.0	126.2174797876869	face	0.0		147	trustworthiness	100	1.0	1		162.9887458826779	1.2334537338447262
34.0	127.45093352153162	rating	1.0		213	trustworthiness	100	1.0	1		164.22219961652263	1.7835510523918856
34.0	129.2344845739235	fix	2.0		60	trustworthiness	100	1.0	1	-1.4700000000000002	166.00575066891452	0.516744284044762
35.0	129.75122885796827	face	0.0		147	trustworthiness	121	1.0	1		166.52249495295928	1.2334612802578704
35.0	130.98469013822614	rating	1.0		295	trustworthiness	121	1.0	1		167.75595623321715	2.4669660278577794
35.0	133.45165616608392	fix	2.0		60	trustworthiness	121	1.0	1	-1.17	170.22292226107493	0.5167473026103835
36.0	133.9684034686943	face	0.0		147	trustworthiness	033	1.0	1		170.7396695636853	1.2334896547727112
36.0	135.20189312346702	rating	1.0		128	trustworthiness	033	1.0	1		171.97315921845802	1.0751058309024302
36.0	136.27699895436945	fix	2.0		60	trustworthiness	033	1.0	1	-3.08	173.04826504936045	0.5167485100364502
37.0	136.7937474644059	face	0.0		147	trustworthiness	009	1.0	1		173.5650135593969	1.2334570542661822
37.0	138.02720451867208	rating	1.0		312	trustworthiness	009	1.0	1		174.79847061366308	2.608645110890393
37.0	140.63584962956247	fix	2.0		60	trustworthiness	009	1.0	1	0.009999999999999787	177.40711572455348	0.516747604466218
38.0	141.1525972340287	face	0.0		147	trustworthiness	082	1.0	1		177.9238633290197	1.233468222958436
38.0	142.38606545698713	rating	1.0		122	trustworthiness	082	1.0	1		179.15733155197813	1.025121406699327
38.0	143.41118686368645	fix	2.0		60	trustworthiness	082	1.0	1	1.4900000000000002	180.18245295867746	0.5167521323146502
39.0	143.9279389960011	face	0.0		147	trustworthiness	061	1.0	1		180.6992050909921	1.2334603746885477
39.0	145.16139937068965	rating	1.0		175	trustworthiness	061	1.0	1		181.93266546568066	1.4668335128371837
39.0	146.62823288352683	fix	2.0		60	trustworthiness	061	1.0	1	0.0	183.39949897851784	0.5000700307173247
40.0	147.12830291424416	cue	0.0		480						183.89956900923517	4.0004714999131465
40.0	151.1287744141573	fix	1.0		120						187.9000405091483	1.01681672961422
40.0	152.14559114377153	face	0.0		147	dominance	102	1.0	1		188.91685723876253	1.233462185827193
40.0	153.37905332959872	rating	1.0		88	dominance	102	1.0	1		190.15031942458972	0.7417538830823105
40.0	154.12080721268103	fix	2.0		60	dominance	102	1.0	1	-1.38	190.89207330767204	0.516744284044762
41.0	154.6375514967258	face	0.0		147	dominance	043	1.0	1		191.4088175917168	1.2334615821146144
41.0	155.8710130788404	rating	1.0		88	dominance	043	1.0	1		192.6422791738314	0.7417584109307427
41.0	156.61277148977115	fix	2.0		60	dominance	043	1.0	1	-2.2199999999999998	193.38403758476215	0.5167473026103835
42.0	157.12951879238153	face	0.0		147	dominance	121	1.0	1		193.90078488737254	1.2334649025360704
42.0	158.3629836949176	rating	1.0		87	dominance	121	1.0	1		195.1342497899086	0.7334144924943757
42.0	159.09639818741198	fix	2.0		60	dominance	121	1.0	1	0.9199999999999999	195.86766428240298	0.5167518304588157
43.0	159.6131500178708	face	0.0		147	dominance	006	1.0	1		196.3844161128618	1.2334591672615716
43.0	160.84660918513237	rating	1.0		67	dominance	006	1.0	1		197.61787528012337	0.5667416880787641
43.0	161.41335087321113	fix	2.0		60	dominance	006	1.0	1	1.6900000000000004	198.18461696820214	0.5167506230318395
44.0	161.93010149624297	face	0.0		147	dominance	124	1.0	1		198.70136759123397	1.2334522245619155
44.0	163.16355372080488	rating	1.0		134	dominance	124	1.0	1		199.9348198157959	1.1251337224466624
44.0	164.28868744325155	fix	2.0		60	dominance	124	1.0	1	1.2400000000000002	201.05995353824255	0.5167578675882396
45.0	164.8054453108398	face	0.0		147	dominance	137	1.0	1		201.5767114058308	1.2334564505536036
45.0	166.0389017613934	rating	1.0		156	dominance	137	1.0	1		202.8101678563844	1.308494363735008
45.0	167.3473961251284	fix	2.0		60	dominance	137	1.0	1	0.0	204.1186622201194	0.5167509248885835
46.0	167.86414705001698	face	0.0		147	dominance	092	1.0	1		204.635413145008	1.2334534319879822
46.0	169.09760048200496	rating	1.0		92	dominance	092	1.0	1		205.86886657699597	0.7750912210458409
46.0	169.8726917030508	fix	2.0		60	dominance	092	1.0	1	-2.58	206.6439577980418	0.516757565732405
47.0	170.3894492687832	face	0.0		147	dominance	141	1.0	1		207.16071536377422	1.2334603746885477
47.0	171.62290964347176	rating	1.0		95	dominance	141	1.0	1		208.39417573846276	0.8001115058050345
47.0	172.4230211492768	fix	2.0		60	dominance	141	1.0	1	-3.5	209.1942872442678	0.5167276819347535
48.0	172.93974883121155	face	0.0		147	dominance	061	1.0	1		209.71101492620255	1.2334612802587799
48.0	174.17321011147033	rating	1.0		112	dominance	061	1.0	1		210.94447620646133	0.941776703436517
48.0	175.11498681490684	fix	2.0		60	dominance	061	1.0	1	-3.13	211.88625290989785	0.5167491137490288
49.0	175.63173592865587	face	0.0		147	dominance	070	1.0	1		212.40300202364688	1.2334639969667478
49.0	176.86519992562262	rating	1.0		127	dominance	070	1.0	1		213.63646602061363	1.0667911925511362
49.0	177.93199111817376	fix	2.0		60	dominance	070	1.0	1	2.96	214.70325721316476	0.5167563583063384
50.0	178.4487474764801	face	0.0		147	dominance	034	1.0	1		215.2200135714711	1.2334567524094382
50.0	179.68220422888953	rating	1.0		105	dominance	034	1.0	1		216.45347032388054	0.8834356828238015
50.0	180.56563991171333	fix	2.0		60	dominance	034	1.0	1	-1.3399999999999999	217.33690600670434	0.5168040516391557
51.0	181.0824439633525	face	0.0		147	dominance	038	1.0	1		217.8537100583435	1.2334169073474186
51.0	182.3158608706999	rating	1.0		241	dominance	038	1.0	1		219.0871269656909	2.016905173579289
51.0	184.3327660442792	fix	2.0		60	dominance	038	1.0	1	-2.6	221.1040321392702	0.5167527360272288
52.0	184.84951878030643	face	0.0		147	dominance	082	1.0	1		221.62078487529743	1.2334531301321476
52.0	186.08297191043857	rating	1.0		246	dominance	082	1.0	1		222.85423800542958	2.0585858262656984
52.0	188.14155773670427	fix	2.0		61	dominance	082	1.0	1	-1.6400000000000001	224.91282383169528	0.5250809579238194
53.0	188.6666386946281	face	0.0		146	dominance	042	1.0	1		225.4379047896191	1.225124304522069
53.0	189.89176299915016	rating	1.0		77	dominance	042	1.0	1		226.66302909414117	0.6500776375023634
53.0	190.54184063665252	fix	2.0		60	dominance	042	1.0	1	-2.09	227.31310673164353	0.5167497174616074
54.0	191.05859035411413	face	0.0		147	dominance	044	1.0	1		227.82985644910514	1.2334606765452918
54.0	192.29205103065942	rating	1.0		91	dominance	044	1.0	1		229.06331712565043	0.766757263875661
54.0	193.05880829453508	fix	2.0		60	dominance	044	1.0	1	-1.7599999999999998	229.8300743895261	0.5167711492767921
55.0	193.57557944381188	face	0.0		147	dominance	066	1.0	1		230.34684553880288	1.2334401503003392
55.0	194.80901959411221	rating	1.0		118	dominance	066	1.0	1		231.58028568910322	0.9917849743060287
55.0	195.80080456841824	fix	2.0		60	dominance	066	1.0	1	3.1900000000000004	232.57207066340925	0.5167494156057728
56.0	196.31755398402402	face	0.0		147	dominance	027	1.0	1		233.08882007901502	1.233468222958436
56.0	197.55102220698245	rating	1.0		127	dominance	027	1.0	1		234.32228830197346	1.0667930036897815
56.0	198.61781521067223	fix	2.0		60	dominance	027	1.0	1	-1.8199999999999998	235.38908130566324	0.5167530378839729
57.0	199.1345682485562	face	0.0		147	dominance	030	1.0	1		235.9058343435472	1.2334519227051715
57.0	200.36802017126138	rating	1.0		338	dominance	030	1.0	1		237.13928626625238	2.825346108706981
57.0	203.19336627996836	fix	2.0		60	dominance	030	1.0	1	1.6900000000000004	239.96463237495936	0.5167500193192609
58.0	203.71011629928762	face	0.0		147	dominance	033	1.0	1		240.48138239427863	1.2334754675157455
58.0	204.94359176680337	rating	1.0		157	dominance	033	1.0	1		241.71485786179437	1.3168087002295579
58.0	206.26040046703292	fix	2.0		60	dominance	033	1.0	1	3.4699999999999998	243.03166656202393	0.5167427747619513
59.0	206.77714324179487	face	0.0		147	dominance	136	1.0	1		243.54840933678588	1.233467921101692
59.0	208.01061116289657	rating	1.0		76	dominance	136	1.0	1		244.78187725788757	0.6417427747619513
59.0	208.65235393765852	fix	2.0		60	dominance	136	1.0	1	2.2	245.42362003264952	0.5167460951843168
60.0	209.16910003284283	face	0.0		147	dominance	018	1.0	1		245.94036612783384	1.233462487683937
60.0	210.40256252052677	rating	1.0		78	dominance	018	1.0	1		247.17382861551778	0.6584134058111886
60.0	211.06097592633796	fix	2.0		60	dominance	018	1.0	1	-2.77	247.83224202132897	0.5167448877573406
61.0	211.5777208140953	face	0.0		147	dominance	172	1.0	1		248.3489869090863	1.2334999178947328
61.0	212.81122073199003	rating	1.0		111	dominance	172	1.0	1		249.58248682698104	0.933403203060152
61.0	213.74462393505019	fix	2.0		60	dominance	172	1.0	1	2.7	250.5158900300412	0.5167569620198265
62.0	214.26138089707	face	0.0		147	dominance	130	1.0	1		251.03264699206102	1.233462185827193
62.0	215.4948430828972	rating	1.0		71	dominance	130	1.0	1		252.2661091778882	0.6000651406411635
62.0	216.09490822353837	fix	2.0		60	dominance	130	1.0	1	-2.27	252.86617431852937	0.5167497174625169
63.0	216.61165794100089	face	0.0		147	dominance	005	1.0	1		253.3829240359919	1.2334603746885477
63.0	217.84511831568943	rating	1.0		84	dominance	005	1.0	1		254.61638441068044	0.708416243262036
63.0	218.55353455895147	fix	2.0		60	dominance	005	1.0	1	-2.67	255.32480065394248	0.5167853365337578
64.0	219.07031989548523	face	0.0		147	dominance	126	1.0	1		255.84158599047623	1.2334262649001175
64.0	220.30374616038534	rating	1.0		203	dominance	126	1.0	1		257.07501225537635	1.7002033305643636
64.0	222.0039494909497	fix	2.0		60	dominance	126	1.0	1	2.09	258.7752155859407	0.5167509248885835
65.0	222.5207004158383	face	0.0		147	dominance	011	1.0	1		259.2919665108293	1.2334664118188812
65.0	223.75416682765717	rating	1.0		175	dominance	011	1.0	1		260.5254329226482	1.4668401536810052
65.0	225.22100698133818	fix	2.0		60	dominance	011	1.0	1	-1.6800000000000002	261.9922730763292	0.5167850346779232
66.0	225.7377920160161	face	0.0		147	dominance	062	1.0	1		262.5090581110071	1.2334217370507758
66.0	226.97121375306688	rating	1.0		57	dominance	062	1.0	1		263.7424798480579	0.4833867216939325
66.0	227.4546004747608	fix	2.0		60	dominance	062	1.0	1	1.6600000000000001	264.2258665697518	0.5167608861538611
67.0	227.97136136091467	face	0.0		147	dominance	099	1.0	1		264.7426274559057	1.2334555449833715
67.0	229.20481690589804	rating	1.0		96	dominance	099	1.0	1		265.97608300088905	0.808426144157238
67.0	230.01324305005528	fix	2.0		60	dominance	099	1.0	1	2.08	266.7845091450463	0.5167599805845384
68.0	230.53000303063982	face	0.0		147	dominance	117	1.0	1		267.3012691256308	1.2334597709759691
68.0	231.7634628016158	rating	1.0		136	dominance	117	1.0	1		268.5347288966068	1.1417937885162246
68.0	232.905256590132	fix	2.0		60	dominance	117	1.0	1	-2.6799999999999997	269.676522685123	0.5167596787287039
69.0	233.42201626886072	face	0.0		147	dominance	012	1.0	1		270.1932823638517	1.2334513189916834
69.0	234.6554675878524	rating	1.0		300	dominance	012	1.0	1		271.4267336828434	2.5086352099961005
69.0	237.1641027978485	fix	2.0		60	dominance	012	1.0	1	1.0999999999999996	273.9353688928395	0.5167497174625169
70.0	237.68085251531102	face	0.0		147	dominance	024	1.0	1		274.452118610302	1.2334609784011263
70.0	238.91431349371214	rating	1.0		94	dominance	024	1.0	1		275.68557958870315	0.791766681799345
70.0	239.7060801755115	fix	2.0		60	dominance	024	1.0	1	2.49	276.4773462705025	0.5167660177157813
71.0	240.22284619322727	face	0.0		147	dominance	036	1.0	1		276.9941122882183	1.2334440744352833
71.0	241.45629026766255	rating	1.0		76	dominance	036	1.0	1		278.22755636265356	0.6417424729052073
71.0	242.09803274056776	fix	2.0		60	dominance	036	1.0	1	-2.0300000000000002	278.86929883555877	0.5167494156057728
72.0	242.61478215617353	face	0.0		147	dominance	087	1.0	1		279.38604825116454	1.2334615821146144
72.0	243.84824373828815	rating	1.0		146	dominance	087	1.0	1		280.61950983327915	1.2251396992060108
72.0	245.07338343749416	fix	2.0		60	dominance	087	1.0	1	-1.75	281.84464953248516	0.5167497174625169
73.0	245.59013315495667	face	0.0		147	dominance	064	1.0	1		282.3613992499477	1.233468222958436
73.0	246.8236013779151	rating	1.0		164	dominance	064	1.0	1		283.5948674729061	1.375166624809026
73.0	248.19876800272414	fix	2.0		60	dominance	064	1.0	1	1.6900000000000004	284.97003409771514	0.5167479063229621
74.0	248.7155159090471	face	0.0		147	dominance	101	1.0	1		285.4867820040381	1.2334543375582143
74.0	249.9489702466053	rating	1.0		94	dominance	101	1.0	1		286.7202363415963	0.7917597390987794
74.0	250.7407299857041	fix	2.0		60	dominance	101	1.0	1	3.01	287.5119960806951	0.5167530378848824
75.0	251.25748302358897	face	0.0		147	dominance	039	1.0	1		288.02874911858	1.2334573561229263
75.0	252.4909403797119	rating	1.0		229	dominance	039	1.0	1		289.2622064747029	1.9168952726849966
75.0	254.4078356523969	fix	2.0		60	dominance	039	1.0	1	0.9400000000000004	291.1791017473879	0.5167503211750955
76.0	254.924585973572	face	0.0		147	dominance	091	1.0	1		291.695852068563	1.233468222958436
76.0	256.15805419653043	rating	1.0		89	dominance	091	1.0	1		292.92932029152144	0.7500878402533999
76.0	256.90814203678383	fix	2.0		60	dominance	091	1.0	1	-1.27	293.67940813177484	0.5167430766177858
77.0	257.4248851134016	face	0.0		147	dominance	100	1.0	1		294.1961512083926	1.2334621858281025
77.0	258.6583472992297	rating	1.0		178	dominance	100	1.0	1		295.4296133942207	1.4918429307608676
77.0	260.1501902299906	fix	2.0		60	dominance	100	1.0	1	2.29	296.9214563249816	0.5167515286020716
78.0	260.66694175859266	face	0.0		147	dominance	144	1.0	1		297.43820785358366	1.2334603746885477
78.0	261.9004021332812	rating	1.0		47	dominance	144	1.0	1		298.6716682282722	0.400045942565157
78.0	262.30044807584636	fix	2.0		60	dominance	144	1.0	1	0.009999999999999787	299.07171417083737	0.5167602824412825
79.0	262.81720835828764	face	0.0		147	dominance	009	1.0	1		299.58847445327865	1.2334531301312381
79.0	264.0506614884189	rating	1.0		74	dominance	009	1.0	1		300.8219275834099	0.6250730492820367
79.0	264.6757345377009	fix	2.0		60	dominance	009	1.0	1	0.5800000000000001	301.4470006326919	0.5000673140084473
80.0	265.17580185170937	cue	0.0		480						301.9470679467004	4.000480555609101
80.0	269.17628240731847	fix	1.0		120						305.9475485023095	1.0168013349302782
80.0	270.19308374224875	face	0.0		147	attractiveness	006	1.0	1		306.96434983723975	1.2334606765452918
80.0	271.42654441879404	rating	1.0		106	attractiveness	006	1.0	1		308.19781051378504	0.8917808086853256
80.0	272.31832522747936	fix	2.0		60	attractiveness	006	1.0	1	-2.69	309.08959132247037	0.5167518304579062
81.0	272.83507705793727	face	0.0		147	attractiveness	066	1.0	1		309.6063431529283	1.233451620849337
81.0	274.0685286787866	rating	1.0		171	attractiveness	066	1.0	1		310.8397947737776	1.433530284662993
81.0	275.5020589634496	fix	2.0		60	attractiveness	066	1.0	1	1.2199999999999998	312.2733250584406	0.516724663369132
82.0	276.01878362681873	face	0.0		147	attractiveness	102	1.0	1		312.79004972180974	1.2334618839713585
82.0	277.2522455107901	rating	1.0		108	attractiveness	102	1.0	1		314.0235116057811	0.9084381580469199
82.0	278.160683668837	fix	2.0		60	attractiveness	102	1.0	1	-2.99	314.931949763828	0.5167521323146502
83.0	278.67743580115166	face	0.0		147	attractiveness	087	1.0	1		315.44870189614267	1.2334603746885477
83.0	279.9108961758402	rating	1.0		71	attractiveness	087	1.0	1		316.6821622708312	0.6000711777714969
83.0	280.5109673536117	fix	2.0		60	attractiveness	087	1.0	1	0.7199999999999998	317.2822334486027	0.5167551508802717
84.0	281.027722504492	face	0.0		147	attractiveness	082	1.0	1		317.798988599483	1.2334540357014703
84.0	282.26117654019345	rating	1.0		52	attractiveness	082	1.0	1		319.03244263518445	0.44172025626357936
84.0	282.702896796457	fix	2.0		60	attractiveness	082	1.0	1	1.2400000000000002	319.47416289144803	0.5167494156057728
85.0	283.2196462120628	face	0.0		147	attractiveness	141	1.0	1		319.9909123070538	1.2334618839713585
85.0	284.45310809603416	rating	1.0		79	attractiveness	141	1.0	1		321.22437419102516	0.6667527963991233
85.0	285.1198608924333	fix	2.0		60	attractiveness	141	1.0	1	-2.37	321.8911269874243	0.516743982188018
86.0	285.6366048746213	face	0.0		147	attractiveness	136	1.0	1		322.4078709696123	1.2334896547727112
86.0	286.870094529394	rating	1.0		158	attractiveness	136	1.0	1		323.641360624385	1.3251269608599614
86.0	288.19522149025397	fix	2.0		60	attractiveness	136	1.0	1	-3.27	324.966487585245	0.5167512267453276
87.0	288.7119727169993	face	0.0		147	attractiveness	024	1.0	1		325.4832388119903	1.2334670155323693
87.0	289.94543973253167	rating	1.0		89	attractiveness	024	1.0	1		326.7167058275227	0.7500824068347356
87.0	290.6955221393664	fix	2.0		60	attractiveness	024	1.0	1	-2.9299999999999997	327.4667882343574	0.5167518304579062
88.0	291.2122739698243	face	0.0		147	attractiveness	091	1.0	1		327.9835400648153	1.233458563548993
88.0	292.4457325333733	rating	1.0		88	attractiveness	091	1.0	1		329.2169986283643	0.7417541849390545
88.0	293.18748671831236	fix	2.0		60	attractiveness	091	1.0	1	-0.029999999999999805	329.95875281330336	0.5167602824412825
89.0	293.70424700075364	face	0.0		147	attractiveness	126	1.0	1		330.47551309574465	1.2334510171358488
89.0	294.9376980178895	rating	1.0		117	attractiveness	126	1.0	1		331.7089641128805	0.9834495078530381
89.0	295.9211475257425	fix	2.0		61	attractiveness	126	1.0	1	1.3899999999999997	332.69241362073353	0.5250869950550623
90.0	296.4462345207976	face	0.0		146	attractiveness	064	1.0	1		333.2175006157886	1.225124304522069
90.0	297.67135882531966	rating	1.0		87	attractiveness	064	1.0	1		334.44262492031066	0.7334205296256187
90.0	298.4047793549453	fix	2.0		60	attractiveness	064	1.0	1	-3.26	335.1760454499363	0.5167578675882396
91.0	298.9215372225335	face	0.0		147	attractiveness	044	1.0	1		335.6928033175245	1.2334489041404595
91.0	300.154986126674	rating	1.0		59	attractiveness	044	1.0	1		336.926252221665	0.500062182446527
91.0	300.6550483091205	fix	2.0		60	attractiveness	044	1.0	1	0.0	337.4263144041115	0.5167518304588157
92.0	301.1718001395793	face	0.0		147	attractiveness	130	1.0	1		337.9430662345703	1.2334633932532597
92.0	302.4052635328326	rating	1.0		96	attractiveness	130	1.0	1		339.1765296278236	0.8084243330176832
92.0	303.21368786585026	fix	2.0		61	attractiveness	130	1.0	1	-3.11	339.98495396084127	0.5250854857722516
93.0	303.7387733516225	face	0.0		146	attractiveness	144	1.0	1		340.5100394466135	1.2251270212309464
93.0	304.96390037285346	rating	1.0		208	attractiveness	144	1.0	1		341.73516646784446	1.7418761349808847
93.0	306.70577650783434	fix	2.0		60	attractiveness	144	1.0	1	0.009999999999999787	343.47704260282535	0.5167566601621729
94.0	307.2225331679965	face	0.0		147	attractiveness	100	1.0	1		343.9937992629875	1.2335071624520424
94.0	308.45604033044856	rating	1.0		97	attractiveness	100	1.0	1		345.22730642543956	0.8167075782894244
94.0	309.272747908738	fix	2.0		60	attractiveness	100	1.0	1	1.38	346.044014003729	0.516757263875661
95.0	309.78950517261364	face	0.0		147	attractiveness	018	1.0	1		346.56077126760465	1.233461582115524
95.0	311.02296675472917	rating	1.0		155	attractiveness	018	1.0	1		347.7942328497202	1.3001477285897636
95.0	312.32311448331893	fix	2.0		60	attractiveness	018	1.0	1	1.4400000000000004	349.09438057830994	0.5167518304579062
96.0	312.83986631377684	face	0.0		147	attractiveness	099	1.0	1		349.61113240876784	1.233459167262481
96.0	314.0733254810393	rating	1.0		152	attractiveness	099	1.0	1		350.8445915760303	1.2751521960663013
96.0	315.3484776771056	fix	2.0		60	attractiveness	099	1.0	1	0.9400000000000004	352.1197437720966	0.5167783938331922
97.0	315.8652560709388	face	0.0		147	attractiveness	033	1.0	1		352.6365221659298	1.2334398484445046
97.0	317.0986959193833	rating	1.0		123	attractiveness	033	1.0	1		353.8699620143743	1.0334493267391736
97.0	318.1321452461225	fix	2.0		60	attractiveness	033	1.0	1	2.29	354.9034113411135	0.5167566601621729
98.0	318.64890190628466	face	0.0		147	attractiveness	062	1.0	1		355.42016800127567	1.2334537338447262
98.0	319.8823556401294	rating	1.0		180	attractiveness	062	1.0	1		356.6536217351204	1.508518089658537
98.0	321.3908737297879	fix	2.0		60	attractiveness	062	1.0	1	-2.77	358.16213982477893	0.5167545471667836
99.0	321.9076282769547	face	0.0		147	attractiveness	005	1.0	1		358.6788943719457	1.2334585635499025
99.0	323.1410868405046	rating	1.0		174	attractiveness	005	1.0	1		359.9123529354956	1.4585058946540812
99.0	324.5995927351587	fix	2.0		60	attractiveness	005	1.0	1	-3.84	361.3708588301497	0.5167427747619513
100.0	325.11633550992065	face	0.0		147	attractiveness	012	1.0	1		361.88760160491165	1.2334633932541692
100.0	326.3497989031748	rating	1.0		191	attractiveness	012	1.0	1		363.1210649981658	1.6001916185305163
100.0	327.94999052170533	fix	2.0		60	attractiveness	012	1.0	1	1.7599999999999998	364.72125661669634	0.516753641597461
101.0	328.4667441633028	face	0.0		147	attractiveness	042	1.0	1		365.2380102582938	1.233458261692249
101.0	329.70020242499504	rating	1.0		86	attractiveness	042	1.0	1		366.47146851998605	0.725084761315884
101.0	330.4252871863109	fix	2.0		60	attractiveness	042	1.0	1	2.21	367.19655328130193	0.5167491137490288
102.0	330.94203630005995	face	0.0		147	attractiveness	101	1.0	1		367.71330239505096	1.2334679211026014
102.0	332.17550422116256	rating	1.0		112	attractiveness	101	1.0	1		368.94677031615356	0.9417779108625837
102.0	333.11728213202514	fix	2.0		60	attractiveness	101	1.0	1	2.25	369.88854822701614	0.5167470007536394
103.0	333.6340291327788	face	0.0		147	attractiveness	027	1.0	1		370.4052952277698	1.2334576579796703
103.0	334.86748679075845	rating	1.0		195	attractiveness	027	1.0	1		371.63875288574945	1.6335343899118016
103.0	336.50102118067025	fix	2.0		60	attractiveness	027	1.0	1	1.9299999999999997	373.27228727566126	0.5167684325670052
104.0	337.01778961323726	face	0.0		147	attractiveness	034	1.0	1		373.78905570822826	1.2334413577273153
104.0	338.25123097096457	rating	1.0		106	attractiveness	034	1.0	1		375.0224970659556	0.891766923285104
104.0	339.1429978942497	fix	2.0		60	attractiveness	034	1.0	1	0.0	375.9142639892407	0.5167536415965515
105.0	339.6597515358462	face	0.0		147	attractiveness	121	1.0	1		376.43101763083723	1.2334561486968596
105.0	340.8932076845431	rating	1.0		154	attractiveness	121	1.0	1		377.6644737795341	1.2918216196903813
105.0	342.18502930423347	fix	2.0		60	attractiveness	121	1.0	1	0.4800000000000004	378.9562953992245	0.5167521323146502
106.0	342.7017814365481	face	0.0		147	attractiveness	172	1.0	1		379.4730475315391	1.233458261692249
106.0	343.93523969824037	rating	1.0		71	attractiveness	172	1.0	1		380.7065057932314	0.6000772149027398
106.0	344.5353169131431	fix	2.0		60	attractiveness	172	1.0	1	-3.73	381.3065830081341	0.5167436803312739
107.0	345.0520605934744	face	0.0		147	attractiveness	038	1.0	1		381.8233266884654	1.233468222958436
107.0	346.2855288164328	rating	1.0		154	attractiveness	038	1.0	1		383.0567949114238	1.291813167707005
107.0	347.5773419841398	fix	2.0		60	attractiveness	038	1.0	1	-3.78	384.3486080791308	0.516757565732405
108.0	348.0940995498722	face	0.0		147	attractiveness	061	1.0	1		384.86536564486323	1.2334546394140489
108.0	349.3275541892863	rating	1.0		73	attractiveness	061	1.0	1		386.0988202842773	0.6167550905083772
108.0	349.94430927979465	fix	2.0		60	attractiveness	061	1.0	1	-2.69	386.71557537478566	0.5167364357748738
109.0	350.4610457155695	face	0.0		147	attractiveness	137	1.0	1		387.23231181056053	1.2334600728318037
109.0	351.69450578840133	rating	1.0		116	attractiveness	137	1.0	1		388.46577188339234	0.9751179655349915
109.0	352.6696237539363	fix	2.0		60	attractiveness	137	1.0	1	-1.6400000000000001	389.4408898489273	0.5167491137499383
110.0	353.18637286768626	face	0.0		147	attractiveness	030	1.0	1		389.95763896267727	1.2334664118188812
110.0	354.41983927950514	rating	1.0		81	attractiveness	030	1.0	1		391.19110537449615	0.683403504916896
110.0	355.10324278442204	fix	2.0		60	attractiveness	030	1.0	1	0.9299999999999997	391.87450887941304	0.5167584713017277
111.0	355.62000125572376	face	0.0		147	attractiveness	009	1.0	1		392.39126735071477	1.233462185827193
111.0	356.85346344155096	rating	1.0		153	attractiveness	009	1.0	1		393.62472953654196	1.2834777012540144
111.0	358.136941142805	fix	2.0		60	attractiveness	009	1.0	1	1.21	394.908207237796	0.5167554527370157
112.0	358.653696595542	face	0.0		147	attractiveness	070	1.0	1		395.424962690533	1.2334558468401156
112.0	359.8871524423821	rating	1.0		113	attractiveness	070	1.0	1		396.6584185373731	0.9501124717462517
112.0	360.83726491412835	fix	2.0		60	attractiveness	070	1.0	1	-3.91	397.60853100911936	0.516753641597461
113.0	361.3540185557258	face	0.0		147	attractiveness	011	1.0	1		398.1252846507168	1.2334579598355049
113.0	362.5874765155613	rating	1.0		161	attractiveness	011	1.0	1		399.3587426105523	1.3501686774343398
113.0	363.93764519299566	fix	2.0		60	attractiveness	011	1.0	1	-1.73	400.70891128798667	0.5167690362804933
114.0	364.45441422927615	face	0.0		147	attractiveness	036	1.0	1		401.22568032426716	1.233435622451907
114.0	365.68784985172806	rating	1.0		135	attractiveness	036	1.0	1		402.45911594671907	1.1334710000392079
114.0	366.82132085176727	fix	2.0		60	attractiveness	036	1.0	1	-1.38	403.5925869467583	0.5167530378839729
115.0	367.33807388965124	face	0.0		147	attractiveness	124	1.0	1		404.10933998464225	1.2334534319879822
115.0	368.5715273216392	rating	1.0		141	attractiveness	124	1.0	1		405.34279341663023	1.1834732337774767
115.0	369.7550005554167	fix	2.0		60	attractiveness	124	1.0	1	3.88	406.5262666504077	0.516757565732405
116.0	370.2717581211491	face	0.0		147	attractiveness	092	1.0	1		407.0430242161401	1.2334709396673134
116.0	371.5052290608164	rating	1.0		123	attractiveness	092	1.0	1		408.2764951558074	1.0334402710423092
116.0	372.5386693318587	fix	2.0		60	attractiveness	092	1.0	1	-2.5700000000000003	409.30993542684973	0.5167488118931942
117.0	373.0554181437519	face	0.0		147	attractiveness	117	1.0	1		409.8266842387429	1.233514105152608
117.0	374.28893224890453	rating	1.0		114	attractiveness	117	1.0	1		411.06019834389554	0.9583923965956274
117.0	375.24732464550016	fix	2.0		60	attractiveness	117	1.0	1	-2.38	412.01859074049116	0.5167527360272288
118.0	375.7640773815274	face	0.0		147	attractiveness	039	1.0	1		412.5353434765184	1.233487843634066
118.0	376.99756522516145	rating	1.0		77	attractiveness	039	1.0	1		413.76883132015246	0.6500537908350452
118.0	377.6476190159965	fix	2.0		60	attractiveness	039	1.0	1	-1.98	414.4188851109875	0.5167466988968954
119.0	378.1643657148934	face	0.0		147	attractiveness	043	1.0	1		414.9356318098844	1.233458865405737
119.0	379.39782458029913	rating	1.0		79	attractiveness	043	1.0	1		416.16909067529014	0.6667467592678804
119.0	380.064571339567	fix	2.0		60	attractiveness	043	1.0	1	-3.2199999999999998	416.835837434558	0.5000655028688925
120.0	380.5646368424359	cue	0.0		3600						417.3359029374269	30.003590885381527
120.0	410.56822772781743	fix	1.0		120						447.33949382280844	1.0001189314762087
120.0	411.56834665929364	cue	0.0		480						448.33961275428464	4.0004862908836
120.0	415.56883295017724	fix	1.0		120						452.34009904516824	1.0168128054783665
120.0	416.5856457556556	face	0.0		147	dominance	137	2.0	1		453.3569118506466	1.2334513189925929
120.0	417.8190970746482	rating	1.0		123	dominance	137	2.0	1		454.5903631696392	1.0334662307059261
120.0	418.8525633053541	fix	2.0		60	dominance	137	2.0	1	1.3099999999999996	455.62382940034513	0.5167421710484632
121.0	419.3693054764026	face	0.0		147	dominance	172	2.0	1		456.1405715713936	1.2334642988234918
121.0	420.6027697752261	rating	1.0		102	dominance	172	2.0	1		457.3740358702171	0.8584292834648295
121.0	421.4611990586909	fix	2.0		60	dominance	172	2.0	1	3.08	458.2324651536819	0.5167488118931942
122.0	421.9779478705841	face	0.0		147	dominance	064	2.0	1		458.7492139655751	1.2334615821146144
122.0	423.2114094526987	rating	1.0		207	dominance	064	2.0	1		459.9826755476897	1.733540064814406
122.0	424.9449495175131	fix	2.0		60	dominance	064	2.0	1	0.04999999999999982	461.71621561250413	0.5167506230318395
123.0	425.46170014054496	face	0.0		147	dominance	101	2.0	1		462.23296623553597	1.2334706378105693
123.0	426.69517077835553	rating	1.0		106	dominance	101	2.0	1		463.46643687334654	0.891770545563304
123.0	427.58694132391884	fix	2.0		60	dominance	101	2.0	1	2.9699999999999998	464.35820741890984	0.516750321176005
124.0	428.10369164509484	face	0.0		147	dominance	124	2.0	1		464.87495774008585	1.2334594691183156
124.0	429.33715111421316	rating	1.0		201	dominance	124	2.0	1		466.10841720920416	1.6835260586713048
124.0	431.02067717288446	fix	2.0		60	dominance	124	2.0	1	1.3099999999999996	467.79194326787547	0.5167500193192609
125.0	431.5374271922037	face	0.0		147	dominance	092	2.0	1		468.3086932871947	1.2334612802578704
125.0	432.7708884724616	rating	1.0		53	dominance	092	2.0	1		469.5421545674526	0.45005934499567957
125.0	433.2209478174573	fix	2.0		60	dominance	092	2.0	1	-2.85	469.9922139124483	0.5167448877573406
126.0	433.7376927052146	face	0.0		147	dominance	011	2.0	1		470.5089588002056	1.2334597709750597
126.0	434.9711524761897	rating	1.0		90	dominance	011	2.0	1		471.7424185711807	0.7584242122757132
126.0	435.7295766884654	fix	2.0		60	dominance	011	2.0	1	1.1399999999999997	472.5008427834564	0.5167497174625169
127.0	436.2463264059279	face	0.0		147	dominance	070	2.0	1		473.0175925009189	1.2334609784011263
127.0	437.47978738432903	rating	1.0		106	dominance	070	2.0	1		474.25105347932003	0.8917708474200481
127.0	438.3715582317491	fix	2.0		60	dominance	070	2.0	1	3.4299999999999997	475.1428243267401	0.5167539434532955
128.0	438.8883121752024	face	0.0		147	dominance	087	2.0	1		475.6595782701934	1.233508369878109
128.0	440.1218205450805	rating	1.0		107	dominance	087	2.0	1		476.8930866400715	0.900055903831344
128.0	441.0218764489118	fix	2.0		60	dominance	087	2.0	1	1.5300000000000002	477.79314254390283	0.5167524341713943
129.0	441.5386288830832	face	0.0		147	dominance	144	2.0	1		478.3098949780742	1.2334658081063026
129.0	442.7720946911895	rating	1.0		153	dominance	144	2.0	1		479.54336078618053	1.283478304966593
129.0	444.0555729961561	fix	2.0		60	dominance	144	2.0	1	0.0	480.8268390911471	0.5167497174625169
130.0	444.57232271361863	face	0.0		147	dominance	012	2.0	1		481.34358880860964	1.2334709396673134
130.0	445.80579365328595	rating	1.0		61	dominance	012	2.0	1		482.57705974827695	0.5167255689384547
130.0	446.3225192222244	fix	2.0		60	dominance	012	2.0	1	0.9800000000000004	483.0937853172154	0.5167512267453276
131.0	446.8392704489697	face	0.0		147	dominance	091	2.0	1		483.61053654396073	1.2334540357014703
131.0	448.0727244846712	rating	1.0		62	dominance	091	2.0	1		484.8439905796622	0.5250658650966216
131.0	448.5977903497678	fix	2.0		60	dominance	091	2.0	1	-1.5499999999999998	485.3690564447588	0.5167768845503815
132.0	449.1145672343182	face	0.0		147	dominance	038	2.0	1		485.8858333293092	1.2334295853215735
132.0	450.3479968196398	rating	1.0		53	dominance	038	2.0	1		487.1192629146308	0.4500530060086021
132.0	450.7980498256484	fix	2.0		60	dominance	038	2.0	1	-1.46	487.5693159206394	0.5167491137490288
133.0	451.3147989393974	face	0.0		147	dominance	030	2.0	1		488.0860650343884	1.2334615821146144
133.0	452.548260521512	rating	1.0		73	dominance	030	2.0	1		489.319526616503	0.6167451292430997
133.0	453.1650056507551	fix	2.0		60	dominance	030	2.0	1	1.5999999999999996	489.9362717457461	0.5167445859005966
134.0	453.6817502366557	face	0.0		147	dominance	018	2.0	1		490.4530163316467	1.2334621858281025
134.0	454.9152124224838	rating	1.0		84	dominance	018	2.0	1		491.6864785174748	0.70841654511878
134.0	455.6236289676026	fix	2.0		60	dominance	018	2.0	1	-2.33	492.3948950625936	0.5167503211750955
135.0	456.1403792887777	face	0.0		147	dominance	042	2.0	1		492.9116453837687	1.2334673173891133
135.0	457.3738466061668	rating	1.0		62	dominance	042	2.0	1		494.1451127011578	0.5250540926917893
135.0	457.8989006988586	fix	2.0		60	dominance	042	2.0	1	-1.5299999999999998	494.6701667938496	0.5167551508802717
136.0	458.41565584973887	face	0.0		147	dominance	033	2.0	1		495.1869219447299	1.233455243127537
136.0	459.6491110928664	rating	1.0		116	dominance	033	2.0	1		496.4203771878574	1.0167949959422913
136.0	460.6659060888087	fix	2.0		60	dominance	033	2.0	1	3.0599999999999996	497.4371721837997	0.5167436803321834
137.0	461.1826497691409	face	0.0		147	dominance	034	2.0	1		497.9539158641319	1.2334606765443823
137.0	462.41611044568526	rating	1.0		81	dominance	034	2.0	1		499.18737654067627	0.6834143717524057
137.0	463.09952481743767	fix	2.0		60	dominance	034	2.0	1	0.0	499.8707909124287	0.5167491137490288
138.0	463.6162739311867	face	0.0		147	dominance	136	2.0	1		500.3875400261777	1.2334603746885477
138.0	464.84973430587524	rating	1.0		271	dominance	136	2.0	1		501.62100040086625	2.2669359629462633
138.0	467.1166702688215	fix	2.0		60	dominance	136	2.0	1	1.0499999999999998	503.8879363638125	0.5167518304579062
139.0	467.6334220992794	face	0.0		147	dominance	121	2.0	1		504.4046881942704	1.233459469119225
139.0	468.86688156839864	rating	1.0		110	dominance	121	2.0	1		505.63814766338965	0.9251112039492
139.0	469.79199277234784	fix	2.0		60	dominance	121	2.0	1	-1.94	506.56325886733885	0.5167512267444181
140.0	470.30874399909226	face	0.0		147	dominance	082	2.0	1		507.08001009408326	1.233459167262481
140.0	471.54220316635474	rating	1.0		175	dominance	082	2.0	1		508.31346926134574	1.4668483038076374
140.0	473.0090514701624	fix	2.0		60	dominance	082	2.0	1	-2.17	509.7803175651534	0.5167506230318395
141.0	473.5258020931942	face	0.0		147	dominance	062	2.0	1		510.2970681881852	1.2334522245619155
141.0	474.75925431775613	rating	1.0		116	dominance	062	2.0	1		511.53052041274714	0.9751104191218474
141.0	475.734364736878	fix	2.0		60	dominance	062	2.0	1	1.8200000000000003	512.505630831869	0.5167642065762266
142.0	476.2511289434542	face	0.0		147	dominance	061	2.0	1		513.0223950384452	1.2334522245619155
142.0	477.4845811680161	rating	1.0		168	dominance	061	2.0	1		514.2558472630071	1.4085078869075005
142.0	478.8930890549236	fix	2.0		60	dominance	061	2.0	1	1.1399999999999997	515.6643551499146	0.5167418691926287
143.0	479.40983092411625	face	0.0		147	dominance	027	2.0	1		516.1810970191073	1.2334700340979907
143.0	480.64330095821424	rating	1.0		58	dominance	027	2.0	1		517.4145670532052	0.4917185658669041
143.0	481.13501952408114	fix	2.0		60	dominance	027	2.0	1	1.67	517.9062856190722	0.5167563583063384
144.0	481.6517758823875	face	0.0		147	dominance	100	2.0	1		518.4230419773785	1.2334615821146144
144.0	482.8852374645021	rating	1.0		82	dominance	100	2.0	1		519.6565035594931	0.691750743774719
144.0	483.5769882082768	fix	2.0		61	dominance	100	2.0	1	2.7199999999999998	520.3482543032678	0.5250758263618991
145.0	484.1020640346387	face	0.0		146	dominance	130	2.0	1		520.8733301296297	1.2251255119490452
145.0	485.32718954658776	rating	1.0		65	dominance	130	2.0	1		522.0984556415788	0.5500629069028946
145.0	485.87725245349066	fix	2.0		60	dominance	130	2.0	1	-3.37	522.6485185484817	0.5167497174616074
146.0	486.39400217095226	face	0.0		147	dominance	117	2.0	1		523.1652682659433	1.2334624876848466
146.0	487.6274646586371	rating	1.0		50	dominance	117	2.0	1		524.3987307536281	0.42505868091120647
146.0	488.0525233395483	fix	2.0		60	dominance	117	2.0	1	-1.02	524.8237894345393	0.5167479063229621
147.0	488.5692712458713	face	0.0		147	dominance	066	2.0	1		525.3405373408623	1.2334543375573048
147.0	489.8027255834286	rating	1.0		94	dominance	066	2.0	1		526.5739916784196	0.7917600409564329
147.0	490.594485624385	fix	2.0		60	dominance	066	2.0	1	2.5999999999999996	527.365751719376	0.5167515286011621
148.0	491.1112371529862	face	0.0		147	dominance	102	2.0	1		527.8825032479772	1.2334661099630466
148.0	492.3447032629492	rating	1.0		84	dominance	102	2.0	1		529.1159693579402	0.7084156395494574
148.0	493.0531189024987	fix	2.0		60	dominance	102	2.0	1	-2.0	529.8243849974897	0.516743982188018
149.0	493.5698628846867	face	0.0		147	dominance	036	2.0	1		530.3411289796777	1.23346852481518
149.0	494.8033314095019	rating	1.0		143	dominance	036	2.0	1		531.5745975044929	1.2001345072731056
149.0	496.003465916775	fix	2.0		60	dominance	036	2.0	1	-2.17	532.774732011766	0.5167509248885835
150.0	496.52021684166357	face	0.0		147	dominance	099	2.0	1		533.2914829366546	1.233468222958436
150.0	497.753685064622	rating	1.0		71	dominance	099	2.0	1		534.524951159613	0.6000666499239742
150.0	498.353751714546	fix	2.0		60	dominance	099	2.0	1	2.21	535.125017809537	0.516747302609474
151.0	498.87049901715545	face	0.0		147	dominance	044	2.0	1		535.6417651121465	1.233467921101692
151.0	500.10396693825714	rating	1.0		209	dominance	044	2.0	1		536.8752330332482	1.750212507003198
151.0	501.85417944526034	fix	2.0		60	dominance	044	2.0	1	-1.2200000000000002	538.6254455402513	0.5167482081797061
152.0	502.37092765344005	face	0.0		147	dominance	009	2.0	1		539.142193748431	1.233498710468666
152.0	503.6044263639087	rating	1.0		172	dominance	009	2.0	1		540.3756924588997	1.4417896832683255
152.0	505.04621604717704	fix	2.0		60	dominance	009	2.0	1	-2.0300000000000002	541.817482142168	0.5167512267453276
153.0	505.56296727392237	face	0.0		147	dominance	005	2.0	1		542.3342333689134	1.233467921101692
153.0	506.79643519502406	rating	1.0		65	dominance	005	2.0	1		543.5677012900151	0.5500571716283957
153.0	507.34649236665246	fix	2.0		60	dominance	005	2.0	1	-3.52	544.1177584616435	0.5167548490235276
154.0	507.863247215676	face	0.0		147	dominance	006	2.0	1		544.634513310667	1.233504445743165
154.0	509.09675166141915	rating	1.0		93	dominance	006	2.0	1		545.8680177564102	0.7833765793129714
154.0	509.8801282407321	fix	2.0		60	dominance	006	2.0	1	1.7199999999999998	546.6513943357231	0.5167503211750955
155.0	510.3968785619072	face	0.0		147	dominance	126	2.0	1		547.1681446568982	1.2334597709759691
155.0	511.6303383328832	rating	1.0		127	dominance	126	2.0	1		548.4016044278742	1.0668023612424804
155.0	512.6971406941257	fix	2.0		60	dominance	126	2.0	1	2.1500000000000004	549.4684067891167	0.5167451896140847
156.0	513.2138858837397	face	0.0		147	dominance	024	2.0	1		549.9851519787308	1.2334597709750597
156.0	514.4473456547148	rating	1.0		108	dominance	024	2.0	1		551.2186117497058	0.9084789086800811
156.0	515.3558245633949	fix	2.0		60	dominance	024	2.0	1	-1.88	552.1270906583859	0.5167168151001533
157.0	515.872541378495	face	0.0		147	dominance	039	2.0	1		552.643807473486	1.2334609784011263
157.0	517.1060023568962	rating	1.0		228	dominance	039	2.0	1		553.8772684518872	1.9085619192283048
157.0	519.0145642761245	fix	2.0		60	dominance	039	2.0	1	-1.31	555.7858303711155	0.5167515286011621
158.0	519.5313158047256	face	0.0		147	dominance	141	2.0	1		556.3025818997166	1.233459167262481
158.0	520.7647749719881	rating	1.0		270	dominance	141	2.0	1		557.5360410669791	2.2586029113463155
158.0	523.0233778833344	fix	2.0		60	dominance	141	2.0	1	-1.4	559.7946439783254	0.5167542453100396
159.0	523.5401321286445	face	0.0		147	dominance	043	2.0	1		560.3113982236355	1.233458261692249
159.0	524.7735903903367	rating	1.0		122	dominance	043	2.0	1		561.5448564853277	1.0251093324386602
159.0	525.7986997227754	fix	2.0		60	dominance	043	2.0	1	1.4299999999999997	562.5699658177664	0.5000618805906925
160.0	526.2987616033661	cue	0.0		480						563.0700276983571	4.000480555609101
160.0	530.2992421589752	fix	1.0		120						567.0705082539662	1.0168091832001664
160.0	531.3160513421753	face	0.0		147	attractiveness	099	2.0	1		568.0873174371663	1.2334630913974252
160.0	532.5495144335728	rating	1.0		162	attractiveness	099	2.0	1		569.3207805285638	1.3584941826211434
160.0	533.9080086161939	fix	2.0		60	attractiveness	099	2.0	1	1.6799999999999997	570.6792747111849	0.5167497174616074
161.0	534.4247583336555	face	0.0		147	attractiveness	102	2.0	1		571.1960244286465	1.2334603746885477
161.0	535.6582187083441	rating	1.0		84	attractiveness	102	2.0	1		572.4294848033351	0.708422884106767
161.0	536.3666415924508	fix	2.0		60	attractiveness	102	2.0	1	-3.65	573.1379076874418	0.5167485100355407
162.0	536.8833901024864	face	0.0		147	attractiveness	018	2.0	1		573.6546561974774	1.2334579598364144
162.0	538.1168480623228	rating	1.0		137	attractiveness	018	2.0	1		574.8881141573138	1.1501745334508087
162.0	539.2670225957736	fix	2.0		60	attractiveness	018	2.0	1	2.1500000000000004	576.0382886907646	0.5167134946777878
163.0	539.7837360904514	face	0.0		147	attractiveness	066	2.0	1		576.5550021854424	1.2334597709750597
163.0	541.0171958614264	rating	1.0		76	attractiveness	066	2.0	1		577.7884619564174	0.6417436803312739
163.0	541.6589395417577	fix	2.0		60	attractiveness	066	2.0	1	1.9400000000000004	578.4302056367487	0.5167482081797061
164.0	542.1756877499374	face	0.0		147	attractiveness	042	2.0	1		578.9469538449284	1.23346490253698
164.0	543.4091526524744	rating	1.0		147	attractiveness	042	2.0	1		580.1804187474654	1.2334745619455134
164.0	544.6426272144199	fix	2.0		60	attractiveness	042	2.0	1	2.2300000000000004	581.4138933094109	0.5167542453100396
165.0	545.15938145973	face	0.0		147	attractiveness	044	2.0	1		581.930647554721	1.233454941270793
165.0	546.3928364010007	rating	1.0		36	attractiveness	044	2.0	1		583.1641024959918	0.3084122587570164
165.0	546.7012486597578	fix	2.0		60	attractiveness	044	2.0	1	0.0	583.4725147547488	0.5167150039596891
166.0	547.2179636637175	face	0.0		147	attractiveness	036	2.0	1		583.9892297587085	1.233455846841025
166.0	548.4514195105585	rating	1.0		121	attractiveness	036	2.0	1		585.2226856055495	1.0167937885162246
166.0	549.4682132990747	fix	2.0		61	attractiveness	036	2.0	1	-1.19	586.2394793940657	0.5250857876289956
167.0	549.9932990867037	face	0.0		146	attractiveness	172	2.0	1		586.7645651816947	1.2251182673917356
167.0	551.2184173540954	rating	1.0		82	attractiveness	172	2.0	1		587.9896834490864	0.6917549697654977
167.0	551.9101723238609	fix	2.0		60	attractiveness	172	2.0	1	-3.75	588.6814384188519	0.5167521323146502
168.0	552.4269244561756	face	0.0		147	attractiveness	038	2.0	1		589.1981905511666	1.2334606765452918
168.0	553.6603851327209	rating	1.0		106	attractiveness	038	2.0	1		590.4316512277119	0.8917651121455492
168.0	554.5521502448664	fix	2.0		60	attractiveness	038	2.0	1	-3.83	591.3234163398574	0.5167611880106051
169.0	555.068911432877	face	0.0		147	attractiveness	121	2.0	1		591.840177527868	1.233455243127537
169.0	556.3023666760046	rating	1.0		189	attractiveness	121	2.0	1		593.0736327709956	1.5835122336420682
169.0	557.8858789096466	fix	2.0		60	attractiveness	121	2.0	1	-1.17	594.6571450046376	0.5167617917231837
170.0	558.4026407013698	face	0.0		147	attractiveness	124	2.0	1		595.1739067963608	1.233459469119225
170.0	559.636100170489	rating	1.0		134	attractiveness	124	2.0	1		596.40736626548	1.1251279871721636
170.0	560.7612281576612	fix	2.0		60	attractiveness	124	2.0	1	3.99	597.5324942526522	0.5167482081797061
171.0	561.2779763658409	face	0.0		147	attractiveness	030	2.0	1		598.0492424608319	1.2334597709750597
171.0	562.511436136816	rating	1.0		180	attractiveness	030	2.0	1		599.282702231807	1.5085138636677584
171.0	564.0199500004837	fix	2.0		60	attractiveness	030	2.0	1	1.2199999999999998	600.7912160954747	0.5167578675882396
172.0	564.536707868072	face	0.0		147	attractiveness	126	2.0	1		601.307973963063	1.2334531301321476
172.0	565.7701609982041	rating	1.0		117	attractiveness	126	2.0	1		602.5414270931951	0.983449205996294
172.0	566.7536102042004	fix	2.0		60	attractiveness	126	2.0	1	0.8499999999999996	603.5248762991914	0.5167533397407169
173.0	567.2703635439411	face	0.0		147	attractiveness	012	2.0	1		604.0416296389321	1.2334579598364144
173.0	568.5038215037775	rating	1.0		48	attractiveness	012	2.0	1		605.2750875987686	0.4083820127307263
173.0	568.9122035165083	fix	2.0		60	attractiveness	012	2.0	1	0.9699999999999998	605.6834696114993	0.5167566601630824
174.0	569.4289601766714	face	0.0		147	attractiveness	061	2.0	1		606.2002262716624	1.2334543375573048
174.0	570.6624145142287	rating	1.0		77	attractiveness	061	2.0	1		607.4336806092197	0.6500827690633741
174.0	571.312497283292	fix	2.0		60	attractiveness	061	2.0	1	-1.3599999999999999	608.083763378283	0.5167503211750955
175.0	571.8292476044671	face	0.0		147	attractiveness	064	2.0	1		608.6005136994581	1.2334540357005608
175.0	573.0627016401677	rating	1.0		178	attractiveness	064	2.0	1		609.8339677351587	1.4918447419013319
175.0	574.554546382069	fix	2.0		61	attractiveness	064	2.0	1	-1.3399999999999999	611.32581247706	0.525084882057854
176.0	575.0796312641269	face	0.0		146	attractiveness	100	2.0	1		611.8508973591179	1.2251261156625333
176.0	576.3047573797894	rating	1.0		98	attractiveness	100	2.0	1		613.0760234747804	0.8251022086233206
176.0	577.1298595884127	fix	2.0		60	attractiveness	100	2.0	1	1.8099999999999996	613.9011256834037	0.5167500193192609
177.0	577.646609607732	face	0.0		147	attractiveness	006	2.0	1		614.417875702723	1.2334558468401156
177.0	578.8800654545721	rating	1.0		71	attractiveness	006	2.0	1		615.6513315495631	0.6000766111892517
177.0	579.4801420657614	fix	2.0		60	attractiveness	006	2.0	1	-2.75	616.2514081607524	0.5167512267453276
178.0	579.9968932925067	face	0.0		147	attractiveness	136	2.0	1		616.7681593874977	1.2334519227051715
178.0	581.2303452152119	rating	1.0		91	attractiveness	136	2.0	1		618.0016113102029	0.7667654140022933
178.0	581.9971106292141	fix	2.0		60	attractiveness	136	2.0	1	-3.74	618.7683767242052	0.5167448877582501
179.0	582.5138555169724	face	0.0		147	attractiveness	039	2.0	1		619.2851216119634	1.2334597709750597
179.0	583.7473152879475	rating	1.0		160	attractiveness	039	2.0	1		620.5185813829385	1.3418250608538074
179.0	585.0891403488013	fix	2.0		60	attractiveness	039	2.0	1	0.8499999999999996	621.8604064437923	0.516753641597461
180.0	585.6058939903987	face	0.0		147	attractiveness	117	2.0	1		622.3771600853897	1.2334639969667478
180.0	586.8393579873655	rating	1.0		173	attractiveness	117	2.0	1		623.6106240823565	1.450166202210312
180.0	588.2895241895758	fix	2.0		60	attractiveness	117	2.0	1	0.0	625.0607902845668	0.5167509248885835
181.0	588.8062751144644	face	0.0		147	attractiveness	091	2.0	1		625.5775412094554	1.2334597709750597
181.0	590.0397348854394	rating	1.0		76	attractiveness	091	2.0	1		626.8110009804304	0.641744284044762
181.0	590.6814791694842	fix	2.0		60	attractiveness	091	2.0	1	0.33000000000000007	627.4527452644752	0.5167557545928503
182.0	591.198234924077	face	0.0		147	attractiveness	033	2.0	1		627.969501019068	1.2334540357014703
182.0	592.4316889597785	rating	1.0		89	attractiveness	033	2.0	1		629.2029550547695	0.7500860291138451
182.0	593.1817749888924	fix	2.0		60	attractiveness	033	2.0	1	2.59	629.9530410838834	0.5167654140022933
183.0	593.6985404028947	face	0.0		147	attractiveness	092	2.0	1		630.4698064978857	1.233495088190466
183.0	594.9320354910851	rating	1.0		117	attractiveness	092	2.0	1		631.7033015860761	0.9834024182327994
183.0	595.9154379093179	fix	2.0		60	attractiveness	092	2.0	1	-3.11	632.6867040043089	0.5167527360272288
184.0	596.4321906453451	face	0.0		147	attractiveness	141	2.0	1		633.2034567403362	1.2335017290342876
184.0	597.6656923743794	rating	1.0		60	attractiveness	141	2.0	1		634.4369584693704	0.5083496537108658
184.0	598.1740420280903	fix	2.0		60	attractiveness	141	2.0	1	-2.5300000000000002	634.9453081230813	0.5167578675882396
185.0	598.6907998956785	face	0.0		147	attractiveness	101	2.0	1		635.4620659906695	1.233459469119225
185.0	599.9242593647978	rating	1.0		100	attractiveness	101	2.0	1		636.6955254597888	0.8417577468462696
185.0	600.766017111644	fix	2.0		60	attractiveness	101	2.0	1	2.9299999999999997	637.537283206635	0.5167584713017277
186.0	601.2827755829458	face	0.0		147	attractiveness	137	2.0	1		638.0540416779368	1.2334537338447262
186.0	602.5162293167905	rating	1.0		118	attractiveness	137	2.0	1		639.2874954117815	0.9917937281452396
186.0	603.5080230449357	fix	2.0		60	attractiveness	137	2.0	1	-1.3399999999999999	640.2792891399267	0.5167470007536394
187.0	604.0247700456894	face	0.0		147	attractiveness	130	2.0	1		640.7960361406804	1.2334537338447262
187.0	605.2582237795341	rating	1.0		190	attractiveness	130	2.0	1		642.0294898745251	1.5918636984915793
187.0	606.8500874780257	fix	2.0		60	attractiveness	130	2.0	1	-2.26	643.6213535730167	0.5167427747619513
188.0	607.3668302527876	face	0.0		147	attractiveness	144	2.0	1		644.1380963477786	1.233479089793036
188.0	608.6003093425807	rating	1.0		64	attractiveness	144	2.0	1		645.3715754375717	0.5417126494794502
188.0	609.1420219920601	fix	2.0		60	attractiveness	144	2.0	1	-1.8199999999999998	645.9132880870511	0.5167509248885835
189.0	609.6587729169487	face	0.0		147	attractiveness	087	2.0	1		646.4300390119397	1.233459167262481
189.0	610.8922320842112	rating	1.0		65	attractiveness	087	2.0	1		647.6634981792022	0.5500719625988495
189.0	611.44230404681	fix	2.0		60	attractiveness	087	2.0	1	1.67	648.213570141801	0.516743982188018
190.0	611.959048028998	face	0.0		147	attractiveness	062	2.0	1		648.730314123989	1.2334661099630466
190.0	613.1925141389611	rating	1.0		157	attractiveness	062	2.0	1		649.9637802339521	1.3168234912000116
190.0	614.5093376301611	fix	2.0		60	attractiveness	062	2.0	1	-1.42	651.2806037251521	0.5167524341713943
191.0	615.0260900643325	face	0.0		147	attractiveness	027	2.0	1		651.7973561593235	1.2334573561229263
191.0	616.2595474204554	rating	1.0		36	attractiveness	027	2.0	1		653.0308135154464	0.3083645654232896
191.0	616.5679119858787	fix	2.0		60	attractiveness	027	2.0	1	0.009999999999999787	653.3391780808697	0.5167488118922847
192.0	617.084660797771	face	0.0		147	attractiveness	034	2.0	1		653.855926892762	1.2334700340979907
192.0	618.318130831869	rating	1.0		36	attractiveness	034	2.0	1		655.08939692686	0.30836758398800157
192.0	618.626498415857	fix	2.0		60	attractiveness	034	2.0	1	0.0	655.397764510848	0.5167521323146502
193.0	619.1432505481716	face	0.0		147	attractiveness	070	2.0	1		655.9145166431626	1.233477882367879
193.0	620.3767284305395	rating	1.0		121	attractiveness	070	2.0	1		657.1479945255305	1.0167590750152158
193.0	621.3934875055547	fix	2.0		60	attractiveness	070	2.0	1	-3.7199999999999998	658.1647536005457	0.5167539434532955
194.0	621.910241449008	face	0.0		147	attractiveness	043	2.0	1		658.681507543999	1.233459469119225
194.0	623.1437009181273	rating	1.0		91	attractiveness	043	2.0	1		659.9149670131183	0.7667584713017277
194.0	623.910459389429	fix	2.0		60	attractiveness	043	2.0	1	-0.9900000000000002	660.68172548442	0.5167521323146502
195.0	624.4272115217436	face	0.0		147	attractiveness	082	2.0	1		661.1984776167346	1.2334627895406811
195.0	625.6606743112843	rating	1.0		100	attractiveness	082	2.0	1		662.4319404062753	0.8417655951161578
195.0	626.5024399064005	fix	2.0		60	attractiveness	082	2.0	1	0.5599999999999996	663.2737060013915	0.5167554527370157
196.0	627.0191953591375	face	0.0		147	attractiveness	024	2.0	1		663.7904614541285	1.2334507152791048
196.0	628.2526460744166	rating	1.0		55	attractiveness	024	2.0	1		665.0239121694076	0.4667200147787298
196.0	628.7193660891953	fix	2.0		60	attractiveness	024	2.0	1	-2.33	665.4906321841863	0.5167521323146502
197.0	629.23611822151	face	0.0		147	attractiveness	009	2.0	1		666.007384316501	1.233458563548993
197.0	630.469576785059	rating	1.0		372	attractiveness	009	2.0	1		667.24084288005	3.108702161775909
197.0	633.5782789468349	fix	2.0		60	attractiveness	009	2.0	1	1.4800000000000004	670.3495450418259	0.5167832235383685
198.0	634.0950621703732	face	0.0		147	attractiveness	005	2.0	1		670.8663282653642	1.2334332075997736
198.0	635.328495377973	rating	1.0		95	attractiveness	005	2.0	1		672.099761472964	0.8000927906996367
198.0	636.1285881686726	fix	2.0		60	attractiveness	005	2.0	1	-3.78	672.8998542636637	0.5167569620198265
199.0	636.6453451306925	face	0.0		147	attractiveness	011	2.0	1		673.4166112256835	1.2334543375573048
199.0	637.8787994682498	rating	1.0		127	attractiveness	011	2.0	1		674.6500655632408	1.0667987389642803
199.0	638.9455982072141	fix	2.0		60	attractiveness	011	2.0	1	-2.2199999999999998	675.7168643022051	0.5000609750204603
200.0	639.4456591822345	cue	0.0		480						676.2169252772255	4.0004775370443895
200.0	643.4461367192789	fix	1.0		120						680.2174028142699	1.0168031460689235
200.0	644.4629398653478	face	0.0		147	trustworthiness	061	2.0	1		681.2342059603388	1.2334697322412467
200.0	645.6964095975891	rating	1.0		87	trustworthiness	061	2.0	1		682.4676756925801	0.7334126813557305
200.0	646.4298222789448	fix	2.0		60	trustworthiness	061	2.0	1	0.7400000000000002	683.2010883739358	0.5167518304579062
201.0	646.9465741094027	face	0.0		147	trustworthiness	012	2.0	1		683.7178402043937	1.2334642988234918
201.0	648.1800384082262	rating	1.0		179	trustworthiness	012	2.0	1		684.9513045032172	1.5001726619402689
201.0	649.6802110701665	fix	2.0		60	trustworthiness	012	2.0	1	1.0700000000000003	686.4514771651575	0.5167503211750955
202.0	650.1969613913416	face	0.0		147	trustworthiness	091	2.0	1		686.9682274863326	1.2334606765452918
202.0	651.4304220678869	rating	1.0		88	trustworthiness	091	2.0	1		688.2016881628779	0.7417532793697319
202.0	652.1721753472566	fix	2.0		60	trustworthiness	091	2.0	1	2.33	688.9434414422476	0.5167503211750955
203.0	652.6889256684317	face	0.0		147	trustworthiness	024	2.0	1		689.4601917634227	1.2334618839713585
203.0	653.922387552403	rating	1.0		200	trustworthiness	024	2.0	1		690.6936536473941	1.6751987423449464
203.0	655.597586294748	fix	2.0		60	trustworthiness	024	2.0	1	1.33	692.368852389739	0.5167521323146502
204.0	656.1143384270626	face	0.0		147	trustworthiness	006	2.0	1		692.8856045220537	1.2334600728318037
204.0	657.3477984998945	rating	1.0		40	trustworthiness	006	2.0	1		694.1190645948855	0.3417022052426546
204.0	657.6895007051371	fix	2.0		60	trustworthiness	006	2.0	1	-1.2599999999999998	694.4607668001281	0.5167611880106051
205.0	658.2062618931477	face	0.0		147	trustworthiness	137	2.0	1		694.9775279881387	1.2334525264186595
205.0	659.4397144195664	rating	1.0		36	trustworthiness	137	2.0	1		696.2109805145574	0.30836818770148966
205.0	659.7480826072679	fix	2.0		60	trustworthiness	137	2.0	1	0.0	696.5193487022589	0.516753641597461
206.0	660.2648362488653	face	0.0		147	trustworthiness	030	2.0	1		697.0361023438563	1.2334697322412467
206.0	661.4983059811066	rating	1.0		109	trustworthiness	030	2.0	1		698.2695720760976	0.9167817746265428
206.0	662.4150877557331	fix	2.0		61	trustworthiness	030	2.0	1	1.1399999999999997	699.1863538507241	0.5250697892315657
207.0	662.9401575449647	face	0.0		146	trustworthiness	124	2.0	1		699.7114236399557	1.2251224933834237
207.0	664.1652800383481	rating	1.0		71	trustworthiness	124	2.0	1		700.9365461333391	0.6000775167594838
207.0	664.7653575551076	fix	2.0		60	trustworthiness	124	2.0	1	1.9400000000000004	701.5366236500986	0.5167524341704848
208.0	665.2821099892781	face	0.0		147	trustworthiness	099	2.0	1		702.0533760842691	1.2334528282754036
208.0	666.5155628175535	rating	1.0		136	trustworthiness	099	2.0	1		703.2868289125445	1.1418040516391557
208.0	667.6573668691926	fix	2.0		60	trustworthiness	099	2.0	1	0.5300000000000002	704.4286329641836	0.5167605842980265
209.0	668.1741274534907	face	0.0		147	trustworthiness	126	2.0	1		704.9453935484817	1.2334479985702274
209.0	669.4075754520609	rating	1.0		92	trustworthiness	126	2.0	1		706.1788415470519	0.7750909191890969
209.0	670.18266637125	fix	2.0		60	trustworthiness	126	2.0	1	-1.4	706.953932466241	0.5167557545928503
210.0	670.6994221258428	face	0.0		147	trustworthiness	117	2.0	1		707.4706882208338	1.2334513189925929
210.0	671.9328734448354	rating	1.0		36	trustworthiness	117	2.0	1		708.7041395398264	0.3083724136931778
210.0	672.2412458585286	fix	2.0		60	trustworthiness	117	2.0	1	0.0	709.0125119535196	0.5167590750152158
211.0	672.7580049335438	face	0.0		147	trustworthiness	018	2.0	1		709.5292710285348	1.2334537338447262
211.0	673.9914586673885	rating	1.0		114	trustworthiness	018	2.0	1		710.7627247623795	0.9584446177768768
211.0	674.9499032851654	fix	2.0		60	trustworthiness	018	2.0	1	2.3499999999999996	711.7211693801564	0.5167530378839729
212.0	675.4666563230494	face	0.0		147	trustworthiness	070	2.0	1		712.2379224180404	1.2334600728327132
212.0	676.7001163958821	rating	1.0		56	trustworthiness	070	2.0	1		713.4713824908731	0.4750548775182324
212.0	677.1751712734003	fix	2.0		60	trustworthiness	070	2.0	1	-2.77	713.9464373683913	0.5167590750152158
213.0	677.6919303484156	face	0.0		147	trustworthiness	144	2.0	1		714.4631964434066	1.2334579598355049
213.0	678.9253883082511	rating	1.0		97	trustworthiness	144	2.0	1		715.6966544032421	0.8167558753357298
213.0	679.7421441835868	fix	2.0		60	trustworthiness	144	2.0	1	0.0	716.5134102785778	0.5167548490235276
214.0	680.2588990326103	face	0.0		147	trustworthiness	087	2.0	1		717.0301651276013	1.2334576579796703
214.0	681.49235669059	rating	1.0		67	trustworthiness	087	2.0	1		718.263622785581	0.5667392732266308
214.0	682.0590959638166	fix	2.0		60	trustworthiness	087	2.0	1	1.4100000000000001	718.8303620588076	0.5167424729052073
215.0	682.5758384367218	face	0.0		147	trustworthiness	038	2.0	1		719.3471045317128	1.2334612802578704
215.0	683.8092997169797	rating	1.0		86	trustworthiness	038	2.0	1		720.5805658119707	0.7250859687419506
215.0	684.5343856857216	fix	2.0		60	trustworthiness	038	2.0	1	2.5700000000000003	721.3056517807127	0.5167524341713943
216.0	685.051138119893	face	0.0		147	trustworthiness	130	2.0	1		721.822404214884	1.233458563548993
216.0	686.284596683442	rating	1.0		36	trustworthiness	130	2.0	1		723.055862778433	0.30838267681610887
216.0	686.5929793602581	fix	2.0		60	trustworthiness	130	2.0	1	0.0	723.3642454552491	0.5167424729052073
217.0	687.1097218331633	face	0.0		147	trustworthiness	039	2.0	1		723.8809879281544	1.2334627895406811
217.0	688.343184622704	rating	1.0		101	trustworthiness	039	2.0	1		725.114450717695	0.850098344860271
217.0	689.1932829675643	fix	2.0		60	trustworthiness	039	2.0	1	2.3	725.9645490625553	0.5167454914708287
218.0	689.7100284590351	face	0.0		147	trustworthiness	044	2.0	1		726.4812945540261	1.2334597709750597
218.0	690.9434882300102	rating	1.0		291	trustworthiness	044	2.0	1		727.7147543250012	2.433632915885937
218.0	693.3771211458961	fix	2.0		60	trustworthiness	044	2.0	1	-0.029999999999999805	730.1483872408871	0.5167391524837512
219.0	693.8938602983799	face	0.0		147	trustworthiness	136	2.0	1		730.6651263933709	1.23346852481518
219.0	695.1273288231951	rating	1.0		82	trustworthiness	136	2.0	1		731.8985949181861	0.6917471214956095
219.0	695.8190759446907	fix	2.0		60	trustworthiness	136	2.0	1	2.08	732.5903420396817	0.5167451896140847
220.0	696.3358211343048	face	0.0		147	trustworthiness	027	2.0	1		733.1070872292958	1.2334606765452918
220.0	697.56928181085	rating	1.0		57	trustworthiness	027	2.0	1		734.340547905841	0.4833888346884123
220.0	698.0526706455385	fix	2.0		60	trustworthiness	027	2.0	1	1.5199999999999996	734.8239367405295	0.5167518304579062
221.0	698.5694224759964	face	0.0		147	trustworthiness	102	2.0	1		735.3406885709874	1.2335101810176639
221.0	699.802932657014	rating	1.0		117	trustworthiness	102	2.0	1		736.574198752005	0.983406342368653
221.0	700.7863389993827	fix	2.0		60	trustworthiness	102	2.0	1	2.8099999999999996	737.5576050943737	0.5167503211750955
222.0	701.3030893205578	face	0.0		147	trustworthiness	100	2.0	1		738.0743554155488	1.2334612802578704
222.0	702.5365506008156	rating	1.0		54	trustworthiness	100	2.0	1		739.3078166958067	0.4583848501824832
222.0	702.9949354509981	fix	2.0		60	trustworthiness	100	2.0	1	-0.94	739.7662015459891	0.5167500193192609
223.0	703.5116854703174	face	0.0		147	trustworthiness	042	2.0	1		740.2829515653084	1.2334627895406811
223.0	704.7451482598581	rating	1.0		140	trustworthiness	042	2.0	1		741.5164143548491	1.175141087745942
223.0	705.920289347604	fix	2.0		60	trustworthiness	042	2.0	1	2.2699999999999996	742.691555442595	0.5167482081797061
224.0	706.4370375557837	face	0.0		147	trustworthiness	036	2.0	1		743.2083036507747	1.2334534319879822
224.0	707.6704909877717	rating	1.0		36	trustworthiness	036	2.0	1		744.4417570827627	0.3083757341146338
224.0	707.9788667218863	fix	2.0		60	trustworthiness	036	2.0	1	0.0	744.7501328168773	0.5167494156057728
225.0	708.4956161374921	face	0.0		147	trustworthiness	043	2.0	1		745.2668822324831	1.2334567524103477
225.0	709.7290728899025	rating	1.0		113	trustworthiness	043	2.0	1		746.5003389848935	0.950110962463441
225.0	710.6791838523659	fix	2.0		60	trustworthiness	043	2.0	1	-0.6800000000000002	747.4504499473569	0.5167512267453276
226.0	711.1959350791112	face	0.0		147	trustworthiness	101	2.0	1		747.9672011741022	1.233458865405737
226.0	712.429393944517	rating	1.0		65	trustworthiness	101	2.0	1		749.200660039508	0.5500671328936733
226.0	712.9794610774106	fix	2.0		60	trustworthiness	101	2.0	1	-2.87	749.7507271724016	0.5167500193192609
227.0	713.4962110967299	face	0.0		147	trustworthiness	092	2.0	1		750.2674771917209	1.2334606765452918
227.0	714.7296717732752	rating	1.0		61	trustworthiness	092	2.0	1		751.5009378682662	0.516724361512388
227.0	715.2463961347876	fix	2.0		60	trustworthiness	092	2.0	1	0.0	752.0176622297786	0.5167515286020716
228.0	715.7631476633896	face	0.0		147	trustworthiness	121	2.0	1		752.5344137583807	1.233461883970449
228.0	716.9966095473601	rating	1.0		417	trustworthiness	121	2.0	1		753.7678756423511	3.4837486476835693
228.0	720.4803581950437	fix	2.0		60	trustworthiness	121	2.0	1	0.9699999999999998	757.2516242900347	0.516750924887674
229.0	720.9971091199313	face	0.0		147	trustworthiness	141	2.0	1		757.7683752149223	1.2334597709759691
229.0	722.2305688909073	rating	1.0		102	trustworthiness	141	2.0	1		759.0018349858983	0.8584332075997736
229.0	723.0890020985071	fix	2.0		60	trustworthiness	141	2.0	1	1.6799999999999997	759.8602681934981	0.5167527360272288
230.0	723.6057548345343	face	0.0		147	trustworthiness	062	2.0	1		760.3770209295253	1.2334670155323693
230.0	724.8392218500667	rating	1.0		79	trustworthiness	062	2.0	1		761.6104879450577	0.6667383072854136
230.0	725.5059601573521	fix	2.0		60	trustworthiness	062	2.0	1	-1.8399999999999999	762.2772262523431	0.516757263875661
231.0	726.0227174212278	face	0.0		147	trustworthiness	005	2.0	1		762.7939835162188	1.2334528282754036
231.0	727.2561702495032	rating	1.0		50	trustworthiness	005	2.0	1		764.0274363444942	0.4250511344971528
231.0	727.6812213840003	fix	2.0		60	trustworthiness	005	2.0	1	1.4000000000000004	764.4524874789913	0.5167524341713943
232.0	728.1979738181717	face	0.0		147	trustworthiness	066	2.0	1		764.9692399131627	1.2334670155323693
232.0	729.4314408337041	rating	1.0		63	trustworthiness	066	2.0	1		766.2027069286951	0.5333928795662359
232.0	729.9648337132703	fix	2.0		60	trustworthiness	066	2.0	1	-1.08	766.7360998082613	0.5167581694458931
233.0	730.4815918827162	face	0.0		147	trustworthiness	009	2.0	1		767.2528579777072	1.233452828274494
233.0	731.7150447109907	rating	1.0		92	trustworthiness	009	2.0	1		768.4863108059817	0.7750900136197743
233.0	732.4901347246105	fix	2.0		60	trustworthiness	009	2.0	1	1.17	769.2614008196015	0.5167500193192609
234.0	733.0068847439297	face	0.0		147	trustworthiness	172	2.0	1		769.7781508389207	1.2334558468401156
234.0	734.2403405907698	rating	1.0		115	trustworthiness	172	2.0	1		771.0116066857609	0.9668105717400977
234.0	735.20715116251	fix	2.0		60	trustworthiness	172	2.0	1	-3.5300000000000002	771.978417257501	0.5167204373783534
235.0	735.7238715998883	face	0.0		147	trustworthiness	011	2.0	1		772.4951376948793	1.2334606765452918
235.0	736.9573322764336	rating	1.0		79	trustworthiness	011	2.0	1		773.7285983714246	0.666744042559003
235.0	737.6240763189926	fix	2.0		60	trustworthiness	011	2.0	1	1.6399999999999997	774.3953424139836	0.5167533397407169
236.0	738.1408296587333	face	0.0		147	trustworthiness	034	2.0	1		774.9120957537243	1.2334661099630466
236.0	739.3742957686964	rating	1.0		121	trustworthiness	034	2.0	1		776.1455618636874	1.0167859402463364
236.0	740.3910817089427	fix	2.0		60	trustworthiness	034	2.0	1	0.7699999999999996	777.1623478039337	0.5167457933275728
237.0	740.9078275022703	face	0.0		147	trustworthiness	082	2.0	1		777.6790935972613	1.2334603746885477
237.0	742.1412878769588	rating	1.0		116	trustworthiness	082	2.0	1		778.9125539719498	0.9751143432567915
237.0	743.1164022202156	fix	2.0		60	trustworthiness	082	2.0	1	2.12	779.8876683152066	0.5167518304579062
238.0	743.6331540506735	face	0.0		147	trustworthiness	033	2.0	1		780.4044201456645	1.2334600728318037
238.0	744.8666141235053	rating	1.0		84	trustworthiness	033	2.0	1		781.6378802184963	0.7084246952463218
238.0	745.5750388187516	fix	2.0		60	trustworthiness	033	2.0	1	-3.12	782.3463049137426	0.5167424729052073
239.0	746.0917812916568	face	0.0		147	trustworthiness	064	2.0	1		782.8630473866478	1.2334567524094382
239.0	747.3252380440663	rating	1.0		102	trustworthiness	064	2.0	1		784.0965041390573	0.8584392447310165
239.0	748.1836772887973	fix	2.0		60	trustworthiness	064	2.0	1	-2.6	784.9549433837883	0.500058560168327
