trial_nr	onset	event_type	phase	response	nr_frames	face_age	face_sex	face_eth	attractiveness	expression	face_id	sub_id	ses	run	trial_type	catch	onset_abs	duration
-1.0	0.060530579065016354	fix	0.0		713												29.624919895763014	5.957881245602948
-1.0	0.7020252222309864	pulse	0.0	t													30.266414538928984	
-1.0	1.402002975666619	pulse	0.0	t													30.966392292364617	
-1.0	2.101975899453464	pulse	0.0	t													31.666365216151462	
-1.0	2.8019651233016702	pulse	0.0	t													32.36635443999967	
-1.0	3.5019443860019237	pulse	0.0	t													33.06633370269992	
-1.0	4.201921535731344	pulse	0.0	t													33.76631085242934	
-1.0	4.901905628078566	pulse	0.0	t													34.466294944776564	
-1.0	5.6018818722486685	pulse	0.0	t													35.166271188946666	
0.0	6.0184118246679645	face	0.0		144	31.0	female	east_asian	3.395941106247513	smiling	087	sub-04	1.0	2.0	087_smiling	0.0	35.58280114136596	1.2333233017525345
0.0	6.301874718333238	pulse	0.0	t		31.0	female	east_asian	3.395941106247513	smiling	087	sub-04	1.0	2.0	087_smiling	0.0	35.866264035031236	
0.0	7.001852471767961	pulse	0.0	t		31.0	female	east_asian	3.395941106247513	smiling	087	sub-04	1.0	2.0	087_smiling	0.0	36.56624178846596	
0.0	7.251735126420499	fix	1.0		445	31.0	female	east_asian	3.395941106247513	smiling	087	sub-04	1.0	2.0	087_smiling	0.0	36.8161244431185	3.758216060932682
0.0	7.701832338173517	pulse	1.0	t		31.0	female	east_asian	3.395941106247513	smiling	087	sub-04	1.0	2.0	087_smiling	0.0	37.266221654871515	
0.0	8.401813713844604	pulse	1.0	t		31.0	female	east_asian	3.395941106247513	smiling	087	sub-04	1.0	2.0	087_smiling	0.0	37.9662030305426	
0.0	9.101808672900006	pulse	1.0	t		31.0	female	east_asian	3.395941106247513	smiling	087	sub-04	1.0	2.0	087_smiling	0.0	38.666197989598004	
0.0	9.80178552077632	pulse	1.0	t		31.0	female	east_asian	3.395941106247513	smiling	087	sub-04	1.0	2.0	087_smiling	0.0	39.36617483747432	
0.0	10.501758444563166	pulse	1.0	t		31.0	female	east_asian	3.395941106247513	smiling	087	sub-04	1.0	2.0	087_smiling	0.0	40.06614776126116	
1.0	11.009951187353181	face	0.0		146	31.0	male	west_asian	1.9538400318344609	neutral	070	sub-04	1.0	2.0	070_neutral	0.0	40.57434050405118	1.2416508219002935
1.0	11.201722916466679	pulse	0.0	t		31.0	male	west_asian	1.9538400318344609	neutral	070	sub-04	1.0	2.0	070_neutral	0.0	40.76611223316468	
1.0	11.901729949641776	pulse	0.0	t		31.0	male	west_asian	1.9538400318344609	neutral	070	sub-04	1.0	2.0	070_neutral	0.0	41.466119266339774	
1.0	12.251602009253475	fix	1.0		444	31.0	male	west_asian	1.9538400318344609	neutral	070	sub-04	1.0	2.0	070_neutral	0.0	41.81599132595147	3.7582100238741987
1.0	12.60170226972241	pulse	1.0	t		31.0	male	west_asian	1.9538400318344609	neutral	070	sub-04	1.0	2.0	070_neutral	0.0	42.16609158642041	
1.0	13.301680626863345	pulse	1.0	t		31.0	male	west_asian	1.9538400318344609	neutral	070	sub-04	1.0	2.0	070_neutral	0.0	42.86606994356134	
1.0	14.001657776592765	pulse	1.0	t		31.0	male	west_asian	1.9538400318344609	neutral	070	sub-04	1.0	2.0	070_neutral	0.0	43.56604709329076	
1.0	14.70165183008885	pulse	1.0	t		31.0	male	west_asian	1.9538400318344609	neutral	070	sub-04	1.0	2.0	070_neutral	0.0	44.26604114678685	
1.0	15.401621735346453	pulse	1.0	t		31.0	male	west_asian	1.9538400318344609	neutral	070	sub-04	1.0	2.0	070_neutral	0.0	44.96601105204445	
2.0	16.009812033127673	face	0.0		146	27.0	female	white	3.504576203740549	smiling	144	sub-04	1.0	2.0	144_smiling	0.0	45.57420134982567	1.2416547459888534
2.0	16.101609148076932	pulse	0.0	t		27.0	female	white	3.504576203740549	smiling	144	sub-04	1.0	2.0	144_smiling	0.0	45.66599846477493	
2.0	16.801580864452262	pulse	0.0	t		27.0	female	white	3.504576203740549	smiling	144	sub-04	1.0	2.0	144_smiling	0.0	46.36597018115026	
2.0	17.251466779116527	fix	1.0		444	27.0	female	white	3.504576203740549	smiling	144	sub-04	1.0	2.0	144_smiling	0.0	46.815856095814524	3.7582130424034403
2.0	17.50156767347653	pulse	1.0	t		27.0	female	white	3.504576203740549	smiling	144	sub-04	1.0	2.0	144_smiling	0.0	47.06595699017453	
2.0	18.201548445441404	pulse	1.0	t		27.0	female	white	3.504576203740549	smiling	144	sub-04	1.0	2.0	144_smiling	0.0	47.7659377621394	
2.0	18.90153223593643	pulse	1.0	t		27.0	female	white	3.504576203740549	smiling	144	sub-04	1.0	2.0	144_smiling	0.0	48.46592155263443	
2.0	19.601500631928502	pulse	1.0	t		27.0	female	white	3.504576203740549	smiling	144	sub-04	1.0	2.0	144_smiling	0.0	49.1658899486265	
2.0	20.30149589283701	pulse	1.0	t		27.0	female	white	3.504576203740549	smiling	144	sub-04	1.0	2.0	144_smiling	0.0	49.86588520953501	
3.0	21.009679821519967	face	0.0		147	25.0	female	black	3.858336649423	smiling	126	sub-04	1.0	2.0	126_smiling	0.0	50.574069138217965	1.2416499163409753
3.0	21.002921635040366	pulse	0.0	t		25.0	female	black	3.858336649423	smiling	126	sub-04	1.0	2.0	126_smiling	0.0	50.567310951738364	
3.0	21.701457134913653	pulse	0.0	t		25.0	female	black	3.858336649423	smiling	126	sub-04	1.0	2.0	126_smiling	0.0	51.26584645161165	
3.0	22.251329737860942	fix	1.0		443	25.0	female	black	3.858336649423	smiling	126	sub-04	1.0	2.0	126_smiling	0.0	51.81571905455894	3.766556560760364
3.0	22.401439717996254	pulse	1.0	t		25.0	female	black	3.858336649423	smiling	126	sub-04	1.0	2.0	126_smiling	0.0	51.96582903469425	
3.0	23.10141566031325	pulse	1.0	t		25.0	female	black	3.858336649423	smiling	126	sub-04	1.0	2.0	126_smiling	0.0	52.66580497701125	
3.0	23.801390093365626	pulse	1.0	t		25.0	female	black	3.858336649423	smiling	126	sub-04	1.0	2.0	126_smiling	0.0	53.365779410063624	
3.0	24.501374185713757	pulse	1.0	t		25.0	female	black	3.858336649423	smiling	126	sub-04	1.0	2.0	126_smiling	0.0	54.065763502411755	
3.0	25.20136069288492	pulse	1.0	t		25.0	female	black	3.858336649423	smiling	126	sub-04	1.0	2.0	126_smiling	0.0	54.765750009582916	
3.0	25.901337540761233	pulse	1.0	t		25.0	female	black	3.858336649423	smiling	126	sub-04	1.0	2.0	126_smiling	0.0	55.46572685745923	
4.0	26.017886298621306	face	0.0		146	21.0	male	east_asian/white	3.501790688420215	smiling	036	sub-04	1.0	2.0	036_smiling	0.0	55.582275615319304	1.233314246162081
4.0	26.60132676460944	pulse	0.0	t		21.0	male	east_asian/white	3.501790688420215	smiling	036	sub-04	1.0	2.0	036_smiling	0.0	56.16571608130744	
4.0	27.251200544783387	fix	1.0		443	21.0	male	east_asian/white	3.501790688420215	smiling	036	sub-04	1.0	2.0	036_smiling	0.0	56.815589861481385	3.7665465996115017
4.0	27.301319006987796	pulse	1.0	t		21.0	male	east_asian/white	3.501790688420215	smiling	036	sub-04	1.0	2.0	036_smiling	0.0	56.865708323685794	
4.0	28.001255708416465	pulse	1.0	t		21.0	male	east_asian/white	3.501790688420215	smiling	036	sub-04	1.0	2.0	036_smiling	0.0	57.56564502511446	
4.0	28.701251573031186	pulse	1.0	t		21.0	male	east_asian/white	3.501790688420215	smiling	036	sub-04	1.0	2.0	036_smiling	0.0	58.265640889729184	
4.0	29.40124321170333	pulse	1.0	t		21.0	male	east_asian/white	3.501790688420215	smiling	036	sub-04	1.0	2.0	036_smiling	0.0	58.96563252840133	
4.0	30.10122670034525	pulse	1.0	t		21.0	male	east_asian/white	3.501790688420215	smiling	036	sub-04	1.0	2.0	036_smiling	0.0	59.66561601704325	
4.0	30.801208981574746	pulse	1.0	t		21.0	male	east_asian/white	3.501790688420215	smiling	036	sub-04	1.0	2.0	036_smiling	0.0	60.365598298272744	
5.0	31.01774714439489	face	0.0		145	22.0	female	white	4.614007162753682	neutral	009	sub-04	1.0	2.0	009_neutral	0.0	60.58213646109289	1.2333133406036723
5.0	31.50119216836356	pulse	0.0	t		22.0	female	white	4.614007162753682	neutral	009	sub-04	1.0	2.0	009_neutral	0.0	61.06558148506156	
5.0	32.20115362173692	pulse	0.0	t		22.0	female	white	4.614007162753682	neutral	009	sub-04	1.0	2.0	009_neutral	0.0	61.76554293843492	
5.0	32.25106048499856	fix	1.0		444	22.0	female	white	4.614007162753682	neutral	009	sub-04	1.0	2.0	009_neutral	0.0	61.81544980169656	3.766565012643696
5.0	32.90116035305891	pulse	1.0	t		22.0	female	white	4.614007162753682	neutral	009	sub-04	1.0	2.0	009_neutral	0.0	62.46554966975691	
5.0	33.601124221256214	pulse	1.0	t		22.0	female	white	4.614007162753682	neutral	009	sub-04	1.0	2.0	009_neutral	0.0	63.16551353795421	
5.0	34.30111284139912	pulse	1.0	t		22.0	female	white	4.614007162753682	neutral	009	sub-04	1.0	2.0	009_neutral	0.0	63.865502158097115	
5.0	35.00109633004104	pulse	1.0	t		22.0	female	white	4.614007162753682	neutral	009	sub-04	1.0	2.0	009_neutral	0.0	64.56548564673903	
5.0	35.7010701593872	pulse	1.0	t		22.0	female	white	4.614007162753682	neutral	009	sub-04	1.0	2.0	009_neutral	0.0	65.2654594760852	
6.0	36.01762549764226	face	0.0		145	31.0	female	east_asian	3.395941106247513	neutral	087	sub-04	1.0	2.0	087_neutral	0.0	65.58201481434025	1.2333003609255684
6.0	36.40105998694162	pulse	0.0	t		31.0	female	east_asian	3.395941106247513	neutral	087	sub-04	1.0	2.0	087_neutral	0.0	65.96544930363962	
6.0	37.101038947788766	pulse	0.0	t		31.0	female	east_asian	3.395941106247513	neutral	087	sub-04	1.0	2.0	087_neutral	0.0	66.66542826448676	
6.0	37.250925858567825	fix	1.0		445	31.0	female	east_asian	3.395941106247513	neutral	087	sub-04	1.0	2.0	087_neutral	0.0	66.81531517526582	3.7665520329646824
6.0	37.80102153087137	pulse	1.0	t		31.0	female	east_asian	3.395941106247513	neutral	087	sub-04	1.0	2.0	087_neutral	0.0	67.36541084756936	
6.0	38.500995058364424	pulse	1.0	t		31.0	female	east_asian	3.395941106247513	neutral	087	sub-04	1.0	2.0	087_neutral	0.0	68.06538437506242	
6.0	39.20098096183028	pulse	1.0	t		31.0	female	east_asian	3.395941106247513	neutral	087	sub-04	1.0	2.0	087_neutral	0.0	68.76537027852828	
6.0	39.90096294120667	pulse	1.0	t		31.0	female	east_asian	3.395941106247513	neutral	087	sub-04	1.0	2.0	087_neutral	0.0	69.46535225790467	
6.0	40.600936770552835	pulse	1.0	t		31.0	female	east_asian	3.395941106247513	neutral	087	sub-04	1.0	2.0	087_neutral	0.0	70.16532608725083	
7.0	41.01747789153251	face	0.0		145	47.0	male	east_asian	2.171110226820533	neutral	024	sub-04	1.0	2.0	024_neutral	0.0	70.5818672082305	1.2333163591338234
7.0	41.30094138890399	pulse	0.0	t		47.0	male	east_asian	2.171110226820533	neutral	024	sub-04	1.0	2.0	024_neutral	0.0	70.86533070560199	
7.0	42.00090314413046	pulse	0.0	t		47.0	male	east_asian	2.171110226820533	neutral	024	sub-04	1.0	2.0	024_neutral	0.0	71.56529246082846	
7.0	42.25079425066633	fix	1.0		444	47.0	male	east_asian	2.171110226820533	neutral	024	sub-04	1.0	2.0	024_neutral	0.0	71.81518356736433	3.7665481088761226
7.0	42.70089206612556	pulse	1.0	t		47.0	male	east_asian	2.171110226820533	neutral	024	sub-04	1.0	2.0	024_neutral	0.0	72.26528138282356	
7.0	43.400880686268465	pulse	1.0	t		47.0	male	east_asian	2.171110226820533	neutral	024	sub-04	1.0	2.0	024_neutral	0.0	72.96527000296646	
7.0	44.10084364890736	pulse	1.0	t		47.0	male	east_asian	2.171110226820533	neutral	024	sub-04	1.0	2.0	024_neutral	0.0	73.66523296560536	
7.0	44.80082593013685	pulse	1.0	t		47.0	male	east_asian	2.171110226820533	neutral	024	sub-04	1.0	2.0	024_neutral	0.0	74.36521524683485	
7.0	45.50080821136635	pulse	1.0	t		47.0	male	east_asian	2.171110226820533	neutral	024	sub-04	1.0	2.0	024_neutral	0.0	75.06519752806435	
8.0	46.017342359542454	face	0.0		145	27.0	female	white	4.181058495821727	neutral	039	sub-04	1.0	2.0	039_neutral	0.0	75.58173167624045	1.233314548015187
8.0	46.20079743521546	pulse	0.0	t		27.0	female	white	4.181058495821727	neutral	039	sub-04	1.0	2.0	039_neutral	0.0	75.76518675191346	
8.0	46.90076613306064	pulse	0.0	t		27.0	female	white	4.181058495821727	neutral	039	sub-04	1.0	2.0	039_neutral	0.0	76.46515544975864	
8.0	47.25065690755764	fix	1.0		444	27.0	female	white	4.181058495821727	neutral	039	sub-04	1.0	2.0	039_neutral	0.0	76.81504622425564	3.7665487125823347
8.0	47.600740867966124	pulse	1.0	t		27.0	female	white	4.181058495821727	neutral	039	sub-04	1.0	2.0	039_neutral	0.0	77.16513018466412	
8.0	48.30073703443304	pulse	1.0	t		27.0	female	white	4.181058495821727	neutral	039	sub-04	1.0	2.0	039_neutral	0.0	77.86512635113104	
8.0	49.00071810825102	pulse	1.0	t		27.0	female	white	4.181058495821727	neutral	039	sub-04	1.0	2.0	039_neutral	0.0	78.56510742494902	
8.0	49.700694352421124	pulse	1.0	t		27.0	female	white	4.181058495821727	neutral	039	sub-04	1.0	2.0	039_neutral	0.0	79.26508366911912	
8.0	50.40067663365062	pulse	1.0	t		27.0	female	white	4.181058495821727	neutral	039	sub-04	1.0	2.0	039_neutral	0.0	79.96506595034862	
9.0	51.017205620139976	face	0.0		145	31.0	female	white	2.1822522881018704	neutral	102	sub-04	1.0	2.0	102_neutral	1.0	80.58159493683797	1.2333163591338234
9.0	51.100732265155784	pulse	0.0	t		31.0	female	white	2.1822522881018704	neutral	102	sub-04	1.0	2.0	102_neutral	1.0	80.66512158185378	
9.0	51.8006402905512	pulse	0.0	t		31.0	female	white	2.1822522881018704	neutral	102	sub-04	1.0	2.0	102_neutral	1.0	81.3650296072492	
9.0	52.2505219792738	fix	1.0		236	31.0	female	white	2.1822522881018704	neutral	102	sub-04	1.0	2.0	102_neutral	1.0	81.8149112959718	2.008284958877084
9.0	52.50062528845774	pulse	1.0	t		31.0	female	white	2.1822522881018704	neutral	102	sub-04	1.0	2.0	102_neutral	1.0	82.06501460515574	
9.0	53.2006051548633	pulse	1.0	t		31.0	female	white	2.1822522881018704	neutral	102	sub-04	1.0	2.0	102_neutral	1.0	82.7649944715613	
9.0	53.90058230459272	pulse	1.0	t		31.0	female	white	2.1822522881018704	neutral	102	sub-04	1.0	2.0	102_neutral	1.0	83.46497162129072	
9.0	54.25880693815088	rating	2.0		234	31.0	female	white	2.1822522881018704	neutral	102	sub-04	1.0	2.0	102_neutral	1.0	83.82319625484888	1.9916054684890696
9.0	54.60057394326486	pulse	2.0	t		31.0	female	white	2.1822522881018704	neutral	102	sub-04	1.0	2.0	102_neutral	1.0	84.16496325996286	
9.0	54.76197745097761	response	2.0	w		31.0	female	white	2.1822522881018704	neutral	102	sub-04	1.0	2.0	102_neutral	1.0	84.32636676767561	
9.0	55.30053479293292	pulse	2.0	t		31.0	female	white	2.1822522881018704	neutral	102	sub-04	1.0	2.0	102_neutral	1.0	84.86492410963092	
9.0	56.00052250751651	pulse	2.0	t		31.0	female	white	2.1822522881018704	neutral	102	sub-04	1.0	2.0	102_neutral	1.0	85.5649118242145	
9.0	56.25041240663995	fix	3.0		444	31.0	female	white	2.1822522881018704	neutral	102	sub-04	1.0	2.0	102_neutral	1.0	85.81480172333795	3.7665511274062737
9.0	56.700512335070925	pulse	3.0	t		31.0	female	white	2.1822522881018704	neutral	102	sub-04	1.0	2.0	102_neutral	1.0	86.26490165176892	
9.0	57.40048767368171	pulse	3.0	t		31.0	female	white	2.1822522881018704	neutral	102	sub-04	1.0	2.0	102_neutral	1.0	86.96487699037971	
9.0	58.10047236973605	pulse	3.0	t		31.0	female	white	2.1822522881018704	neutral	102	sub-04	1.0	2.0	102_neutral	1.0	87.66486168643405	
9.0	58.800471252880016	pulse	3.0	t		31.0	female	white	2.1822522881018704	neutral	102	sub-04	1.0	2.0	102_neutral	1.0	88.36486056957801	
9.0	59.500415802486714	pulse	3.0	t		31.0	female	white	2.1822522881018704	neutral	102	sub-04	1.0	2.0	102_neutral	1.0	89.06480511918471	
10.0	60.016963534046226	face	0.0		145	20.0	male	black	3.1070433744528456	neutral	082	sub-04	1.0	2.0	082_neutral	0.0	89.58135285074422	1.2332979461016293
10.0	60.20041830786613	pulse	0.0	t		20.0	male	black	3.1070433744528456	neutral	082	sub-04	1.0	2.0	082_neutral	0.0	89.76480762456413	
10.0	60.900408437273654	pulse	0.0	t		20.0	male	black	3.1070433744528456	neutral	082	sub-04	1.0	2.0	082_neutral	0.0	90.46479775397165	
10.0	61.250261480147856	fix	1.0		444	20.0	male	black	3.1070433744528456	neutral	082	sub-04	1.0	2.0	082_neutral	0.0	90.81465079684585	3.7584104542556815
10.0	61.600383172178226	pulse	1.0	t		20.0	male	black	3.1070433744528456	neutral	082	sub-04	1.0	2.0	082_neutral	0.0	91.16477248887622	
10.0	62.30034764408265	pulse	1.0	t		20.0	male	black	3.1070433744528456	neutral	082	sub-04	1.0	2.0	082_neutral	0.0	91.86473696078065	
10.0	63.00032419010495	pulse	1.0	t		20.0	male	black	3.1070433744528456	neutral	082	sub-04	1.0	2.0	082_neutral	0.0	92.56471350680295	
10.0	63.70031311210096	pulse	1.0	t		20.0	male	black	3.1070433744528456	neutral	082	sub-04	1.0	2.0	082_neutral	0.0	93.26470242879896	
10.0	64.40029750630129	pulse	1.0	t		20.0	male	black	3.1070433744528456	neutral	082	sub-04	1.0	2.0	082_neutral	0.0	93.96468682299928	
11.0	65.00867193440354	face	0.0		146	28.0	male	east_asian	1.5563072025467568	neutral	005	sub-04	1.0	2.0	005_neutral	0.0	94.57306125110154	1.2414754453157002
11.0	65.1002930690629	pulse	0.0	t		28.0	male	east_asian	1.5563072025467568	neutral	005	sub-04	1.0	2.0	005_neutral	0.0	94.6646823857609	
11.0	65.80025754096641	pulse	0.0	t		28.0	male	east_asian	1.5563072025467568	neutral	005	sub-04	1.0	2.0	005_neutral	0.0	95.36464685766441	
11.0	66.25014737971924	fix	1.0		444	28.0	male	east_asian	1.5563072025467568	neutral	005	sub-04	1.0	2.0	005_neutral	0.0	95.81453669641724	3.7665417699636237
11.0	66.50025068890318	pulse	1.0	t		28.0	male	east_asian	1.5563072025467568	neutral	005	sub-04	1.0	2.0	005_neutral	0.0	96.06464000560118	
11.0	67.20022723492639	pulse	1.0	t		28.0	male	east_asian	1.5563072025467568	neutral	005	sub-04	1.0	2.0	005_neutral	0.0	96.76461655162439	
11.0	67.90021947730474	pulse	1.0	t		28.0	male	east_asian	1.5563072025467568	neutral	005	sub-04	1.0	2.0	005_neutral	0.0	97.46460879400274	
11.0	68.60017700658955	pulse	1.0	t		28.0	male	east_asian	1.5563072025467568	neutral	005	sub-04	1.0	2.0	005_neutral	0.0	98.16456632328754	
11.0	69.30016985267412	pulse	1.0	t		28.0	male	east_asian	1.5563072025467568	neutral	005	sub-04	1.0	2.0	005_neutral	0.0	98.86455916937211	
12.0	70.01668914968286	face	0.0		146	20.0	male	black	2.609629924393156	smiling	043	sub-04	1.0	2.0	043_smiling	0.0	99.58107846638086	1.2333175665453382
12.0	70.00320899908183	pulse	0.0	t		20.0	male	black	2.609629924393156	smiling	043	sub-04	1.0	2.0	043_smiling	0.0	99.56759831577983	
12.0	70.70013320772159	pulse	0.0	t		20.0	male	black	2.609629924393156	smiling	043	sub-04	1.0	2.0	043_smiling	0.0	100.26452252441959	
12.0	71.2500067162282	fix	1.0		443	20.0	male	black	2.609629924393156	smiling	043	sub-04	1.0	2.0	043_smiling	0.0	100.8143960329262	3.7581834608108693
12.0	71.40011760192283	pulse	1.0	t		20.0	male	black	2.609629924393156	smiling	043	sub-04	1.0	2.0	043_smiling	0.0	100.96450691862083	
12.0	72.10009082756278	pulse	1.0	t		20.0	male	black	2.609629924393156	smiling	043	sub-04	1.0	2.0	043_smiling	0.0	101.66448014426078	
12.0	72.80007884399947	pulse	1.0	t		20.0	male	black	2.609629924393156	smiling	043	sub-04	1.0	2.0	043_smiling	0.0	102.36446816069747	
12.0	73.50005840855192	pulse	1.0	t		20.0	male	black	2.609629924393156	smiling	043	sub-04	1.0	2.0	043_smiling	0.0	103.06444772524992	
12.0	74.20003676569286	pulse	1.0	t		20.0	male	black	2.609629924393156	smiling	043	sub-04	1.0	2.0	043_smiling	0.0	103.76442608239086	
12.0	74.90016333264975	pulse	1.0	t		20.0	male	black	2.609629924393156	smiling	043	sub-04	1.0	2.0	043_smiling	0.0	104.46455264934775	
13.0	75.00819017703907	face	0.0		147	25.0	female	west_asian	2.6756864305610826	smiling	064	sub-04	1.0	2.0	064_smiling	0.0	104.57257949373707	1.2416825164636975
13.0	75.59999951703503	pulse	0.0	t		25.0	female	west_asian	2.6756864305610826	smiling	064	sub-04	1.0	2.0	064_smiling	0.0	105.16438883373303	
13.0	76.24987269350277	fix	1.0		443	25.0	female	west_asian	2.6756864305610826	smiling	064	sub-04	1.0	2.0	064_smiling	0.0	105.81426201020076	3.7665508255531677
13.0	76.29997727046975	pulse	1.0	t		25.0	female	west_asian	2.6756864305610826	smiling	064	sub-04	1.0	2.0	064_smiling	0.0	105.86436658716775	
13.0	76.99996015540546	pulse	1.0	t		25.0	female	west_asian	2.6756864305610826	smiling	064	sub-04	1.0	2.0	064_smiling	0.0	106.56434947210346	
13.0	77.69993187178079	pulse	1.0	t		25.0	female	west_asian	2.6756864305610826	smiling	064	sub-04	1.0	2.0	064_smiling	0.0	107.26432118847879	
13.0	78.39992200118832	pulse	1.0	t		25.0	female	west_asian	2.6756864305610826	smiling	064	sub-04	1.0	2.0	064_smiling	0.0	107.96431131788631	
13.0	79.09991303615425	pulse	1.0	t		25.0	female	west_asian	2.6756864305610826	smiling	064	sub-04	1.0	2.0	064_smiling	0.0	108.66430235285225	
13.0	79.7998980340617	pulse	1.0	t		25.0	female	west_asian	2.6756864305610826	smiling	064	sub-04	1.0	2.0	064_smiling	0.0	109.3642873507597	
14.0	80.01642351905593	face	0.0		145	24.0	female	black	3.0955033824114606	smiling	099	sub-04	1.0	2.0	099_smiling	0.0	109.58081283575393	1.2333142461629905
14.0	80.49986975043703	pulse	0.0	t		24.0	female	black	3.0955033824114606	smiling	099	sub-04	1.0	2.0	099_smiling	0.0	110.06425906713503	
14.0	81.19984871128327	pulse	0.0	t		24.0	female	black	3.0955033824114606	smiling	099	sub-04	1.0	2.0	099_smiling	0.0	110.76423802798126	
14.0	81.24973776521892	fix	1.0		444	24.0	female	black	3.0955033824114606	smiling	099	sub-04	1.0	2.0	099_smiling	0.0	110.81412708191692	3.7665523348177885
14.0	81.89983129436587	pulse	1.0	t		24.0	female	black	3.0955033824114606	smiling	099	sub-04	1.0	2.0	099_smiling	0.0	111.46422061106387	
14.0	82.59980723668377	pulse	1.0	t		24.0	female	black	3.0955033824114606	smiling	099	sub-04	1.0	2.0	099_smiling	0.0	112.16419655338177	
14.0	83.29979193273721	pulse	1.0	t		24.0	female	black	3.0955033824114606	smiling	099	sub-04	1.0	2.0	099_smiling	0.0	112.8641812494352	
14.0	83.99977089358435	pulse	1.0	t		24.0	female	black	3.0955033824114606	smiling	099	sub-04	1.0	2.0	099_smiling	0.0	113.56416021028235	
14.0	84.69975468407847	pulse	1.0	t		24.0	female	black	3.0955033824114606	smiling	099	sub-04	1.0	2.0	099_smiling	0.0	114.26414400077647	
15.0	85.01629010003671	face	0.0		145	20.0	male	black	2.609629924393156	neutral	043	sub-04	1.0	2.0	043_neutral	0.0	114.58067941673471	1.2333121331921575
15.0	85.39973636160266	pulse	0.0	t		20.0	male	black	2.609629924393156	neutral	043	sub-04	1.0	2.0	043_neutral	0.0	114.96412567830066	
15.0	86.09971320947898	pulse	0.0	t		20.0	male	black	2.609629924393156	neutral	043	sub-04	1.0	2.0	043_neutral	0.0	115.66410252617698	
15.0	86.24960223322887	fix	1.0		444	20.0	male	black	2.609629924393156	neutral	043	sub-04	1.0	2.0	043_neutral	0.0	115.81399154992687	3.7665197346950663
15.0	86.79969911294393	pulse	1.0	t		20.0	male	black	2.609629924393156	neutral	043	sub-04	1.0	2.0	043_neutral	0.0	116.36408842964192	
15.0	87.49967565896713	pulse	1.0	t		20.0	male	black	2.609629924393156	neutral	043	sub-04	1.0	2.0	043_neutral	0.0	117.06406497566513	
15.0	88.19965884575595	pulse	1.0	t		20.0	male	black	2.609629924393156	neutral	043	sub-04	1.0	2.0	043_neutral	0.0	117.76404816245395	
15.0	88.89962663804272	pulse	1.0	t		20.0	male	black	2.609629924393156	neutral	043	sub-04	1.0	2.0	043_neutral	0.0	118.46401595474072	
15.0	89.59961223965547	pulse	1.0	t		20.0	male	black	2.609629924393156	neutral	043	sub-04	1.0	2.0	043_neutral	0.0	119.16400155635347	
16.0	90.01612196792394	face	0.0		145	22.0	female	white	4.614007162753682	smiling	009	sub-04	1.0	2.0	009_smiling	0.0	119.58051128462193	1.2333453370201823
16.0	90.29961142465163	pulse	0.0	t		22.0	female	white	4.614007162753682	smiling	009	sub-04	1.0	2.0	009_smiling	0.0	119.86400074134963	
16.0	90.99957982064461	pulse	0.0	t		22.0	female	white	4.614007162753682	smiling	009	sub-04	1.0	2.0	009_smiling	0.0	120.56396913734261	
16.0	91.24946730494412	fix	1.0		444	22.0	female	white	4.614007162753682	smiling	009	sub-04	1.0	2.0	009_smiling	0.0	120.81385662164212	3.766553844083319
16.0	91.69956512040426	pulse	1.0	t		22.0	female	white	4.614007162753682	smiling	009	sub-04	1.0	2.0	009_smiling	0.0	121.26395443710226	
16.0	92.39954076086815	pulse	1.0	t		22.0	female	white	4.614007162753682	smiling	009	sub-04	1.0	2.0	009_smiling	0.0	121.96393007756615	
16.0	93.09954054957143	pulse	1.0	t		22.0	female	white	4.614007162753682	smiling	009	sub-04	1.0	2.0	009_smiling	0.0	122.66392986626943	
16.0	93.79948721214896	pulse	1.0	t		22.0	female	white	4.614007162753682	smiling	009	sub-04	1.0	2.0	009_smiling	0.0	123.36387652884696	
16.0	94.49948730270444	pulse	1.0	t		22.0	female	white	4.614007162753682	smiling	009	sub-04	1.0	2.0	009_smiling	0.0	124.06387661940244	
17.0	95.01602114902744	face	0.0		145	24.0	male	white	3.1153999204138483	smiling	012	sub-04	1.0	2.0	012_smiling	0.0	124.58041046572544	1.2333015683370832
17.0	95.19947652655355	pulse	0.0	t		24.0	male	white	3.1153999204138483	smiling	012	sub-04	1.0	2.0	012_smiling	0.0	124.76386584325155	
17.0	95.89942017060093	pulse	0.0	t		24.0	male	white	3.1153999204138483	smiling	012	sub-04	1.0	2.0	012_smiling	0.0	125.46380948729893	
17.0	96.24932271736452	fix	1.0		444	24.0	male	white	3.1153999204138483	smiling	012	sub-04	1.0	2.0	012_smiling	0.0	125.81371203406252	3.7665625978197568
17.0	96.59942931674595	pulse	1.0	t		24.0	male	white	3.1153999204138483	smiling	012	sub-04	1.0	2.0	012_smiling	0.0	126.16381863344395	
17.0	97.29941069241704	pulse	1.0	t		24.0	male	white	3.1153999204138483	smiling	012	sub-04	1.0	2.0	012_smiling	0.0	126.86380000911504	
17.0	97.99939508661737	pulse	1.0	t		24.0	male	white	3.1153999204138483	smiling	012	sub-04	1.0	2.0	012_smiling	0.0	127.56378440331537	
17.0	98.69936438816967	pulse	1.0	t		24.0	male	white	3.1153999204138483	smiling	012	sub-04	1.0	2.0	012_smiling	0.0	128.26375370486767	
17.0	99.39935964907727	pulse	1.0	t		24.0	male	white	3.1153999204138483	smiling	012	sub-04	1.0	2.0	012_smiling	0.0	128.96374896577527	
18.0	100.01588531518428	face	0.0		145	40.0	male	black	2.408674890569041	smiling	061	sub-04	1.0	2.0	061_smiling	1.0	129.58027463188228	1.2333118313390514
18.0	100.09934072289525	pulse	0.0	t		40.0	male	black	2.408674890569041	smiling	061	sub-04	1.0	2.0	061_smiling	1.0	129.66373003959325	
18.0	100.79931908003618	pulse	0.0	t		40.0	male	black	2.408674890569041	smiling	061	sub-04	1.0	2.0	061_smiling	1.0	130.36370839673418	
18.0	101.24919714652333	fix	1.0		236	40.0	male	black	2.408674890569041	smiling	061	sub-04	1.0	2.0	061_smiling	1.0	130.81358646322133	1.9999474775804629
18.0	101.49930075756038	pulse	1.0	t		40.0	male	black	2.408674890569041	smiling	061	sub-04	1.0	2.0	061_smiling	1.0	131.06369007425837	
18.0	102.19924319419533	pulse	1.0	t		40.0	male	black	2.408674890569041	smiling	061	sub-04	1.0	2.0	061_smiling	1.0	131.76363251089333	
18.0	102.89926652743179	pulse	1.0	t		40.0	male	black	2.408674890569041	smiling	061	sub-04	1.0	2.0	061_smiling	1.0	132.4636558441298	
18.0	103.24914462410379	rating	2.0		236	40.0	male	black	2.408674890569041	smiling	061	sub-04	1.0	2.0	061_smiling	1.0	132.8135339408018	2.008280129229206
18.0	103.59924639383735	pulse	2.0	t		40.0	male	black	2.408674890569041	smiling	061	sub-04	1.0	2.0	061_smiling	1.0	133.16363571053535	
18.0	104.29923139174389	pulse	2.0	t		40.0	male	black	2.408674890569041	smiling	061	sub-04	1.0	2.0	061_smiling	1.0	133.86362070844189	
18.0	104.50753892922421	response	2.0	n		40.0	male	black	2.408674890569041	smiling	061	sub-04	1.0	2.0	061_smiling	1.0	134.0719282459222	
18.0	104.99919737291293	pulse	2.0	t		40.0	male	black	2.408674890569041	smiling	061	sub-04	1.0	2.0	061_smiling	1.0	134.56358668961093	
18.0	105.257424753333	fix	3.0		444	40.0	male	black	2.408674890569041	smiling	061	sub-04	1.0	2.0	061_smiling	1.0	134.821814070031	3.7665490144345313
18.0	105.69918961529129	pulse	3.0	t		40.0	male	black	2.408674890569041	smiling	061	sub-04	1.0	2.0	061_smiling	1.0	135.2635789319893	
18.0	106.3991728020801	pulse	3.0	t		40.0	male	black	2.408674890569041	smiling	061	sub-04	1.0	2.0	061_smiling	1.0	135.9635621187781	
18.0	107.09914844254399	pulse	3.0	t		40.0	male	black	2.408674890569041	smiling	061	sub-04	1.0	2.0	061_smiling	1.0	136.663537759242	
18.0	107.7991313274797	pulse	3.0	t		40.0	male	black	2.408674890569041	smiling	061	sub-04	1.0	2.0	061_smiling	1.0	137.3635206441777	
18.0	108.49910545867897	pulse	3.0	t		40.0	male	black	2.408674890569041	smiling	061	sub-04	1.0	2.0	061_smiling	1.0	138.06349477537697	
19.0	109.02397376776753	face	0.0		145	22.0	female	west_asian	3.8205332272184642	neutral	066	sub-04	1.0	2.0	066_neutral	0.0	138.58836308446553	1.2333151517223087
19.0	109.19909800291043	pulse	0.0	t		22.0	female	west_asian	3.8205332272184642	neutral	066	sub-04	1.0	2.0	066_neutral	0.0	138.76348731960843	
19.0	109.89906851187334	pulse	0.0	t		22.0	female	west_asian	3.8205332272184642	neutral	066	sub-04	1.0	2.0	066_neutral	0.0	139.46345782857134	
19.0	110.25728891948984	fix	1.0		444	22.0	female	west_asian	3.8205332272184642	neutral	066	sub-04	1.0	2.0	066_neutral	0.0	139.82167823618784	3.766550825552258
19.0	110.5990547171923	pulse	1.0	t		22.0	female	west_asian	3.8205332272184642	neutral	066	sub-04	1.0	2.0	066_neutral	0.0	140.1634440338903	
19.0	111.29903518730407	pulse	1.0	t		22.0	female	west_asian	3.8205332272184642	neutral	066	sub-04	1.0	2.0	066_neutral	0.0	140.86342450400207	
19.0	111.999013544445	pulse	1.0	t		22.0	female	west_asian	3.8205332272184642	neutral	066	sub-04	1.0	2.0	066_neutral	0.0	141.563402861143	
19.0	112.69898978861511	pulse	1.0	t		22.0	female	west_asian	3.8205332272184642	neutral	066	sub-04	1.0	2.0	066_neutral	0.0	142.2633791053131	
19.0	113.39897025872688	pulse	1.0	t		22.0	female	west_asian	3.8205332272184642	neutral	066	sub-04	1.0	2.0	066_neutral	0.0	142.96335957542487	
20.0	114.0238397450421	face	0.0		145	19.0	male	white	2.243931555909272	smiling	130	sub-04	1.0	2.0	130_smiling	0.0	143.5882290617401	1.2333145480160965
20.0	114.09905275514757	pulse	0.0	t		19.0	male	white	2.243931555909272	smiling	130	sub-04	1.0	2.0	130_smiling	0.0	143.66344207184557	
20.0	114.79894417862852	pulse	0.0	t		19.0	male	white	2.243931555909272	smiling	130	sub-04	1.0	2.0	130_smiling	0.0	144.36333349532651	
20.0	115.25715429305819	fix	1.0		444	19.0	male	white	2.243931555909272	smiling	130	sub-04	1.0	2.0	130_smiling	0.0	144.8215436097562	3.7665502218469555
20.0	115.49892374318188	pulse	1.0	t		19.0	male	white	2.243931555909272	smiling	130	sub-04	1.0	2.0	130_smiling	0.0	145.06331305987987	
20.0	116.1989078355291	pulse	1.0	t		19.0	male	white	2.243931555909272	smiling	130	sub-04	1.0	2.0	130_smiling	0.0	145.7632971522271	
20.0	116.8988768352283	pulse	1.0	t		19.0	male	white	2.243931555909272	smiling	130	sub-04	1.0	2.0	130_smiling	0.0	146.4632661519263	
20.0	117.59885489051612	pulse	1.0	t		19.0	male	white	2.243931555909272	smiling	130	sub-04	1.0	2.0	130_smiling	0.0	147.16324420721412	
20.0	118.29886343295584	pulse	1.0	t		19.0	male	white	2.243931555909272	smiling	130	sub-04	1.0	2.0	130_smiling	0.0	147.86325274965384	
20.0	118.99882699930004	pulse	1.0	t		19.0	male	white	2.243931555909272	smiling	130	sub-04	1.0	2.0	130_smiling	0.0	148.56321631599803	
21.0	119.02370451490515	face	0.0		146	24.0	female	black	3.0955033824114606	neutral	099	sub-04	1.0	2.0	099_neutral	0.0	148.58809383160315	1.2333130387514757
21.0	119.698813204619	pulse	0.0	t		24.0	female	black	3.0955033824114606	neutral	099	sub-04	1.0	2.0	099_neutral	0.0	149.263202521317	
21.0	120.25701755365662	fix	1.0		443	24.0	female	black	3.0955033824114606	neutral	099	sub-04	1.0	2.0	099_neutral	0.0	149.82140687035462	3.766552938523091
21.0	120.39879216546615	pulse	1.0	t		24.0	female	black	3.0955033824114606	neutral	099	sub-04	1.0	2.0	099_neutral	0.0	149.96318148216415	
21.0	121.09876931519466	pulse	1.0	t		24.0	female	black	3.0955033824114606	neutral	099	sub-04	1.0	2.0	099_neutral	0.0	150.66315863189266	
21.0	121.79875008715953	pulse	1.0	t		24.0	female	black	3.0955033824114606	neutral	099	sub-04	1.0	2.0	099_neutral	0.0	151.36313940385753	
21.0	122.49872784059426	pulse	1.0	t		24.0	female	black	3.0955033824114606	neutral	099	sub-04	1.0	2.0	099_neutral	0.0	152.06311715729225	
21.0	123.19871434776633	pulse	1.0	t		24.0	female	black	3.0955033824114606	neutral	099	sub-04	1.0	2.0	099_neutral	0.0	152.76310366446432	
21.0	123.89868908267181	pulse	1.0	t		24.0	female	black	3.0955033824114606	neutral	099	sub-04	1.0	2.0	099_neutral	0.0	153.4630783993698	
22.0	124.02357049217972	face	0.0		146	19.0	male	white	3.2522881018702745	neutral	018	sub-04	1.0	2.0	018_neutral	1.0	153.5879598088777	1.2333136424567783
22.0	124.59867860837312	pulse	0.0	t		19.0	male	white	3.2522881018702745	neutral	018	sub-04	1.0	2.0	018_neutral	1.0	154.16306792507112	
22.0	125.2568841346365	fix	1.0		236	19.0	male	white	3.2522881018702745	neutral	018	sub-04	1.0	2.0	018_neutral	1.0	154.8212734513345	1.9999471757282663
22.0	125.29865817292557	pulse	1.0	t		19.0	male	white	3.2522881018702745	neutral	018	sub-04	1.0	2.0	018_neutral	1.0	154.86304748962357	
22.0	125.99864317083211	pulse	1.0	t		19.0	male	white	3.2522881018702745	neutral	018	sub-04	1.0	2.0	018_neutral	1.0	155.5630324875301	
22.0	126.69862273538547	pulse	1.0	t		19.0	male	white	3.2522881018702745	neutral	018	sub-04	1.0	2.0	018_neutral	1.0	156.26301205208347	
22.0	127.25683131036476	rating	2.0		235	19.0	male	white	3.2522881018702745	neutral	018	sub-04	1.0	2.0	018_neutral	1.0	156.82122062706276	1.9999444590503117
22.0	127.39860863885133	pulse	2.0	t		19.0	male	white	3.2522881018702745	neutral	018	sub-04	1.0	2.0	018_neutral	1.0	156.96299795554933	
22.0	128.0985833737559	pulse	2.0	t		19.0	male	white	3.2522881018702745	neutral	018	sub-04	1.0	2.0	018_neutral	1.0	157.6629726904539	
22.0	128.52358060425468	response	2.0	e		19.0	male	white	3.2522881018702745	neutral	018	sub-04	1.0	2.0	018_neutral	1.0	158.08796992095267	
22.0	128.79855539198434	pulse	2.0	t		19.0	male	white	3.2522881018702745	neutral	018	sub-04	1.0	2.0	018_neutral	1.0	158.36294470868233	
22.0	129.25677576941507	fix	3.0		444	19.0	male	white	3.2522881018702745	neutral	018	sub-04	1.0	2.0	018_neutral	1.0	158.82116508611307	3.7665508255531677
22.0	129.49853646580232	pulse	3.0	t		19.0	male	white	3.2522881018702745	neutral	018	sub-04	1.0	2.0	018_neutral	1.0	159.06292578250032	
22.0	130.19852055814954	pulse	3.0	t		19.0	male	white	3.2522881018702745	neutral	018	sub-04	1.0	2.0	018_neutral	1.0	159.76290987484754	
22.0	130.89849861343828	pulse	3.0	t		19.0	male	white	3.2522881018702745	neutral	018	sub-04	1.0	2.0	018_neutral	1.0	160.46288793013628	
22.0	131.59848632802095	pulse	3.0	t		19.0	male	white	3.2522881018702745	neutral	018	sub-04	1.0	2.0	018_neutral	1.0	161.16287564471895	
22.0	132.29846679813363	pulse	3.0	t		19.0	male	white	3.2522881018702745	neutral	018	sub-04	1.0	2.0	018_neutral	1.0	161.86285611483163	
22.0	132.99845662568805	pulse	3.0	t		19.0	male	white	3.2522881018702745	neutral	018	sub-04	1.0	2.0	018_neutral	1.0	162.56284594238605	
23.0	133.02332659496824	face	0.0		146	19.0	female	white	4.298846000795861	neutral	100	sub-04	1.0	2.0	100_neutral	0.0	162.58771591166624	1.2333142461629905
23.0	133.69843437912277	pulse	0.0	t		19.0	female	white	4.298846000795861	neutral	100	sub-04	1.0	2.0	100_neutral	0.0	163.26282369582077	
23.0	134.25664084113123	fix	1.0		1184	19.0	female	white	4.298846000795861	neutral	100	sub-04	1.0	2.0	100_neutral	0.0	163.82103015782923	10.01638246704988
23.0	134.3984175659116	pulse	1.0	t		19.0	female	white	4.298846000795861	neutral	100	sub-04	1.0	2.0	100_neutral	0.0	163.96280688260958	
23.0	135.0983938100817	pulse	1.0	t		19.0	female	white	4.298846000795861	neutral	100	sub-04	1.0	2.0	100_neutral	0.0	164.6627831267797	
23.0	135.79837518575277	pulse	1.0	t		19.0	female	white	4.298846000795861	neutral	100	sub-04	1.0	2.0	100_neutral	0.0	165.36276450245077	
23.0	136.49835052436356	pulse	1.0	t		19.0	female	white	4.298846000795861	neutral	100	sub-04	1.0	2.0	100_neutral	0.0	166.06273984106156	
23.0	137.19833763524093	pulse	1.0	t		19.0	female	white	4.298846000795861	neutral	100	sub-04	1.0	2.0	100_neutral	0.0	166.76272695193893	
23.0	137.89832263314747	pulse	1.0	t		19.0	female	white	4.298846000795861	neutral	100	sub-04	1.0	2.0	100_neutral	0.0	167.46271194984547	
23.0	138.5982994810238	pulse	1.0	t		19.0	female	white	4.298846000795861	neutral	100	sub-04	1.0	2.0	100_neutral	0.0	168.16268879772178	
23.0	139.2982832715188	pulse	1.0	t		19.0	female	white	4.298846000795861	neutral	100	sub-04	1.0	2.0	100_neutral	0.0	168.8626725882168	
23.0	139.99826283607126	pulse	1.0	t		19.0	female	white	4.298846000795861	neutral	100	sub-04	1.0	2.0	100_neutral	0.0	169.56265215276926	
23.0	140.69823032650493	pulse	1.0	t		19.0	female	white	4.298846000795861	neutral	100	sub-04	1.0	2.0	100_neutral	0.0	170.26261964320292	
23.0	141.39823856709154	pulse	1.0	t		19.0	female	white	4.298846000795861	neutral	100	sub-04	1.0	2.0	100_neutral	0.0	170.96262788378954	
23.0	142.09820303899505	pulse	1.0	t		19.0	female	white	4.298846000795861	neutral	100	sub-04	1.0	2.0	100_neutral	0.0	171.66259235569305	
23.0	142.79818743319538	pulse	1.0	t		19.0	female	white	4.298846000795861	neutral	100	sub-04	1.0	2.0	100_neutral	0.0	172.36257674989338	
23.0	143.49816216810086	pulse	1.0	t		19.0	female	white	4.298846000795861	neutral	100	sub-04	1.0	2.0	100_neutral	0.0	173.06255148479886	
23.0	144.19814505303657	pulse	1.0	t		19.0	female	white	4.298846000795861	neutral	100	sub-04	1.0	2.0	100_neutral	0.0	173.76253436973457	
24.0	144.2730233081811	face	0.0		146	34.0	male	white	2.651014723438122	smiling	121	sub-04	1.0	2.0	121_smiling	0.0	173.8374126248791	1.2333121331921575
24.0	144.89812491944213	pulse	0.0	t		34.0	male	white	2.651014723438122	smiling	121	sub-04	1.0	2.0	121_smiling	0.0	174.46251423614012	
24.0	145.50633544137327	fix	1.0		443	34.0	male	white	2.651014723438122	smiling	121	sub-04	1.0	2.0	121_smiling	0.0	175.07072475807126	3.7665532403771067
24.0	145.59811444514435	pulse	1.0	t		34.0	male	white	2.651014723438122	smiling	121	sub-04	1.0	2.0	121_smiling	0.0	175.16250376184234	
24.0	146.29808555781347	pulse	1.0	t		34.0	male	white	2.651014723438122	smiling	121	sub-04	1.0	2.0	121_smiling	0.0	175.86247487451146	
24.0	146.99805516121796	pulse	1.0	t		34.0	male	white	2.651014723438122	smiling	121	sub-04	1.0	2.0	121_smiling	0.0	176.56244447791596	
24.0	147.69804830915473	pulse	1.0	t		34.0	male	white	2.651014723438122	smiling	121	sub-04	1.0	2.0	121_smiling	0.0	177.26243762585273	
24.0	148.39803662744453	pulse	1.0	t		34.0	male	white	2.651014723438122	smiling	121	sub-04	1.0	2.0	121_smiling	0.0	177.96242594414252	
24.0	149.09801890867402	pulse	1.0	t		34.0	male	white	2.651014723438122	smiling	121	sub-04	1.0	2.0	121_smiling	0.0	178.66240822537202	
25.0	149.27288868175037	face	0.0		146	32.0	male	white	2.389176283326701	neutral	092	sub-04	1.0	2.0	092_neutral	0.0	178.83727799844837	1.2416462941055215
25.0	149.797999982492	pulse	0.0	t		32.0	male	white	2.389176283326701	neutral	092	sub-04	1.0	2.0	092_neutral	0.0	179.36238929919	
25.0	150.49797894333915	pulse	0.0	t		32.0	male	white	2.389176283326701	neutral	092	sub-04	1.0	2.0	092_neutral	0.0	180.06236826003715	
25.0	150.5145349758559	fix	1.0		443	32.0	male	white	2.389176283326701	neutral	092	sub-04	1.0	2.0	092_neutral	0.0	180.0789242925539	3.758218777609727
25.0	151.19797390239455	pulse	1.0	t		32.0	male	white	2.389176283326701	neutral	092	sub-04	1.0	2.0	092_neutral	0.0	180.76236321909255	
25.0	151.89793807244496	pulse	1.0	t		32.0	male	white	2.389176283326701	neutral	092	sub-04	1.0	2.0	092_neutral	0.0	181.46232738914296	
25.0	152.5979106943796	pulse	1.0	t		32.0	male	white	2.389176283326701	neutral	092	sub-04	1.0	2.0	092_neutral	0.0	182.1623000110776	
25.0	153.29790022008092	pulse	1.0	t		32.0	male	white	2.389176283326701	neutral	092	sub-04	1.0	2.0	092_neutral	0.0	182.86228953677892	
25.0	153.99787404942708	pulse	1.0	t		32.0	male	white	2.389176283326701	neutral	092	sub-04	1.0	2.0	092_neutral	0.0	183.56226336612508	
26.0	154.27275375346562	face	0.0		145	23.0	male	white	2.6275368085953046	neutral	141	sub-04	1.0	2.0	141_neutral	0.0	183.83714307016362	1.2333097183682185
26.0	154.69786810292317	pulse	0.0	t		23.0	male	white	2.6275368085953046	neutral	141	sub-04	1.0	2.0	141_neutral	0.0	184.26225741962116	
26.0	155.39784313968084	pulse	0.0	t		23.0	male	white	2.6275368085953046	neutral	141	sub-04	1.0	2.0	141_neutral	0.0	184.96223245637884	
26.0	155.50606347183384	fix	1.0		444	23.0	male	white	2.6275368085953046	neutral	141	sub-04	1.0	2.0	141_neutral	0.0	185.07045278853184	3.766551731112486
26.0	156.09782723202898	pulse	1.0	t		23.0	male	white	2.6275368085953046	neutral	141	sub-04	1.0	2.0	141_neutral	0.0	185.66221654872697	
26.0	156.7978046836106	pulse	1.0	t		23.0	male	white	2.6275368085953046	neutral	141	sub-04	1.0	2.0	141_neutral	0.0	186.3621940003086	
26.0	157.49778575742857	pulse	1.0	t		23.0	male	white	2.6275368085953046	neutral	141	sub-04	1.0	2.0	141_neutral	0.0	187.06217507412657	
26.0	158.1977698497767	pulse	1.0	t		23.0	male	white	2.6275368085953046	neutral	141	sub-04	1.0	2.0	141_neutral	0.0	187.7621591664747	
26.0	158.89773824576878	pulse	1.0	t		23.0	male	white	2.6275368085953046	neutral	141	sub-04	1.0	2.0	141_neutral	0.0	188.46212756246678	
27.0	159.27261520294633	face	0.0		145	28.0	female	white	5.676880222841227	neutral	124	sub-04	1.0	2.0	124_neutral	0.0	188.83700451964432	1.233314548015187
27.0	159.59773199741176	pulse	0.0	t		28.0	female	white	5.676880222841227	neutral	124	sub-04	1.0	2.0	124_neutral	0.0	189.16212131410975	
27.0	160.29770914714118	pulse	0.0	t		28.0	female	white	5.676880222841227	neutral	124	sub-04	1.0	2.0	124_neutral	0.0	189.86209846383917	
27.0	160.5059297509615	fix	1.0		444	28.0	female	white	5.676880222841227	neutral	124	sub-04	1.0	2.0	124_neutral	0.0	190.0703190676595	3.766547203317714
27.0	160.99769716357787	pulse	1.0	t		28.0	female	white	5.676880222841227	neutral	124	sub-04	1.0	2.0	124_neutral	0.0	190.56208648027587	
27.0	161.6976700873647	pulse	1.0	t		28.0	female	white	5.676880222841227	neutral	124	sub-04	1.0	2.0	124_neutral	0.0	191.2620594040627	
27.0	162.3976517648889	pulse	1.0	t		28.0	female	white	5.676880222841227	neutral	124	sub-04	1.0	2.0	124_neutral	0.0	191.9620410815869	
27.0	163.09763917761939	pulse	1.0	t		28.0	female	white	5.676880222841227	neutral	124	sub-04	1.0	2.0	124_neutral	0.0	192.66202849431738	
27.0	163.7975843309323	pulse	1.0	t		28.0	female	white	5.676880222841227	neutral	124	sub-04	1.0	2.0	124_neutral	0.0	193.3619736476303	
28.0	164.27247695427923	face	0.0		145	19.0	male	white	2.243931555909272	neutral	130	sub-04	1.0	2.0	130_neutral	0.0	193.83686627097723	1.2333199813692772
28.0	164.49760011784292	pulse	0.0	t		19.0	male	white	2.243931555909272	neutral	130	sub-04	1.0	2.0	130_neutral	0.0	194.06198943454092	
28.0	165.197581493514	pulse	0.0	t		19.0	male	white	2.243931555909272	neutral	130	sub-04	1.0	2.0	130_neutral	0.0	194.761970810212	
28.0	165.5057969356485	fix	1.0		444	19.0	male	white	2.243931555909272	neutral	130	sub-04	1.0	2.0	130_neutral	0.0	195.0701862523465	3.7665499199938495
28.0	165.89756618956744	pulse	1.0	t		19.0	male	white	2.243931555909272	neutral	130	sub-04	1.0	2.0	130_neutral	0.0	195.46195550626544	
28.0	166.59753609482505	pulse	1.0	t		19.0	male	white	2.243931555909272	neutral	130	sub-04	1.0	2.0	130_neutral	0.0	196.16192541152304	
28.0	167.2975229038493	pulse	1.0	t		19.0	male	white	2.243931555909272	neutral	130	sub-04	1.0	2.0	130_neutral	0.0	196.8619122205473	
28.0	167.9975042795204	pulse	1.0	t		19.0	male	white	2.243931555909272	neutral	130	sub-04	1.0	2.0	130_neutral	0.0	197.5618935962184	
28.0	168.69747539218952	pulse	1.0	t		19.0	male	white	2.243931555909272	neutral	130	sub-04	1.0	2.0	130_neutral	0.0	198.26186470888752	
29.0	169.27234685564235	face	0.0		145	21.0	male	black	2.969757262236371	smiling	137	sub-04	1.0	2.0	137_smiling	0.0	198.83673617234035	1.2333142461629905
29.0	169.39747246421575	pulse	0.0	t		21.0	male	black	2.969757262236371	smiling	137	sub-04	1.0	2.0	137_smiling	0.0	198.96186178091375	
29.0	170.09744780282654	pulse	0.0	t		21.0	male	black	2.969757262236371	smiling	137	sub-04	1.0	2.0	137_smiling	0.0	199.66183711952453	
29.0	170.50566110180534	fix	1.0		444	21.0	male	black	2.969757262236371	smiling	137	sub-04	1.0	2.0	137_smiling	0.0	200.07005041850334	3.7665529385240006
29.0	170.79743521555702	pulse	1.0	t		21.0	male	black	2.969757262236371	smiling	137	sub-04	1.0	2.0	137_smiling	0.0	200.361824532255	
29.0	171.49740844119788	pulse	1.0	t		21.0	male	black	2.969757262236371	smiling	137	sub-04	1.0	2.0	137_smiling	0.0	201.06179775789587	
29.0	172.19738951501495	pulse	1.0	t		21.0	male	black	2.969757262236371	smiling	137	sub-04	1.0	2.0	137_smiling	0.0	201.76177883171295	
29.0	172.89736455177353	pulse	1.0	t		21.0	male	black	2.969757262236371	smiling	137	sub-04	1.0	2.0	137_smiling	0.0	202.46175386847153	
29.0	173.59734109779674	pulse	1.0	t		21.0	male	black	2.969757262236371	smiling	137	sub-04	1.0	2.0	137_smiling	0.0	203.16173041449474	
30.0	174.27221404032935	face	0.0		145	24.0	female	east_asian	4.409868682849185	smiling	030	sub-04	1.0	2.0	030_smiling	0.0	203.83660335702734	1.2333112276328393
30.0	174.29733847167608	pulse	0.0	t		24.0	female	east_asian	4.409868682849185	smiling	030	sub-04	1.0	2.0	030_smiling	0.0	203.86172778837408	
30.0	174.99731894178785	pulse	0.0	t		24.0	female	east_asian	4.409868682849185	smiling	030	sub-04	1.0	2.0	030_smiling	0.0	204.56170825848585	
30.0	175.50552526796218	fix	1.0		443	24.0	female	east_asian	4.409868682849185	smiling	030	sub-04	1.0	2.0	030_smiling	0.0	205.06991458466018	3.7665502218469555
30.0	175.6972985063403	pulse	1.0	t		24.0	female	east_asian	4.409868682849185	smiling	030	sub-04	1.0	2.0	030_smiling	0.0	205.2616878230383	
30.0	176.3972747505104	pulse	1.0	t		24.0	female	east_asian	4.409868682849185	smiling	030	sub-04	1.0	2.0	030_smiling	0.0	205.9616640672084	
30.0	177.09725823915232	pulse	1.0	t		24.0	female	east_asian	4.409868682849185	smiling	030	sub-04	1.0	2.0	030_smiling	0.0	206.66164755585032	
30.0	177.79724323705886	pulse	1.0	t		24.0	female	east_asian	4.409868682849185	smiling	030	sub-04	1.0	2.0	030_smiling	0.0	207.36163255375686	
30.0	178.49721284046336	pulse	1.0	t		24.0	female	east_asian	4.409868682849185	smiling	030	sub-04	1.0	2.0	030_smiling	0.0	208.06160215716136	
30.0	179.19719934763452	pulse	1.0	t		24.0	female	east_asian	4.409868682849185	smiling	030	sub-04	1.0	2.0	030_smiling	0.0	208.76158866433252	
31.0	179.27207548980914	face	0.0		146	20.0	female	white	3.9502586549940313	neutral	091	sub-04	1.0	2.0	091_neutral	0.0	208.83646480650714	1.2333151517213992
31.0	179.897191891866	pulse	0.0	t		20.0	female	white	3.9502586549940313	neutral	091	sub-04	1.0	2.0	091_neutral	0.0	209.46158120856398	
31.0	180.50539064153054	fix	1.0		443	20.0	female	white	3.9502586549940313	neutral	091	sub-04	1.0	2.0	091_neutral	0.0	210.06977995822854	3.76655142925938
31.0	180.5971624008298	pulse	1.0	t		20.0	female	white	3.9502586549940313	neutral	091	sub-04	1.0	2.0	091_neutral	0.0	210.1615517175278	
31.0	181.29713381535203	pulse	1.0	t		20.0	female	white	3.9502586549940313	neutral	091	sub-04	1.0	2.0	091_neutral	0.0	210.86152313205002	
31.0	181.9971278688481	pulse	1.0	t		20.0	female	white	3.9502586549940313	neutral	091	sub-04	1.0	2.0	091_neutral	0.0	211.5615171855461	
31.0	182.69710079263496	pulse	1.0	t		20.0	female	white	3.9502586549940313	neutral	091	sub-04	1.0	2.0	091_neutral	0.0	212.26149010933295	
31.0	183.39708941277786	pulse	1.0	t		20.0	female	white	3.9502586549940313	neutral	091	sub-04	1.0	2.0	091_neutral	0.0	212.96147872947586	
31.0	184.0970496587397	pulse	1.0	t		20.0	female	white	3.9502586549940313	neutral	091	sub-04	1.0	2.0	091_neutral	0.0	213.6614389754377	
32.0	184.27194207078992	face	0.0		146	40.0	male	black	2.408674890569041	neutral	061	sub-04	1.0	2.0	061_neutral	1.0	213.83633138748792	1.2416417663107495
32.0	184.79705427708996	pulse	0.0	t		40.0	male	black	2.408674890569041	neutral	061	sub-04	1.0	2.0	061_neutral	1.0	214.36144359378795	
32.0	185.49703021940786	pulse	0.0	t		40.0	male	black	2.408674890569041	neutral	061	sub-04	1.0	2.0	061_neutral	1.0	215.06141953610586	
32.0	185.51358383710067	fix	1.0		236	40.0	male	black	2.408674890569041	neutral	061	sub-04	1.0	2.0	061_neutral	1.0	215.07797315379867	1.9916166370494466
32.0	186.19701400990198	pulse	1.0	t		40.0	male	black	2.408674890569041	neutral	061	sub-04	1.0	2.0	061_neutral	1.0	215.76140332659998	
32.0	186.89699266889602	pulse	1.0	t		40.0	male	black	2.408674890569041	neutral	061	sub-04	1.0	2.0	061_neutral	1.0	216.46138198559402	
32.0	187.50520047415012	rating	2.0		235	40.0	male	black	2.408674890569041	neutral	061	sub-04	1.0	2.0	061_neutral	1.0	217.0695897908481	1.9999468738751602
32.0	187.59705162078444	pulse	2.0	t		40.0	male	black	2.408674890569041	neutral	061	sub-04	1.0	2.0	061_neutral	1.0	217.16144093748244	
32.0	188.29695783506122	pulse	2.0	t		40.0	male	black	2.408674890569041	neutral	061	sub-04	1.0	2.0	061_neutral	1.0	217.86134715175922	
32.0	188.8719385692948	response	2.0	e		40.0	male	black	2.408674890569041	neutral	061	sub-04	1.0	2.0	061_neutral	1.0	218.4363278859928	
32.0	188.99693468293754	pulse	2.0	t		40.0	male	black	2.408674890569041	neutral	061	sub-04	1.0	2.0	061_neutral	1.0	218.56132399963553	
32.0	189.50514734802528	fix	3.0		443	40.0	male	black	2.408674890569041	neutral	061	sub-04	1.0	2.0	061_neutral	1.0	219.06953666472327	3.7665514292584703
32.0	189.69692632160968	pulse	3.0	t		40.0	male	black	2.408674890569041	neutral	061	sub-04	1.0	2.0	061_neutral	1.0	219.26131563830768	
32.0	190.39689562316107	pulse	3.0	t		40.0	male	black	2.408674890569041	neutral	061	sub-04	1.0	2.0	061_neutral	1.0	219.96128493985907	
32.0	191.09688122477382	pulse	3.0	t		40.0	male	black	2.408674890569041	neutral	061	sub-04	1.0	2.0	061_neutral	1.0	220.66127054147182	
32.0	191.79686320415112	pulse	3.0	t		40.0	male	black	2.408674890569041	neutral	061	sub-04	1.0	2.0	061_neutral	1.0	221.36125252084912	
32.0	192.49683310940873	pulse	3.0	t		40.0	male	black	2.408674890569041	neutral	061	sub-04	1.0	2.0	061_neutral	1.0	222.06122242610672	
32.0	193.19682233325693	pulse	3.0	t		40.0	male	black	2.408674890569041	neutral	061	sub-04	1.0	2.0	061_neutral	1.0	222.76121164995493	
33.0	193.27169877728375	face	0.0		146	31.0	female	white	2.1822522881018704	smiling	102	sub-04	1.0	2.0	102_smiling	0.0	222.83608809398174	1.2333136424567783
33.0	193.8968094441343	pulse	0.0	t		31.0	female	white	2.1822522881018704	smiling	102	sub-04	1.0	2.0	102_smiling	0.0	223.4611987608323	
33.0	194.50501241974052	fix	1.0		443	31.0	female	white	2.1822522881018704	smiling	102	sub-04	1.0	2.0	102_smiling	0.0	224.06940173643852	3.7582936371509277
33.0	194.59679263092312	pulse	1.0	t		31.0	female	white	2.1822522881018704	smiling	102	sub-04	1.0	2.0	102_smiling	0.0	224.16118194762112	
33.0	195.29676434729845	pulse	1.0	t		31.0	female	white	2.1822522881018704	smiling	102	sub-04	1.0	2.0	102_smiling	0.0	224.86115366399645	
33.0	195.99674240258628	pulse	1.0	t		31.0	female	white	2.1822522881018704	smiling	102	sub-04	1.0	2.0	102_smiling	0.0	225.56113171928428	
33.0	196.69672106158032	pulse	1.0	t		31.0	female	white	2.1822522881018704	smiling	102	sub-04	1.0	2.0	102_smiling	0.0	226.26111037827832	
33.0	197.3967081724577	pulse	1.0	t		31.0	female	white	2.1822522881018704	smiling	102	sub-04	1.0	2.0	102_smiling	0.0	226.9610974891557	
33.0	198.09669226480582	pulse	1.0	t		31.0	female	white	2.1822522881018704	smiling	102	sub-04	1.0	2.0	102_smiling	0.0	227.66108158150382	
34.0	198.26330605689145	face	0.0		147	54.0	female	white	2.286908077994429	neutral	136	sub-04	1.0	2.0	136_neutral	0.0	227.82769537358945	1.2499052936254884
34.0	198.79667484788843	pulse	0.0	t		54.0	female	white	2.286908077994429	neutral	136	sub-04	1.0	2.0	136_neutral	0.0	228.36106416458642	
34.0	199.49663177346702	pulse	0.0	t		54.0	female	white	2.286908077994429	neutral	136	sub-04	1.0	2.0	136_neutral	0.0	229.061021090165	
34.0	199.51321135051694	fix	1.0		443	54.0	female	white	2.286908077994429	neutral	136	sub-04	1.0	2.0	136_neutral	0.0	229.07760066721494	3.7582175701982123
34.0	200.19663669367128	pulse	1.0	t		54.0	female	white	2.286908077994429	neutral	136	sub-04	1.0	2.0	136_neutral	0.0	229.76102601036928	
34.0	200.89663225643199	pulse	1.0	t		54.0	female	white	2.286908077994429	neutral	136	sub-04	1.0	2.0	136_neutral	0.0	230.46102157312998	
34.0	201.59659340795315	pulse	1.0	t		54.0	female	white	2.286908077994429	neutral	136	sub-04	1.0	2.0	136_neutral	0.0	231.16098272465115	
34.0	202.2965726706525	pulse	1.0	t		54.0	female	white	2.286908077994429	neutral	136	sub-04	1.0	2.0	136_neutral	0.0	231.8609619873505	
34.0	202.99655797041214	pulse	1.0	t		54.0	female	white	2.286908077994429	neutral	136	sub-04	1.0	2.0	136_neutral	0.0	232.56094728711014	
35.0	203.27142892071515	face	0.0		145	47.0	male	east_asian	2.171110226820533	smiling	024	sub-04	1.0	2.0	024_smiling	0.0	232.83581823741315	1.2333112276328393
35.0	203.696543873878	pulse	0.0	t		47.0	male	east_asian	2.171110226820533	smiling	024	sub-04	1.0	2.0	024_smiling	0.0	233.260933190576	
35.0	204.39651619395954	pulse	0.0	t		47.0	male	east_asian	2.171110226820533	smiling	024	sub-04	1.0	2.0	024_smiling	0.0	233.96090551065754	
35.0	204.504740148348	fix	1.0		444	47.0	male	east_asian	2.171110226820533	smiling	024	sub-04	1.0	2.0	024_smiling	0.0	234.069129465046	3.7665526366708946
35.0	205.09650451224934	pulse	1.0	t		47.0	male	east_asian	2.171110226820533	smiling	024	sub-04	1.0	2.0	024_smiling	0.0	234.66089382894734	
35.0	205.79647622862467	pulse	1.0	t		47.0	male	east_asian	2.171110226820533	smiling	024	sub-04	1.0	2.0	024_smiling	0.0	235.36086554532267	
35.0	206.49645579317712	pulse	1.0	t		47.0	male	east_asian	2.171110226820533	smiling	024	sub-04	1.0	2.0	024_smiling	0.0	236.06084510987512	
35.0	207.19644592258464	pulse	1.0	t		47.0	male	east_asian	2.171110226820533	smiling	024	sub-04	1.0	2.0	024_smiling	0.0	236.76083523928264	
35.0	207.89643967422762	pulse	1.0	t		47.0	male	east_asian	2.171110226820533	smiling	024	sub-04	1.0	2.0	024_smiling	0.0	237.46082899092562	
36.0	208.2712927850189	face	0.0		145	26.0	female	white	4.854755272582572	smiling	027	sub-04	1.0	2.0	027_smiling	0.0	237.83568210171688	1.2333127368983696
36.0	208.59641018319144	pulse	0.0	t		26.0	female	white	4.854755272582572	smiling	027	sub-04	1.0	2.0	027_smiling	0.0	238.16079949988944	
36.0	209.29638672921465	pulse	0.0	t		26.0	female	white	4.854755272582572	smiling	027	sub-04	1.0	2.0	027_smiling	0.0	238.86077604591264	
36.0	209.50460552191726	fix	1.0		444	26.0	female	white	4.854755272582572	smiling	027	sub-04	1.0	2.0	027_smiling	0.0	239.06899483861525	3.758226022081544
36.0	209.99637051970876	pulse	1.0	t		26.0	female	white	4.854755272582572	smiling	027	sub-04	1.0	2.0	027_smiling	0.0	239.56075983640676	
36.0	210.6963368027309	pulse	1.0	t		26.0	female	white	4.854755272582572	smiling	027	sub-04	1.0	2.0	027_smiling	0.0	240.2607261194289	
36.0	211.39633478031556	pulse	1.0	t		26.0	female	white	4.854755272582572	smiling	027	sub-04	1.0	2.0	027_smiling	0.0	240.96072409701355	
36.0	212.09630860966172	pulse	1.0	t		26.0	female	white	4.854755272582572	smiling	027	sub-04	1.0	2.0	027_smiling	0.0	241.66069792635972	
36.0	212.79629421127447	pulse	1.0	t		26.0	female	white	4.854755272582572	smiling	027	sub-04	1.0	2.0	027_smiling	0.0	242.36068352797247	
37.0	213.2628315439988	face	0.0		146	19.0	male	white	3.2522881018702745	smiling	018	sub-04	1.0	2.0	018_smiling	1.0	242.8272208606968	1.2416372385159775
37.0	213.49627619065086	pulse	0.0	t		19.0	male	white	3.2522881018702745	smiling	018	sub-04	1.0	2.0	018_smiling	1.0	243.06066550734886	
37.0	214.1962617922636	pulse	0.0	t		19.0	male	white	3.2522881018702745	smiling	018	sub-04	1.0	2.0	018_smiling	1.0	243.7606511089616	
37.0	214.50446878251478	fix	1.0		236	19.0	male	white	3.2522881018702745	smiling	018	sub-04	1.0	2.0	018_smiling	1.0	244.06885809921278	1.999948383139781
37.0	214.8962365271691	pulse	1.0	t		19.0	male	white	3.2522881018702745	smiling	018	sub-04	1.0	2.0	018_smiling	1.0	244.4606258438671	
37.0	215.59621790284018	pulse	1.0	t		19.0	male	white	3.2522881018702745	smiling	018	sub-04	1.0	2.0	018_smiling	1.0	245.16060721953818	
37.0	216.29619475071559	pulse	1.0	t		19.0	male	white	3.2522881018702745	smiling	018	sub-04	1.0	2.0	018_smiling	1.0	245.86058406741358	
37.0	216.50441716565456	rating	2.0		235	19.0	male	white	3.2522881018702745	smiling	018	sub-04	1.0	2.0	018_smiling	1.0	246.06880648235256	1.999947779433569
37.0	216.99619544497727	pulse	2.0	t		19.0	male	white	3.2522881018702745	smiling	018	sub-04	1.0	2.0	018_smiling	1.0	246.56058476167527	
37.0	217.2075767514034	response	2.0	b		19.0	male	white	3.2522881018702745	smiling	018	sub-04	1.0	2.0	018_smiling	1.0	246.7719660681014	
37.0	217.69614301311412	pulse	2.0	t		19.0	male	white	3.2522881018702745	smiling	018	sub-04	1.0	2.0	018_smiling	1.0	247.26053232981212	
37.0	218.3961802315871	pulse	2.0	t		19.0	male	white	3.2522881018702745	smiling	018	sub-04	1.0	2.0	018_smiling	1.0	247.9605695482851	
37.0	218.50436494508813	fix	3.0		444	19.0	male	white	3.2522881018702745	smiling	018	sub-04	1.0	2.0	018_smiling	1.0	248.06875426178613	3.758216664638894
37.0	219.09611512189804	pulse	3.0	t		19.0	male	white	3.2522881018702745	smiling	018	sub-04	1.0	2.0	018_smiling	1.0	248.66050443859604	
37.0	219.79610585501177	pulse	3.0	t		19.0	male	white	3.2522881018702745	smiling	018	sub-04	1.0	2.0	018_smiling	1.0	249.36049517170977	
37.0	220.49608119362256	pulse	3.0	t		19.0	male	white	3.2522881018702745	smiling	018	sub-04	1.0	2.0	018_smiling	1.0	250.06047051032056	
37.0	221.1960658896769	pulse	3.0	t		19.0	male	white	3.2522881018702745	smiling	018	sub-04	1.0	2.0	018_smiling	1.0	250.7604552063749	
37.0	221.8960493783179	pulse	3.0	t		19.0	male	white	3.2522881018702745	smiling	018	sub-04	1.0	2.0	018_smiling	1.0	251.4604386950159	
38.0	222.26258160972702	face	0.0		146	27.0	male	black	3.5523278949462798	smiling	042	sub-04	1.0	2.0	042_smiling	0.0	251.82697092642502	1.2416465959586276
38.0	222.5960301502828	pulse	0.0	t		27.0	male	black	3.5523278949462798	smiling	042	sub-04	1.0	2.0	042_smiling	0.0	252.16041946698078	
38.0	223.29597862397895	pulse	0.0	t		27.0	male	black	3.5523278949462798	smiling	042	sub-04	1.0	2.0	042_smiling	0.0	252.86036794067695	
38.0	223.50422820568565	fix	1.0		444	27.0	male	black	3.5523278949462798	smiling	042	sub-04	1.0	2.0	042_smiling	0.0	253.06861752238365	3.7665526366708946
38.0	223.99599109050723	pulse	1.0	t		27.0	male	black	3.5523278949462798	smiling	042	sub-04	1.0	2.0	042_smiling	0.0	253.56038040720523	
38.0	224.69596974950127	pulse	1.0	t		27.0	male	black	3.5523278949462798	smiling	042	sub-04	1.0	2.0	042_smiling	0.0	254.26035906619927	
38.0	225.3959544455547	pulse	1.0	t		27.0	male	black	3.5523278949462798	smiling	042	sub-04	1.0	2.0	042_smiling	0.0	254.9603437622527	
38.0	226.09592918045928	pulse	1.0	t		27.0	male	black	3.5523278949462798	smiling	042	sub-04	1.0	2.0	042_smiling	0.0	255.66031849715728	
38.0	226.79591387651362	pulse	1.0	t		27.0	male	black	3.5523278949462798	smiling	042	sub-04	1.0	2.0	042_smiling	0.0	256.3603031932116	
39.0	227.27078084235654	face	0.0		145	30.0	female	black	2.7345801830481498	smiling	062	sub-04	1.0	2.0	062_smiling	0.0	256.83517015905454	1.2333118313390514
39.0	227.49589947812638	pulse	0.0	t		30.0	female	black	2.7345801830481498	smiling	062	sub-04	1.0	2.0	062_smiling	0.0	257.0602887948244	
39.0	228.19588809826837	pulse	0.0	t		30.0	female	black	2.7345801830481498	smiling	062	sub-04	1.0	2.0	062_smiling	0.0	257.76027741496637	
39.0	228.5040926736956	fix	1.0		444	30.0	female	black	2.7345801830481498	smiling	062	sub-04	1.0	2.0	062_smiling	0.0	258.0684819903936	3.7498719388713653
39.0	228.89587581285195	pulse	1.0	t		30.0	female	black	2.7345801830481498	smiling	062	sub-04	1.0	2.0	062_smiling	0.0	258.46026512954995	
39.0	229.59583183287214	pulse	1.0	t		30.0	female	black	2.7345801830481498	smiling	062	sub-04	1.0	2.0	062_smiling	0.0	259.16022114957013	
39.0	230.2958301123099	pulse	1.0	t		30.0	female	black	2.7345801830481498	smiling	062	sub-04	1.0	2.0	062_smiling	0.0	259.8602194290079	
39.0	230.99593373843982	pulse	1.0	t		30.0	female	black	2.7345801830481498	smiling	062	sub-04	1.0	2.0	062_smiling	0.0	260.5603230551378	
39.0	231.69576086723555	pulse	1.0	t		30.0	female	black	2.7345801830481498	smiling	062	sub-04	1.0	2.0	062_smiling	0.0	261.26015018393355	
40.0	232.25396461256696	fix	0.0		720												261.81835392926496	5.999880768070398
40.0	232.39576729670353	pulse	0.0	t													261.9601566134015	
40.0	233.09574565384446	pulse	0.0	t													262.66013497054246	
40.0	233.79571978504373	pulse	0.0	t													263.3601091017417	
40.0	234.4957186681877	pulse	0.0	t													264.0601079848857	
40.0	235.19623070140642	pulse	0.0	t													264.7606200181044	
40.0	235.89566602502782	pulse	0.0	t													265.4600553417258	
40.0	236.5956407599324	pulse	0.0	t													266.1600300766304	
40.0	237.2956296819284	pulse	0.0	t													266.8600189986264	
40.0	237.99561377427563	pulse	0.0	t													267.5600030909736	
