trial_nr	onset	event_type	phase	response	nr_frames	face_age	face_sex	face_eth	attractiveness	expression	face_id	sub_id	ses	run	trial_type	catch	rating_type	onset_abs	duration
-1.0	0.058727060166347655	fix	0.0		713													88.40209052565297	5.957938645596187
-1.0	0.7002355373060709	pulse	0.0	t														89.04359900279269	
-1.0	1.400214799880814	pulse	0.0	t														89.74357826536743	
-1.0	2.100203419954596	pulse	0.0	t														90.44356688544121	
-1.0	2.8001935493020937	pulse	0.0	t														91.14355701478871	
-1.0	3.5001610395393072	pulse	0.0	t														91.84352450502593	
-1.0	4.200157809693337	pulse	0.0	t														92.54352127517996	
-1.0	4.900140090816421	pulse	0.0	t														93.24350355630304	
-1.0	5.600130823873769	pulse	0.0	t														93.94349428936039	
0.0	6.016665705762534	face	0.0		144	20.0	male	black	3.1070433744528456	neutral	082	sub-05	2.0	5.0	082_neutral	0.0		94.36002917124915	1.233318371396308
0.0	6.30011582168936	pulse	0.0	t		20.0	male	black	3.1070433744528456	neutral	082	sub-05	2.0	5.0	082_neutral	0.0		94.64347928717598	
0.0	7.000098102812444	pulse	0.0	t		20.0	male	black	3.1070433744528456	neutral	082	sub-05	2.0	5.0	082_neutral	0.0		95.34346156829906	
0.0	7.249984077158842	fix	1.0		445	20.0	male	black	3.1070433744528456	neutral	082	sub-05	2.0	5.0	082_neutral	0.0		95.59334754264546	3.7582414663384043
0.0	7.700087628451001	pulse	1.0	t		20.0	male	black	3.1070433744528456	neutral	082	sub-05	2.0	5.0	082_neutral	0.0		96.04345109393762	
0.0	8.400068098444535	pulse	1.0	t		20.0	male	black	3.1070433744528456	neutral	082	sub-05	2.0	5.0	082_neutral	0.0		96.74343156393115	
0.0	9.100056114808467	pulse	1.0	t		20.0	male	black	3.1070433744528456	neutral	082	sub-05	2.0	5.0	082_neutral	0.0		97.44341958029509	
0.0	9.800032358835779	pulse	1.0	t		20.0	male	black	3.1070433744528456	neutral	082	sub-05	2.0	5.0	082_neutral	0.0		98.1433958243224	
0.0	10.500008904717106	pulse	1.0	t		20.0	male	black	3.1070433744528456	neutral	082	sub-05	2.0	5.0	082_neutral	0.0		98.84337237020372	
1.0	11.008225543497247	face	0.0		146	19.0	male	white	2.243931555909272	neutral	130	sub-05	2.0	5.0	130_neutral	0.0		99.35158900898386	1.2416565067369447
1.0	11.200012315675849	pulse	0.0	t		19.0	male	white	2.243931555909272	neutral	130	sub-05	2.0	5.0	130_neutral	0.0		99.54337578116247	
1.0	11.900006067281538	pulse	0.0	t		19.0	male	white	2.243931555909272	neutral	130	sub-05	2.0	5.0	130_neutral	0.0		100.24336953276816	
1.0	12.249882050234191	fix	1.0		444	19.0	male	white	2.243931555909272	neutral	130	sub-05	2.0	5.0	130_neutral	0.0		100.59324551572081	3.7665702441790927
1.0	12.599963898164788	pulse	1.0	t		19.0	male	white	2.243931555909272	neutral	130	sub-05	2.0	5.0	130_neutral	0.0		100.9433273636514	
1.0	13.299970025817856	pulse	1.0	t		19.0	male	white	2.243931555909272	neutral	130	sub-05	2.0	5.0	130_neutral	0.0		101.64333349130447	
1.0	13.99995109952124	pulse	1.0	t		19.0	male	white	2.243931555909272	neutral	130	sub-05	2.0	5.0	130_neutral	0.0		102.34331456500786	
1.0	14.699932776934475	pulse	1.0	t		19.0	male	white	2.243931555909272	neutral	130	sub-05	2.0	5.0	130_neutral	0.0		103.04329624242109	
1.0	15.399925019265538	pulse	1.0	t		19.0	male	white	2.243931555909272	neutral	130	sub-05	2.0	5.0	130_neutral	0.0		103.74328848475216	
2.0	16.016452294413284	face	0.0		145	34.0	male	white	2.651014723438122	smiling	121	sub-05	2.0	5.0	121_smiling	1.0	trustworthiness	104.3598157598999	1.2333195788160083
2.0	16.09991424304917	pulse	0.0	t		34.0	male	white	2.651014723438122	smiling	121	sub-05	2.0	5.0	121_smiling	1.0	trustworthiness	104.44327770853579	
2.0	16.799928822636502	pulse	0.0	t		34.0	male	white	2.651014723438122	smiling	121	sub-05	2.0	5.0	121_smiling	1.0	trustworthiness	105.14329228812312	
2.0	17.249771873229292	fix	1.0		177	34.0	male	white	2.651014723438122	smiling	121	sub-05	2.0	5.0	121_smiling	1.0	trustworthiness	105.59313533871591	1.5083050822386213
2.0	17.499882125697695	pulse	1.0	t		34.0	male	white	2.651014723438122	smiling	121	sub-05	2.0	5.0	121_smiling	1.0	trustworthiness	105.84324559118431	
2.0	18.199862293837214	pulse	1.0	t		34.0	male	white	2.651014723438122	smiling	121	sub-05	2.0	5.0	121_smiling	1.0	trustworthiness	106.54322575932383	
2.0	18.758076955467914	rating	2.0		293	34.0	male	white	2.651014723438122	smiling	121	sub-05	2.0	5.0	121_smiling	1.0	trustworthiness	107.10144042095453	2.491610398415105
2.0	18.899867515925507	pulse	2.0	t		34.0	male	white	2.651014723438122	smiling	121	sub-05	2.0	5.0	121_smiling	1.0	trustworthiness	107.24323098141213	
2.0	19.599831685759455	pulse	2.0	t		34.0	male	white	2.651014723438122	smiling	121	sub-05	2.0	5.0	121_smiling	1.0	trustworthiness	107.94319515124607	
2.0	20.14149142234328	response	2.0	b		34.0	male	white	2.651014723438122	smiling	121	sub-05	2.0	5.0	121_smiling	1.0	trustworthiness	108.4848548878299	
2.0	20.299786498095273	pulse	2.0	t		34.0	male	white	2.651014723438122	smiling	121	sub-05	2.0	5.0	121_smiling	1.0	trustworthiness	108.64314996358189	
2.0	20.99980500179481	pulse	2.0	t		34.0	male	white	2.651014723438122	smiling	121	sub-05	2.0	5.0	121_smiling	1.0	trustworthiness	109.34316846728143	
2.0	21.24968735388302	fix	3.0		444	34.0	male	white	2.651014723438122	smiling	121	sub-05	2.0	5.0	121_smiling	1.0	trustworthiness	109.59305081936964	3.7582423719031794
2.0	21.69978396251463	pulse	3.0	t		34.0	male	white	2.651014723438122	smiling	121	sub-05	2.0	5.0	121_smiling	1.0	trustworthiness	110.04314742800125	
2.0	22.39977650670062	pulse	3.0	t		34.0	male	white	2.651014723438122	smiling	121	sub-05	2.0	5.0	121_smiling	1.0	trustworthiness	110.74313997218724	
2.0	23.099761806372044	pulse	3.0	t		34.0	male	white	2.651014723438122	smiling	121	sub-05	2.0	5.0	121_smiling	1.0	trustworthiness	111.44312527185866	
2.0	23.799726881770766	pulse	3.0	t		34.0	male	white	2.651014723438122	smiling	121	sub-05	2.0	5.0	121_smiling	1.0	trustworthiness	112.14309034725738	
2.0	24.499728783455794	pulse	3.0	t		34.0	male	white	2.651014723438122	smiling	121	sub-05	2.0	5.0	121_smiling	1.0	trustworthiness	112.84309224894241	
3.0	25.007929725786198	face	0.0		146	54.0	female	white	2.286908077994429	neutral	136	sub-05	2.0	5.0	136_neutral	1.0	attractiveness	113.35129319127282	1.241652582624738
3.0	25.199722836916408	pulse	0.0	t		54.0	female	white	2.286908077994429	neutral	136	sub-05	2.0	5.0	136_neutral	1.0	attractiveness	113.54308630240303	
3.0	25.899701797636226	pulse	0.0	t		54.0	female	white	2.286908077994429	neutral	136	sub-05	2.0	5.0	136_neutral	1.0	attractiveness	114.24306526312284	
3.0	26.249582308410936	fix	1.0		177	54.0	female	white	2.286908077994429	neutral	136	sub-05	2.0	5.0	136_neutral	1.0	attractiveness	114.59294577389755	1.499957891253871
3.0	26.59968770101659	pulse	1.0	t		54.0	female	white	2.286908077994429	neutral	136	sub-05	2.0	5.0	136_neutral	1.0	attractiveness	114.94305116650321	
3.0	27.299674509961733	pulse	1.0	t		54.0	female	white	2.286908077994429	neutral	136	sub-05	2.0	5.0	136_neutral	1.0	attractiveness	115.64303797544835	
3.0	27.749540199664807	rating	2.0		294	54.0	female	white	2.286908077994429	neutral	136	sub-05	2.0	5.0	136_neutral	1.0	attractiveness	116.09290366515143	2.4999518541580983
3.0	27.999661318905964	pulse	2.0	t		54.0	female	white	2.286908077994429	neutral	136	sub-05	2.0	5.0	136_neutral	1.0	attractiveness	116.34302478439258	
3.0	28.699643298174124	pulse	2.0	t		54.0	female	white	2.286908077994429	neutral	136	sub-05	2.0	5.0	136_neutral	1.0	attractiveness	117.04300676366074	
3.0	29.1162974127119	response	2.0	w		54.0	female	white	2.286908077994429	neutral	136	sub-05	2.0	5.0	136_neutral	1.0	attractiveness	117.45966087819852	
3.0	29.39958392333392	pulse	2.0	t		54.0	female	white	2.286908077994429	neutral	136	sub-05	2.0	5.0	136_neutral	1.0	attractiveness	117.74294738882054	
3.0	30.099606653000592	pulse	2.0	t		54.0	female	white	2.286908077994429	neutral	136	sub-05	2.0	5.0	136_neutral	1.0	attractiveness	118.44297011848721	
3.0	30.249492053822905	fix	3.0		444	54.0	female	white	2.286908077994429	neutral	136	sub-05	2.0	5.0	136_neutral	1.0	attractiveness	118.59285551930952	3.7583169300405643
3.0	30.799587726703976	pulse	3.0	t		54.0	female	white	2.286908077994429	neutral	136	sub-05	2.0	5.0	136_neutral	1.0	attractiveness	119.1429511921906	
3.0	31.49956880040827	pulse	3.0	t		54.0	female	white	2.286908077994429	neutral	136	sub-05	2.0	5.0	136_neutral	1.0	attractiveness	119.84293226589489	
3.0	32.19956557056139	pulse	3.0	t		54.0	female	white	2.286908077994429	neutral	136	sub-05	2.0	5.0	136_neutral	1.0	attractiveness	120.54292903604801	
3.0	32.899548455394324	pulse	3.0	t		54.0	female	white	2.286908077994429	neutral	136	sub-05	2.0	5.0	136_neutral	1.0	attractiveness	121.24291192088094	
3.0	33.59954009401554	pulse	3.0	t		54.0	female	white	2.286908077994429	neutral	136	sub-05	2.0	5.0	136_neutral	1.0	attractiveness	121.94290355950216	
4.0	34.00780898386347	face	0.0		146	22.0	female	west_asian	3.8205332272184642	neutral	066	sub-05	2.0	5.0	066_neutral	0.0		122.35117244935009	1.2415837597282007
4.0	34.29954229755549	pulse	0.0	t		22.0	female	west_asian	3.8205332272184642	neutral	066	sub-05	2.0	5.0	066_neutral	0.0		122.64290576304211	
4.0	34.999523371259784	pulse	0.0	t		22.0	female	west_asian	3.8205332272184642	neutral	066	sub-05	2.0	5.0	066_neutral	0.0		123.3428868367464	
4.0	35.24939274359167	fix	1.0		444	22.0	female	west_asian	3.8205332272184642	neutral	066	sub-05	2.0	5.0	066_neutral	0.0		123.59275620907829	3.7583694527766056
4.0	35.69949810601247	pulse	1.0	t		22.0	female	west_asian	3.8205332272184642	neutral	066	sub-05	2.0	5.0	066_neutral	0.0		124.04286157149909	
4.0	36.399481594554345	pulse	1.0	t		22.0	female	west_asian	3.8205332272184642	neutral	066	sub-05	2.0	5.0	066_neutral	0.0		124.74284506004096	
4.0	37.099465384951145	pulse	1.0	t		22.0	female	west_asian	3.8205332272184642	neutral	066	sub-05	2.0	5.0	066_neutral	0.0		125.44282885043776	
4.0	37.79944434567096	pulse	1.0	t		22.0	female	west_asian	3.8205332272184642	neutral	066	sub-05	2.0	5.0	066_neutral	0.0		126.14280781115758	
4.0	38.49944051211514	pulse	1.0	t		22.0	female	west_asian	3.8205332272184642	neutral	066	sub-05	2.0	5.0	066_neutral	0.0		126.84280397760176	
5.0	39.007762196368276	face	0.0		146	31.0	female	east_asian	3.395941106247513	neutral	087	sub-05	2.0	5.0	087_neutral	0.0		127.3511256618549	1.2415300295724592
5.0	39.19943939525183	pulse	0.0	t		31.0	female	east_asian	3.395941106247513	neutral	087	sub-05	2.0	5.0	087_neutral	0.0		127.54280286073845	
5.0	39.899424091213405	pulse	0.0	t		31.0	female	east_asian	3.395941106247513	neutral	087	sub-05	2.0	5.0	087_neutral	0.0		128.24278755670002	
5.0	40.249292225940735	fix	1.0		444	31.0	female	east_asian	3.395941106247513	neutral	087	sub-05	2.0	5.0	087_neutral	0.0		128.59265569142735	3.766570847888943
5.0	40.599394298144034	pulse	1.0	t		31.0	female	east_asian	3.395941106247513	neutral	087	sub-05	2.0	5.0	087_neutral	0.0		128.94275776363065	
5.0	41.29937597555727	pulse	1.0	t		31.0	female	east_asian	3.395941106247513	neutral	087	sub-05	2.0	5.0	087_neutral	0.0		129.6427394410439	
5.0	41.9993639919212	pulse	1.0	t		31.0	female	east_asian	3.395941106247513	neutral	087	sub-05	2.0	5.0	087_neutral	0.0		130.34272745740782	
5.0	42.699338122964036	pulse	1.0	t		31.0	female	east_asian	3.395941106247513	neutral	087	sub-05	2.0	5.0	087_neutral	0.0		131.04270158845065	
5.0	43.39932915787631	pulse	1.0	t		31.0	female	east_asian	3.395941106247513	neutral	087	sub-05	2.0	5.0	087_neutral	0.0		131.74269262336293	
6.0	44.01586307382968	face	0.0		145	27.0	male	black	3.5523278949462798	neutral	042	sub-05	2.0	5.0	042_neutral	0.0		132.3592265393163	1.2333186732512331
6.0	44.09931898536979	pulse	0.0	t		27.0	male	black	3.5523278949462798	neutral	042	sub-05	2.0	5.0	042_neutral	0.0		132.4426824508564	
6.0	44.799299455363325	pulse	0.0	t		27.0	male	black	3.5523278949462798	neutral	042	sub-05	2.0	5.0	042_neutral	0.0		133.14266292084994	
6.0	45.24918174708091	fix	1.0		445	27.0	male	black	3.5523278949462798	neutral	042	sub-05	2.0	5.0	042_neutral	0.0		133.59254521256753	3.7749062665361635
6.0	45.49927901979299	pulse	1.0	t		27.0	male	black	3.5523278949462798	neutral	042	sub-05	2.0	5.0	042_neutral	0.0		133.8426424852796	
6.0	46.199266432447075	pulse	1.0	t		27.0	male	black	3.5523278949462798	neutral	042	sub-05	2.0	5.0	042_neutral	0.0		134.5426298979337	
6.0	46.899265617439596	pulse	1.0	t		27.0	male	black	3.5523278949462798	neutral	042	sub-05	2.0	5.0	042_neutral	0.0		135.24262908292621	
6.0	47.59923250396696	pulse	1.0	t		27.0	male	black	3.5523278949462798	neutral	042	sub-05	2.0	5.0	042_neutral	0.0		135.94259596945358	
6.0	48.299220822185816	pulse	1.0	t		27.0	male	black	3.5523278949462798	neutral	042	sub-05	2.0	5.0	042_neutral	0.0		136.64258428767243	
6.0	48.99921246080794	pulse	1.0	t		27.0	male	black	3.5523278949462798	neutral	042	sub-05	2.0	5.0	042_neutral	0.0		137.34257592629456	
7.0	49.024088013617074	face	0.0		146	26.0	male	white	2.7966573816155993	smiling	117	sub-05	2.0	5.0	117_smiling	0.0		137.3674514791037	1.2333198806709333
7.0	49.69920228830051	pulse	0.0	t		26.0	male	white	2.7966573816155993	smiling	117	sub-05	2.0	5.0	117_smiling	0.0		138.04256575378713	
7.0	50.25740789428801	fix	1.0		443	26.0	male	white	2.7966573816155993	smiling	117	sub-05	2.0	5.0	117_smiling	0.0		138.60077135977463	3.766573866437284
7.0	50.399203888131524	pulse	1.0	t		26.0	male	white	2.7966573816155993	smiling	117	sub-05	2.0	5.0	117_smiling	0.0		138.74256735361814	
7.0	51.09917107651381	pulse	1.0	t		26.0	male	white	2.7966573816155993	smiling	117	sub-05	2.0	5.0	117_smiling	0.0		139.44253454200043	
7.0	51.79914943352378	pulse	1.0	t		26.0	male	white	2.7966573816155993	smiling	117	sub-05	2.0	5.0	117_smiling	0.0		140.1425128990104	
7.0	52.49914318512947	pulse	1.0	t		26.0	male	white	2.7966573816155993	smiling	117	sub-05	2.0	5.0	117_smiling	0.0		140.8425066506161	
7.0	53.199115505043665	pulse	1.0	t		26.0	male	white	2.7966573816155993	smiling	117	sub-05	2.0	5.0	117_smiling	0.0		141.54247897053028	
7.0	53.89910321955358	pulse	1.0	t		26.0	male	white	2.7966573816155993	smiling	117	sub-05	2.0	5.0	117_smiling	0.0		142.2424666850402	
8.0	54.02398176072529	face	0.0		146	23.0	male	white	2.6275368085953046	smiling	141	sub-05	2.0	5.0	141_smiling	0.0		142.3673452262119	1.2333219936544992
8.0	54.599081878418474	pulse	0.0	t		23.0	male	white	2.6275368085953046	smiling	141	sub-05	2.0	5.0	141_smiling	0.0		142.9424453439051	
8.0	55.25730375437979	fix	1.0		443	23.0	male	white	2.6275368085953046	smiling	141	sub-05	2.0	5.0	141_smiling	0.0		143.6006672198664	3.766573564582359
8.0	55.299081667119935	pulse	1.0	t		23.0	male	white	2.6275368085953046	smiling	141	sub-05	2.0	5.0	141_smiling	0.0		143.64244513260655	
8.0	55.99907179646743	pulse	1.0	t		23.0	male	white	2.6275368085953046	smiling	141	sub-05	2.0	5.0	141_smiling	0.0		144.34243526195405	
8.0	56.69904592751118	pulse	1.0	t		23.0	male	white	2.6275368085953046	smiling	141	sub-05	2.0	5.0	141_smiling	0.0		145.0424093929978	
8.0	57.39906080895253	pulse	1.0	t		23.0	male	white	2.6275368085953046	smiling	141	sub-05	2.0	5.0	141_smiling	0.0		145.74242427443914	
8.0	58.09902105467427	pulse	1.0	t		23.0	male	white	2.6275368085953046	smiling	141	sub-05	2.0	5.0	141_smiling	0.0		146.44238452016089	
8.0	58.79900484507198	pulse	1.0	t		23.0	male	white	2.6275368085953046	smiling	141	sub-05	2.0	5.0	141_smiling	0.0		147.1423683105586	
9.0	59.02387731896215	face	0.0		145	28.0	female	white	5.676880222841227	smiling	124	sub-05	2.0	5.0	124_smiling	0.0		147.36724078444877	1.2333198806700238
9.0	59.499007350466854	pulse	0.0	t		28.0	female	white	5.676880222841227	smiling	124	sub-05	2.0	5.0	124_smiling	0.0		147.84237081595347	
9.0	60.19898208521863	pulse	0.0	t		28.0	female	white	5.676880222841227	smiling	124	sub-05	2.0	5.0	124_smiling	0.0		148.54234555070525	
9.0	60.257197199632174	fix	1.0		445	28.0	female	white	5.676880222841227	smiling	124	sub-05	2.0	5.0	124_smiling	0.0		148.6005606651188	3.766579299824116
9.0	60.89896798859991	pulse	1.0	t		28.0	female	white	5.676880222841227	smiling	124	sub-05	2.0	5.0	124_smiling	0.0		149.24233145408652	
9.0	61.59894302520661	pulse	1.0	t		28.0	female	white	5.676880222841227	smiling	124	sub-05	2.0	5.0	124_smiling	0.0		149.94230649069323	
9.0	62.298931343426375	pulse	1.0	t		28.0	female	white	5.676880222841227	smiling	124	sub-05	2.0	5.0	124_smiling	0.0		150.642294808913	
9.0	62.998929924708136	pulse	1.0	t		28.0	female	white	5.676880222841227	smiling	124	sub-05	2.0	5.0	124_smiling	0.0		151.34229339019475	
9.0	63.69889620752656	pulse	1.0	t		28.0	female	white	5.676880222841227	smiling	124	sub-05	2.0	5.0	124_smiling	0.0		152.04225967301318	
10.0	64.02377649945629	face	0.0		145	31.0	female	west_asian	2.364902506963788	neutral	006	sub-05	2.0	5.0	006_neutral	0.0		152.3671399649429	1.2333156547038016
10.0	64.39889116655104	pulse	0.0	t		31.0	female	west_asian	2.364902506963788	neutral	006	sub-05	2.0	5.0	006_neutral	0.0		152.74225463203766	
10.0	65.09887797549618	pulse	0.0	t		31.0	female	west_asian	2.364902506963788	neutral	006	sub-05	2.0	5.0	006_neutral	0.0		153.4422414409828	
10.0	65.25709215416009	fix	1.0		444	31.0	female	west_asian	2.364902506963788	neutral	006	sub-05	2.0	5.0	006_neutral	0.0		153.6004556196467	3.7665792998232064
10.0	65.79887836790749	pulse	1.0	t		31.0	female	west_asian	2.364902506963788	neutral	006	sub-05	2.0	5.0	006_neutral	0.0		154.1422418333941	
10.0	66.49882774685648	pulse	1.0	t		31.0	female	west_asian	2.364902506963788	neutral	006	sub-05	2.0	5.0	006_neutral	0.0		154.8421912123431	
10.0	67.19881727249413	pulse	1.0	t		31.0	female	west_asian	2.364902506963788	neutral	006	sub-05	2.0	5.0	006_neutral	0.0		155.54218073798074	
10.0	67.89881555192187	pulse	1.0	t		31.0	female	west_asian	2.364902506963788	neutral	006	sub-05	2.0	5.0	006_neutral	0.0		156.2421790174085	
10.0	68.59879873860882	pulse	1.0	t		31.0	female	west_asian	2.364902506963788	neutral	006	sub-05	2.0	5.0	006_neutral	0.0		156.94216220409544	
11.0	69.0236714539833	face	0.0		145	36.0	female	white	2.7548746518105847	neutral	011	sub-05	2.0	5.0	011_neutral	0.0		157.36703491946992	1.2333159565587266
11.0	69.29878886795723	pulse	0.0	t		36.0	female	white	2.7548746518105847	neutral	011	sub-05	2.0	5.0	011_neutral	0.0		157.64215233344385	
11.0	69.99880435310843	pulse	0.0	t		36.0	female	white	2.7548746518105847	neutral	011	sub-05	2.0	5.0	011_neutral	0.0		158.34216781859504	
11.0	70.25698741054202	fix	1.0		444	36.0	female	white	2.7548746518105847	neutral	011	sub-05	2.0	5.0	011_neutral	0.0		158.60035087602864	3.758235429241722
11.0	70.6987585617344	pulse	1.0	t		36.0	female	white	2.7548746518105847	neutral	011	sub-05	2.0	5.0	011_neutral	0.0		159.042122027221	
11.0	71.39874597438848	pulse	1.0	t		36.0	female	white	2.7548746518105847	neutral	011	sub-05	2.0	5.0	011_neutral	0.0		159.7421094398751	
11.0	72.09872433139935	pulse	1.0	t		36.0	female	white	2.7548746518105847	neutral	011	sub-05	2.0	5.0	011_neutral	0.0		160.44208779688597	
11.0	72.79870389582902	pulse	1.0	t		36.0	female	white	2.7548746518105847	neutral	011	sub-05	2.0	5.0	011_neutral	0.0		161.14206736131564	
11.0	73.49868557324226	pulse	1.0	t		36.0	female	white	2.7548746518105847	neutral	011	sub-05	2.0	5.0	011_neutral	0.0		161.84204903872887	
12.0	74.01522283978375	face	0.0		146	40.0	male	black	2.408674890569041	neutral	061	sub-05	2.0	5.0	061_neutral	0.0		162.35858630527036	1.2416583178655856
12.0	74.19868868234607	pulse	0.0	t		40.0	male	black	2.408674890569041	neutral	061	sub-05	2.0	5.0	061_neutral	0.0		162.5420521478327	
12.0	74.89865285218093	pulse	0.0	t		40.0	male	black	2.408674890569041	neutral	061	sub-05	2.0	5.0	061_neutral	0.0		163.24201631766755	
12.0	75.25688115764933	fix	1.0		444	40.0	male	black	2.408674890569041	neutral	061	sub-05	2.0	5.0	061_neutral	0.0		163.60024462313595	3.766574168292209
12.0	75.59865747055937	pulse	1.0	t		40.0	male	black	2.408674890569041	neutral	061	sub-05	2.0	5.0	061_neutral	0.0		163.942020936046	
12.0	76.29863854426276	pulse	1.0	t		40.0	male	black	2.408674890569041	neutral	061	sub-05	2.0	5.0	061_neutral	0.0		164.64200200974938	
12.0	76.9986304847398	pulse	1.0	t		40.0	male	black	2.408674890569041	neutral	061	sub-05	2.0	5.0	061_neutral	0.0		165.34199395022642	
12.0	77.69859797497702	pulse	1.0	t		40.0	male	black	2.408674890569041	neutral	061	sub-05	2.0	5.0	061_neutral	0.0		166.04196144046364	
12.0	78.3985739171485	pulse	1.0	t		40.0	male	black	2.408674890569041	neutral	061	sub-05	2.0	5.0	061_neutral	0.0		166.74193738263511	
13.0	79.02345532594154	face	0.0		145	28.0	male	east_asian	1.5563072025467568	smiling	005	sub-05	2.0	5.0	005_smiling	0.0		167.36681879142816	1.233320182524949
13.0	79.09858849673583	pulse	0.0	t		28.0	male	east_asian	1.5563072025467568	smiling	005	sub-05	2.0	5.0	005_smiling	0.0		167.44195196222245	
13.0	79.7985668537458	pulse	0.0	t		28.0	male	east_asian	1.5563072025467568	smiling	005	sub-05	2.0	5.0	005_smiling	0.0		168.14193031923242	
13.0	80.25677550846649	fix	1.0		444	28.0	male	east_asian	1.5563072025467568	smiling	005	sub-05	2.0	5.0	005_smiling	0.0		168.6001389739531	3.766573866437284
13.0	80.49853856995105	pulse	1.0	t		28.0	male	east_asian	1.5563072025467568	smiling	005	sub-05	2.0	5.0	005_smiling	0.0		168.84190203543767	
13.0	81.19854771615155	pulse	1.0	t		28.0	male	east_asian	1.5563072025467568	smiling	005	sub-05	2.0	5.0	005_smiling	0.0		169.54191118163817	
13.0	81.89850433961601	pulse	1.0	t		28.0	male	east_asian	1.5563072025467568	smiling	005	sub-05	2.0	5.0	005_smiling	0.0		170.24186780510263	
13.0	82.59857476234265	pulse	1.0	t		28.0	male	east_asian	1.5563072025467568	smiling	005	sub-05	2.0	5.0	005_smiling	0.0		170.94193822782927	
13.0	83.29848791871427	pulse	1.0	t		28.0	male	east_asian	1.5563072025467568	smiling	005	sub-05	2.0	5.0	005_smiling	0.0		171.6418513842009	
13.0	83.99847804806177	pulse	1.0	t		28.0	male	east_asian	1.5563072025467568	smiling	005	sub-05	2.0	5.0	005_smiling	0.0		172.3418415135484	
14.0	84.02334937490377	face	0.0		146	54.0	female	white	2.286908077994429	smiling	136	sub-05	2.0	5.0	136_smiling	0.0		172.3667128403904	1.2333228992192744
14.0	84.69847783676323	pulse	0.0	t		54.0	female	white	2.286908077994429	smiling	136	sub-05	2.0	5.0	136_smiling	0.0		173.04184130224985	
14.0	85.25667227412305	fix	1.0		443	54.0	female	white	2.286908077994429	smiling	136	sub-05	2.0	5.0	136_smiling	0.0		173.60003573960967	3.7665720553077335
14.0	85.39844955296849	pulse	1.0	t		54.0	female	white	2.286908077994429	smiling	136	sub-05	2.0	5.0	136_smiling	0.0		173.7418130184551	
14.0	86.09843334336529	pulse	1.0	t		54.0	female	white	2.286908077994429	smiling	136	sub-05	2.0	5.0	136_smiling	0.0		174.4417968088519	
14.0	86.79841773747103	pulse	1.0	t		54.0	female	white	2.286908077994429	smiling	136	sub-05	2.0	5.0	136_smiling	0.0		175.14178120295765	
14.0	87.49840967794808	pulse	1.0	t		54.0	female	white	2.286908077994429	smiling	136	sub-05	2.0	5.0	136_smiling	0.0		175.8417731434347	
14.0	88.19838562011955	pulse	1.0	t		54.0	female	white	2.286908077994429	smiling	136	sub-05	2.0	5.0	136_smiling	0.0		176.54174908560617	
14.0	88.89837454204826	pulse	1.0	t		54.0	female	white	2.286908077994429	smiling	136	sub-05	2.0	5.0	136_smiling	0.0		177.24173800753488	
15.0	89.02324432943078	face	0.0		146	22.0	female	west_asian	3.8205332272184642	smiling	066	sub-05	2.0	5.0	066_smiling	1.0	attractiveness	177.3666077949174	1.2333186732521426
15.0	89.59835682317134	pulse	0.0	t		22.0	female	west_asian	3.8205332272184642	smiling	066	sub-05	2.0	5.0	066_smiling	1.0	attractiveness	177.94172028865796	
15.0	90.25656300268292	fix	1.0		176	22.0	female	west_asian	3.8205332272184642	smiling	066	sub-05	2.0	5.0	066_smiling	1.0	attractiveness	178.59992646816954	1.4999702673012507
15.0	90.29834393397141	pulse	1.0	t		22.0	female	west_asian	3.8205332272184642	smiling	066	sub-05	2.0	5.0	066_smiling	1.0	attractiveness	178.64170739945803	
15.0	90.99832953549685	pulse	1.0	t		22.0	female	west_asian	3.8205332272184642	smiling	066	sub-05	2.0	5.0	066_smiling	1.0	attractiveness	179.34169300098347	
15.0	91.69830668508803	pulse	1.0	t		22.0	female	west_asian	3.8205332272184642	smiling	066	sub-05	2.0	5.0	066_smiling	1.0	attractiveness	180.04167015057465	
15.0	91.75653326998417	rating	2.0		295	22.0	female	west_asian	3.8205332272184642	smiling	066	sub-05	2.0	5.0	066_smiling	1.0	attractiveness	180.0998967354708	2.4999464207712663
15.0	92.39830466266085	pulse	2.0	t		22.0	female	west_asian	3.8205332272184642	smiling	066	sub-05	2.0	5.0	066_smiling	1.0	attractiveness	180.74166812814747	
15.0	92.87328376676123	response	2.0	y		22.0	female	west_asian	3.8205332272184642	smiling	066	sub-05	2.0	5.0	066_smiling	1.0	attractiveness	181.21664723224785	
15.0	93.09827486959148	pulse	2.0	t		22.0	female	west_asian	3.8205332272184642	smiling	066	sub-05	2.0	5.0	066_smiling	1.0	attractiveness	181.4416383350781	
15.0	93.7982918640173	pulse	2.0	t		22.0	female	west_asian	3.8205332272184642	smiling	066	sub-05	2.0	5.0	066_smiling	1.0	attractiveness	182.14165532950392	
15.0	94.25647969075544	fix	3.0		444	22.0	female	west_asian	3.8205332272184642	smiling	066	sub-05	2.0	5.0	066_smiling	1.0	attractiveness	182.59984315624206	3.766569036760302
15.0	94.49827112659204	pulse	3.0	t		22.0	female	west_asian	3.8205332272184642	smiling	066	sub-05	2.0	5.0	066_smiling	1.0	attractiveness	182.84163459207866	
15.0	95.19824616319875	pulse	3.0	t		22.0	female	west_asian	3.8205332272184642	smiling	066	sub-05	2.0	5.0	066_smiling	1.0	attractiveness	183.54160962868536	
15.0	95.89820972932375	pulse	3.0	t		22.0	female	west_asian	3.8205332272184642	smiling	066	sub-05	2.0	5.0	066_smiling	1.0	attractiveness	184.24157319481037	
15.0	96.59820468834823	pulse	3.0	t		22.0	female	west_asian	3.8205332272184642	smiling	066	sub-05	2.0	5.0	066_smiling	1.0	attractiveness	184.94156815383485	
15.0	97.29816614148967	pulse	3.0	t		22.0	female	west_asian	3.8205332272184642	smiling	066	sub-05	2.0	5.0	066_smiling	1.0	attractiveness	185.6415296069763	
15.0	97.99818343777042	pulse	3.0	t		22.0	female	west_asian	3.8205332272184642	smiling	066	sub-05	2.0	5.0	066_smiling	1.0	attractiveness	186.34154690325704	
16.0	98.02304872751574	face	0.0		146	25.0	female	black	3.858336649423	smiling	126	sub-05	2.0	5.0	126_smiling	0.0		186.36641219300236	1.2333325585732382
16.0	98.69818050977847	pulse	0.0	t		25.0	female	black	3.858336649423	smiling	126	sub-05	2.0	5.0	126_smiling	0.0		187.04154397526509	
16.0	99.25638128608898	fix	1.0		443	25.0	female	black	3.858336649423	smiling	126	sub-05	2.0	5.0	126_smiling	0.0		187.5997447515756	3.7665669237758266
16.0	99.3981697335621	pulse	1.0	t		25.0	female	black	3.858336649423	smiling	126	sub-05	2.0	5.0	126_smiling	0.0		187.74153319904872	
16.0	100.09816801298985	pulse	1.0	t		25.0	female	black	3.858336649423	smiling	126	sub-05	2.0	5.0	126_smiling	0.0		188.44153147847646	
16.0	100.79811376968064	pulse	1.0	t		25.0	female	black	3.858336649423	smiling	126	sub-05	2.0	5.0	126_smiling	0.0		189.14147723516726	
16.0	101.49809182483568	pulse	1.0	t		25.0	female	black	3.858336649423	smiling	126	sub-05	2.0	5.0	126_smiling	0.0		189.8414552903223	
16.0	102.19809433023056	pulse	1.0	t		25.0	female	black	3.858336649423	smiling	126	sub-05	2.0	5.0	126_smiling	0.0		190.54145779571718	
16.0	102.89808144103063	pulse	1.0	t		25.0	female	black	3.858336649423	smiling	126	sub-05	2.0	5.0	126_smiling	0.0		191.24144490651724	
17.0	103.02294820986481	face	0.0		146	24.0	female	east_asian	4.409868682849185	smiling	030	sub-05	2.0	5.0	030_smiling	0.0		191.36631167535143	1.2333213899455586
17.0	103.59806191102507	pulse	0.0	t		24.0	female	east_asian	4.409868682849185	smiling	030	sub-05	2.0	5.0	030_smiling	0.0		191.9414253765117	
17.0	104.25626959981037	fix	1.0		443	24.0	female	east_asian	4.409868682849185	smiling	030	sub-05	2.0	5.0	030_smiling	0.0		192.59963306529698	3.758236636660513
17.0	104.2980487199693	pulse	1.0	t		24.0	female	east_asian	4.409868682849185	smiling	030	sub-05	2.0	5.0	030_smiling	0.0		192.64141218545592	
17.0	104.99806329955663	pulse	1.0	t		24.0	female	east_asian	4.409868682849185	smiling	030	sub-05	2.0	5.0	030_smiling	0.0		193.34142676504325	
17.0	105.69800030245824	pulse	1.0	t		24.0	female	east_asian	4.409868682849185	smiling	030	sub-05	2.0	5.0	030_smiling	0.0		194.04136376794486	
17.0	106.39799828003106	pulse	1.0	t		24.0	female	east_asian	4.409868682849185	smiling	030	sub-05	2.0	5.0	030_smiling	0.0		194.74136174551768	
17.0	107.09798207042786	pulse	1.0	t		24.0	female	east_asian	4.409868682849185	smiling	030	sub-05	2.0	5.0	030_smiling	0.0		195.44134553591448	
17.0	107.79796676638944	pulse	1.0	t		24.0	female	east_asian	4.409868682849185	smiling	030	sub-05	2.0	5.0	030_smiling	0.0		196.14133023187605	
18.0	108.01450623647088	face	0.0		146	31.0	female	east_asian	3.395941106247513	smiling	087	sub-05	2.0	5.0	087_smiling	0.0		196.3578697019575	1.2416571104467948
18.0	108.49796564952703	pulse	0.0	t		31.0	female	east_asian	3.395941106247513	smiling	087	sub-05	2.0	5.0	087_smiling	0.0		196.84132911501365	
18.0	109.1979566844393	pulse	0.0	t		31.0	female	east_asian	3.395941106247513	smiling	087	sub-05	2.0	5.0	087_smiling	0.0		197.54132014992592	
18.0	109.25616334691767	fix	1.0		445	31.0	female	east_asian	3.395941106247513	smiling	087	sub-05	2.0	5.0	087_smiling	0.0		197.5995268124043	3.7665732627274338
18.0	109.897931721046	pulse	1.0	t		31.0	female	east_asian	3.395941106247513	smiling	087	sub-05	2.0	5.0	087_smiling	0.0		198.24129518653262	
18.0	110.59791581329773	pulse	1.0	t		31.0	female	east_asian	3.395941106247513	smiling	087	sub-05	2.0	5.0	087_smiling	0.0		198.94127927878435	
18.0	111.29789688700203	pulse	1.0	t		31.0	female	east_asian	3.395941106247513	smiling	087	sub-05	2.0	5.0	087_smiling	0.0		199.64126035248864	
18.0	111.99788339409133	pulse	1.0	t		31.0	female	east_asian	3.395941106247513	smiling	087	sub-05	2.0	5.0	087_smiling	0.0		200.34124685957795	
18.0	112.69785601586045	pulse	1.0	t		31.0	female	east_asian	3.395941106247513	smiling	087	sub-05	2.0	5.0	087_smiling	0.0		201.04121948134707	
19.0	113.02273660964511	face	0.0		145	27.0	female	white	3.504576203740549	smiling	144	sub-05	2.0	5.0	144_smiling	1.0	trustworthiness	201.36610007513173	1.2333210880906336
19.0	113.3978404099671	pulse	0.0	t		27.0	female	white	3.504576203740549	smiling	144	sub-05	2.0	5.0	144_smiling	1.0	trustworthiness	201.74120387545372	
19.0	114.09780850391417	pulse	0.0	t		27.0	female	white	3.504576203740549	smiling	144	sub-05	2.0	5.0	144_smiling	1.0	trustworthiness	202.44117196940078	
19.0	114.25605769773574	fix	1.0		177	27.0	female	white	3.504576203740549	smiling	144	sub-05	2.0	5.0	144_smiling	1.0	trustworthiness	202.59942116322236	1.4999699654463257
19.0	114.79783002616205	pulse	1.0	t		27.0	female	white	3.504576203740549	smiling	144	sub-05	2.0	5.0	144_smiling	1.0	trustworthiness	203.14119349164866	
19.0	115.49782317405788	pulse	1.0	t		27.0	female	white	3.504576203740549	smiling	144	sub-05	2.0	5.0	144_smiling	1.0	trustworthiness	203.8411866395445	
19.0	115.75602766318207	rating	2.0		295	27.0	female	white	3.504576203740549	smiling	144	sub-05	2.0	5.0	144_smiling	1.0	trustworthiness	204.09939112866869	2.4999301206116797
19.0	116.19780605888991	pulse	2.0	t		27.0	female	white	3.504576203740549	smiling	144	sub-05	2.0	5.0	144_smiling	1.0	trustworthiness	204.54116952437653	
19.0	116.89785504992506	pulse	2.0	t		27.0	female	white	3.504576203740549	smiling	144	sub-05	2.0	5.0	144_smiling	1.0	trustworthiness	205.24121851541167	
19.0	117.09776624424103	response	2.0	e		27.0	female	white	3.504576203740549	smiling	144	sub-05	2.0	5.0	144_smiling	1.0	trustworthiness	205.44112970972765	
19.0	117.5978204271787	pulse	2.0	t		27.0	female	white	3.504576203740549	smiling	144	sub-05	2.0	5.0	144_smiling	1.0	trustworthiness	205.94118389266532	
19.0	118.25595778379375	fix	3.0		443	27.0	female	white	3.504576203740549	smiling	144	sub-05	2.0	5.0	144_smiling	1.0	trustworthiness	206.59932124928037	3.7665889591780797
19.0	118.29775078927469	pulse	3.0	t		27.0	female	white	3.504576203740549	smiling	144	sub-05	2.0	5.0	144_smiling	1.0	trustworthiness	206.6411142547613	
19.0	118.9977397112034	pulse	3.0	t		27.0	female	white	3.504576203740549	smiling	144	sub-05	2.0	5.0	144_smiling	1.0	trustworthiness	207.34110317669	
19.0	119.69771504966593	pulse	3.0	t		27.0	female	white	3.504576203740549	smiling	144	sub-05	2.0	5.0	144_smiling	1.0	trustworthiness	208.04107851515255	
19.0	120.39771000869041	pulse	3.0	t		27.0	female	white	3.504576203740549	smiling	144	sub-05	2.0	5.0	144_smiling	1.0	trustworthiness	208.74107347417703	
19.0	121.09769289352244	pulse	3.0	t		27.0	female	white	3.504576203740549	smiling	144	sub-05	2.0	5.0	144_smiling	1.0	trustworthiness	209.44105635900905	
19.0	121.79767396722673	pulse	3.0	t		27.0	female	white	3.504576203740549	smiling	144	sub-05	2.0	5.0	144_smiling	1.0	trustworthiness	210.14103743271335	
20.0	122.02254674297183	face	0.0		145	22.0	male	black	2.767608436132113	neutral	044	sub-05	2.0	5.0	044_neutral	0.0		210.36591020845844	1.2333219936544992
20.0	122.49767466149206	pulse	0.0	t		22.0	male	black	2.767608436132113	neutral	044	sub-05	2.0	5.0	044_neutral	0.0		210.84103812697867	
20.0	123.19765120737429	pulse	0.0	t		22.0	male	black	2.767608436132113	neutral	044	sub-05	2.0	5.0	044_neutral	0.0		211.5410146728609	
20.0	123.25586873662633	fix	1.0		1185	22.0	male	black	2.767608436132113	neutral	044	sub-05	2.0	5.0	044_neutral	0.0		211.59923220211294	10.00810963125059
20.0	123.89762413099743	pulse	1.0	t		22.0	male	black	2.767608436132113	neutral	044	sub-05	2.0	5.0	044_neutral	0.0		212.24098759648405	
20.0	124.59761365663599	pulse	1.0	t		22.0	male	black	2.767608436132113	neutral	044	sub-05	2.0	5.0	044_neutral	0.0		212.9409771221226	
20.0	125.29759352292058	pulse	1.0	t		22.0	male	black	2.767608436132113	neutral	044	sub-05	2.0	5.0	044_neutral	0.0		213.6409569884072	
20.0	125.99759089678355	pulse	1.0	t		22.0	male	black	2.767608436132113	neutral	044	sub-05	2.0	5.0	044_neutral	0.0		214.34095436227017	
20.0	126.69755959443955	pulse	1.0	t		22.0	male	black	2.767608436132113	neutral	044	sub-05	2.0	5.0	044_neutral	0.0		215.04092305992617	
20.0	127.39754459225605	pulse	1.0	t		22.0	male	black	2.767608436132113	neutral	044	sub-05	2.0	5.0	044_neutral	0.0		215.74090805774267	
20.0	128.09754256982887	pulse	1.0	t		22.0	male	black	2.767608436132113	neutral	044	sub-05	2.0	5.0	044_neutral	0.0		216.4409060353155	
20.0	128.79752937877402	pulse	1.0	t		22.0	male	black	2.767608436132113	neutral	044	sub-05	2.0	5.0	044_neutral	0.0		217.14089284426063	
20.0	129.49750200054314	pulse	1.0	t		22.0	male	black	2.767608436132113	neutral	044	sub-05	2.0	5.0	044_neutral	0.0		217.84086546602975	
20.0	130.19748307424652	pulse	1.0	t		22.0	male	black	2.767608436132113	neutral	044	sub-05	2.0	5.0	044_neutral	0.0		218.54084653973314	
20.0	130.8975085206066	pulse	1.0	t		22.0	male	black	2.767608436132113	neutral	044	sub-05	2.0	5.0	044_neutral	0.0		219.24087198609323	
20.0	131.59745125874997	pulse	1.0	t		22.0	male	black	2.767608436132113	neutral	044	sub-05	2.0	5.0	044_neutral	0.0		219.9408147242366	
20.0	132.29745376414485	pulse	1.0	t		22.0	male	black	2.767608436132113	neutral	044	sub-05	2.0	5.0	044_neutral	0.0		220.64081722963147	
20.0	132.99743876196044	pulse	1.0	t		22.0	male	black	2.767608436132113	neutral	044	sub-05	2.0	5.0	044_neutral	0.0		221.34080222744706	
21.0	133.26397836787692	face	0.0		146	26.0	female	white	4.854755272582572	smiling	027	sub-05	2.0	5.0	027_smiling	0.0		221.60734183336353	1.2416534881895132
21.0	133.69748835670543	pulse	0.0	t		26.0	female	white	4.854755272582572	smiling	027	sub-05	2.0	5.0	027_smiling	0.0		222.04085182219205	
21.0	134.3974096631573	pulse	0.0	t		26.0	female	white	4.854755272582572	smiling	027	sub-05	2.0	5.0	027_smiling	0.0		222.74077312864392	
21.0	134.50563185606643	fix	1.0		444	26.0	female	white	4.854755272582572	smiling	027	sub-05	2.0	5.0	027_smiling	0.0		222.84899532155305	3.7665756775659247
21.0	135.09740130177943	pulse	1.0	t		26.0	female	white	4.854755272582572	smiling	027	sub-05	2.0	5.0	027_smiling	0.0		223.44076476726605	
21.0	135.79737633838613	pulse	1.0	t		26.0	female	white	4.854755272582572	smiling	027	sub-05	2.0	5.0	027_smiling	0.0		224.14073980387275	
21.0	136.49735228055852	pulse	1.0	t		26.0	female	white	4.854755272582572	smiling	027	sub-05	2.0	5.0	027_smiling	0.0		224.84071574604513	
21.0	137.19734542845435	pulse	1.0	t		26.0	female	white	4.854755272582572	smiling	027	sub-05	2.0	5.0	027_smiling	0.0		225.54070889394097	
21.0	137.89733827449527	pulse	1.0	t		26.0	female	white	4.854755272582572	smiling	027	sub-05	2.0	5.0	027_smiling	0.0		226.2407017399819	
22.0	138.27220753363235	face	0.0		145	25.0	female	black	3.858336649423	neutral	126	sub-05	2.0	5.0	126_neutral	0.0		226.61557099911897	1.233318371396308
22.0	138.59733051682633	pulse	0.0	t		25.0	female	black	3.858336649423	neutral	126	sub-05	2.0	5.0	126_neutral	0.0		226.94069398231295	
22.0	139.29730706270857	pulse	0.0	t		25.0	female	black	3.858336649423	neutral	126	sub-05	2.0	5.0	126_neutral	0.0		227.6406705281952	
22.0	139.50552590502866	fix	1.0		444	25.0	female	black	3.858336649423	neutral	126	sub-05	2.0	5.0	126_neutral	0.0		227.84888937051528	3.766574470147134
22.0	139.9973104736673	pulse	1.0	t		25.0	female	black	3.858336649423	neutral	126	sub-05	2.0	5.0	126_neutral	0.0		228.34067393915393	
22.0	140.69726407858343	pulse	1.0	t		25.0	female	black	3.858336649423	neutral	126	sub-05	2.0	5.0	126_neutral	0.0		229.04062754407005	
22.0	141.39726205615625	pulse	1.0	t		25.0	female	black	3.858336649423	neutral	126	sub-05	2.0	5.0	126_neutral	0.0		229.74062552164287	
22.0	142.09725127993988	pulse	1.0	t		25.0	female	black	3.858336649423	neutral	126	sub-05	2.0	5.0	126_neutral	0.0		230.4406147454265	
22.0	142.79723839073995	pulse	1.0	t		25.0	female	black	3.858336649423	neutral	126	sub-05	2.0	5.0	126_neutral	0.0		231.14060185622657	
23.0	143.2721003751758	face	0.0		145	34.0	male	white	2.651014723438122	neutral	121	sub-05	2.0	5.0	121_neutral	0.0		231.61546384066241	1.233321088089724
23.0	143.49722701081373	pulse	0.0	t		34.0	male	white	2.651014723438122	neutral	121	sub-05	2.0	5.0	121_neutral	0.0		231.84059047630035	
23.0	144.1972041604049	pulse	0.0	t		34.0	male	white	2.651014723438122	neutral	121	sub-05	2.0	5.0	121_neutral	0.0		232.54056762589153	
23.0	144.50542146326552	fix	1.0		444	34.0	male	white	2.651014723438122	neutral	121	sub-05	2.0	5.0	121_neutral	0.0		232.84878492875214	3.758235429241722
23.0	144.8971942897524	pulse	1.0	t		34.0	male	white	2.651014723438122	neutral	121	sub-05	2.0	5.0	121_neutral	0.0		233.24055775523902	
23.0	145.59717385418207	pulse	1.0	t		34.0	male	white	2.651014723438122	neutral	121	sub-05	2.0	5.0	121_neutral	0.0		233.9405373196687	
23.0	146.29716005941737	pulse	1.0	t		34.0	male	white	2.651014723438122	neutral	121	sub-05	2.0	5.0	121_neutral	0.0		234.64052352490398	
23.0	146.99713841642733	pulse	1.0	t		34.0	male	white	2.651014723438122	neutral	121	sub-05	2.0	5.0	121_neutral	0.0		235.34050188191395	
23.0	147.697141827387	pulse	1.0	t		34.0	male	white	2.651014723438122	neutral	121	sub-05	2.0	5.0	121_neutral	0.0		236.0405052928736	
24.0	148.26365689250724	face	0.0		146	31.0	female	white	2.1822522881018704	neutral	102	sub-05	2.0	5.0	102_neutral	0.0		236.60702035799386	1.2416510733510222
24.0	148.39726718768816	pulse	0.0	t		31.0	female	white	2.1822522881018704	neutral	102	sub-05	2.0	5.0	102_neutral	0.0		236.74063065317478	
24.0	149.09710427664868	pulse	0.0	t		31.0	female	white	2.1822522881018704	neutral	102	sub-05	2.0	5.0	102_neutral	0.0		237.4404677421353	
24.0	149.50530796585826	fix	1.0		444	31.0	female	white	2.1822522881018704	neutral	102	sub-05	2.0	5.0	102_neutral	0.0		237.84867143134488	3.758319948587996
24.0	149.79709682083467	pulse	1.0	t		31.0	female	white	2.1822522881018704	neutral	102	sub-05	2.0	5.0	102_neutral	0.0		238.1404602863213	
24.0	150.4971038540516	pulse	1.0	t		31.0	female	white	2.1822522881018704	neutral	102	sub-05	2.0	5.0	102_neutral	0.0		238.84046731953822	
24.0	151.1970583645325	pulse	1.0	t		31.0	female	white	2.1822522881018704	neutral	102	sub-05	2.0	5.0	102_neutral	0.0		239.5404218300191	
24.0	151.8970270621894	pulse	1.0	t		31.0	female	white	2.1822522881018704	neutral	102	sub-05	2.0	5.0	102_neutral	0.0		240.24039052767603	
24.0	152.5970196063754	pulse	1.0	t		31.0	female	white	2.1822522881018704	neutral	102	sub-05	2.0	5.0	102_neutral	0.0		240.94038307186202	
25.0	153.26362791444626	face	0.0		146	31.0	male	west_asian	1.9538400318344609	neutral	070	sub-05	2.0	5.0	070_neutral	0.0		241.60699137993288	1.2415925135173893
25.0	153.29701577281958	pulse	0.0	t		31.0	male	west_asian	1.9538400318344609	neutral	070	sub-05	2.0	5.0	070_neutral	0.0		241.6403792383062	
25.0	153.99700077063517	pulse	0.0	t		31.0	male	west_asian	1.9538400318344609	neutral	070	sub-05	2.0	5.0	070_neutral	0.0		242.3403642361218	
25.0	154.50522042796365	fix	1.0		443	31.0	male	west_asian	1.9538400318344609	neutral	070	sub-05	2.0	5.0	070_neutral	0.0		242.84858389345027	3.766561792244829
25.0	154.69698667401553	pulse	1.0	t		31.0	male	west_asian	1.9538400318344609	neutral	070	sub-05	2.0	5.0	070_neutral	0.0		243.04035013950215	
25.0	155.39697982191137	pulse	1.0	t		31.0	male	west_asian	1.9538400318344609	neutral	070	sub-05	2.0	5.0	070_neutral	0.0		243.740343287398	
25.0	156.09695576408376	pulse	1.0	t		31.0	male	west_asian	1.9538400318344609	neutral	070	sub-05	2.0	5.0	070_neutral	0.0		244.44031922957038	
25.0	156.79693834706086	pulse	1.0	t		31.0	male	west_asian	1.9538400318344609	neutral	070	sub-05	2.0	5.0	070_neutral	0.0		245.14030181254748	
25.0	157.49691821334545	pulse	1.0	t		31.0	male	west_asian	1.9538400318344609	neutral	070	sub-05	2.0	5.0	070_neutral	0.0		245.84028167883207	
25.0	158.19690924825773	pulse	1.0	t		31.0	male	west_asian	1.9538400318344609	neutral	070	sub-05	2.0	5.0	070_neutral	0.0		246.54027271374434	
26.0	158.27178222020848	face	0.0		146	36.0	female	white	2.7548746518105847	smiling	011	sub-05	2.0	5.0	011_smiling	0.0		246.6151456856951	1.2333280307502719
26.0	158.89689666091272	pulse	0.0	t		36.0	female	white	2.7548746518105847	smiling	011	sub-05	2.0	5.0	011_smiling	0.0		247.24026012639933	
26.0	159.50511025095875	fix	1.0		443	36.0	female	white	2.7548746518105847	smiling	011	sub-05	2.0	5.0	011_smiling	0.0		247.84847371644537	3.758230901420575
26.0	159.59688437542172	pulse	1.0	t		36.0	female	white	2.7548746518105847	smiling	011	sub-05	2.0	5.0	011_smiling	0.0		247.94024784090834	
26.0	160.29685428049743	pulse	1.0	t		36.0	female	white	2.7548746518105847	smiling	011	sub-05	2.0	5.0	011_smiling	0.0		248.64021774598405	
26.0	160.99685074879653	pulse	1.0	t		36.0	female	white	2.7548746518105847	smiling	011	sub-05	2.0	5.0	011_smiling	0.0		249.34021421428315	
26.0	161.6968227668558	pulse	1.0	t		36.0	female	white	2.7548746518105847	smiling	011	sub-05	2.0	5.0	011_smiling	0.0		250.04018623234242	
26.0	162.39682346112204	pulse	1.0	t		36.0	female	white	2.7548746518105847	smiling	011	sub-05	2.0	5.0	011_smiling	0.0		250.74018692660866	
26.0	163.09680725151884	pulse	1.0	t		36.0	female	white	2.7548746518105847	smiling	011	sub-05	2.0	5.0	011_smiling	0.0		251.44017071700546	
27.0	163.26334115237933	face	0.0		147	24.0	female	east_asian	2.9076800636689217	neutral	034	sub-05	2.0	5.0	034_neutral	0.0		251.60670461786594	1.2499919253832559
27.0	163.7967955697377	pulse	0.0	t		24.0	female	east_asian	2.9076800636689217	neutral	034	sub-05	2.0	5.0	034_neutral	0.0		252.14015903522431	
27.0	164.49678660464997	pulse	0.0	t		24.0	female	east_asian	2.9076800636689217	neutral	034	sub-05	2.0	5.0	034_neutral	0.0		252.8401500701366	
27.0	164.51333307776258	fix	1.0		443	24.0	female	east_asian	2.9076800636689217	neutral	034	sub-05	2.0	5.0	034_neutral	0.0		252.8566965432492	3.758223053195252
27.0	165.1967492652102	pulse	1.0	t		24.0	female	east_asian	2.9076800636689217	neutral	034	sub-05	2.0	5.0	034_neutral	0.0		253.54011273069682	
27.0	165.8967596188295	pulse	1.0	t		24.0	female	east_asian	2.9076800636689217	neutral	034	sub-05	2.0	5.0	034_neutral	0.0		254.2401230843161	
27.0	166.59673133503475	pulse	1.0	t		24.0	female	east_asian	2.9076800636689217	neutral	034	sub-05	2.0	5.0	034_neutral	0.0		254.94009480052136	
27.0	167.29675708324976	pulse	1.0	t		24.0	female	east_asian	2.9076800636689217	neutral	034	sub-05	2.0	5.0	034_neutral	0.0		255.64012054873638	
27.0	167.9966998213922	pulse	1.0	t		24.0	female	east_asian	2.9076800636689217	neutral	034	sub-05	2.0	5.0	034_neutral	0.0		256.34006328687883	
28.0	168.27155613095783	face	0.0		145	19.0	male	white	2.243931555909272	smiling	130	sub-05	2.0	5.0	130_smiling	0.0		256.61491959644445	1.2333352752657447
28.0	168.69670534533543	pulse	0.0	t		19.0	male	white	2.243931555909272	smiling	130	sub-05	2.0	5.0	130_smiling	0.0		257.04006881082205	
28.0	169.3966698170243	pulse	0.0	t		19.0	male	white	2.243931555909272	smiling	130	sub-05	2.0	5.0	130_smiling	0.0		257.7400332825109	
28.0	169.50489140622358	fix	1.0		444	19.0	male	white	2.243931555909272	smiling	130	sub-05	2.0	5.0	130_smiling	0.0		257.8482548717102	3.7583721694700216
28.0	170.09666387048492	pulse	1.0	t		19.0	male	white	2.243931555909272	smiling	130	sub-05	2.0	5.0	130_smiling	0.0		258.44002733597154	
28.0	170.79664343491459	pulse	1.0	t		19.0	male	white	2.243931555909272	smiling	130	sub-05	2.0	5.0	130_smiling	0.0		259.1400069004012	
28.0	171.49662662160154	pulse	1.0	t		19.0	male	white	2.243931555909272	smiling	130	sub-05	2.0	5.0	130_smiling	0.0		259.83999008708815	
28.0	172.1966161472401	pulse	1.0	t		19.0	male	white	2.243931555909272	smiling	130	sub-05	2.0	5.0	130_smiling	0.0		260.5399796127267	
28.0	172.8966114081195	pulse	1.0	t		19.0	male	white	2.243931555909272	smiling	130	sub-05	2.0	5.0	130_smiling	0.0		261.2399748736061	
29.0	173.2632635756936	face	0.0		146	47.0	male	east_asian	2.171110226820533	smiling	024	sub-05	2.0	5.0	024_smiling	0.0		261.6066270411802	1.2415245961865367
29.0	173.59658463359847	pulse	0.0	t		47.0	male	east_asian	2.171110226820533	smiling	024	sub-05	2.0	5.0	024_smiling	0.0		261.9399480990851	
29.0	174.29656570730185	pulse	0.0	t		47.0	male	east_asian	2.171110226820533	smiling	024	sub-05	2.0	5.0	024_smiling	0.0		262.63992917278847	
29.0	174.50478817188014	fix	1.0		444	47.0	male	east_asian	2.171110226820533	smiling	024	sub-05	2.0	5.0	024_smiling	0.0		262.84815163736675	3.7665723571626586
29.0	174.9965664015681	pulse	1.0	t		47.0	male	east_asian	2.171110226820533	smiling	024	sub-05	2.0	5.0	024_smiling	0.0		263.3399298670547	
29.0	175.6965390233363	pulse	1.0	t		47.0	male	east_asian	2.171110226820533	smiling	024	sub-05	2.0	5.0	024_smiling	0.0		264.0399024888229	
29.0	176.3965264359913	pulse	1.0	t		47.0	male	east_asian	2.171110226820533	smiling	024	sub-05	2.0	5.0	024_smiling	0.0		264.7398899014779	
29.0	177.09650962267824	pulse	1.0	t		47.0	male	east_asian	2.171110226820533	smiling	024	sub-05	2.0	5.0	024_smiling	0.0		265.43987308816486	
29.0	177.79650518541257	pulse	1.0	t		47.0	male	east_asian	2.171110226820533	smiling	024	sub-05	2.0	5.0	024_smiling	0.0		266.1398686508992	
30.0	178.2713605290428	face	0.0		145	40.0	male	white	1.868682849184242	smiling	172	sub-05	2.0	5.0	172_smiling	0.0		266.6147239945294	1.2333216917995742
30.0	178.4964928999225	pulse	0.0	t		40.0	male	white	1.868682849184242	smiling	172	sub-05	2.0	5.0	172_smiling	0.0		266.8398563654091	
30.0	179.1964679365292	pulse	0.0	t		40.0	male	white	1.868682849184242	smiling	172	sub-05	2.0	5.0	172_smiling	0.0		267.5398314020158	
30.0	179.50468222084237	fix	1.0		444	40.0	male	white	1.868682849184242	smiling	172	sub-05	2.0	5.0	172_smiling	0.0		267.848045686329	3.766574470147134
30.0	179.89645504732925	pulse	1.0	t		40.0	male	white	1.868682849184242	smiling	172	sub-05	2.0	5.0	172_smiling	0.0		268.2398185128159	
30.0	180.59645000635373	pulse	1.0	t		40.0	male	white	1.868682849184242	smiling	172	sub-05	2.0	5.0	172_smiling	0.0		268.93981347184035	
30.0	181.2964319856219	pulse	1.0	t		40.0	male	white	1.868682849184242	smiling	172	sub-05	2.0	5.0	172_smiling	0.0		269.6397954511085	
30.0	181.99643388730692	pulse	1.0	t		40.0	male	white	1.868682849184242	smiling	172	sub-05	2.0	5.0	172_smiling	0.0		270.33979735279354	
30.0	182.6963844736756	pulse	1.0	t		40.0	male	white	1.868682849184242	smiling	172	sub-05	2.0	5.0	172_smiling	0.0		271.0397479391622	
31.0	183.2712566909895	face	0.0		145	31.0	male	west_asian	1.9538400318344609	smiling	070	sub-05	2.0	5.0	070_smiling	0.0		271.6146201564761	1.233320786234799
31.0	183.39638245124843	pulse	0.0	t		31.0	male	west_asian	1.9538400318344609	smiling	070	sub-05	2.0	5.0	070_smiling	0.0		271.73974591673505	
31.0	184.09636865648372	pulse	0.0	t		31.0	male	west_asian	1.9538400318344609	smiling	070	sub-05	2.0	5.0	070_smiling	0.0		272.43973212197034	
31.0	184.5045774772243	fix	1.0		444	31.0	male	west_asian	1.9538400318344609	smiling	070	sub-05	2.0	5.0	070_smiling	0.0		272.8479409427109	3.766574168292209
31.0	184.7963572765575	pulse	1.0	t		31.0	male	west_asian	1.9538400318344609	smiling	070	sub-05	2.0	5.0	070_smiling	0.0		273.1397207420441	
31.0	185.49636551719323	pulse	1.0	t		31.0	male	west_asian	1.9538400318344609	smiling	070	sub-05	2.0	5.0	070_smiling	0.0		273.83972898267984	
31.0	186.1963097646103	pulse	1.0	t		31.0	male	west_asian	1.9538400318344609	smiling	070	sub-05	2.0	5.0	070_smiling	0.0		274.5396732300969	
31.0	186.89630321436107	pulse	1.0	t		31.0	male	west_asian	1.9538400318344609	smiling	070	sub-05	2.0	5.0	070_smiling	0.0		275.2396666798477	
31.0	187.59628066580717	pulse	1.0	t		31.0	male	west_asian	1.9538400318344609	smiling	070	sub-05	2.0	5.0	070_smiling	0.0		275.9396441312938	
32.0	188.2711516455165	face	0.0		145	31.0	female	west_asian	2.364902506963788	smiling	006	sub-05	2.0	5.0	006_smiling	1.0	dominance	276.61451511100313	1.2333198806709333
32.0	188.29627834152507	pulse	0.0	t		31.0	female	west_asian	2.364902506963788	smiling	006	sub-05	2.0	5.0	006_smiling	1.0	dominance	276.6396418070117	
32.0	188.99626484861528	pulse	0.0	t		31.0	female	west_asian	2.364902506963788	smiling	006	sub-05	2.0	5.0	006_smiling	1.0	dominance	277.3396283141019	
32.0	189.50447152618744	fix	1.0		177	31.0	female	west_asian	2.364902506963788	smiling	006	sub-05	2.0	5.0	006_smiling	1.0	dominance	277.84783499167406	1.4999699654463257
32.0	189.69627610779935	pulse	1.0	t		31.0	female	west_asian	2.364902506963788	smiling	006	sub-05	2.0	5.0	006_smiling	1.0	dominance	278.03963957328597	
32.0	190.3962300145704	pulse	1.0	t		31.0	female	west_asian	2.364902506963788	smiling	006	sub-05	2.0	5.0	006_smiling	1.0	dominance	278.739593480057	
32.0	191.00444149163377	rating	2.0		294	31.0	female	west_asian	2.364902506963788	smiling	006	sub-05	2.0	5.0	006_smiling	1.0	dominance	279.3478049571204	2.4999440059327753
32.0	191.09623251996527	pulse	2.0	t		31.0	female	west_asian	2.364902506963788	smiling	006	sub-05	2.0	5.0	006_smiling	1.0	dominance	279.4395959854519	
32.0	191.796192463833	pulse	2.0	t		31.0	female	west_asian	2.364902506963788	smiling	006	sub-05	2.0	5.0	006_smiling	1.0	dominance	280.1395559293196	
32.0	192.0795091599348	response	2.0	g		31.0	female	west_asian	2.364902506963788	smiling	006	sub-05	2.0	5.0	006_smiling	1.0	dominance	280.4228726254214	
32.0	192.4961711226979	pulse	2.0	t		31.0	female	west_asian	2.364902506963788	smiling	006	sub-05	2.0	5.0	006_smiling	1.0	dominance	280.8395345881845	
32.0	193.19615672422333	pulse	2.0	t		31.0	female	west_asian	2.364902506963788	smiling	006	sub-05	2.0	5.0	006_smiling	1.0	dominance	281.53952018970995	
32.0	193.50438549756655	fix	3.0		444	31.0	female	west_asian	2.364902506963788	smiling	006	sub-05	2.0	5.0	006_smiling	1.0	dominance	281.84774896305316	3.766576281275775
32.0	193.8961592296182	pulse	3.0	t		31.0	female	west_asian	2.364902506963788	smiling	006	sub-05	2.0	5.0	006_smiling	1.0	dominance	282.2395226951048	
32.0	194.5961442274347	pulse	3.0	t		31.0	female	west_asian	2.364902506963788	smiling	006	sub-05	2.0	5.0	006_smiling	1.0	dominance	282.9395076929213	
32.0	195.29612831968643	pulse	3.0	t		31.0	female	west_asian	2.364902506963788	smiling	006	sub-05	2.0	5.0	006_smiling	1.0	dominance	283.63949178517305	
32.0	195.99611120451846	pulse	3.0	t		31.0	female	west_asian	2.364902506963788	smiling	006	sub-05	2.0	5.0	006_smiling	1.0	dominance	284.3394746700051	
32.0	196.69608956152842	pulse	3.0	t		31.0	female	west_asian	2.364902506963788	smiling	006	sub-05	2.0	5.0	006_smiling	1.0	dominance	285.03945302701504	
33.0	197.27096177884232	face	0.0		145	24.0	male	white	3.1153999204138483	neutral	012	sub-05	2.0	5.0	012_neutral	0.0		285.61432524432894	1.2333183713972176
33.0	197.3960869353923	pulse	0.0	t		24.0	male	white	3.1153999204138483	neutral	012	sub-05	2.0	5.0	012_neutral	0.0		285.7394504008789	
33.0	198.09607012207925	pulse	0.0	t		24.0	male	white	3.1153999204138483	neutral	012	sub-05	2.0	5.0	012_neutral	0.0		286.4394335875659	
33.0	198.50428015023954	fix	1.0		444	24.0	male	white	3.1153999204138483	neutral	012	sub-05	2.0	5.0	012_neutral	0.0		286.84764361572616	3.7665744701462245
33.0	198.79604153642867	pulse	1.0	t		24.0	male	white	3.1153999204138483	neutral	012	sub-05	2.0	5.0	012_neutral	0.0		287.1394050019153	
33.0	199.49603377876065	pulse	1.0	t		24.0	male	white	3.1153999204138483	neutral	012	sub-05	2.0	5.0	012_neutral	0.0		287.83939724424727	
33.0	200.1960220969795	pulse	1.0	t		24.0	male	white	3.1153999204138483	neutral	012	sub-05	2.0	5.0	012_neutral	0.0		288.5393855624661	
33.0	200.8960098114885	pulse	1.0	t		24.0	male	white	3.1153999204138483	neutral	012	sub-05	2.0	5.0	012_neutral	0.0		289.23937327697513	
33.0	201.5959869610797	pulse	1.0	t		24.0	male	white	3.1153999204138483	neutral	012	sub-05	2.0	5.0	012_neutral	0.0		289.9393504265663	
34.0	202.27085462038576	face	0.0		145	24.0	male	white	3.1153999204138483	smiling	012	sub-05	2.0	5.0	012_smiling	0.0		290.6142180858724	1.2333159565587266
34.0	202.2959885609107	pulse	0.0	t		24.0	male	white	3.1153999204138483	smiling	012	sub-05	2.0	5.0	012_smiling	0.0		290.6393520263973	
34.0	202.995950919616	pulse	0.0	t		24.0	male	white	3.1153999204138483	smiling	012	sub-05	2.0	5.0	012_smiling	0.0		291.3393143851026	
34.0	203.5041705769445	fix	1.0		443	24.0	male	white	3.1153999204138483	smiling	012	sub-05	2.0	5.0	012_smiling	0.0		291.8475340424311	3.7665799035330565
34.0	203.6959525194461	pulse	1.0	t		24.0	male	white	3.1153999204138483	smiling	012	sub-05	2.0	5.0	012_smiling	0.0		292.0393159849327	
34.0	204.39593268758563	pulse	1.0	t		24.0	male	white	3.1153999204138483	smiling	012	sub-05	2.0	5.0	012_smiling	0.0		292.73929615307225	
34.0	205.09592160951433	pulse	1.0	t		24.0	male	white	3.1153999204138483	smiling	012	sub-05	2.0	5.0	012_smiling	0.0		293.43928507500095	
34.0	205.79589151459004	pulse	1.0	t		24.0	male	white	3.1153999204138483	smiling	012	sub-05	2.0	5.0	012_smiling	0.0		294.13925498007666	
34.0	206.4958873791793	pulse	1.0	t		24.0	male	white	3.1153999204138483	smiling	012	sub-05	2.0	5.0	012_smiling	0.0		294.8392508446659	
34.0	207.19587781038172	pulse	1.0	t		24.0	male	white	3.1153999204138483	smiling	012	sub-05	2.0	5.0	012_smiling	0.0		295.53924127586833	
35.0	207.27075048047755	face	0.0		146	26.0	male	white	2.7966573816155993	neutral	117	sub-05	2.0	5.0	117_neutral	0.0		295.61411394596416	1.233296939705724
35.0	207.89586371376208	pulse	0.0	t		26.0	male	white	2.7966573816155993	neutral	117	sub-05	2.0	5.0	117_neutral	0.0		296.2392271792487	
35.0	208.50404742018327	fix	1.0		443	26.0	male	white	2.7966573816155993	neutral	117	sub-05	2.0	5.0	117_neutral	0.0		296.8474108856699	3.766597712966359
35.0	208.5958387503697	pulse	1.0	t		26.0	male	white	2.7966573816155993	neutral	117	sub-05	2.0	5.0	117_neutral	0.0		296.9392022158563	
35.0	209.2958276722984	pulse	1.0	t		26.0	male	white	2.7966573816155993	neutral	117	sub-05	2.0	5.0	117_neutral	0.0		297.639191137785	
35.0	209.9958277628548	pulse	1.0	t		26.0	male	white	2.7966573816155993	neutral	117	sub-05	2.0	5.0	117_neutral	0.0		298.3391912283414	
35.0	210.69579887534928	pulse	1.0	t		26.0	male	white	2.7966573816155993	neutral	117	sub-05	2.0	5.0	117_neutral	0.0		299.0391623408359	
35.0	211.39578749542306	pulse	1.0	t		26.0	male	white	2.7966573816155993	neutral	117	sub-05	2.0	5.0	117_neutral	0.0		299.7391509609097	
35.0	212.09577883219026	pulse	1.0	t		26.0	male	white	2.7966573816155993	neutral	117	sub-05	2.0	5.0	117_neutral	0.0		300.4391422976769	
36.0	212.27064513314963	face	0.0		146	28.0	male	white	3.9076800636689217	smiling	033	sub-05	2.0	5.0	033_smiling	0.0		300.61400859863625	1.2416537900435287
36.0	212.79577892274665	pulse	0.0	t		28.0	male	white	3.9076800636689217	smiling	033	sub-05	2.0	5.0	033_smiling	0.0		301.13914238823327	
36.0	213.4957328295177	pulse	0.0	t		28.0	male	white	3.9076800636689217	smiling	033	sub-05	2.0	5.0	033_smiling	0.0		301.8390962950043	
36.0	213.51229892319316	fix	1.0		443	28.0	male	white	3.9076800636689217	smiling	033	sub-05	2.0	5.0	033_smiling	0.0		301.8556623886798	3.7582399570646885
36.0	214.1957166199145	pulse	1.0	t		28.0	male	white	3.9076800636689217	smiling	033	sub-05	2.0	5.0	033_smiling	0.0		302.5390800854011	
36.0	214.89569648619909	pulse	1.0	t		28.0	male	white	3.9076800636689217	smiling	033	sub-05	2.0	5.0	033_smiling	0.0		303.2390599516857	
36.0	215.5957237436878	pulse	1.0	t		28.0	male	white	3.9076800636689217	smiling	033	sub-05	2.0	5.0	033_smiling	0.0		303.93908720917443	
36.0	216.2956885172316	pulse	1.0	t		28.0	male	white	3.9076800636689217	smiling	033	sub-05	2.0	5.0	033_smiling	0.0		304.63905198271823	
36.0	216.99566868537113	pulse	1.0	t		28.0	male	white	3.9076800636689217	smiling	033	sub-05	2.0	5.0	033_smiling	0.0		305.33903215085775	
37.0	217.27053888025785	face	0.0		145	27.0	female	white	3.504576203740549	neutral	144	sub-05	2.0	5.0	144_neutral	0.0		305.61390234574446	1.2333186732512331
37.0	217.6956684740726	pulse	0.0	t		27.0	female	white	3.504576203740549	neutral	144	sub-05	2.0	5.0	144_neutral	0.0		306.0390319395592	
37.0	218.39562660681077	pulse	0.0	t		27.0	female	white	3.504576203740549	neutral	144	sub-05	2.0	5.0	144_neutral	0.0		306.7389900722974	
37.0	218.50385755350908	fix	1.0		444	27.0	female	white	3.504576203740549	neutral	144	sub-05	2.0	5.0	144_neutral	0.0		306.8472210189957	3.766574470147134
37.0	219.0956260936573	pulse	1.0	t		27.0	female	white	3.504576203740549	neutral	144	sub-05	2.0	5.0	144_neutral	0.0		307.4389895591439	
37.0	219.79560686550667	pulse	1.0	t		27.0	female	white	3.504576203740549	neutral	144	sub-05	2.0	5.0	144_neutral	0.0		308.1389703309933	
37.0	220.4956102764654	pulse	1.0	t		27.0	female	white	3.504576203740549	neutral	144	sub-05	2.0	5.0	144_neutral	0.0		308.83897374195203	
37.0	221.19557806855755	pulse	1.0	t		27.0	female	white	3.504576203740549	neutral	144	sub-05	2.0	5.0	144_neutral	0.0		309.53894153404417	
37.0	221.89556548121254	pulse	1.0	t		27.0	female	white	3.504576203740549	neutral	144	sub-05	2.0	5.0	144_neutral	0.0		310.23892894669916	
38.0	222.2704320236562	face	0.0		145	20.0	male	black	2.609629924393156	neutral	043	sub-05	2.0	5.0	043_neutral	0.0		310.61379548914283	1.2333219936535897
38.0	222.59555349757647	pulse	0.0	t		20.0	male	black	2.609629924393156	neutral	043	sub-05	2.0	5.0	043_neutral	0.0		310.9389169630631	
38.0	223.29552279894233	pulse	0.0	t		20.0	male	black	2.609629924393156	neutral	043	sub-05	2.0	5.0	043_neutral	0.0		311.63888626442895	
38.0	223.5037540173098	fix	1.0		444	20.0	male	black	2.609629924393156	neutral	043	sub-05	2.0	5.0	043_neutral	0.0		311.8471174827964	3.766573564582359
38.0	223.99552047466113	pulse	1.0	t		20.0	male	black	2.609629924393156	neutral	043	sub-05	2.0	5.0	043_neutral	0.0		312.33888394014775	
38.0	224.69550094465467	pulse	1.0	t		20.0	male	black	2.609629924393156	neutral	043	sub-05	2.0	5.0	043_neutral	0.0		313.0388644101413	
38.0	225.39552125948285	pulse	1.0	t		20.0	male	black	2.609629924393156	neutral	043	sub-05	2.0	5.0	043_neutral	0.0		313.73888472496947	
38.0	226.09547969407595	pulse	1.0	t		20.0	male	black	2.609629924393156	neutral	043	sub-05	2.0	5.0	043_neutral	0.0		314.43884315956257	
38.0	226.79545865479577	pulse	1.0	t		20.0	male	black	2.609629924393156	neutral	043	sub-05	2.0	5.0	043_neutral	0.0		315.1388221202824	
39.0	227.27032758189216	face	0.0		145	20.0	female	white	3.9502586549940313	neutral	091	sub-05	2.0	5.0	091_neutral	0.0		315.6136910473788	1.2333198806709333
39.0	227.49544999156296	pulse	0.0	t		20.0	female	white	3.9502586549940313	neutral	091	sub-05	2.0	5.0	091_neutral	0.0		315.8388134570496	
39.0	228.19543197083112	pulse	0.0	t		20.0	female	white	3.9502586549940313	neutral	091	sub-05	2.0	5.0	091_neutral	0.0		316.53879543631774	
39.0	228.5036474625631	fix	1.0		444	20.0	female	white	3.9502586549940313	neutral	091	sub-05	2.0	5.0	091_neutral	0.0		316.8470109280497	3.7499211404319794
39.0	228.89541998719506	pulse	1.0	t		20.0	female	white	3.9502586549940313	neutral	091	sub-05	2.0	5.0	091_neutral	0.0		317.2387834526817	
39.0	229.59539472194774	pulse	1.0	t		20.0	female	white	3.9502586549940313	neutral	091	sub-05	2.0	5.0	091_neutral	0.0		317.93875818743436	
39.0	230.29537368266756	pulse	1.0	t		20.0	female	white	3.9502586549940313	neutral	091	sub-05	2.0	5.0	091_neutral	0.0		318.6387371481542	
39.0	230.9953755843535	pulse	1.0	t		20.0	female	white	3.9502586549940313	neutral	091	sub-05	2.0	5.0	091_neutral	0.0		319.3387390498401	
39.0	231.6953328115269	pulse	1.0	t		20.0	female	white	3.9502586549940313	neutral	091	sub-05	2.0	5.0	091_neutral	0.0		320.0386962770135	
40.0	232.25356860299507	fix	0.0		720													320.5969320684817	5.999843941064682
40.0	232.39536640796723	pulse	0.0	t														320.73872987345385	
40.0	233.09531850360872	pulse	0.0	t														321.43868196909534	
40.0	233.79530802924728	pulse	0.0	t														322.1386714947339	
40.0	234.4952984604497	pulse	0.0	t														322.8386619259363	
40.0	235.1952873823784	pulse	0.0	t														323.53865084786503	
40.0	235.8952648338245	pulse	0.0	t														324.23862829931113	
40.0	236.59525194462458	pulse	0.0	t														324.9386154101112	
40.0	237.29523573502138	pulse	0.0	t														325.638599200508	
40.0	237.9952225439656	pulse	0.0	t														326.33858600945223	
