trial_nr	onset	event_type	phase	response	nr_frames	face_age	face_sex	face_eth	attractiveness	expression	face_id	sub_id	ses	run	trial_type	catch	rating_type	onset_abs	duration
-1.0	0.05734033918270143	fix	0.0		714													19.05509333199734	5.966283119887521
-1.0	0.7071815182753198	pulse	0.0	t														19.70493451108996	
-1.0	1.407163195690373	pulse	0.0	t														20.404916188505013	
-1.0	2.107146382375504	pulse	0.0	t														21.104899375190143	
-1.0	2.8071425488196837	pulse	0.0	t														21.804895541634323	
-1.0	3.507120603975636	pulse	0.0	t														22.504873596790276	
-1.0	4.207093829452788	pulse	0.0	t														23.204846822267427	
-1.0	4.907092410736368	pulse	0.0	t														23.904845403551008	
-1.0	5.607076201133168	pulse	0.0	t														24.604829193947808	
0.0	6.0236234590702225	face	0.0		144	19.0	male	white	2.243931555909272	neutral	130	sub-06	1.0	4.0	130_neutral	0.0		25.021376451884862	1.2333008638161118
0.0	6.30709017701156	pulse	0.0	t		19.0	male	white	2.243931555909272	neutral	130	sub-06	1.0	4.0	130_neutral	0.0		25.3048431698262	
0.0	7.007042272653052	pulse	0.0	t		19.0	male	white	2.243931555909272	neutral	130	sub-06	1.0	4.0	130_neutral	0.0		26.004795265467692	
0.0	7.256924322886334	fix	1.0		445	19.0	male	white	2.243931555909272	neutral	130	sub-06	1.0	4.0	130_neutral	0.0		26.254677315700974	3.758256257224275
0.0	7.7070185166812735	pulse	1.0	t		19.0	male	white	2.243931555909272	neutral	130	sub-06	1.0	4.0	130_neutral	0.0		26.704771509495913	
0.0	8.407011664574384	pulse	1.0	t		19.0	male	white	2.243931555909272	neutral	130	sub-06	1.0	4.0	130_neutral	0.0		27.404764657389023	
0.0	9.106998775376269	pulse	1.0	t		19.0	male	white	2.243931555909272	neutral	130	sub-06	1.0	4.0	130_neutral	0.0		28.10475176819091	
0.0	9.806986188028532	pulse	1.0	t		19.0	male	white	2.243931555909272	neutral	130	sub-06	1.0	4.0	130_neutral	0.0		28.80473918084317	
0.0	10.506964545042138	pulse	1.0	t		19.0	male	white	2.243931555909272	neutral	130	sub-06	1.0	4.0	130_neutral	0.0		29.504717537856777	
1.0	11.01518058011061	face	0.0		146	26.0	female	white	4.854755272582572	smiling	027	sub-06	1.0	4.0	027_smiling	0.0		30.01293357292525	1.241638999159477
1.0	11.206963730033749	pulse	0.0	t		26.0	female	white	4.854755272582572	smiling	027	sub-06	1.0	4.0	027_smiling	0.0		30.20471672284839	
1.0	11.9069381629306	pulse	0.0	t		26.0	female	white	4.854755272582572	smiling	027	sub-06	1.0	4.0	027_smiling	0.0		30.90469115574524	
1.0	12.256819579270086	fix	1.0		445	26.0	female	white	4.854755272582572	smiling	027	sub-06	1.0	4.0	027_smiling	0.0		31.254572572084726	3.7582511256914586
1.0	12.606953648082708	pulse	1.0	t		26.0	female	white	4.854755272582572	smiling	027	sub-06	1.0	4.0	027_smiling	0.0		31.604706640897348	
1.0	13.306916006786196	pulse	1.0	t		26.0	female	white	4.854755272582572	smiling	027	sub-06	1.0	4.0	027_smiling	0.0		32.304668999600835	
1.0	14.006896778635564	pulse	1.0	t		26.0	female	white	4.854755272582572	smiling	027	sub-06	1.0	4.0	027_smiling	0.0		33.004649771450204	
1.0	14.706878456050617	pulse	1.0	t		26.0	female	white	4.854755272582572	smiling	027	sub-06	1.0	4.0	027_smiling	0.0		33.70463144886526	
1.0	15.40686828354228	pulse	1.0	t		26.0	female	white	4.854755272582572	smiling	027	sub-06	1.0	4.0	027_smiling	0.0		34.40462127635692	
2.0	16.015070704961545	face	0.0		146	20.0	female	white	3.9502586549940313	smiling	091	sub-06	1.0	4.0	091_smiling	0.0		35.012823697776184	1.2416435269806243
2.0	16.106870788938977	pulse	0.0	t		20.0	female	white	3.9502586549940313	smiling	091	sub-06	1.0	4.0	091_smiling	0.0		35.10462378175362	
2.0	16.806837373609596	pulse	0.0	t		20.0	female	white	3.9502586549940313	smiling	091	sub-06	1.0	4.0	091_smiling	0.0		35.804590366424236	
2.0	17.25671423194217	fix	1.0		444	20.0	female	white	3.9502586549940313	smiling	091	sub-06	1.0	4.0	091_smiling	0.0		36.25446722475681	3.7582484089980426
2.0	17.50682448441148	pulse	1.0	t		20.0	female	white	3.9502586549940313	smiling	091	sub-06	1.0	4.0	091_smiling	0.0		36.50457747722612	
2.0	18.206803746983496	pulse	1.0	t		20.0	female	white	3.9502586549940313	smiling	091	sub-06	1.0	4.0	091_smiling	0.0		37.204556739798136	
2.0	18.906802931975108	pulse	1.0	t		20.0	female	white	3.9502586549940313	smiling	091	sub-06	1.0	4.0	091_smiling	0.0		37.90455592478975	
2.0	19.60681751156517	pulse	1.0	t		20.0	female	white	3.9502586549940313	smiling	091	sub-06	1.0	4.0	091_smiling	0.0		38.60457050437981	
2.0	20.306768097932945	pulse	1.0	t		20.0	female	white	3.9502586549940313	smiling	091	sub-06	1.0	4.0	091_smiling	0.0		39.304521090747585	
3.0	21.01496264094021	face	0.0		147	37.0	male	white	3.898925586947871	neutral	101	sub-06	1.0	4.0	101_neutral	0.0		40.01271563375485	1.2416595252834668
3.0	21.006017475581757	pulse	0.0	t		37.0	male	white	3.898925586947871	neutral	101	sub-06	1.0	4.0	101_neutral	0.0		40.0037704683964	
3.0	21.706736886146246	pulse	0.0	t		37.0	male	white	3.898925586947871	neutral	101	sub-06	1.0	4.0	101_neutral	0.0		40.704489878960885	
3.0	22.25662216622368	fix	1.0		443	37.0	male	white	3.898925586947871	neutral	101	sub-06	1.0	4.0	101_neutral	0.0		41.25437515903832	3.7582414663411328
3.0	22.406752371298353	pulse	1.0	t		37.0	male	white	3.898925586947871	neutral	101	sub-06	1.0	4.0	101_neutral	0.0		41.40450536411299	
3.0	23.106701448392414	pulse	1.0	t		37.0	male	white	3.898925586947871	neutral	101	sub-06	1.0	4.0	101_neutral	0.0		42.104454441207054	
3.0	23.806688861044677	pulse	1.0	t		37.0	male	white	3.898925586947871	neutral	101	sub-06	1.0	4.0	101_neutral	0.0		42.804441853859316	
3.0	24.506668425474345	pulse	1.0	t		37.0	male	white	3.898925586947871	neutral	101	sub-06	1.0	4.0	101_neutral	0.0		43.504421418288985	
3.0	25.206670327159372	pulse	1.0	t		37.0	male	white	3.898925586947871	neutral	101	sub-06	1.0	4.0	101_neutral	0.0		44.20442331997401	
3.0	25.906648986023356	pulse	1.0	t		37.0	male	white	3.898925586947871	neutral	101	sub-06	1.0	4.0	101_neutral	0.0		44.904401978837996	
4.0	26.01486363256481	face	0.0		147	28.0	male	white	3.9076800636689217	smiling	033	sub-06	1.0	4.0	033_smiling	0.0		45.01261662537945	1.2416275286741438
4.0	26.606634587551525	pulse	0.0	t		28.0	male	white	3.9076800636689217	smiling	033	sub-06	1.0	4.0	033_smiling	0.0		45.604387580366165	
4.0	27.256491161238955	fix	1.0		443	28.0	male	white	3.9076800636689217	smiling	033	sub-06	1.0	4.0	033_smiling	0.0		46.254244154053595	3.758268633271655
4.0	27.306646752298548	pulse	1.0	t		28.0	male	white	3.9076800636689217	smiling	033	sub-06	1.0	4.0	033_smiling	0.0		46.30439974511319	
4.0	28.006605790600588	pulse	1.0	t		28.0	male	white	3.9076800636689217	smiling	033	sub-06	1.0	4.0	033_smiling	0.0		47.00435878341523	
4.0	28.70659199583679	pulse	1.0	t		28.0	male	white	3.9076800636689217	smiling	033	sub-06	1.0	4.0	033_smiling	0.0		47.70434498865143	
4.0	29.406579710346705	pulse	1.0	t		28.0	male	white	3.9076800636689217	smiling	033	sub-06	1.0	4.0	033_smiling	0.0		48.404332703161344	
4.0	30.106558972922357	pulse	1.0	t		28.0	male	white	3.9076800636689217	smiling	033	sub-06	1.0	4.0	033_smiling	0.0		49.104311965737	
4.0	30.80654004662574	pulse	1.0	t		28.0	male	white	3.9076800636689217	smiling	033	sub-06	1.0	4.0	033_smiling	0.0		49.80429303944038	
5.0	31.01475979451061	face	0.0		146	27.0	female	white	3.504576203740549	neutral	144	sub-06	1.0	4.0	144_neutral	0.0		50.01251278732525	1.2416414139952394
5.0	31.506563681858097	pulse	0.0	t		27.0	female	white	3.504576203740549	neutral	144	sub-06	1.0	4.0	144_neutral	0.0		50.50431667467274	
5.0	32.20650581629161	pulse	0.0	t		27.0	female	white	3.504576203740549	neutral	144	sub-06	1.0	4.0	144_neutral	0.0		51.20425880910625	
5.0	32.25640120850585	fix	1.0		445	27.0	female	white	3.504576203740549	neutral	144	sub-06	1.0	4.0	144_neutral	0.0		51.25415420132049	3.7582520312571432
5.0	32.90649836047669	pulse	1.0	t		27.0	female	white	3.504576203740549	neutral	144	sub-06	1.0	4.0	144_neutral	0.0		51.90425135329133	
5.0	33.60648275458152	pulse	1.0	t		27.0	female	white	3.504576203740549	neutral	144	sub-06	1.0	4.0	144_neutral	0.0		52.60423574739616	
5.0	34.306474996912584	pulse	1.0	t		27.0	female	white	3.504576203740549	neutral	144	sub-06	1.0	4.0	144_neutral	0.0		53.304227989727224	
5.0	35.00643675191168	pulse	1.0	t		27.0	female	white	3.504576203740549	neutral	144	sub-06	1.0	4.0	144_neutral	0.0		54.00418974472632	
5.0	35.70643835173905	pulse	1.0	t		27.0	female	white	3.504576203740549	neutral	144	sub-06	1.0	4.0	144_neutral	0.0		54.70419134455369	
6.0	36.01465323976299	face	0.0		146	24.0	female	east_asian	2.9076800636689217	smiling	034	sub-06	1.0	4.0	034_smiling	0.0		55.01240623257763	1.2416402065791772
6.0	36.40642033100812	pulse	0.0	t		24.0	female	east_asian	2.9076800636689217	smiling	034	sub-06	1.0	4.0	034_smiling	0.0		55.40417332382276	
6.0	37.10640774366402	pulse	0.0	t		24.0	female	east_asian	2.9076800636689217	smiling	034	sub-06	1.0	4.0	034_smiling	0.0		56.10416073647866	
6.0	37.25629344634217	fix	1.0		445	24.0	female	east_asian	2.9076800636689217	smiling	034	sub-06	1.0	4.0	034_smiling	0.0		56.25404643915681	3.7582363348046783
6.0	37.80639545817394	pulse	1.0	t		24.0	female	east_asian	2.9076800636689217	smiling	034	sub-06	1.0	4.0	034_smiling	0.0		56.80414845098858	
6.0	38.50637804115104	pulse	1.0	t		24.0	female	east_asian	2.9076800636689217	smiling	034	sub-06	1.0	4.0	034_smiling	0.0		57.50413103396568	
6.0	39.20636062412814	pulse	1.0	t		24.0	female	east_asian	2.9076800636689217	smiling	034	sub-06	1.0	4.0	034_smiling	0.0		58.20411361694278	
6.0	39.906351357185486	pulse	1.0	t		24.0	female	east_asian	2.9076800636689217	smiling	034	sub-06	1.0	4.0	034_smiling	0.0		58.904104350000125	
6.0	40.606330921615154	pulse	1.0	t		24.0	female	east_asian	2.9076800636689217	smiling	034	sub-06	1.0	4.0	034_smiling	0.0		59.60408391442979	
7.0	41.01452978114685	face	0.0		146	31.0	male	west_asian	1.9538400318344609	smiling	070	sub-06	1.0	4.0	070_smiling	1.0	trustworthiness	60.01228277396149	1.2416583178674045
7.0	41.306330710314796	pulse	0.0	t		31.0	male	west_asian	1.9538400318344609	smiling	070	sub-06	1.0	4.0	070_smiling	1.0	trustworthiness	60.304083703129436	
7.0	42.00630755805105	pulse	0.0	t		31.0	male	west_asian	1.9538400318344609	smiling	070	sub-06	1.0	4.0	070_smiling	1.0	trustworthiness	61.00406055086569	
7.0	42.25618809901425	fix	1.0		176	31.0	male	west_asian	1.9538400318344609	smiling	070	sub-06	1.0	4.0	070_smiling	1.0	trustworthiness	61.25394109182889	1.508332852878084
7.0	42.70629617812665	pulse	1.0	t		31.0	male	west_asian	1.9538400318344609	smiling	070	sub-06	1.0	4.0	070_smiling	1.0	trustworthiness	61.70404917094129	
7.0	43.29794488191692	response	1.0	g		31.0	male	west_asian	1.9538400318344609	smiling	070	sub-06	1.0	4.0	070_smiling	1.0	trustworthiness	62.29569787473156	
7.0	43.40626638505637	pulse	1.0	t		31.0	male	west_asian	1.9538400318344609	smiling	070	sub-06	1.0	4.0	070_smiling	1.0	trustworthiness	62.40401937787101	
7.0	43.76452095189234	rating	2.0		294	31.0	male	west_asian	1.9538400318344609	smiling	070	sub-06	1.0	4.0	070_smiling	1.0	trustworthiness	62.762273944706976	2.4915681387428776
7.0	44.106270097872766	pulse	2.0	t		31.0	male	west_asian	1.9538400318344609	smiling	070	sub-06	1.0	4.0	070_smiling	1.0	trustworthiness	63.104023090687406	
7.0	44.806271999557794	pulse	2.0	t		31.0	male	west_asian	1.9538400318344609	smiling	070	sub-06	1.0	4.0	070_smiling	1.0	trustworthiness	63.80402499237243	
7.0	45.50624733802033	pulse	2.0	t		31.0	male	west_asian	1.9538400318344609	smiling	070	sub-06	1.0	4.0	070_smiling	1.0	trustworthiness	64.50400033083497	
7.0	46.20621090414352	pulse	2.0	t		31.0	male	west_asian	1.9538400318344609	smiling	070	sub-06	1.0	4.0	070_smiling	1.0	trustworthiness	65.20396389695816	
7.0	46.256089090635214	fix	3.0		444	31.0	male	west_asian	1.9538400318344609	smiling	070	sub-06	1.0	4.0	070_smiling	1.0	trustworthiness	65.25384208344985	3.758271349965071
7.0	46.90619258155493	pulse	3.0	t		31.0	male	west_asian	1.9538400318344609	smiling	070	sub-06	1.0	4.0	070_smiling	1.0	trustworthiness	65.90394557436957	
7.0	47.6061932758239	pulse	3.0	t		31.0	male	west_asian	1.9538400318344609	smiling	070	sub-06	1.0	4.0	070_smiling	1.0	trustworthiness	66.60394626863854	
7.0	48.30618461258928	pulse	3.0	t		31.0	male	west_asian	1.9538400318344609	smiling	070	sub-06	1.0	4.0	070_smiling	1.0	trustworthiness	67.30393760540392	
7.0	49.00614968798982	pulse	3.0	t		31.0	male	west_asian	1.9538400318344609	smiling	070	sub-06	1.0	4.0	070_smiling	1.0	trustworthiness	68.00390268080446	
7.0	49.706144345156645	pulse	3.0	t		31.0	male	west_asian	1.9538400318344609	smiling	070	sub-06	1.0	4.0	070_smiling	1.0	trustworthiness	68.70389733797128	
8.0	50.014360440600285	face	0.0		146	28.0	male	east_asian	1.5563072025467568	neutral	005	sub-06	1.0	4.0	005_neutral	0.0		69.01211343341492	1.2416380935937923
8.0	50.40613598377968	pulse	0.0	t		28.0	male	east_asian	1.5563072025467568	neutral	005	sub-06	1.0	4.0	005_neutral	0.0		69.40388897659432	
8.0	51.10610347401598	pulse	0.0	t		28.0	male	east_asian	1.5563072025467568	neutral	005	sub-06	1.0	4.0	005_neutral	0.0		70.10385646683062	
8.0	51.25599853419408	fix	1.0		445	28.0	male	east_asian	1.5563072025467568	neutral	005	sub-06	1.0	4.0	005_neutral	0.0		70.25375152700872	3.758255049804575
8.0	51.806104168284946	pulse	1.0	t		28.0	male	east_asian	1.5563072025467568	neutral	005	sub-06	1.0	4.0	005_neutral	0.0		70.80385716109959	
8.0	52.506084336422646	pulse	1.0	t		28.0	male	east_asian	1.5563072025467568	neutral	005	sub-06	1.0	4.0	005_neutral	0.0		71.50383732923729	
8.0	53.20607144722089	pulse	1.0	t		28.0	male	east_asian	1.5563072025467568	neutral	005	sub-06	1.0	4.0	005_neutral	0.0		72.20382444003553	
8.0	53.90606399140961	pulse	1.0	t		28.0	male	east_asian	1.5563072025467568	neutral	005	sub-06	1.0	4.0	005_neutral	0.0		72.90381698422425	
8.0	54.606034500193346	pulse	1.0	t		28.0	male	east_asian	1.5563072025467568	neutral	005	sub-06	1.0	4.0	005_neutral	0.0		73.60378749300799	
9.0	55.01425358399865	face	0.0		146	31.0	female	east_asian	3.395941106247513	smiling	087	sub-06	1.0	4.0	087_smiling	0.0		74.01200657681329	1.2416462436740403
9.0	55.30603640187837	pulse	0.0	t		31.0	female	east_asian	3.395941106247513	smiling	087	sub-06	1.0	4.0	087_smiling	0.0		74.30378939469301	
9.0	56.00600962735916	pulse	0.0	t		31.0	female	east_asian	3.395941106247513	smiling	087	sub-06	1.0	4.0	087_smiling	0.0		75.0037626201738	
9.0	56.25589982767269	fix	1.0		445	31.0	female	east_asian	3.395941106247513	smiling	087	sub-06	1.0	4.0	087_smiling	0.0		75.25365282048733	3.7665838276443537
9.0	56.70599794557711	pulse	1.0	t		31.0	female	east_asian	3.395941106247513	smiling	087	sub-06	1.0	4.0	087_smiling	0.0		75.70375093839175	
9.0	57.405992602747574	pulse	1.0	t		31.0	female	east_asian	3.395941106247513	smiling	087	sub-06	1.0	4.0	087_smiling	0.0		76.40374559556221	
9.0	58.10596431895101	pulse	1.0	t		31.0	female	east_asian	3.395941106247513	smiling	087	sub-06	1.0	4.0	087_smiling	0.0		77.10371731176565	
9.0	58.80595142974926	pulse	1.0	t		31.0	female	east_asian	3.395941106247513	smiling	087	sub-06	1.0	4.0	087_smiling	0.0		77.8037044225639	
9.0	59.50594065353289	pulse	1.0	t		31.0	female	east_asian	3.395941106247513	smiling	087	sub-06	1.0	4.0	087_smiling	0.0		78.50369364634753	
10.0	60.022483655317046	face	0.0		145	40.0	female	west_asian	1.5777954635893354	neutral	038	sub-06	1.0	4.0	038_neutral	0.0		79.02023664813169	1.2332972415606491
10.0	60.20592866989682	pulse	0.0	t		40.0	female	west_asian	1.5777954635893354	neutral	038	sub-06	1.0	4.0	038_neutral	0.0		79.20368166271146	
10.0	60.90590612134474	pulse	0.0	t		40.0	female	west_asian	1.5777954635893354	neutral	038	sub-06	1.0	4.0	038_neutral	0.0		79.90365911415938	
10.0	61.255780896877695	fix	1.0		444	40.0	female	west_asian	1.5777954635893354	neutral	038	sub-06	1.0	4.0	038_neutral	0.0		80.25353388969233	3.758263803592854
10.0	61.605911947142886	pulse	1.0	t		40.0	female	west_asian	1.5777954635893354	neutral	038	sub-06	1.0	4.0	038_neutral	0.0		80.60366493995753	
10.0	62.305902680200234	pulse	1.0	t		40.0	female	west_asian	1.5777954635893354	neutral	038	sub-06	1.0	4.0	038_neutral	0.0		81.30365567301487	
10.0	63.00585568140741	pulse	1.0	t		40.0	female	west_asian	1.5777954635893354	neutral	038	sub-06	1.0	4.0	038_neutral	0.0		82.00360867422205	
10.0	63.70584943301219	pulse	1.0	t		40.0	female	west_asian	1.5777954635893354	neutral	038	sub-06	1.0	4.0	038_neutral	0.0		82.70360242582683	
10.0	64.40583080856959	pulse	1.0	t		40.0	female	west_asian	1.5777954635893354	neutral	038	sub-06	1.0	4.0	038_neutral	0.0		83.40358380138423	
11.0	65.01404470047055	face	0.0		146	21.0	male	black	2.969757262236371	smiling	137	sub-06	1.0	4.0	137_smiling	1.0	attractiveness	84.01179769328519	1.2416516770608723
11.0	65.10582546574005	pulse	0.0	t		21.0	male	black	2.969757262236371	smiling	137	sub-06	1.0	4.0	137_smiling	1.0	attractiveness	84.1035784585547	
11.0	65.8058337063776	pulse	0.0	t		21.0	male	black	2.969757262236371	smiling	137	sub-06	1.0	4.0	137_smiling	1.0	attractiveness	84.80358669919224	
11.0	66.25569637753142	fix	1.0		177	21.0	male	black	2.969757262236371	smiling	137	sub-06	1.0	4.0	137_smiling	1.0	attractiveness	85.25344937034606	1.4999590986735711
11.0	66.5057975743548	pulse	1.0	t		21.0	male	black	2.969757262236371	smiling	137	sub-06	1.0	4.0	137_smiling	1.0	attractiveness	85.50355056716944	
11.0	67.20577985547789	pulse	1.0	t		21.0	male	black	2.969757262236371	smiling	137	sub-06	1.0	4.0	137_smiling	1.0	attractiveness	86.20353284829253	
11.0	67.75565547620499	rating	2.0		294	21.0	male	black	2.969757262236371	smiling	137	sub-06	1.0	4.0	137_smiling	1.0	attractiveness	86.75340846901963	2.499943402224744
11.0	67.90064720689406	pulse	2.0	t		21.0	male	black	2.969757262236371	smiling	137	sub-06	1.0	4.0	137_smiling	1.0	attractiveness	86.8984001997087	
11.0	68.60050965165647	pulse	2.0	t		21.0	male	black	2.969757262236371	smiling	137	sub-06	1.0	4.0	137_smiling	1.0	attractiveness	87.5982626444711	
11.0	69.3005151756006	pulse	2.0	t		21.0	male	black	2.969757262236371	smiling	137	sub-06	1.0	4.0	137_smiling	1.0	attractiveness	88.29826816841523	
11.0	69.93072190690145	response	2.0	n		21.0	male	black	2.969757262236371	smiling	137	sub-06	1.0	4.0	137_smiling	1.0	attractiveness	88.9284748997161	
11.0	70.00044161358528	pulse	2.0	t		21.0	male	black	2.969757262236371	smiling	137	sub-06	1.0	4.0	137_smiling	1.0	attractiveness	88.99819460639992	
11.0	70.25559887842974	fix	3.0		444	21.0	male	black	2.969757262236371	smiling	137	sub-06	1.0	4.0	137_smiling	1.0	attractiveness	89.25335187124438	3.758257766497991
11.0	70.70571057980123	pulse	3.0	t		21.0	male	black	2.969757262236371	smiling	137	sub-06	1.0	4.0	137_smiling	1.0	attractiveness	89.70346357261587	
11.0	71.4056877293915	pulse	3.0	t		21.0	male	black	2.969757262236371	smiling	137	sub-06	1.0	4.0	137_smiling	1.0	attractiveness	90.40344072220614	
11.0	72.10566940680292	pulse	3.0	t		21.0	male	black	2.969757262236371	smiling	137	sub-06	1.0	4.0	137_smiling	1.0	attractiveness	91.10342239961756	
11.0	72.80566044171792	pulse	3.0	t		21.0	male	black	2.969757262236371	smiling	137	sub-06	1.0	4.0	137_smiling	1.0	attractiveness	91.80341343453256	
11.0	73.505642722841	pulse	3.0	t		21.0	male	black	2.969757262236371	smiling	137	sub-06	1.0	4.0	137_smiling	1.0	attractiveness	92.50339571565564	
12.0	74.01385664492773	face	0.0		146	28.0	male	east_asian	1.5563072025467568	smiling	005	sub-06	1.0	4.0	005_smiling	0.0		93.01160963774237	1.2416374898821232
12.0	74.2056331540407	pulse	0.0	t		28.0	male	east_asian	1.5563072025467568	smiling	005	sub-06	1.0	4.0	005_smiling	0.0		93.20338614685534	
12.0	74.90561603887545	pulse	0.0	t		28.0	male	east_asian	1.5563072025467568	smiling	005	sub-06	1.0	4.0	005_smiling	0.0		93.90336903169009	
12.0	75.25549413480985	fix	1.0		444	28.0	male	east_asian	1.5563072025467568	smiling	005	sub-06	1.0	4.0	005_smiling	0.0		94.25324712762449	3.7582586720636755
12.0	75.60560284781968	pulse	1.0	t		28.0	male	east_asian	1.5563072025467568	smiling	005	sub-06	1.0	4.0	005_smiling	0.0		94.60335584063432	
12.0	76.30559237345733	pulse	1.0	t		28.0	male	east_asian	1.5563072025467568	smiling	005	sub-06	1.0	4.0	005_smiling	0.0		95.30334536627197	
12.0	77.00556922119358	pulse	1.0	t		28.0	male	east_asian	1.5563072025467568	smiling	005	sub-06	1.0	4.0	005_smiling	0.0		96.00332221400822	
12.0	77.70556538763776	pulse	1.0	t		28.0	male	east_asian	1.5563072025467568	smiling	005	sub-06	1.0	4.0	005_smiling	0.0		96.7033183804524	
12.0	78.40553650013317	pulse	1.0	t		28.0	male	east_asian	1.5563072025467568	smiling	005	sub-06	1.0	4.0	005_smiling	0.0		97.4032894929478	
13.0	79.01375280687353	face	0.0		146	40.0	male	white	1.868682849184242	neutral	172	sub-06	1.0	4.0	172_neutral	0.0		98.01150579968817	1.241636886174092
13.0	79.10553055359196	pulse	0.0	t		40.0	male	white	1.868682849184242	neutral	172	sub-06	1.0	4.0	172_neutral	0.0		98.1032835464066	
13.0	79.80551434398876	pulse	0.0	t		40.0	male	white	1.868682849184242	neutral	172	sub-06	1.0	4.0	172_neutral	0.0		98.8032673368034	
13.0	80.25538969304762	fix	1.0		444	40.0	male	white	1.868682849184242	neutral	172	sub-06	1.0	4.0	172_neutral	0.0		99.25314268586226	3.7665832239363226
13.0	80.50550085107898	pulse	1.0	t		40.0	male	white	1.868682849184242	neutral	172	sub-06	1.0	4.0	172_neutral	0.0		99.50325384389362	
13.0	81.20546924688097	pulse	1.0	t		40.0	male	white	1.868682849184242	neutral	172	sub-06	1.0	4.0	172_neutral	0.0		100.2032222396956	
13.0	81.90546933743826	pulse	1.0	t		40.0	male	white	1.868682849184242	neutral	172	sub-06	1.0	4.0	172_neutral	0.0		100.9032223302529	
13.0	82.60544769444823	pulse	1.0	t		40.0	male	white	1.868682849184242	neutral	172	sub-06	1.0	4.0	172_neutral	0.0		101.60320068726287	
13.0	83.30544023863331	pulse	1.0	t		40.0	male	white	1.868682849184242	neutral	172	sub-06	1.0	4.0	172_neutral	0.0		102.30319323144795	
14.0	84.02197291698394	face	0.0		145	23.0	male	white	2.6275368085953046	neutral	141	sub-06	1.0	4.0	141_neutral	1.0	attractiveness	103.01972590979858	1.233312334301445
14.0	84.00831338324497	pulse	0.0	t		23.0	male	white	2.6275368085953046	neutral	141	sub-06	1.0	4.0	141_neutral	1.0	attractiveness	103.00606637605961	
14.0	84.7054265344268	pulse	0.0	t		23.0	male	white	2.6275368085953046	neutral	141	sub-06	1.0	4.0	141_neutral	1.0	attractiveness	103.70317952724145	
14.0	85.25528525128539	fix	1.0		177	23.0	male	white	2.6275368085953046	neutral	141	sub-06	1.0	4.0	141_neutral	1.0	attractiveness	104.25303824410003	1.4999702673012507
14.0	85.40539704321054	pulse	1.0	t		23.0	male	white	2.6275368085953046	neutral	141	sub-06	1.0	4.0	141_neutral	1.0	attractiveness	104.40315003602518	
14.0	86.10537479651248	pulse	1.0	t		23.0	male	white	2.6275368085953046	neutral	141	sub-06	1.0	4.0	141_neutral	1.0	attractiveness	105.10312778932712	
14.0	86.75525551858664	rating	2.0		294	23.0	male	white	2.6275368085953046	neutral	141	sub-06	1.0	4.0	141_neutral	1.0	attractiveness	105.75300851140128	2.499944307786791
14.0	86.80012170785994	pulse	2.0	t		23.0	male	white	2.6275368085953046	neutral	141	sub-06	1.0	4.0	141_neutral	1.0	attractiveness	105.79787470067458	
14.0	87.50012330769096	pulse	2.0	t		23.0	male	white	2.6275368085953046	neutral	141	sub-06	1.0	4.0	141_neutral	1.0	attractiveness	106.4978763005056	
14.0	87.98867350207001	response	2.0	n		23.0	male	white	2.6275368085953046	neutral	141	sub-06	1.0	4.0	141_neutral	1.0	attractiveness	106.98642649488465	
14.0	88.20006514026682	pulse	2.0	t		23.0	male	white	2.6275368085953046	neutral	141	sub-06	1.0	4.0	141_neutral	1.0	attractiveness	107.19781813308146	
14.0	88.90531659890621	pulse	2.0	t		23.0	male	white	2.6275368085953046	neutral	141	sub-06	1.0	4.0	141_neutral	1.0	attractiveness	107.90306959172085	
14.0	89.25519982637343	fix	3.0		444	23.0	male	white	2.6275368085953046	neutral	141	sub-06	1.0	4.0	141_neutral	1.0	attractiveness	108.25295281918807	3.7665895628888393
14.0	89.60529616333588	pulse	3.0	t		23.0	male	white	2.6275368085953046	neutral	141	sub-06	1.0	4.0	141_neutral	1.0	attractiveness	108.60304915615052	
14.0	90.3052956501815	pulse	3.0	t		23.0	male	white	2.6275368085953046	neutral	141	sub-06	1.0	4.0	141_neutral	1.0	attractiveness	109.30304864299615	
14.0	91.00526827195063	pulse	3.0	t		23.0	male	white	2.6275368085953046	neutral	141	sub-06	1.0	4.0	141_neutral	1.0	attractiveness	110.00302126476527	
14.0	91.70526111799336	pulse	3.0	t		23.0	male	white	2.6275368085953046	neutral	141	sub-06	1.0	4.0	141_neutral	1.0	attractiveness	110.703014110808	
14.0	92.40524400282447	pulse	3.0	t		23.0	male	white	2.6275368085953046	neutral	141	sub-06	1.0	4.0	141_neutral	1.0	attractiveness	111.40299699563911	
15.0	93.02178938926227	face	0.0		145	32.0	male	white	2.389176283326701	smiling	092	sub-06	1.0	4.0	092_smiling	0.0		112.0195423820769	1.2333114287357603
15.0	93.10533404611488	pulse	0.0	t		32.0	male	white	2.389176283326701	smiling	092	sub-06	1.0	4.0	092_smiling	0.0		112.10308703892952	
15.0	93.80521641329688	pulse	0.0	t		32.0	male	white	2.389176283326701	smiling	092	sub-06	1.0	4.0	092_smiling	0.0		112.80296940611152	
15.0	94.25510081799803	fix	1.0		444	32.0	male	white	2.389176283326701	smiling	092	sub-06	1.0	4.0	092_smiling	0.0		113.25285381081267	3.758245390450611
15.0	94.50520110925572	pulse	1.0	t		32.0	male	white	2.389176283326701	smiling	092	sub-06	1.0	4.0	092_smiling	0.0		113.50295410207036	
15.0	95.2051960682802	pulse	1.0	t		32.0	male	white	2.389176283326701	smiling	092	sub-06	1.0	4.0	092_smiling	0.0		114.20294906109484	
15.0	95.90517351972812	pulse	1.0	t		32.0	male	white	2.389176283326701	smiling	092	sub-06	1.0	4.0	092_smiling	0.0		114.90292651254276	
15.0	96.60516304536577	pulse	1.0	t		32.0	male	white	2.389176283326701	smiling	092	sub-06	1.0	4.0	092_smiling	0.0		115.60291603818041	
15.0	97.30514985431	pulse	1.0	t		32.0	male	white	2.389176283326701	smiling	092	sub-06	1.0	4.0	092_smiling	0.0		116.30290284712464	
16.0	98.01334620844864	face	0.0		147	47.0	male	east_asian	2.171110226820533	smiling	024	sub-06	1.0	4.0	024_smiling	0.0		117.01109920126328	1.24164503625434
16.0	98.00719712417049	pulse	0.0	t		47.0	male	east_asian	2.171110226820533	smiling	024	sub-06	1.0	4.0	024_smiling	0.0		117.00495011698513	
16.0	98.7051476205852	pulse	0.0	t		47.0	male	east_asian	2.171110226820533	smiling	024	sub-06	1.0	4.0	024_smiling	0.0		117.70290061339983	
16.0	99.25499124470298	fix	1.0		443	47.0	male	east_asian	2.171110226820533	smiling	024	sub-06	1.0	4.0	024_smiling	0.0		118.25274423751762	3.7582574646403373
16.0	99.40510696074125	pulse	1.0	t		47.0	male	east_asian	2.171110226820533	smiling	024	sub-06	1.0	4.0	024_smiling	0.0		118.40285995355589	
16.0	100.10508411033516	pulse	1.0	t		47.0	male	east_asian	2.171110226820533	smiling	024	sub-06	1.0	4.0	024_smiling	0.0		119.1028371031498	
16.0	100.8050663914546	pulse	1.0	t		47.0	male	east_asian	2.171110226820533	smiling	024	sub-06	1.0	4.0	024_smiling	0.0		119.80281938426924	
16.0	101.50506285975644	pulse	1.0	t		47.0	male	east_asian	2.171110226820533	smiling	024	sub-06	1.0	4.0	024_smiling	0.0		120.50281585257108	
16.0	102.20503367039419	pulse	1.0	t		47.0	male	east_asian	2.171110226820533	smiling	024	sub-06	1.0	4.0	024_smiling	0.0		121.20278666320883	
16.0	102.90502349788949	pulse	1.0	t		47.0	male	east_asian	2.171110226820533	smiling	024	sub-06	1.0	4.0	024_smiling	0.0		121.90277649070413	
17.0	103.01324870934332	face	0.0		147	28.0	male	white	3.9076800636689217	neutral	033	sub-06	1.0	4.0	033_neutral	0.0		122.01100170215796	1.2416380935937923
17.0	103.60501755134828	pulse	0.0	t		28.0	male	white	3.9076800636689217	neutral	033	sub-06	1.0	4.0	033_neutral	0.0		122.60277054416292	
17.0	104.25488680293711	fix	1.0		443	28.0	male	white	3.9076800636689217	neutral	033	sub-06	1.0	4.0	033_neutral	0.0		123.25263979575175	3.758234523680585
17.0	104.30500134174508	pulse	1.0	t		28.0	male	white	3.9076800636689217	neutral	033	sub-06	1.0	4.0	033_neutral	0.0		123.30275433455972	
17.0	105.0049866414156	pulse	1.0	t		28.0	male	white	3.9076800636689217	neutral	033	sub-06	1.0	4.0	033_neutral	0.0		124.00273963423024	
17.0	105.70496952625035	pulse	1.0	t		28.0	male	white	3.9076800636689217	neutral	033	sub-06	1.0	4.0	033_neutral	0.0		124.70272251906499	
17.0	106.40494818511434	pulse	1.0	t		28.0	male	white	3.9076800636689217	neutral	033	sub-06	1.0	4.0	033_neutral	0.0		125.40270117792898	
17.0	107.10493620147827	pulse	1.0	t		28.0	male	white	3.9076800636689217	neutral	033	sub-06	1.0	4.0	033_neutral	0.0		126.1026891942929	
17.0	107.80492482155023	pulse	1.0	t		28.0	male	white	3.9076800636689217	neutral	033	sub-06	1.0	4.0	033_neutral	0.0		126.80267781436487	
18.0	108.01312132661769	face	0.0		146	24.0	female	east_asian	4.409868682849185	neutral	030	sub-06	1.0	4.0	030_neutral	0.0		127.01087431943233	1.2416598271374824
18.0	108.5049218935601	pulse	0.0	t		24.0	female	east_asian	4.409868682849185	neutral	030	sub-06	1.0	4.0	030_neutral	0.0		127.50267488637473	
18.0	109.20488757266867	pulse	0.0	t		24.0	female	east_asian	4.409868682849185	neutral	030	sub-06	1.0	4.0	030_neutral	0.0		128.2026405654833	
18.0	109.25478115375518	fix	1.0		444	24.0	female	east_asian	4.409868682849185	neutral	030	sub-06	1.0	4.0	030_neutral	0.0		128.25253414656981	3.758256257224275
18.0	109.90488766322596	pulse	1.0	t		24.0	female	east_asian	4.409868682849185	neutral	030	sub-06	1.0	4.0	030_neutral	0.0		128.9026406560406	
18.0	110.60489469644017	pulse	1.0	t		24.0	female	east_asian	4.409868682849185	neutral	030	sub-06	1.0	4.0	030_neutral	0.0		129.6026476892548	
18.0	111.30485162176046	pulse	1.0	t		24.0	female	east_asian	4.409868682849185	neutral	030	sub-06	1.0	4.0	030_neutral	0.0		130.3026046145751	
18.0	112.00484386409153	pulse	1.0	t		24.0	female	east_asian	4.409868682849185	neutral	030	sub-06	1.0	4.0	030_neutral	0.0		131.00259685690617	
18.0	112.70482010811975	pulse	1.0	t		24.0	female	east_asian	4.409868682849185	neutral	030	sub-06	1.0	4.0	030_neutral	0.0		131.7025731009344	
19.0	113.01303741097945	face	0.0		146	31.0	female	east_asian	3.395941106247513	neutral	087	sub-06	1.0	4.0	087_neutral	0.0		132.0107904037941	1.2416399047215236
19.0	113.4048132560165	pulse	0.0	t		31.0	female	east_asian	3.395941106247513	neutral	087	sub-06	1.0	4.0	087_neutral	0.0		132.40256624883114	
19.0	114.10479885754103	pulse	0.0	t		31.0	female	east_asian	3.395941106247513	neutral	087	sub-06	1.0	4.0	087_neutral	0.0		133.10255185035567	
19.0	114.25467731570097	fix	1.0		444	31.0	female	east_asian	3.395941106247513	neutral	087	sub-06	1.0	4.0	087_neutral	0.0		133.2524303085156	3.758256860935944
19.0	114.80478506277723	pulse	1.0	t		31.0	female	east_asian	3.395941106247513	neutral	087	sub-06	1.0	4.0	087_neutral	0.0		133.80253805559187	
19.0	115.50476432534924	pulse	1.0	t		31.0	female	east_asian	3.395941106247513	neutral	087	sub-06	1.0	4.0	087_neutral	0.0		134.50251731816388	
19.0	116.20474509719861	pulse	1.0	t		31.0	female	east_asian	3.395941106247513	neutral	087	sub-06	1.0	4.0	087_neutral	0.0		135.20249809001325	
19.0	116.90472435977426	pulse	1.0	t		31.0	female	east_asian	3.395941106247513	neutral	087	sub-06	1.0	4.0	087_neutral	0.0		135.9024773525889	
19.0	117.60471962065276	pulse	1.0	t		31.0	female	east_asian	3.395941106247513	neutral	087	sub-06	1.0	4.0	087_neutral	0.0		136.6024726134674	
20.0	118.01293417663692	face	0.0		146	28.0	female	white	5.676880222841227	neutral	124	sub-06	1.0	4.0	124_neutral	0.0		137.01068716945156	1.241638999155839
20.0	118.30471307040352	pulse	0.0	t		28.0	female	white	5.676880222841227	neutral	124	sub-06	1.0	4.0	124_neutral	0.0		137.30246606321816	
20.0	119.00468629588431	pulse	0.0	t		28.0	female	white	5.676880222841227	neutral	124	sub-06	1.0	4.0	124_neutral	0.0		138.00243928869895	
20.0	119.25457317579276	fix	1.0		1185	28.0	female	white	5.676880222841227	neutral	124	sub-06	1.0	4.0	124_neutral	0.0		138.2523261686074	10.00812019616933
20.0	119.70467642522999	pulse	1.0	t		28.0	female	white	5.676880222841227	neutral	124	sub-06	1.0	4.0	124_neutral	0.0		138.70242941804463	
20.0	120.40467108240045	pulse	1.0	t		28.0	female	white	5.676880222841227	neutral	124	sub-06	1.0	4.0	124_neutral	0.0		139.4024240752151	
20.0	121.10463344110758	pulse	1.0	t		28.0	female	white	5.676880222841227	neutral	124	sub-06	1.0	4.0	124_neutral	0.0		140.10238643392222	
20.0	121.8046280982744	pulse	1.0	t		28.0	female	white	5.676880222841227	neutral	124	sub-06	1.0	4.0	124_neutral	0.0		140.80238109108905	
20.0	122.50462517028427	pulse	1.0	t		28.0	female	white	5.676880222841227	neutral	124	sub-06	1.0	4.0	124_neutral	0.0		141.5023781630989	
20.0	123.20459115124686	pulse	1.0	t		28.0	female	white	5.676880222841227	neutral	124	sub-06	1.0	4.0	124_neutral	0.0		142.2023441440615	
20.0	123.90459637333697	pulse	1.0	t		28.0	female	white	5.676880222841227	neutral	124	sub-06	1.0	4.0	124_neutral	0.0		142.9023493661516	
20.0	124.60456899510609	pulse	1.0	t		28.0	female	white	5.676880222841227	neutral	124	sub-06	1.0	4.0	124_neutral	0.0		143.60232198792073	
20.0	125.30456516155027	pulse	1.0	t		28.0	female	white	5.676880222841227	neutral	124	sub-06	1.0	4.0	124_neutral	0.0		144.3023181543649	
20.0	126.00454110372084	pulse	1.0	t		28.0	female	white	5.676880222841227	neutral	124	sub-06	1.0	4.0	124_neutral	0.0		145.00229409653548	
20.0	126.70453002565046	pulse	1.0	t		28.0	female	white	5.676880222841227	neutral	124	sub-06	1.0	4.0	124_neutral	0.0		145.7022830184651	
20.0	127.40451653274067	pulse	1.0	t		28.0	female	white	5.676880222841227	neutral	124	sub-06	1.0	4.0	124_neutral	0.0		146.4022695255553	
20.0	128.10449549345867	pulse	1.0	t		28.0	female	white	5.676880222841227	neutral	124	sub-06	1.0	4.0	124_neutral	0.0		147.1022484862733	
20.0	128.80448773578973	pulse	1.0	t		28.0	female	white	5.676880222841227	neutral	124	sub-06	1.0	4.0	124_neutral	0.0		147.80224072860437	
21.0	129.2626933719621	face	0.0		146	19.0	female	white	4.298846000795861	neutral	100	sub-06	1.0	4.0	100_neutral	0.0		148.26044636477673	1.2416414139988774
21.0	129.5044718280442	pulse	0.0	t		19.0	female	white	4.298846000795861	neutral	100	sub-06	1.0	4.0	100_neutral	0.0		148.50222482085883	
21.0	130.20445169432787	pulse	0.0	t		19.0	female	white	4.298846000795861	neutral	100	sub-06	1.0	4.0	100_neutral	0.0		149.2022046871425	
21.0	130.50433478596096	fix	1.0		444	19.0	female	white	4.298846000795861	neutral	100	sub-06	1.0	4.0	100_neutral	0.0		149.5020877787756	3.758258370206022
21.0	130.90446114238148	pulse	1.0	t		19.0	female	white	4.298846000795861	neutral	100	sub-06	1.0	4.0	100_neutral	0.0		149.90221413519612	
21.0	131.60444614019798	pulse	1.0	t		19.0	female	white	4.298846000795861	neutral	100	sub-06	1.0	4.0	100_neutral	0.0		150.60219913301262	
21.0	132.3044057822117	pulse	1.0	t		19.0	female	white	4.298846000795861	neutral	100	sub-06	1.0	4.0	100_neutral	0.0		151.30215877502633	
21.0	133.0043859503494	pulse	1.0	t		19.0	female	white	4.298846000795861	neutral	100	sub-06	1.0	4.0	100_neutral	0.0		152.00213894316403	
21.0	133.70437849453447	pulse	1.0	t		19.0	female	white	4.298846000795861	neutral	100	sub-06	1.0	4.0	100_neutral	0.0		152.7021314873491	
22.0	134.262593156167	face	0.0		146	31.0	female	white	2.1822522881018704	neutral	102	sub-06	1.0	4.0	102_neutral	0.0		153.26034614898163	1.241638999159477
22.0	134.4043689257378	pulse	0.0	t		31.0	female	white	2.1822522881018704	neutral	102	sub-06	1.0	4.0	102_neutral	0.0		153.40212191855244	
22.0	135.10435211242657	pulse	0.0	t		31.0	female	white	2.1822522881018704	neutral	102	sub-06	1.0	4.0	102_neutral	0.0		154.1021051052412	
22.0	135.50423215532646	fix	1.0		444	31.0	female	white	2.1822522881018704	neutral	102	sub-06	1.0	4.0	102_neutral	0.0		154.5019851481411	3.7665874499034544
22.0	135.80434888257878	pulse	1.0	t		31.0	female	white	2.1822522881018704	neutral	102	sub-06	1.0	4.0	102_neutral	0.0		154.80210187539342	
22.0	136.50433146555588	pulse	1.0	t		31.0	female	white	2.1822522881018704	neutral	102	sub-06	1.0	4.0	102_neutral	0.0		155.50208445837052	
22.0	137.20430620031038	pulse	1.0	t		31.0	female	white	2.1822522881018704	neutral	102	sub-06	1.0	4.0	102_neutral	0.0		156.20205919312502	
22.0	137.90430629086768	pulse	1.0	t		31.0	female	white	2.1822522881018704	neutral	102	sub-06	1.0	4.0	102_neutral	0.0		156.90205928368232	
22.0	138.6042777052171	pulse	1.0	t		31.0	female	white	2.1822522881018704	neutral	102	sub-06	1.0	4.0	102_neutral	0.0		157.60203069803174	
23.0	139.27081960522992	face	0.0		145	31.0	female	white	2.1822522881018704	smiling	102	sub-06	1.0	4.0	102_smiling	0.0		158.26857259804456	1.233307504622644
23.0	139.3042892662561	pulse	0.0	t		31.0	female	white	2.1822522881018704	smiling	102	sub-06	1.0	4.0	102_smiling	0.0		158.30204225907073	
23.0	140.00425011568586	pulse	0.0	t		31.0	female	white	2.1822522881018704	smiling	102	sub-06	1.0	4.0	102_smiling	0.0		159.0020031085005	
23.0	140.50412710985256	fix	1.0		443	31.0	female	white	2.1822522881018704	smiling	102	sub-06	1.0	4.0	102_smiling	0.0		159.5018801026672	3.758256257224275
23.0	140.7042408487432	pulse	1.0	t		31.0	female	white	2.1822522881018704	smiling	102	sub-06	1.0	4.0	102_smiling	0.0		159.70199384155785	
23.0	141.40421467793203	pulse	1.0	t		31.0	female	white	2.1822522881018704	smiling	102	sub-06	1.0	4.0	102_smiling	0.0		160.40196767074667	
23.0	142.1042093351025	pulse	1.0	t		31.0	female	white	2.1822522881018704	smiling	102	sub-06	1.0	4.0	102_smiling	0.0		161.10196232791714	
23.0	142.8041931254993	pulse	1.0	t		31.0	female	white	2.1822522881018704	smiling	102	sub-06	1.0	4.0	102_smiling	0.0		161.80194611831394	
23.0	143.5041745010567	pulse	1.0	t		31.0	female	white	2.1822522881018704	smiling	102	sub-06	1.0	4.0	102_smiling	0.0		162.50192749387134	
23.0	144.20415225435863	pulse	1.0	t		31.0	female	white	2.1822522881018704	smiling	102	sub-06	1.0	4.0	102_smiling	0.0		163.20190524717327	
24.0	144.26238336707684	face	0.0		147	25.0	female	black	3.858336649423	smiling	126	sub-06	1.0	4.0	126_smiling	0.0		163.26013635989148	1.2416350750463607
24.0	144.90414781709114	pulse	0.0	t		25.0	female	black	3.858336649423	smiling	126	sub-06	1.0	4.0	126_smiling	0.0		163.90190080990578	
24.0	145.5040184421232	fix	1.0		443	25.0	female	black	3.858336649423	smiling	126	sub-06	1.0	4.0	126_smiling	0.0		164.50177143493784	3.7582580683520064
24.0	145.60416058554983	pulse	1.0	t		25.0	female	black	3.858336649423	smiling	126	sub-06	1.0	4.0	126_smiling	0.0		164.60191357836447	
24.0	146.3041286794978	pulse	1.0	t		25.0	female	black	3.858336649423	smiling	126	sub-06	1.0	4.0	126_smiling	0.0		165.30188167231245	
24.0	147.00410009384723	pulse	1.0	t		25.0	female	black	3.858336649423	smiling	126	sub-06	1.0	4.0	126_smiling	0.0		166.00185308666187	
24.0	147.70410229738627	pulse	1.0	t		25.0	female	black	3.858336649423	smiling	126	sub-06	1.0	4.0	126_smiling	0.0		166.7018552902009	
24.0	148.40407340988168	pulse	1.0	t		25.0	female	black	3.858336649423	smiling	126	sub-06	1.0	4.0	126_smiling	0.0		167.40182640269632	
24.0	149.10408557463234	pulse	1.0	t		25.0	female	black	3.858336649423	smiling	126	sub-06	1.0	4.0	126_smiling	0.0		168.10183856744698	
25.0	149.2622765104752	face	0.0		147	40.0	female	west_asian	1.5777954635893354	smiling	038	sub-06	1.0	4.0	038_smiling	0.0		168.26002950328984	1.2416459418163868
25.0	149.8040488389015	pulse	0.0	t		40.0	female	west_asian	1.5777954635893354	smiling	038	sub-06	1.0	4.0	038_smiling	0.0		168.80180183171615	
25.0	150.5039224522916	fix	1.0		444	40.0	female	west_asian	1.5777954635893354	smiling	038	sub-06	1.0	4.0	038_smiling	0.0		169.50167544510623	3.7582478052900115
25.0	150.5115038376316	pulse	1.0	t		40.0	female	west_asian	1.5777954635893354	smiling	038	sub-06	1.0	4.0	038_smiling	0.0		169.50925683044625	
25.0	151.2040152122754	pulse	1.0	t		40.0	female	west_asian	1.5777954635893354	smiling	038	sub-06	1.0	4.0	038_smiling	0.0		170.20176820509005	
25.0	151.9040002100919	pulse	1.0	t		40.0	female	west_asian	1.5777954635893354	smiling	038	sub-06	1.0	4.0	038_smiling	0.0		170.90175320290655	
25.0	152.60401086556521	pulse	1.0	t		40.0	female	west_asian	1.5777954635893354	smiling	038	sub-06	1.0	4.0	038_smiling	0.0		171.60176385837985	
25.0	153.30397262056067	pulse	1.0	t		40.0	female	west_asian	1.5777954635893354	smiling	038	sub-06	1.0	4.0	038_smiling	0.0		172.3017256133753	
25.0	154.0039479590232	pulse	1.0	t		40.0	female	west_asian	1.5777954635893354	smiling	038	sub-06	1.0	4.0	038_smiling	0.0		173.00170095183785	
26.0	154.2621702575816	face	0.0		146	30.0	female	black	2.7345801830481498	neutral	062	sub-06	1.0	4.0	062_neutral	0.0		173.25992325039624	1.241641715852893
26.0	154.7039441254674	pulse	0.0	t		30.0	female	black	2.7345801830481498	neutral	062	sub-06	1.0	4.0	062_neutral	0.0		173.70169711828203	
26.0	155.40392701030214	pulse	0.0	t		30.0	female	black	2.7345801830481498	neutral	062	sub-06	1.0	4.0	062_neutral	0.0		174.40168000311678	
26.0	155.5038119734345	fix	1.0		444	30.0	female	black	2.7345801830481498	neutral	062	sub-06	1.0	4.0	062_neutral	0.0		174.50156496624913	3.7582544460929057
26.0	156.10391502666607	pulse	1.0	t		30.0	female	black	2.7345801830481498	neutral	062	sub-06	1.0	4.0	062_neutral	0.0		175.1016680194807	
26.0	156.80389760964317	pulse	1.0	t		30.0	female	black	2.7345801830481498	neutral	062	sub-06	1.0	4.0	062_neutral	0.0		175.8016506024578	
26.0	157.503881701894	pulse	1.0	t		30.0	female	black	2.7345801830481498	neutral	062	sub-06	1.0	4.0	062_neutral	0.0		176.50163469470863	
26.0	158.20386156817767	pulse	1.0	t		30.0	female	black	2.7345801830481498	neutral	062	sub-06	1.0	4.0	062_neutral	0.0		177.2016145609923	
26.0	158.90385018825327	pulse	1.0	t		30.0	female	black	2.7345801830481498	neutral	062	sub-06	1.0	4.0	062_neutral	0.0		177.9016031810679	
27.0	159.2620664195274	face	0.0		146	34.0	male	white	2.651014723438122	smiling	121	sub-06	1.0	4.0	121_smiling	0.0		178.25981941234204	1.241682466250495
27.0	159.60384001574494	pulse	0.0	t		34.0	male	white	2.651014723438122	smiling	121	sub-06	1.0	4.0	121_smiling	0.0		178.60159300855958	
27.0	160.30382380614174	pulse	0.0	t		34.0	male	white	2.651014723438122	smiling	121	sub-06	1.0	4.0	121_smiling	0.0		179.30157679895638	
27.0	160.5037488857779	fix	1.0		444	34.0	male	white	2.651014723438122	smiling	121	sub-06	1.0	4.0	121_smiling	0.0		179.50150187859253	3.7581928677136602
27.0	161.00393679039553	pulse	1.0	t		34.0	male	white	2.651014723438122	smiling	121	sub-06	1.0	4.0	121_smiling	0.0		180.00168978321017	
27.0	161.70382217612496	pulse	1.0	t		34.0	male	white	2.651014723438122	smiling	121	sub-06	1.0	4.0	121_smiling	0.0		180.7015751689396	
27.0	162.40378755337952	pulse	1.0	t		34.0	male	white	2.651014723438122	smiling	121	sub-06	1.0	4.0	121_smiling	0.0		181.40154054619416	
27.0	163.10377949385656	pulse	1.0	t		34.0	male	white	2.651014723438122	smiling	121	sub-06	1.0	4.0	121_smiling	0.0		182.1015324866712	
27.0	163.8037500026403	pulse	1.0	t		34.0	male	white	2.651014723438122	smiling	121	sub-06	1.0	4.0	121_smiling	0.0		182.80150299545494	
28.0	164.26194175349156	face	0.0		146	37.0	male	white	3.898925586947871	smiling	101	sub-06	1.0	4.0	101_smiling	0.0		183.2596947463062	1.2416773347213166
28.0	164.50373711344218	pulse	0.0	t		37.0	male	white	3.898925586947871	smiling	101	sub-06	1.0	4.0	101_smiling	0.0		183.50149010625682	
28.0	165.20371788529155	pulse	0.0	t		37.0	male	white	3.898925586947871	smiling	101	sub-06	1.0	4.0	101_smiling	0.0		184.2014708781062	
28.0	165.50361908821287	fix	1.0		444	37.0	male	white	3.898925586947871	smiling	101	sub-06	1.0	4.0	101_smiling	0.0		184.5013720810275	3.75824056077181
28.0	165.90370952391095	pulse	1.0	t		37.0	male	white	3.898925586947871	smiling	101	sub-06	1.0	4.0	101_smiling	0.0		184.9014625167256	
28.0	166.60369331430775	pulse	1.0	t		37.0	male	white	3.898925586947871	smiling	101	sub-06	1.0	4.0	101_smiling	0.0		185.6014463071224	
28.0	167.30367408615712	pulse	1.0	t		37.0	male	white	3.898925586947871	smiling	101	sub-06	1.0	4.0	101_smiling	0.0		186.30142707897176	
28.0	168.00365848026559	pulse	1.0	t		37.0	male	white	3.898925586947871	smiling	101	sub-06	1.0	4.0	101_smiling	0.0		187.00141147308022	
28.0	168.70364649662952	pulse	1.0	t		37.0	male	white	3.898925586947871	smiling	101	sub-06	1.0	4.0	101_smiling	0.0		187.70139948944416	
29.0	169.26185964898468	face	0.0		146	27.0	male	black	3.5523278949462798	smiling	042	sub-06	1.0	4.0	042_smiling	0.0		188.25961264179932	1.2416377917397767
29.0	169.4036393426686	pulse	0.0	t		27.0	male	black	3.5523278949462798	smiling	042	sub-06	1.0	4.0	042_smiling	0.0		188.40139233548325	
29.0	170.10361830339025	pulse	0.0	t		27.0	male	black	3.5523278949462798	smiling	042	sub-06	1.0	4.0	042_smiling	0.0		189.1013712962049	
29.0	170.50349744072446	fix	1.0		444	27.0	male	black	3.5523278949462798	smiling	042	sub-06	1.0	4.0	042_smiling	0.0		189.5012504335391	3.7665792998232064
29.0	170.8036090364476	pulse	1.0	t		27.0	male	black	3.5523278949462798	smiling	042	sub-06	1.0	4.0	042_smiling	0.0		189.80136202926224	
29.0	171.50359614724584	pulse	1.0	t		27.0	male	black	3.5523278949462798	smiling	042	sub-06	1.0	4.0	042_smiling	0.0		190.50134914006048	
29.0	172.20358235248204	pulse	1.0	t		27.0	male	black	3.5523278949462798	smiling	042	sub-06	1.0	4.0	042_smiling	0.0		191.20133534529668	
29.0	172.90355225755775	pulse	1.0	t		27.0	male	black	3.5523278949462798	smiling	042	sub-06	1.0	4.0	042_smiling	0.0		191.9013052503724	
29.0	173.60354480174283	pulse	1.0	t		27.0	male	black	3.5523278949462798	smiling	042	sub-06	1.0	4.0	042_smiling	0.0		192.60129779455747	
30.0	174.27007674054767	face	0.0		145	19.0	female	white	4.298846000795861	smiling	100	sub-06	1.0	4.0	100_smiling	0.0		193.2678297333623	1.233315654702892
30.0	174.30353553480018	pulse	0.0	t		19.0	female	white	4.298846000795861	smiling	100	sub-06	1.0	4.0	100_smiling	0.0		193.30128852761482	
30.0	175.00354709583917	pulse	0.0	t		19.0	female	white	4.298846000795861	smiling	100	sub-06	1.0	4.0	100_smiling	0.0		194.0013000886538	
30.0	175.50339239525056	fix	1.0		443	19.0	female	white	4.298846000795861	smiling	100	sub-06	1.0	4.0	100_smiling	0.0		194.5011453880652	3.7583812251141353
30.0	175.7035118693857	pulse	1.0	t		19.0	female	white	4.298846000795861	smiling	100	sub-06	1.0	4.0	100_smiling	0.0		194.70126486220033	
30.0	176.40348117074973	pulse	1.0	t		19.0	female	white	4.298846000795861	smiling	100	sub-06	1.0	4.0	100_smiling	0.0		195.40123416356437	
30.0	177.10348427985446	pulse	1.0	t		19.0	female	white	4.298846000795861	smiling	100	sub-06	1.0	4.0	100_smiling	0.0		196.1012372726691	
30.0	177.803469881379	pulse	1.0	t		19.0	female	white	4.298846000795861	smiling	100	sub-06	1.0	4.0	100_smiling	0.0		196.80122287419363	
30.0	178.50345276621374	pulse	1.0	t		19.0	female	white	4.298846000795861	smiling	100	sub-06	1.0	4.0	100_smiling	0.0		197.50120575902838	
30.0	179.2034169360486	pulse	1.0	t		19.0	female	white	4.298846000795861	smiling	100	sub-06	1.0	4.0	100_smiling	0.0		198.20116992886324	
31.0	179.2617736203647	face	0.0		147	31.0	female	west_asian	2.364902506963788	neutral	006	sub-06	1.0	4.0	006_neutral	0.0		198.25952661317933	1.2415399907840765
31.0	179.90341400805482	pulse	0.0	t		31.0	female	west_asian	2.364902506963788	neutral	006	sub-06	1.0	4.0	006_neutral	0.0		198.90116700086946	
31.0	180.50331361114877	fix	1.0		443	31.0	female	west_asian	2.364902506963788	neutral	006	sub-06	1.0	4.0	006_neutral	0.0		199.5010666039634	3.75822576988503
31.0	180.60343703957915	pulse	1.0	t		31.0	female	west_asian	2.364902506963788	neutral	006	sub-06	1.0	4.0	006_neutral	0.0		199.6011900323938	
31.0	181.30337706102728	pulse	1.0	t		31.0	female	west_asian	2.364902506963788	neutral	006	sub-06	1.0	4.0	006_neutral	0.0		200.30113005384192	
31.0	182.00336326626348	pulse	1.0	t		31.0	female	west_asian	2.364902506963788	neutral	006	sub-06	1.0	4.0	006_neutral	0.0		201.00111625907812	
31.0	182.70334947149968	pulse	1.0	t		31.0	female	west_asian	2.364902506963788	neutral	006	sub-06	1.0	4.0	006_neutral	0.0		201.70110246431432	
31.0	183.40333446931254	pulse	1.0	t		31.0	female	west_asian	2.364902506963788	neutral	006	sub-06	1.0	4.0	006_neutral	0.0		202.40108746212718	
31.0	184.10331705229328	pulse	1.0	t		31.0	female	west_asian	2.364902506963788	neutral	006	sub-06	1.0	4.0	006_neutral	0.0		203.10107004510792	
32.0	184.2615393810338	face	0.0		147	40.0	male	black	2.408674890569041	neutral	061	sub-06	1.0	4.0	061_neutral	0.0		203.25929237384844	1.2416447344003245
32.0	184.8033129168798	pulse	0.0	t		40.0	male	black	2.408674890569041	neutral	061	sub-06	1.0	4.0	061_neutral	0.0		203.80106590969444	
32.0	185.50318411543412	fix	1.0		444	40.0	male	black	2.408674890569041	neutral	061	sub-06	1.0	4.0	061_neutral	0.0		204.50093710824876	3.758268633271655
32.0	185.51065230522	pulse	1.0	t		40.0	male	black	2.408674890569041	neutral	061	sub-06	1.0	4.0	061_neutral	0.0		204.50840529803463	
32.0	186.2032814032391	pulse	1.0	t		40.0	male	black	2.408674890569041	neutral	061	sub-06	1.0	4.0	061_neutral	0.0		205.20103439605373	
32.0	186.90326609920157	pulse	1.0	t		40.0	male	black	2.408674890569041	neutral	061	sub-06	1.0	4.0	061_neutral	0.0		205.9010190920162	
32.0	187.60325200258012	pulse	1.0	t		40.0	male	black	2.408674890569041	neutral	061	sub-06	1.0	4.0	061_neutral	0.0		206.60100499539476	
32.0	188.3032366985426	pulse	1.0	t		40.0	male	black	2.408674890569041	neutral	061	sub-06	1.0	4.0	061_neutral	0.0		207.30098969135724	
32.0	189.00321505555257	pulse	1.0	t		40.0	male	black	2.408674890569041	neutral	061	sub-06	1.0	4.0	061_neutral	0.0		208.0009680483672	
33.0	189.26145274870578	face	0.0		146	25.0	female	west_asian	2.6756864305610826	neutral	064	sub-06	1.0	4.0	064_neutral	0.0		208.25920574152042	1.241642319560924
33.0	189.70321182570478	pulse	0.0	t		25.0	female	west_asian	2.6756864305610826	neutral	064	sub-06	1.0	4.0	064_neutral	0.0		208.70096481851942	
33.0	190.4032031624738	pulse	0.0	t		25.0	female	west_asian	2.6756864305610826	neutral	064	sub-06	1.0	4.0	064_neutral	0.0		209.40095615528844	
33.0	190.5030950682667	fix	1.0		444	25.0	female	west_asian	2.6756864305610826	neutral	064	sub-06	1.0	4.0	064_neutral	0.0		209.50084806108134	3.7582435793228797
33.0	191.10317819908232	pulse	1.0	t		25.0	female	west_asian	2.6756864305610826	neutral	064	sub-06	1.0	4.0	064_neutral	0.0		210.10093119189696	
33.0	191.80316198947912	pulse	1.0	t		25.0	female	west_asian	2.6756864305610826	neutral	064	sub-06	1.0	4.0	064_neutral	0.0		210.80091498229376	
33.0	192.50314396874455	pulse	1.0	t		25.0	female	west_asian	2.6756864305610826	neutral	064	sub-06	1.0	4.0	064_neutral	0.0		211.5008969615592	
33.0	193.2031244387399	pulse	1.0	t		25.0	female	west_asian	2.6756864305610826	neutral	064	sub-06	1.0	4.0	064_neutral	0.0		212.20087743155455	
33.0	193.90312694413296	pulse	1.0	t		25.0	female	west_asian	2.6756864305610826	neutral	064	sub-06	1.0	4.0	064_neutral	0.0		212.9008799369476	
34.0	194.26133864758958	face	0.0		146	24.0	male	white	3.1153999204138483	neutral	012	sub-06	1.0	4.0	012_neutral	1.0	dominance	213.25909164040422	1.241634169480676
34.0	194.60310620670862	pulse	0.0	t		24.0	male	white	3.1153999204138483	neutral	012	sub-06	1.0	4.0	012_neutral	1.0	dominance	213.60085919952326	
34.0	195.3030921100908	pulse	0.0	t		24.0	male	white	3.1153999204138483	neutral	012	sub-06	1.0	4.0	012_neutral	1.0	dominance	214.30084510290544	
34.0	195.50297281707026	fix	1.0		177	24.0	male	white	3.1153999204138483	neutral	012	sub-06	1.0	4.0	012_neutral	1.0	dominance	214.5007258098849	1.4999645320604031
34.0	196.00307801346935	pulse	1.0	t		24.0	male	white	3.1153999204138483	neutral	012	sub-06	1.0	4.0	012_neutral	1.0	dominance	215.000831006284	
34.0	196.703067539107	pulse	1.0	t		24.0	male	white	3.1153999204138483	neutral	012	sub-06	1.0	4.0	012_neutral	1.0	dominance	215.70082053192164	
34.0	197.00293734913066	rating	2.0		295	24.0	male	white	3.1153999204138483	neutral	012	sub-06	1.0	4.0	012_neutral	1.0	dominance	216.0006903419453	2.4999539671407547
34.0	197.39780690408588	pulse	2.0	t		24.0	male	white	3.1153999204138483	neutral	012	sub-06	1.0	4.0	012_neutral	1.0	dominance	216.39555989690052	
34.0	198.09776624424194	pulse	2.0	t		24.0	male	white	3.1153999204138483	neutral	012	sub-06	1.0	4.0	012_neutral	1.0	dominance	217.09551923705658	
34.0	198.7977898794743	pulse	2.0	t		24.0	male	white	3.1153999204138483	neutral	012	sub-06	1.0	4.0	012_neutral	1.0	dominance	217.79554287228893	
34.0	199.07799837662606	response	2.0	b		24.0	male	white	3.1153999204138483	neutral	012	sub-06	1.0	4.0	012_neutral	1.0	dominance	218.0757513694407	
34.0	199.50289131627142	fix	3.0		444	24.0	male	white	3.1153999204138483	neutral	012	sub-06	1.0	4.0	012_neutral	1.0	dominance	218.50064430908606	3.766588355469139
34.0	199.51079628996376	pulse	3.0	t		24.0	male	white	3.1153999204138483	neutral	012	sub-06	1.0	4.0	012_neutral	1.0	dominance	218.5085492827784	
34.0	200.20298950964207	pulse	3.0	t		24.0	male	white	3.1153999204138483	neutral	012	sub-06	1.0	4.0	012_neutral	1.0	dominance	219.2007425024567	
34.0	200.90298175197313	pulse	3.0	t		24.0	male	white	3.1153999204138483	neutral	012	sub-06	1.0	4.0	012_neutral	1.0	dominance	219.90073474478777	
34.0	201.60295950527143	pulse	3.0	t		24.0	male	white	3.1153999204138483	neutral	012	sub-06	1.0	4.0	012_neutral	1.0	dominance	220.60071249808607	
34.0	202.30293967341277	pulse	3.0	t		24.0	male	white	3.1153999204138483	neutral	012	sub-06	1.0	4.0	012_neutral	1.0	dominance	221.3006926662274	
34.0	203.00292255824388	pulse	3.0	t		24.0	male	white	3.1153999204138483	neutral	012	sub-06	1.0	4.0	012_neutral	1.0	dominance	222.00067555105852	
35.0	203.26947967174056	face	0.0		145	26.0	male	white	2.7966573816155993	neutral	117	sub-06	1.0	4.0	117_neutral	0.0		222.2672326645552	1.233306900914613
35.0	203.70291872468806	pulse	0.0	t		26.0	male	white	2.7966573816155993	neutral	117	sub-06	1.0	4.0	117_neutral	0.0		222.7006717175027	
35.0	204.4028928557309	pulse	0.0	t		26.0	male	white	2.7966573816155993	neutral	117	sub-06	1.0	4.0	117_neutral	0.0		223.40064584854554	
35.0	204.50278657265517	fix	1.0		444	26.0	male	white	2.7966573816155993	neutral	117	sub-06	1.0	4.0	117_neutral	0.0		223.5005395654698	3.7582505219797895
35.0	205.10288660733568	pulse	1.0	t		26.0	male	white	2.7966573816155993	neutral	117	sub-06	1.0	4.0	117_neutral	0.0		224.10063960015032	
35.0	205.80288458491123	pulse	1.0	t		26.0	male	white	2.7966573816155993	neutral	117	sub-06	1.0	4.0	117_neutral	0.0		224.80063757772587	
35.0	206.50285086772783	pulse	1.0	t		26.0	male	white	2.7966573816155993	neutral	117	sub-06	1.0	4.0	117_neutral	0.0		225.50060386054247	
35.0	207.20283677110638	pulse	1.0	t		26.0	male	white	2.7966573816155993	neutral	117	sub-06	1.0	4.0	117_neutral	0.0		226.20058976392102	
35.0	207.90283625795564	pulse	1.0	t		26.0	male	white	2.7966573816155993	neutral	117	sub-06	1.0	4.0	117_neutral	0.0		226.90058925077028	
36.0	208.26103709463496	face	0.0		146	20.0	male	black	3.1070433744528456	neutral	082	sub-06	1.0	4.0	082_neutral	0.0		227.2587900874496	1.2416438288346399
36.0	208.60282548173927	pulse	0.0	t		20.0	male	black	3.1070433744528456	neutral	082	sub-06	1.0	4.0	082_neutral	0.0		227.6005784745539	
36.0	209.3028213463258	pulse	0.0	t		20.0	male	black	3.1070433744528456	neutral	082	sub-06	1.0	4.0	082_neutral	0.0		228.30057433914044	
36.0	209.5026809234696	fix	1.0		444	20.0	male	black	3.1070433744528456	neutral	082	sub-06	1.0	4.0	082_neutral	0.0		228.50043391628424	3.7582520312571432
36.0	210.00278430874096	pulse	1.0	t		20.0	male	black	3.1070433744528456	neutral	082	sub-06	1.0	4.0	082_neutral	0.0		229.0005373015556	
36.0	210.70276508059032	pulse	1.0	t		20.0	male	black	3.1070433744528456	neutral	082	sub-06	1.0	4.0	082_neutral	0.0		229.70051807340496	
36.0	211.4027473617134	pulse	1.0	t		20.0	male	black	3.1070433744528456	neutral	082	sub-06	1.0	4.0	082_neutral	0.0		230.40050035452805	
36.0	212.10273537807734	pulse	1.0	t		20.0	male	black	3.1070433744528456	neutral	082	sub-06	1.0	4.0	082_neutral	0.0		231.10048837089198	
36.0	212.80272158331354	pulse	1.0	t		20.0	male	black	3.1070433744528456	neutral	082	sub-06	1.0	4.0	082_neutral	0.0		231.80047457612818	
37.0	213.26093295472674	face	0.0		146	31.0	female	west_asian	2.364902506963788	smiling	006	sub-06	1.0	4.0	006_smiling	0.0		232.25868594754138	1.2416432251266087
37.0	213.5027086941118	pulse	0.0	t		31.0	female	west_asian	2.364902506963788	smiling	006	sub-06	1.0	4.0	006_smiling	0.0		232.50046168692643	
37.0	214.20270184200854	pulse	0.0	t		31.0	female	west_asian	2.364902506963788	smiling	006	sub-06	1.0	4.0	006_smiling	0.0		233.20045483482318	
37.0	214.50257617985335	fix	1.0		444	31.0	female	west_asian	2.364902506963788	smiling	006	sub-06	1.0	4.0	006_smiling	0.0		233.500329172668	3.758225769888668
37.0	214.9026823120039	pulse	1.0	t		31.0	female	west_asian	2.364902506963788	smiling	006	sub-06	1.0	4.0	006_smiling	0.0		233.90043530481853	
37.0	215.6026661024007	pulse	1.0	t		31.0	female	west_asian	2.364902506963788	smiling	006	sub-06	1.0	4.0	006_smiling	0.0		234.60041909521533	
37.0	216.30265894843978	pulse	1.0	t		31.0	female	west_asian	2.364902506963788	smiling	006	sub-06	1.0	4.0	006_smiling	0.0		235.30041194125442	
37.0	217.00264575738765	pulse	1.0	t		31.0	female	west_asian	2.364902506963788	smiling	006	sub-06	1.0	4.0	006_smiling	0.0		236.0003987502023	
37.0	217.7026352830253	pulse	1.0	t		31.0	female	west_asian	2.364902506963788	smiling	006	sub-06	1.0	4.0	006_smiling	0.0		236.70038827583994	
38.0	218.26080194974202	face	0.0		146	22.0	male	black	2.767608436132113	smiling	044	sub-06	1.0	4.0	044_smiling	0.0		237.25855494255666	1.241668279075384
38.0	218.40261243261557	pulse	0.0	t		22.0	male	black	2.767608436132113	smiling	044	sub-06	1.0	4.0	044_smiling	0.0		237.4003654254302	
38.0	219.1025877710781	pulse	0.0	t		22.0	male	black	2.767608436132113	smiling	044	sub-06	1.0	4.0	044_smiling	0.0		238.10034076389275	
38.0	219.5024702288174	fix	1.0		444	22.0	male	black	2.767608436132113	smiling	044	sub-06	1.0	4.0	044_smiling	0.0		238.50022322163204	3.7583238726983836
38.0	219.8025806171172	pulse	1.0	t		22.0	male	black	2.767608436132113	smiling	044	sub-06	1.0	4.0	044_smiling	0.0		238.80033360993184	
38.0	220.50256169082058	pulse	1.0	t		22.0	male	black	2.767608436132113	smiling	044	sub-06	1.0	4.0	044_smiling	0.0		239.50031468363522	
38.0	221.20254910347649	pulse	1.0	t		22.0	male	black	2.767608436132113	smiling	044	sub-06	1.0	4.0	044_smiling	0.0		240.20030209629113	
38.0	221.9025319883076	pulse	1.0	t		22.0	male	black	2.767608436132113	smiling	044	sub-06	1.0	4.0	044_smiling	0.0		240.90028498112224	
38.0	222.60251668427009	pulse	1.0	t		22.0	male	black	2.767608436132113	smiling	044	sub-06	1.0	4.0	044_smiling	0.0		241.60026967708473	
39.0	223.26079410151578	face	0.0		146	36.0	female	white	2.7548746518105847	smiling	011	sub-06	1.0	4.0	011_smiling	1.0	trustworthiness	242.25854709433042	1.241585872710857
39.0	223.30251043587486	pulse	0.0	t		36.0	female	white	2.7548746518105847	smiling	011	sub-06	1.0	4.0	011_smiling	1.0	trustworthiness	242.3002634286895	
39.0	224.00248486877535	pulse	0.0	t		36.0	female	white	2.7548746518105847	smiling	011	sub-06	1.0	4.0	011_smiling	1.0	trustworthiness	243.00023786159	
39.0	224.50237997422664	fix	1.0		177	36.0	female	white	2.7548746518105847	smiling	011	sub-06	1.0	4.0	011_smiling	1.0	trustworthiness	243.50013296704128	1.4999723802866356
39.0	224.702484657475	pulse	1.0	t		36.0	female	white	2.7548746518105847	smiling	011	sub-06	1.0	4.0	011_smiling	1.0	trustworthiness	243.70023765028964	
39.0	225.40245909037185	pulse	1.0	t		36.0	female	white	2.7548746518105847	smiling	011	sub-06	1.0	4.0	011_smiling	1.0	trustworthiness	244.4002120831865	
39.0	226.00235235451328	rating	2.0		294	36.0	female	white	2.7548746518105847	smiling	011	sub-06	1.0	4.0	011_smiling	1.0	trustworthiness	245.00010534732792	2.49993132803138
39.0	226.09720781284705	pulse	2.0	t		36.0	female	white	2.7548746518105847	smiling	011	sub-06	1.0	4.0	011_smiling	1.0	trustworthiness	245.09496080566169	
39.0	226.79719431993726	pulse	2.0	t		36.0	female	white	2.7548746518105847	smiling	011	sub-06	1.0	4.0	011_smiling	1.0	trustworthiness	245.7949473127519	
39.0	227.49718143073915	pulse	2.0	t		36.0	female	white	2.7548746518105847	smiling	011	sub-06	1.0	4.0	011_smiling	1.0	trustworthiness	246.4949344235538	
39.0	227.54406582125375	response	2.0	g		36.0	female	white	2.7548746518105847	smiling	011	sub-06	1.0	4.0	011_smiling	1.0	trustworthiness	246.5418188140684	
39.0	228.2023918371233	pulse	2.0	t		36.0	female	white	2.7548746518105847	smiling	011	sub-06	1.0	4.0	011_smiling	1.0	trustworthiness	247.20014482993793	
39.0	228.50228368254466	fix	3.0		444	36.0	female	white	2.7548746518105847	smiling	011	sub-06	1.0	4.0	011_smiling	1.0	trustworthiness	247.5000366753593	3.7499202348662948
39.0	228.9023861924361	pulse	3.0	t		36.0	female	white	2.7548746518105847	smiling	011	sub-06	1.0	4.0	011_smiling	1.0	trustworthiness	247.90013918525074	
39.0	229.60239956460646	pulse	3.0	t		36.0	female	white	2.7548746518105847	smiling	011	sub-06	1.0	4.0	011_smiling	1.0	trustworthiness	248.6001525574211	
39.0	230.30235105653628	pulse	3.0	t		36.0	female	white	2.7548746518105847	smiling	011	sub-06	1.0	4.0	011_smiling	1.0	trustworthiness	249.30010404935092	
39.0	231.00233122467762	pulse	3.0	t		36.0	female	white	2.7548746518105847	smiling	011	sub-06	1.0	4.0	011_smiling	1.0	trustworthiness	250.00008421749226	
39.0	231.7023289003955	pulse	3.0	t		36.0	female	white	2.7548746518105847	smiling	011	sub-06	1.0	4.0	011_smiling	1.0	trustworthiness	250.70008189321015	
40.0	232.25220391741095	fix	0.0		720													251.2499569102256	5.9998738246904395
40.0	232.40231661490543	pulse	0.0	t														251.40006960772007	
40.0	233.1023112720759	pulse	0.0	t														252.10006426489053	
40.0	233.80228268642531	pulse	0.0	t														252.80003567923995	
40.0	234.50226798609583	pulse	0.0	t														253.50002097891047	
40.0	235.2022541913284	pulse	0.0	t														254.20000718414303	
40.0	235.90223767987118	pulse	0.0	t														254.89999067268582	
40.0	236.6022302240599	pulse	0.0	t														255.59998321687453	
40.0	237.30220767550418	pulse	0.0	t														256.2999606683188	
40.0	238.0021778824339	pulse	0.0	t														256.99993087524854	
