trial_nr	onset	event_type	phase	response	nr_frames	face_age	face_sex	face_eth	attractiveness	expression	face_id	sub_id	ses	run	trial_type	catch	rating_type	onset_abs	duration
-1.0	0.061518009713836364	fix	0.0		713													85.23438603184877	5.957960680996621
-1.0	0.7030325239502417	pulse	0.0	t														85.87590054608518	
-1.0	1.4030114846700599	pulse	0.0	t														86.575879506805	
-1.0	2.1029895398260123	pulse	0.0	t														87.27585756196095	
-1.0	2.8029772543341096	pulse	0.0	t														87.97584527646904	
-1.0	3.5029616484407597	pulse	0.0	t														88.6758296705757	
-1.0	4.20294845738681	pulse	0.0	t														89.37581647952175	
-1.0	4.902936473750742	pulse	0.0	t														90.07580449588568	
-1.0	5.60291362334101	pulse	0.0	t														90.77578164547594	
0.0	6.019478690710457	face	0.0		144	23.0	male	white	2.6275368085953046	smiling	141	sub-06	1.0	2.0	141_smiling	0.0		91.19234671284539	1.2333017693817965
0.0	6.302912506478606	pulse	0.0	t		23.0	male	white	2.6275368085953046	smiling	141	sub-06	1.0	2.0	141_smiling	0.0		91.47578052861354	
0.0	7.002896296875406	pulse	0.0	t		23.0	male	white	2.6275368085953046	smiling	141	sub-06	1.0	2.0	141_smiling	0.0		92.17576431901034	
0.0	7.252780460092254	fix	1.0		445	23.0	male	white	2.6275368085953046	smiling	141	sub-06	1.0	2.0	141_smiling	0.0		92.42564848222719	3.758252333111159
0.0	7.702882502109787	pulse	1.0	t		23.0	male	white	2.6275368085953046	smiling	141	sub-06	1.0	2.0	141_smiling	0.0		92.87575052424472	
0.0	8.402865688798556	pulse	1.0	t		23.0	male	white	2.6275368085953046	smiling	141	sub-06	1.0	2.0	141_smiling	0.0		93.57573371093349	
0.0	9.102851894032938	pulse	1.0	t		23.0	male	white	2.6275368085953046	smiling	141	sub-06	1.0	2.0	141_smiling	0.0		94.27571991616787	
0.0	9.802832967736322	pulse	1.0	t		23.0	male	white	2.6275368085953046	smiling	141	sub-06	1.0	2.0	141_smiling	0.0		94.97570098987126	
0.0	10.502815550713422	pulse	1.0	t		23.0	male	white	2.6275368085953046	smiling	141	sub-06	1.0	2.0	141_smiling	0.0		95.67568357284836	
1.0	11.011032793203412	face	0.0		146	25.0	female	black	3.858336649423	smiling	126	sub-06	1.0	2.0	126_smiling	0.0		96.18390081533835	1.2416402065773582
1.0	11.202811415303586	pulse	0.0	t		25.0	female	black	3.858336649423	smiling	126	sub-06	1.0	2.0	126_smiling	0.0		96.37567943743852	
1.0	11.902788866749688	pulse	0.0	t		25.0	female	black	3.858336649423	smiling	126	sub-06	1.0	2.0	126_smiling	0.0		97.07565688888462	
1.0	12.25267299978077	fix	1.0		445	25.0	female	black	3.858336649423	smiling	126	sub-06	1.0	2.0	126_smiling	0.0		97.4255410219157	3.758255049804575
1.0	12.602782014644617	pulse	1.0	t		25.0	female	black	3.858336649423	smiling	126	sub-06	1.0	2.0	126_smiling	0.0		97.77565003677955	
1.0	13.302762786493986	pulse	1.0	t		25.0	female	black	3.858336649423	smiling	126	sub-06	1.0	2.0	126_smiling	0.0		98.47563080862892	
1.0	14.002750199148068	pulse	1.0	t		25.0	female	black	3.858336649423	smiling	126	sub-06	1.0	2.0	126_smiling	0.0		99.175618221283	
1.0	14.70272825430402	pulse	1.0	t		25.0	female	black	3.858336649423	smiling	126	sub-06	1.0	2.0	126_smiling	0.0		99.87559627643896	
1.0	15.402717779941668	pulse	1.0	t		25.0	female	black	3.858336649423	smiling	126	sub-06	1.0	2.0	126_smiling	0.0		100.5755858020766	
2.0	16.010928049585345	face	0.0		146	22.0	female	white	4.614007162753682	smiling	009	sub-06	1.0	2.0	009_smiling	0.0		101.18379607172028	1.241642319560924
2.0	16.102766770976814	pulse	0.0	t		22.0	female	white	4.614007162753682	smiling	009	sub-06	1.0	2.0	009_smiling	0.0		101.27563479311175	
2.0	16.80270860355631	pulse	0.0	t		22.0	female	white	4.614007162753682	smiling	009	sub-06	1.0	2.0	009_smiling	0.0		101.97557662569125	
2.0	17.25257036914627	fix	1.0		444	22.0	female	white	4.614007162753682	smiling	009	sub-06	1.0	2.0	009_smiling	0.0		102.4254383912812	3.7582517294031277
2.0	17.502681527179448	pulse	1.0	t		22.0	female	white	4.614007162753682	smiling	009	sub-06	1.0	2.0	009_smiling	0.0		102.67554954931438	
2.0	18.202661695318966	pulse	1.0	t		22.0	female	white	4.614007162753682	smiling	009	sub-06	1.0	2.0	009_smiling	0.0		103.3755297174539	
2.0	18.902648202409182	pulse	1.0	t		22.0	female	white	4.614007162753682	smiling	009	sub-06	1.0	2.0	009_smiling	0.0		104.07551622454412	
2.0	19.60262535199945	pulse	1.0	t		22.0	female	white	4.614007162753682	smiling	009	sub-06	1.0	2.0	009_smiling	0.0		104.77549337413438	
2.0	20.302616085056798	pulse	1.0	t		22.0	female	white	4.614007162753682	smiling	009	sub-06	1.0	2.0	009_smiling	0.0		105.47548410719173	
3.0	21.010822098549397	face	0.0		147	32.0	male	white	2.389176283326701	smiling	092	sub-06	1.0	2.0	092_smiling	0.0		106.18369012068433	1.24164443254449
3.0	21.003031225973245	pulse	0.0	t		32.0	male	white	2.389176283326701	smiling	092	sub-06	1.0	2.0	092_smiling	0.0		106.17589924810818	
3.0	21.70259030665693	pulse	0.0	t		32.0	male	white	2.389176283326701	smiling	092	sub-06	1.0	2.0	092_smiling	0.0		106.87545832879186	
3.0	22.252466531093887	fix	1.0		443	32.0	male	white	2.389176283326701	smiling	092	sub-06	1.0	2.0	092_smiling	0.0		107.42533455322882	3.7582526349651744
3.0	22.402577417456996	pulse	1.0	t		32.0	male	white	2.389176283326701	smiling	092	sub-06	1.0	2.0	092_smiling	0.0		107.57544543959193	
3.0	23.102563018983346	pulse	1.0	t		32.0	male	white	2.389176283326701	smiling	092	sub-06	1.0	2.0	092_smiling	0.0		108.27543104111828	
3.0	23.802536848170348	pulse	1.0	t		32.0	male	white	2.389176283326701	smiling	092	sub-06	1.0	2.0	092_smiling	0.0		108.97540487030528	
3.0	24.502527581227696	pulse	1.0	t		32.0	male	white	2.389176283326701	smiling	092	sub-06	1.0	2.0	092_smiling	0.0		109.67539560336263	
3.0	25.202510767914646	pulse	1.0	t		32.0	male	white	2.389176283326701	smiling	092	sub-06	1.0	2.0	092_smiling	0.0		110.37537879004958	
3.0	25.90249667129683	pulse	1.0	t		32.0	male	white	2.389176283326701	smiling	092	sub-06	1.0	2.0	092_smiling	0.0		111.07536469343177	
4.0	26.01071916605906	face	0.0		147	19.0	male	white	3.2522881018702745	smiling	018	sub-06	1.0	2.0	018_smiling	0.0		111.183587188194	1.2416405084331927
4.0	26.602491328465476	pulse	0.0	t		19.0	male	white	3.2522881018702745	smiling	018	sub-06	1.0	2.0	018_smiling	0.0		111.77535935060041	
4.0	27.252359674492254	fix	1.0		443	19.0	male	white	3.2522881018702745	smiling	018	sub-06	1.0	2.0	018_smiling	0.0		112.42522769662719	3.7582565590782906
4.0	27.30247119475098	pulse	1.0	t		19.0	male	white	3.2522881018702745	smiling	018	sub-06	1.0	2.0	018_smiling	0.0		112.47533921688591	
4.0	28.002459512968926	pulse	1.0	t		19.0	male	white	3.2522881018702745	smiling	018	sub-06	1.0	2.0	018_smiling	0.0		113.17532753510386	
4.0	28.702442095946026	pulse	1.0	t		19.0	male	white	3.2522881018702745	smiling	018	sub-06	1.0	2.0	018_smiling	0.0		113.87531011808096	
4.0	29.40245909037185	pulse	1.0	t		19.0	male	white	3.2522881018702745	smiling	018	sub-06	1.0	2.0	018_smiling	0.0		114.57532711250678	
4.0	30.102412393433042	pulse	1.0	t		19.0	male	white	3.2522881018702745	smiling	018	sub-06	1.0	2.0	018_smiling	0.0		115.27528041556798	
4.0	30.802389844879144	pulse	1.0	t		19.0	male	white	3.2522881018702745	smiling	018	sub-06	1.0	2.0	018_smiling	0.0		115.97525786701408	
5.0	31.010616233570545	face	0.0		146	40.0	male	white	1.868682849184242	smiling	172	sub-06	1.0	2.0	172_smiling	0.0		116.18348425570548	1.2416399047215236
5.0	31.502386615033174	pulse	0.0	t		40.0	male	white	1.868682849184242	smiling	172	sub-06	1.0	2.0	172_smiling	0.0		116.67525463716811	
5.0	32.20236708502671	pulse	0.0	t		40.0	male	white	1.868682849184242	smiling	172	sub-06	1.0	2.0	172_smiling	0.0		117.37523510716164	
5.0	32.25225613829207	fix	1.0		444	40.0	male	white	1.868682849184242	smiling	172	sub-06	1.0	2.0	172_smiling	0.0		117.425124160427	3.758257766497991
5.0	32.902356610666175	pulse	1.0	t		40.0	male	white	1.868682849184242	smiling	172	sub-06	1.0	2.0	172_smiling	0.0		118.07522463280111	
5.0	33.60233647694986	pulse	1.0	t		40.0	male	white	1.868682849184242	smiling	172	sub-06	1.0	2.0	172_smiling	0.0		118.7752044990848	
5.0	34.302322380330224	pulse	1.0	t		40.0	male	white	1.868682849184242	smiling	172	sub-06	1.0	2.0	172_smiling	0.0		119.47519040246516	
5.0	35.002309792984306	pulse	1.0	t		40.0	male	white	1.868682849184242	smiling	172	sub-06	1.0	2.0	172_smiling	0.0		120.17517781511924	
5.0	35.70228452773699	pulse	1.0	t		40.0	male	white	1.868682849184242	smiling	172	sub-06	1.0	2.0	172_smiling	0.0		120.87515254987193	
6.0	36.01051390479006	face	0.0		146	54.0	female	white	2.286908077994429	neutral	136	sub-06	1.0	2.0	136_neutral	0.0		121.183381926925	1.2416380935937923
6.0	36.40227344966661	pulse	0.0	t		54.0	female	white	2.286908077994429	neutral	136	sub-06	1.0	2.0	136_neutral	0.0		121.57514147180154	
6.0	37.10226599385169	pulse	0.0	t		54.0	female	white	2.286908077994429	neutral	136	sub-06	1.0	2.0	136_neutral	0.0		122.27513401598662	
6.0	37.25215199838385	fix	1.0		445	54.0	female	white	2.286908077994429	neutral	136	sub-06	1.0	2.0	136_neutral	0.0		122.42502002051879	3.7582553516604094
6.0	37.802256726909036	pulse	1.0	t		54.0	female	white	2.286908077994429	neutral	136	sub-06	1.0	2.0	136_neutral	0.0		122.97512474904397	
6.0	38.50223961174197	pulse	1.0	t		54.0	female	white	2.286908077994429	neutral	136	sub-06	1.0	2.0	136_neutral	0.0		123.6751076338769	
6.0	39.202223703994605	pulse	1.0	t		54.0	female	white	2.286908077994429	neutral	136	sub-06	1.0	2.0	136_neutral	0.0		124.37509172612954	
6.0	39.902208098099436	pulse	1.0	t		54.0	female	white	2.286908077994429	neutral	136	sub-06	1.0	2.0	136_neutral	0.0		125.07507612023437	
6.0	40.602188266238954	pulse	1.0	t		54.0	female	white	2.286908077994429	neutral	136	sub-06	1.0	2.0	136_neutral	0.0		125.77505628837389	
7.0	41.01040735004426	face	0.0		146	47.0	male	east_asian	2.171110226820533	neutral	024	sub-06	1.0	2.0	024_neutral	0.0		126.1832753721792	1.241639602867508
7.0	41.30220133655166	pulse	0.0	t		47.0	male	east_asian	2.171110226820533	neutral	024	sub-06	1.0	2.0	024_neutral	0.0		126.4750693586866	
7.0	42.002160676709536	pulse	0.0	t		47.0	male	east_asian	2.171110226820533	neutral	024	sub-06	1.0	2.0	024_neutral	0.0		127.17502869884447	
7.0	42.25204695291177	fix	1.0		445	47.0	male	east_asian	2.171110226820533	neutral	024	sub-06	1.0	2.0	024_neutral	0.0		127.4249149750467	3.7583920918859803
7.0	42.70215473017015	pulse	1.0	t		47.0	male	east_asian	2.171110226820533	neutral	024	sub-06	1.0	2.0	024_neutral	0.0		127.87502275230509	
7.0	43.40214093540635	pulse	1.0	t		47.0	male	east_asian	2.171110226820533	neutral	024	sub-06	1.0	2.0	024_neutral	0.0		128.57500895754129	
7.0	44.10211868870647	pulse	1.0	t		47.0	male	east_asian	2.171110226820533	neutral	024	sub-06	1.0	2.0	024_neutral	0.0		129.2749867108414	
7.0	44.80210247910327	pulse	1.0	t		47.0	male	east_asian	2.171110226820533	neutral	024	sub-06	1.0	2.0	024_neutral	0.0		129.9749705012382	
7.0	45.50208264724279	pulse	1.0	t		47.0	male	east_asian	2.171110226820533	neutral	024	sub-06	1.0	2.0	024_neutral	0.0		130.67495066937772	
8.0	46.01043904479775	face	0.0		146	31.0	male	west_asian	1.9538400318344609	neutral	070	sub-06	1.0	2.0	070_neutral	0.0		131.18330706693268	1.2415016552222369
8.0	46.20208032296068	pulse	0.0	t		31.0	male	west_asian	1.9538400318344609	neutral	070	sub-06	1.0	2.0	070_neutral	0.0		131.37494834509562	
8.0	46.90206501892135	pulse	0.0	t		31.0	male	west_asian	1.9538400318344609	neutral	070	sub-06	1.0	2.0	070_neutral	0.0		132.07493304105628	
8.0	47.251940700019986	fix	1.0		445	31.0	male	west_asian	1.9538400318344609	neutral	070	sub-06	1.0	2.0	070_neutral	0.0		132.42480872215492	3.7582580683520064
8.0	47.60205424270498	pulse	1.0	t		31.0	male	west_asian	1.9538400318344609	neutral	070	sub-06	1.0	2.0	070_neutral	0.0		132.77492226483992	
8.0	48.30203380713465	pulse	1.0	t		31.0	male	west_asian	1.9538400318344609	neutral	070	sub-06	1.0	2.0	070_neutral	0.0		133.47490182926958	
8.0	49.002017899385464	pulse	1.0	t		31.0	male	west_asian	1.9538400318344609	neutral	070	sub-06	1.0	2.0	070_neutral	0.0		134.1748859215204	
8.0	49.70199595454142	pulse	1.0	t		31.0	male	west_asian	1.9538400318344609	neutral	070	sub-06	1.0	2.0	070_neutral	0.0		134.87486397667635	
8.0	50.40198155606777	pulse	1.0	t		31.0	male	west_asian	1.9538400318344609	neutral	070	sub-06	1.0	2.0	070_neutral	0.0		135.5748495782027	
9.0	51.01019876837199	face	0.0		146	40.0	male	black	2.408674890569041	neutral	061	sub-06	1.0	2.0	061_neutral	0.0		136.18306679050693	1.241639602867508
9.0	51.10198375960681	pulse	0.0	t		40.0	male	black	2.408674890569041	neutral	061	sub-06	1.0	2.0	061_neutral	0.0		136.27485178174175	
9.0	51.80196151290875	pulse	0.0	t		40.0	male	black	2.408674890569041	neutral	061	sub-06	1.0	2.0	061_neutral	0.0		136.97482953504368	
9.0	52.2518383712395	fix	1.0		444	40.0	male	black	2.408674890569041	neutral	061	sub-06	1.0	2.0	061_neutral	0.0		137.42470639337444	3.76658895917717
9.0	52.50194711443328	pulse	1.0	t		40.0	male	black	2.408674890569041	neutral	061	sub-06	1.0	2.0	061_neutral	0.0		137.6748151365682	
9.0	53.20192939555636	pulse	1.0	t		40.0	male	black	2.408674890569041	neutral	061	sub-06	1.0	2.0	061_neutral	0.0		138.3747974176913	
9.0	53.90191046925975	pulse	1.0	t		40.0	male	black	2.408674890569041	neutral	061	sub-06	1.0	2.0	061_neutral	0.0		139.07477849139468	
9.0	54.60189818376966	pulse	1.0	t		40.0	male	black	2.408674890569041	neutral	061	sub-06	1.0	2.0	061_neutral	0.0		139.7747662059046	
9.0	55.30188529456973	pulse	1.0	t		40.0	male	black	2.408674890569041	neutral	061	sub-06	1.0	2.0	061_neutral	0.0		140.47475331670466	
10.0	56.01842733041667	face	0.0		145	20.0	female	white	3.9502586549940313	neutral	091	sub-06	1.0	2.0	091_neutral	1.0	attractiveness	141.1912953525516	1.233307504624463
10.0	56.004573704038194	pulse	0.0	t		20.0	female	white	3.9502586549940313	neutral	091	sub-06	1.0	2.0	091_neutral	1.0	attractiveness	141.17744172617313	
10.0	56.70186011987789	pulse	0.0	t		20.0	female	white	3.9502586549940313	neutral	091	sub-06	1.0	2.0	091_neutral	1.0	attractiveness	141.87472814201283	
10.0	57.251734835041134	fix	1.0		177	20.0	female	white	3.9502586549940313	neutral	091	sub-06	1.0	2.0	091_neutral	1.0	attractiveness	142.42460285717607	1.5083479456206987
10.0	57.40184723067796	pulse	1.0	t		20.0	female	white	3.9502586549940313	neutral	091	sub-06	1.0	2.0	091_neutral	1.0	attractiveness	142.5747152528129	
10.0	58.10182528583391	pulse	1.0	t		20.0	female	white	3.9502586549940313	neutral	091	sub-06	1.0	2.0	091_neutral	1.0	attractiveness	143.27469330796885	
10.0	58.76008278066183	rating	2.0		293	20.0	female	white	3.9502586549940313	neutral	091	sub-06	1.0	2.0	091_neutral	1.0	attractiveness	143.93295080279677	2.4915687424527277
10.0	58.80183382832547	pulse	2.0	t		20.0	female	white	3.9502586549940313	neutral	091	sub-06	1.0	2.0	091_neutral	1.0	attractiveness	143.9747018504604	
10.0	59.50179709259464	pulse	2.0	t		20.0	female	white	3.9502586549940313	neutral	091	sub-06	1.0	2.0	091_neutral	1.0	attractiveness	144.67466511472958	
10.0	60.20179657944209	pulse	2.0	t		20.0	female	white	3.9502586549940313	neutral	091	sub-06	1.0	2.0	091_neutral	1.0	attractiveness	145.37466460157702	
10.0	60.62153142414172	response	2.0	w		20.0	female	white	3.9502586549940313	neutral	091	sub-06	1.0	2.0	091_neutral	1.0	attractiveness	145.79439944627666	
10.0	60.901755919598145	pulse	2.0	t		20.0	female	white	3.9502586549940313	neutral	091	sub-06	1.0	2.0	091_neutral	1.0	attractiveness	146.07462394173308	
10.0	61.25165152311456	fix	3.0		444	20.0	female	white	3.9502586549940313	neutral	091	sub-06	1.0	2.0	091_neutral	1.0	attractiveness	146.4245195452495	3.758271349963252
10.0	61.60175933055871	pulse	3.0	t		20.0	female	white	3.9502586549940313	neutral	091	sub-06	1.0	2.0	091_neutral	1.0	attractiveness	146.77462735269364	
10.0	62.301737687568675	pulse	3.0	t		20.0	female	white	3.9502586549940313	neutral	091	sub-06	1.0	2.0	091_neutral	1.0	attractiveness	147.4746057097036	
10.0	63.00172691135231	pulse	3.0	t		20.0	female	white	3.9502586549940313	neutral	091	sub-06	1.0	2.0	091_neutral	1.0	attractiveness	148.17459493348724	
10.0	63.70170315537871	pulse	3.0	t		20.0	female	white	3.9502586549940313	neutral	091	sub-06	1.0	2.0	091_neutral	1.0	attractiveness	148.87457117751364	
10.0	64.40169449214591	pulse	3.0	t		20.0	female	white	3.9502586549940313	neutral	091	sub-06	1.0	2.0	091_neutral	1.0	attractiveness	149.57456251428084	
11.0	65.00992287307781	face	0.0		146	28.0	male	east_asian	1.5563072025467568	smiling	005	sub-06	1.0	2.0	005_smiling	0.0		150.18279089521275	1.2416239064186811
11.0	65.10168945117039	pulse	0.0	t		28.0	male	east_asian	1.5563072025467568	smiling	005	sub-06	1.0	2.0	005_smiling	0.0		150.27455747330532	
11.0	65.80166539334277	pulse	0.0	t		28.0	male	east_asian	1.5563072025467568	smiling	005	sub-06	1.0	2.0	005_smiling	0.0		150.9745334154777	
11.0	66.2515467794965	fix	1.0		444	28.0	male	east_asian	1.5563072025467568	smiling	005	sub-06	1.0	2.0	005_smiling	0.0		151.42441480163143	3.7582598794815567
11.0	66.50165823938369	pulse	1.0	t		28.0	male	east_asian	1.5563072025467568	smiling	005	sub-06	1.0	2.0	005_smiling	0.0		151.67452626151862	
11.0	67.20164323720019	pulse	1.0	t		28.0	male	east_asian	1.5563072025467568	smiling	005	sub-06	1.0	2.0	005_smiling	0.0		152.37451125933512	
11.0	67.90162038679046	pulse	1.0	t		28.0	male	east_asian	1.5563072025467568	smiling	005	sub-06	1.0	2.0	005_smiling	0.0		153.0744884089254	
11.0	68.60160961057409	pulse	1.0	t		28.0	male	east_asian	1.5563072025467568	smiling	005	sub-06	1.0	2.0	005_smiling	0.0		153.77447763270902	
11.0	69.30160577701827	pulse	1.0	t		28.0	male	east_asian	1.5563072025467568	smiling	005	sub-06	1.0	2.0	005_smiling	0.0		154.4744737991532	
12.0	70.00980665897805	face	0.0		147	20.0	male	black	2.609629924393156	smiling	043	sub-06	1.0	2.0	043_smiling	0.0		155.18267468111299	1.2416380935937923
12.0	70.00394071450864	pulse	0.0	t		20.0	male	black	2.609629924393156	smiling	043	sub-06	1.0	2.0	043_smiling	0.0		155.17680873664358	
12.0	70.70156732071518	pulse	0.0	t		20.0	male	black	2.609629924393156	smiling	043	sub-06	1.0	2.0	043_smiling	0.0		155.87443534285012	
12.0	71.25144475257184	fix	1.0		443	20.0	male	black	2.609629924393156	smiling	043	sub-06	1.0	2.0	043_smiling	0.0		156.42431277470678	3.758255049802756
12.0	71.40157224094946	pulse	1.0	t		20.0	male	black	2.609629924393156	smiling	043	sub-06	1.0	2.0	043_smiling	0.0		156.5744402630844	
12.0	72.10154093860547	pulse	1.0	t		20.0	male	black	2.609629924393156	smiling	043	sub-06	1.0	2.0	043_smiling	0.0		157.2744089607404	
12.0	72.80152352158257	pulse	1.0	t		20.0	male	black	2.609629924393156	smiling	043	sub-06	1.0	2.0	043_smiling	0.0		157.9743915437175	
12.0	73.50150550085164	pulse	1.0	t		20.0	male	black	2.609629924393156	smiling	043	sub-06	1.0	2.0	043_smiling	0.0		158.67437352298657	
12.0	74.20149442277943	pulse	1.0	t		20.0	male	black	2.609629924393156	smiling	043	sub-06	1.0	2.0	043_smiling	0.0		159.37436244491437	
12.0	74.90147610019267	pulse	1.0	t		20.0	male	black	2.609629924393156	smiling	043	sub-06	1.0	2.0	043_smiling	0.0		160.0743441223276	
13.0	75.0096998023746	face	0.0		147	28.0	female	white	5.676880222841227	neutral	124	sub-06	1.0	2.0	124_neutral	1.0	trustworthiness	160.18256782450953	1.2416405084331927
13.0	75.60146622954016	pulse	0.0	t		28.0	female	white	5.676880222841227	neutral	124	sub-06	1.0	2.0	124_neutral	1.0	trustworthiness	160.7743342516751	
13.0	76.25134031080779	fix	1.0		176	28.0	female	white	5.676880222841227	neutral	124	sub-06	1.0	2.0	124_neutral	1.0	trustworthiness	161.42420833294273	1.4999723802848166
13.0	76.30145334034023	pulse	1.0	t		28.0	female	white	5.676880222841227	neutral	124	sub-06	1.0	2.0	124_neutral	1.0	trustworthiness	161.47432136247517	
13.0	77.00143773444688	pulse	1.0	t		28.0	female	white	5.676880222841227	neutral	124	sub-06	1.0	2.0	124_neutral	1.0	trustworthiness	162.17430575658182	
13.0	77.70140824323244	pulse	1.0	t		28.0	female	white	5.676880222841227	neutral	124	sub-06	1.0	2.0	124_neutral	1.0	trustworthiness	162.87427626536737	
13.0	77.75131269109261	rating	2.0		295	28.0	female	white	5.676880222841227	neutral	124	sub-06	1.0	2.0	124_neutral	1.0	trustworthiness	162.92418071322754	2.49994551520831
13.0	78.40141497459445	pulse	2.0	t		28.0	female	white	5.676880222841227	neutral	124	sub-06	1.0	2.0	124_neutral	1.0	trustworthiness	163.57428299672938	
13.0	79.0930642519088	response	2.0	y		28.0	female	white	5.676880222841227	neutral	124	sub-06	1.0	2.0	124_neutral	1.0	trustworthiness	164.26593227404373	
13.0	79.10422140929404	pulse	2.0	t		28.0	female	white	5.676880222841227	neutral	124	sub-06	1.0	2.0	124_neutral	1.0	trustworthiness	164.27708943142898	
13.0	79.80138527208146	pulse	2.0	t		28.0	female	white	5.676880222841227	neutral	124	sub-06	1.0	2.0	124_neutral	1.0	trustworthiness	164.9742532942164	
13.0	80.25125820630092	fix	3.0		444	28.0	female	white	5.676880222841227	neutral	124	sub-06	1.0	2.0	124_neutral	1.0	trustworthiness	165.42412622843585	3.7665799035330565
13.0	80.50136755320455	pulse	3.0	t		28.0	female	white	5.676880222841227	neutral	124	sub-06	1.0	2.0	124_neutral	1.0	trustworthiness	165.67423557533948	
13.0	81.2013495324718	pulse	3.0	t		28.0	female	white	5.676880222841227	neutral	124	sub-06	1.0	2.0	124_neutral	1.0	trustworthiness	166.37421755460673	
13.0	81.90135143415682	pulse	3.0	t		28.0	female	white	5.676880222841227	neutral	124	sub-06	1.0	2.0	124_neutral	1.0	trustworthiness	167.07421945629176	
13.0	82.60131500028183	pulse	3.0	t		28.0	female	white	5.676880222841227	neutral	124	sub-06	1.0	2.0	124_neutral	1.0	trustworthiness	167.77418302241676	
13.0	83.3013033185016	pulse	3.0	t		28.0	female	white	5.676880222841227	neutral	124	sub-06	1.0	2.0	124_neutral	1.0	trustworthiness	168.47417134063653	
14.0	84.01783810983397	face	0.0		146	40.0	female	west_asian	1.5777954635893354	neutral	038	sub-06	1.0	2.0	038_neutral	0.0		169.1907061319689	1.2333138435733417
14.0	84.00398538901936	pulse	0.0	t		40.0	female	west_asian	1.5777954635893354	neutral	038	sub-06	1.0	2.0	038_neutral	0.0		169.1768534111543	
14.0	84.70127663453604	pulse	0.0	t		40.0	female	west_asian	1.5777954635893354	neutral	038	sub-06	1.0	2.0	038_neutral	0.0		169.87414465667098	
14.0	85.25115195340732	fix	1.0		443	40.0	female	west_asian	1.5777954635893354	neutral	038	sub-06	1.0	2.0	038_neutral	0.0		170.42401997554225	3.7582716518190864
14.0	85.40126827315726	pulse	1.0	t		40.0	female	west_asian	1.5777954635893354	neutral	038	sub-06	1.0	2.0	038_neutral	0.0		170.5741362952922	
14.0	86.10124300790994	pulse	1.0	t		40.0	female	west_asian	1.5777954635893354	neutral	038	sub-06	1.0	2.0	038_neutral	0.0		171.27411103004488	
14.0	86.80123555209684	pulse	1.0	t		40.0	female	west_asian	1.5777954635893354	neutral	038	sub-06	1.0	2.0	038_neutral	0.0		171.97410357423178	
14.0	87.50120938128566	pulse	1.0	t		40.0	female	west_asian	1.5777954635893354	neutral	038	sub-06	1.0	2.0	038_neutral	0.0		172.6740774034206	
14.0	88.20119830321346	pulse	1.0	t		40.0	female	west_asian	1.5777954635893354	neutral	038	sub-06	1.0	2.0	038_neutral	0.0		173.3740663253484	
14.0	88.90119054554452	pulse	1.0	t		40.0	female	west_asian	1.5777954635893354	neutral	038	sub-06	1.0	2.0	038_neutral	0.0		174.07405856767946	
15.0	89.0094236052264	face	0.0		147	40.0	male	black	2.408674890569041	smiling	061	sub-06	1.0	2.0	061_smiling	0.0		174.18229162736134	1.241626019402247
15.0	89.60117493965117	pulse	0.0	t		40.0	male	black	2.408674890569041	smiling	061	sub-06	1.0	2.0	061_smiling	0.0		174.7740429617861	
15.0	90.25104962462865	fix	1.0		443	40.0	male	black	2.408674890569041	smiling	061	sub-06	1.0	2.0	061_smiling	0.0		175.42391764676358	3.7582511256914586
15.0	90.30116084303154	pulse	1.0	t		40.0	male	black	2.408674890569041	smiling	061	sub-06	1.0	2.0	061_smiling	0.0		175.47402886516647	
15.0	91.00114614270205	pulse	1.0	t		40.0	male	black	2.408674890569041	smiling	061	sub-06	1.0	2.0	061_smiling	0.0		176.174014164837	
15.0	91.70112812197112	pulse	1.0	t		40.0	male	black	2.408674890569041	smiling	061	sub-06	1.0	2.0	061_smiling	0.0		176.87399614410606	
15.0	92.40110949752852	pulse	1.0	t		40.0	male	black	2.408674890569041	smiling	061	sub-06	1.0	2.0	061_smiling	0.0		177.57397751966346	
15.0	93.1011005324417	pulse	1.0	t		40.0	male	black	2.408674890569041	smiling	061	sub-06	1.0	2.0	061_smiling	0.0		178.27396855457664	
15.0	93.80108915251549	pulse	1.0	t		40.0	male	black	2.408674890569041	smiling	061	sub-06	1.0	2.0	061_smiling	0.0		178.97395717465042	
16.0	94.00930075032011	face	0.0		146	36.0	female	white	2.7548746518105847	smiling	011	sub-06	1.0	2.0	011_smiling	0.0		179.18216877245504	1.2416408102872083
16.0	94.50107716887942	pulse	0.0	t		36.0	female	white	2.7548746518105847	smiling	011	sub-06	1.0	2.0	011_smiling	0.0		179.67394519101435	
16.0	95.20104888508467	pulse	0.0	t		36.0	female	white	2.7548746518105847	smiling	011	sub-06	1.0	2.0	011_smiling	0.0		180.3739169072196	
16.0	95.25094156060732	fix	1.0		445	36.0	female	white	2.7548746518105847	smiling	011	sub-06	1.0	2.0	011_smiling	0.0		180.42380958274225	3.758255653514425
16.0	95.9010420329796	pulse	1.0	t		36.0	female	white	2.7548746518105847	smiling	011	sub-06	1.0	2.0	011_smiling	0.0		181.07391005511454	
16.0	96.60102612523224	pulse	1.0	t		36.0	female	white	2.7548746518105847	smiling	011	sub-06	1.0	2.0	011_smiling	0.0		181.77389414736717	
16.0	97.30100780264547	pulse	1.0	t		36.0	female	white	2.7548746518105847	smiling	011	sub-06	1.0	2.0	011_smiling	0.0		182.4738758247804	
16.0	98.0009946115897	pulse	1.0	t		36.0	female	white	2.7548746518105847	smiling	011	sub-06	1.0	2.0	011_smiling	0.0		183.17386263372464	
16.0	98.70096723335882	pulse	1.0	t		36.0	female	white	2.7548746518105847	smiling	011	sub-06	1.0	2.0	011_smiling	0.0		183.87383525549376	
17.0	99.00919721412174	face	0.0		146	28.0	male	east_asian	1.5563072025467568	neutral	005	sub-06	1.0	2.0	005_neutral	0.0		184.18206523625668	1.2416399047215236
17.0	99.40097034246355	pulse	0.0	t		28.0	male	east_asian	1.5563072025467568	neutral	005	sub-06	1.0	2.0	005_neutral	0.0		184.5738383645985	
17.0	100.1009511143111	pulse	0.0	t		28.0	male	east_asian	1.5563072025467568	neutral	005	sub-06	1.0	2.0	005_neutral	0.0		185.27381913644604	
17.0	100.25083711884326	fix	1.0		444	28.0	male	east_asian	1.5563072025467568	neutral	005	sub-06	1.0	2.0	005_neutral	0.0		185.4237051409782	3.7582592757717066
17.0	100.80094305478815	pulse	1.0	t		28.0	male	east_asian	1.5563072025467568	neutral	005	sub-06	1.0	2.0	005_neutral	0.0		185.97381107692308	
17.0	101.5009401267962	pulse	1.0	t		28.0	male	east_asian	1.5563072025467568	neutral	005	sub-06	1.0	2.0	005_neutral	0.0		186.67380814893113	
17.0	102.20090942816387	pulse	1.0	t		28.0	male	east_asian	1.5563072025467568	neutral	005	sub-06	1.0	2.0	005_neutral	0.0		187.3737774502988	
17.0	102.90089533154423	pulse	1.0	t		28.0	male	east_asian	1.5563072025467568	neutral	005	sub-06	1.0	2.0	005_neutral	0.0		188.07376335367917	
17.0	103.60088304605233	pulse	1.0	t		28.0	male	east_asian	1.5563072025467568	neutral	005	sub-06	1.0	2.0	005_neutral	0.0		188.77375106818727	
18.0	104.00909639461497	face	0.0		146	27.0	female	white	4.181058495821727	smiling	039	sub-06	1.0	2.0	039_smiling	0.0		189.1819644167499	1.241636886175911
18.0	104.30086864757868	pulse	0.0	t		27.0	female	white	4.181058495821727	smiling	039	sub-06	1.0	2.0	039_smiling	0.0		189.47373666971362	
18.0	105.0008500231379	pulse	0.0	t		27.0	female	white	4.181058495821727	smiling	039	sub-06	1.0	2.0	039_smiling	0.0		190.17371804527284	
18.0	105.25073328079088	fix	1.0		444	27.0	female	white	4.181058495821727	smiling	039	sub-06	1.0	2.0	039_smiling	0.0		190.42360130292582	3.7582565590782906
18.0	105.70084045433941	pulse	1.0	t		27.0	female	white	4.181058495821727	smiling	039	sub-06	1.0	2.0	039_smiling	0.0		190.87370847647435	
18.0	106.40082696142963	pulse	1.0	t		27.0	female	white	4.181058495821727	smiling	039	sub-06	1.0	2.0	039_smiling	0.0		191.57369498356456	
18.0	107.10080833698885	pulse	1.0	t		27.0	female	white	4.181058495821727	smiling	039	sub-06	1.0	2.0	039_smiling	0.0		192.27367635912378	
18.0	107.8007891088364	pulse	1.0	t		27.0	female	white	4.181058495821727	smiling	039	sub-06	1.0	2.0	039_smiling	0.0		192.97365713097133	
18.0	108.50078074745943	pulse	1.0	t		27.0	female	white	4.181058495821727	smiling	039	sub-06	1.0	2.0	039_smiling	0.0		193.67364876959437	
19.0	109.00898983986917	face	0.0		146	27.0	female	white	3.504576203740549	neutral	144	sub-06	1.0	2.0	144_neutral	1.0	trustworthiness	194.1818578620041	1.2416399047215236
19.0	109.20076876382336	pulse	0.0	t		27.0	female	white	3.504576203740549	neutral	144	sub-06	1.0	2.0	144_neutral	1.0	trustworthiness	194.3736367859583	
19.0	109.90074772454318	pulse	0.0	t		27.0	female	white	3.504576203740549	neutral	144	sub-06	1.0	2.0	144_neutral	1.0	trustworthiness	195.07361574667812	
19.0	110.2506297445907	fix	1.0		177	27.0	female	white	3.504576203740549	neutral	144	sub-06	1.0	2.0	144_neutral	1.0	trustworthiness	195.42349776672563	1.4999729839946667
19.0	110.6007393631644	pulse	1.0	t		27.0	female	white	3.504576203740549	neutral	144	sub-06	1.0	2.0	144_neutral	1.0	trustworthiness	195.77360738529933	
19.0	111.30072254985134	pulse	1.0	t		27.0	female	white	3.504576203740549	neutral	144	sub-06	1.0	2.0	144_neutral	1.0	trustworthiness	196.47359057198628	
19.0	111.75060272858536	rating	2.0		294	27.0	female	white	3.504576203740549	neutral	144	sub-06	1.0	2.0	144_neutral	1.0	trustworthiness	196.9234707507203	2.4999464207721758
19.0	112.00071328290869	pulse	2.0	t		27.0	female	white	3.504576203740549	neutral	144	sub-06	1.0	2.0	144_neutral	1.0	trustworthiness	197.17358130504363	
19.0	112.70069284733836	pulse	2.0	t		27.0	female	white	3.504576203740549	neutral	144	sub-06	1.0	2.0	144_neutral	1.0	trustworthiness	197.8735608694733	
19.0	113.08711076954569	response	2.0	y		27.0	female	white	3.504576203740549	neutral	144	sub-06	1.0	2.0	144_neutral	1.0	trustworthiness	198.25997879168062	
19.0	113.40066999693045	pulse	2.0	t		27.0	female	white	3.504576203740549	neutral	144	sub-06	1.0	2.0	144_neutral	1.0	trustworthiness	198.57353801906538	
19.0	114.10065590031081	pulse	2.0	t		27.0	female	white	3.504576203740549	neutral	144	sub-06	1.0	2.0	144_neutral	1.0	trustworthiness	199.27352392244575	
19.0	114.25054914935754	fix	3.0		444	27.0	female	white	3.504576203740549	neutral	144	sub-06	1.0	2.0	144_neutral	1.0	trustworthiness	199.42341717149247	3.758251427547293
19.0	114.80065116118931	pulse	3.0	t		27.0	female	white	3.504576203740549	neutral	144	sub-06	1.0	2.0	144_neutral	1.0	trustworthiness	199.97351918332424	
19.0	115.50062559408798	pulse	3.0	t		27.0	female	white	3.504576203740549	neutral	144	sub-06	1.0	2.0	144_neutral	1.0	trustworthiness	200.6734936162229	
19.0	116.20061421416176	pulse	3.0	t		27.0	female	white	3.504576203740549	neutral	144	sub-06	1.0	2.0	144_neutral	1.0	trustworthiness	201.3734822362967	
19.0	116.90060223052569	pulse	3.0	t		27.0	female	white	3.504576203740549	neutral	144	sub-06	1.0	2.0	144_neutral	1.0	trustworthiness	202.07347025266063	
19.0	117.60058541721264	pulse	3.0	t		27.0	female	white	3.504576203740549	neutral	144	sub-06	1.0	2.0	144_neutral	1.0	trustworthiness	202.77345343934758	
20.0	118.00880057690483	face	0.0		146	40.0	male	white	1.868682849184242	neutral	172	sub-06	1.0	2.0	172_neutral	0.0		203.18166859903977	1.24164443254449
20.0	118.3005788669634	pulse	0.0	t		40.0	male	white	1.868682849184242	neutral	172	sub-06	1.0	2.0	172_neutral	0.0		203.47344688909834	
20.0	119.00056114808649	pulse	0.0	t		40.0	male	white	1.868682849184242	neutral	172	sub-06	1.0	2.0	172_neutral	0.0		204.17342917022143	
20.0	119.25044500944932	fix	1.0		1184	40.0	male	white	1.868682849184242	neutral	172	sub-06	1.0	2.0	172_neutral	0.0		204.42331303158426	10.008119894315314
20.0	119.70054554219314	pulse	1.0	t		40.0	male	white	1.868682849184242	neutral	172	sub-06	1.0	2.0	172_neutral	0.0		204.87341356432808	
20.0	120.40052691775054	pulse	1.0	t		40.0	male	white	1.868682849184242	neutral	172	sub-06	1.0	2.0	172_neutral	0.0		205.57339493988547	
20.0	121.1005140285506	pulse	1.0	t		40.0	male	white	1.868682849184242	neutral	172	sub-06	1.0	2.0	172_neutral	0.0		206.27338205068554	
20.0	121.80050838386705	pulse	1.0	t		40.0	male	white	1.868682849184242	neutral	172	sub-06	1.0	2.0	172_neutral	0.0		206.973376406002	
20.0	122.50048643902119	pulse	1.0	t		40.0	male	white	1.868682849184242	neutral	172	sub-06	1.0	2.0	172_neutral	0.0		207.67335446115612	
20.0	123.20046962570814	pulse	1.0	t		40.0	male	white	1.868682849184242	neutral	172	sub-06	1.0	2.0	172_neutral	0.0		208.37333764784307	
20.0	123.90045251054107	pulse	1.0	t		40.0	male	white	1.868682849184242	neutral	172	sub-06	1.0	2.0	172_neutral	0.0		209.073320532676	
20.0	124.30877181014148	response	1.0	n		40.0	male	white	1.868682849184242	neutral	172	sub-06	1.0	2.0	172_neutral	0.0		209.48163983227641	
20.0	124.60042422674633	pulse	1.0	t		40.0	male	white	1.868682849184242	neutral	172	sub-06	1.0	2.0	172_neutral	0.0		209.77329224888126	
20.0	125.30042763770507	pulse	1.0	t		40.0	male	white	1.868682849184242	neutral	172	sub-06	1.0	2.0	172_neutral	0.0		210.47329565984	
20.0	126.00040901326429	pulse	1.0	t		40.0	male	white	1.868682849184242	neutral	172	sub-06	1.0	2.0	172_neutral	0.0		211.17327703539922	
20.0	126.7003994444658	pulse	1.0	t		40.0	male	white	1.868682849184242	neutral	172	sub-06	1.0	2.0	172_neutral	0.0		211.87326746660074	
20.0	127.40038142373487	pulse	1.0	t		40.0	male	white	1.868682849184242	neutral	172	sub-06	1.0	2.0	172_neutral	0.0		212.5732494458698	
20.0	128.10036611969554	pulse	1.0	t		40.0	male	white	1.868682849184242	neutral	172	sub-06	1.0	2.0	172_neutral	0.0		213.27323414183047	
20.0	128.80035624904303	pulse	1.0	t		40.0	male	white	1.868682849184242	neutral	172	sub-06	1.0	2.0	172_neutral	0.0		213.97322427117797	
21.0	129.25856490376464	face	0.0		146	19.0	female	white	4.298846000795861	smiling	100	sub-06	1.0	2.0	100_smiling	0.0		214.43143292589957	1.24164503625434
21.0	129.50034577468068	pulse	0.0	t		19.0	female	white	4.298846000795861	smiling	100	sub-06	1.0	2.0	100_smiling	0.0		214.67321379681562	
21.0	130.20032322612678	pulse	0.0	t		19.0	female	white	4.298846000795861	smiling	100	sub-06	1.0	2.0	100_smiling	0.0		215.37319124826172	
21.0	130.50020994001898	fix	1.0		444	19.0	female	white	4.298846000795861	smiling	100	sub-06	1.0	2.0	100_smiling	0.0		215.6730779621539	3.7582517294013087
21.0	130.90031577031368	pulse	1.0	t		19.0	female	white	4.298846000795861	smiling	100	sub-06	1.0	2.0	100_smiling	0.0		216.07318379244862	
21.0	131.60029412732365	pulse	1.0	t		19.0	female	white	4.298846000795861	smiling	100	sub-06	1.0	2.0	100_smiling	0.0		216.77316214945859	
21.0	132.30030478279878	pulse	1.0	t		19.0	female	white	4.298846000795861	smiling	100	sub-06	1.0	2.0	100_smiling	0.0		217.4731728049337	
21.0	133.00026623594022	pulse	1.0	t		19.0	female	white	4.298846000795861	smiling	100	sub-06	1.0	2.0	100_smiling	0.0		218.17313425807515	
21.0	133.70024821520747	pulse	1.0	t		19.0	female	white	4.298846000795861	smiling	100	sub-06	1.0	2.0	100_smiling	0.0		218.8731162373424	
22.0	134.25846166942029	face	0.0		146	19.0	female	white	4.298846000795861	neutral	100	sub-06	1.0	2.0	100_neutral	0.0		219.43132969155522	1.2416426214149396
22.0	134.40024860761878	pulse	0.0	t		19.0	female	white	4.298846000795861	neutral	100	sub-06	1.0	2.0	100_neutral	0.0		219.5731166297537	
22.0	135.10022032382403	pulse	0.0	t		19.0	female	white	4.298846000795861	neutral	100	sub-06	1.0	2.0	100_neutral	0.0		220.27308834595897	
22.0	135.50010429083522	fix	1.0		444	19.0	female	white	4.298846000795861	neutral	100	sub-06	1.0	2.0	100_neutral	0.0		220.67297231297016	3.758255049804575
22.0	135.80021196244525	pulse	1.0	t		19.0	female	white	4.298846000795861	neutral	100	sub-06	1.0	2.0	100_neutral	0.0		220.97307998458018	
22.0	136.5001987713913	pulse	1.0	t		19.0	female	white	4.298846000795861	neutral	100	sub-06	1.0	2.0	100_neutral	0.0		221.67306679352623	
22.0	137.2001813543684	pulse	1.0	t		19.0	female	white	4.298846000795861	neutral	100	sub-06	1.0	2.0	100_neutral	0.0		222.37304937650333	
22.0	137.90016303178163	pulse	1.0	t		19.0	female	white	4.298846000795861	neutral	100	sub-06	1.0	2.0	100_neutral	0.0		223.07303105391657	
22.0	138.6001552741127	pulse	1.0	t		19.0	female	white	4.298846000795861	neutral	100	sub-06	1.0	2.0	100_neutral	0.0		223.77302329624763	
23.0	139.2583593406398	face	0.0		146	26.0	male	white	2.7966573816155993	smiling	117	sub-06	1.0	2.0	117_smiling	0.0		224.43122736277473	1.241639602867508
23.0	139.30014479975034	pulse	0.0	t		26.0	male	white	2.7966573816155993	smiling	117	sub-06	1.0	2.0	117_smiling	0.0		224.47301282188528	
23.0	140.00011862893916	pulse	0.0	t		26.0	male	white	2.7966573816155993	smiling	117	sub-06	1.0	2.0	117_smiling	0.0		225.1729866510741	
23.0	140.4999989435073	fix	1.0		443	26.0	male	white	2.7966573816155993	smiling	117	sub-06	1.0	2.0	117_smiling	0.0		225.67286696564224	3.7582547479505592
23.0	140.70010996570636	pulse	1.0	t		26.0	male	white	2.7966573816155993	smiling	117	sub-06	1.0	2.0	117_smiling	0.0		225.8729779878413	
23.0	141.400094359813	pulse	1.0	t		26.0	male	white	2.7966573816155993	smiling	117	sub-06	1.0	2.0	117_smiling	0.0		226.57296238194795	
23.0	142.10007633908026	pulse	1.0	t		26.0	male	white	2.7966573816155993	smiling	117	sub-06	1.0	2.0	117_smiling	0.0		227.2729443612152	
23.0	142.80006103504275	pulse	1.0	t		26.0	male	white	2.7966573816155993	smiling	117	sub-06	1.0	2.0	117_smiling	0.0		227.97292905717768	
23.0	143.50004542914758	pulse	1.0	t		26.0	male	white	2.7966573816155993	smiling	117	sub-06	1.0	2.0	117_smiling	0.0		228.6729134512825	
23.0	144.20002861583635	pulse	1.0	t		26.0	male	white	2.7966573816155993	smiling	117	sub-06	1.0	2.0	117_smiling	0.0		229.37289663797128	
24.0	144.25825369145787	face	0.0		147	23.0	male	white	2.6275368085953046	neutral	141	sub-06	1.0	2.0	141_neutral	0.0		229.4311217135928	1.2416420177069085
24.0	144.90002176373127	pulse	0.0	t		23.0	male	white	2.6275368085953046	neutral	141	sub-06	1.0	2.0	141_neutral	0.0		230.0728897858662	
24.0	145.49989570916478	fix	1.0		443	23.0	male	white	2.6275368085953046	neutral	141	sub-06	1.0	2.0	141_neutral	0.0		230.6727637312997	3.758251427545474
24.0	145.6000094782412	pulse	1.0	t		23.0	male	white	2.6275368085953046	neutral	141	sub-06	1.0	2.0	141_neutral	0.0		230.77287750037613	
24.0	146.29999175936427	pulse	1.0	t		23.0	male	white	2.6275368085953046	neutral	141	sub-06	1.0	2.0	141_neutral	0.0		231.4728597814992	
24.0	146.99997766274464	pulse	1.0	t		23.0	male	white	2.6275368085953046	neutral	141	sub-06	1.0	2.0	141_neutral	0.0		232.17284568487958	
24.0	147.6999548123349	pulse	1.0	t		23.0	male	white	2.6275368085953046	neutral	141	sub-06	1.0	2.0	141_neutral	0.0		232.87282283446984	
24.0	148.39996365668048	pulse	1.0	t		23.0	male	white	2.6275368085953046	neutral	141	sub-06	1.0	2.0	141_neutral	0.0		233.57283167881542	
24.0	149.09993808957915	pulse	1.0	t		23.0	male	white	2.6275368085953046	neutral	141	sub-06	1.0	2.0	141_neutral	0.0		234.2728061117141	
25.0	149.25814713671025	face	0.0		147	28.0	female	white	5.676880222841227	smiling	124	sub-06	1.0	2.0	124_smiling	0.0		234.43101515884518	1.2416474510937405
25.0	149.799912522476	pulse	0.0	t		28.0	female	white	5.676880222841227	smiling	124	sub-06	1.0	2.0	124_smiling	0.0		234.97278054461094	
25.0	150.499794587804	fix	1.0		444	28.0	female	white	5.676880222841227	smiling	124	sub-06	1.0	2.0	124_smiling	0.0		235.67266260993893	3.758250220127593
25.0	150.50726307944387	pulse	1.0	t		28.0	female	white	5.676880222841227	smiling	124	sub-06	1.0	2.0	124_smiling	0.0		235.6801311015788	
25.0	151.1998936867367	pulse	1.0	t		28.0	female	white	5.676880222841227	smiling	124	sub-06	1.0	2.0	124_smiling	0.0		236.37276170887162	
25.0	151.89987808084334	pulse	1.0	t		28.0	female	white	5.676880222841227	smiling	124	sub-06	1.0	2.0	124_smiling	0.0		237.07274610297827	
25.0	152.59985704156315	pulse	1.0	t		28.0	female	white	5.676880222841227	smiling	124	sub-06	1.0	2.0	124_smiling	0.0		237.7727250636981	
25.0	153.2998462653468	pulse	1.0	t		28.0	female	white	5.676880222841227	smiling	124	sub-06	1.0	2.0	124_smiling	0.0		238.47271428748172	
25.0	153.99982915017972	pulse	1.0	t		28.0	female	white	5.676880222841227	smiling	124	sub-06	1.0	2.0	124_smiling	0.0		239.17269717231466	
26.0	154.25804480793158	face	0.0		146	37.0	male	white	3.898925586947871	smiling	101	sub-06	1.0	2.0	101_smiling	0.0		239.43091283006652	1.2416420177050895
26.0	154.6998150535601	pulse	0.0	t		37.0	male	white	3.898925586947871	smiling	101	sub-06	1.0	2.0	101_smiling	0.0		239.87268307569502	
26.0	155.39979552355362	pulse	0.0	t		37.0	male	white	3.898925586947871	smiling	101	sub-06	1.0	2.0	101_smiling	0.0		240.57266354568856	
26.0	155.49968682563667	fix	1.0		444	37.0	male	white	3.898925586947871	smiling	101	sub-06	1.0	2.0	101_smiling	0.0		240.6725548477716	3.758255653514425
26.0	156.09978987886825	pulse	1.0	t		37.0	male	white	3.898925586947871	smiling	101	sub-06	1.0	2.0	101_smiling	0.0		241.27265790100319	
26.0	156.79978453603871	pulse	1.0	t		37.0	male	white	3.898925586947871	smiling	101	sub-06	1.0	2.0	101_smiling	0.0		241.97265255817365	
26.0	157.4997502151473	pulse	1.0	t		37.0	male	white	3.898925586947871	smiling	101	sub-06	1.0	2.0	101_smiling	0.0		242.67261823728222	
26.0	158.19974457046192	pulse	1.0	t		37.0	male	white	3.898925586947871	smiling	101	sub-06	1.0	2.0	101_smiling	0.0		243.37261259259685	
26.0	158.89974254803565	pulse	1.0	t		37.0	male	white	3.898925586947871	smiling	101	sub-06	1.0	2.0	101_smiling	0.0		244.07261057017058	
27.0	159.2579424791511	face	0.0		146	30.0	female	black	2.7345801830481498	neutral	062	sub-06	1.0	2.0	062_neutral	0.0		244.43081050128603	1.2416405084331927
27.0	159.59971728278651	pulse	0.0	t		30.0	female	black	2.7345801830481498	neutral	062	sub-06	1.0	2.0	062_neutral	0.0		244.77258530492145	
27.0	160.2996944323786	pulse	0.0	t		30.0	female	black	2.7345801830481498	neutral	062	sub-06	1.0	2.0	062_neutral	0.0		245.47256245451354	
27.0	160.4995829875843	fix	1.0		444	30.0	female	black	2.7345801830481498	neutral	062	sub-06	1.0	2.0	062_neutral	0.0		245.67245100971923	3.7582538423848746
27.0	160.9996933155162	pulse	1.0	t		30.0	female	black	2.7345801830481498	neutral	062	sub-06	1.0	2.0	062_neutral	0.0		246.17256133765113	
27.0	161.69966654099517	pulse	1.0	t		30.0	female	black	2.7345801830481498	neutral	062	sub-06	1.0	2.0	062_neutral	0.0		246.8725345631301	
27.0	162.39965002953613	pulse	1.0	t		30.0	female	black	2.7345801830481498	neutral	062	sub-06	1.0	2.0	062_neutral	0.0		247.57251805167107	
27.0	163.09964015888363	pulse	1.0	t		30.0	female	black	2.7345801830481498	neutral	062	sub-06	1.0	2.0	062_neutral	0.0		248.27250818101857	
27.0	163.79962515670013	pulse	1.0	t		30.0	female	black	2.7345801830481498	neutral	062	sub-06	1.0	2.0	062_neutral	0.0		248.97249317883507	
28.0	164.25783682996916	face	0.0		146	20.0	male	black	2.609629924393156	neutral	043	sub-06	1.0	2.0	043_neutral	0.0		249.4307048521041	1.2416420177050895
28.0	164.49961649346733	pulse	0.0	t		20.0	male	black	2.609629924393156	neutral	043	sub-06	1.0	2.0	043_neutral	0.0		249.67248451560226	
28.0	165.19959243563972	pulse	0.0	t		20.0	male	black	2.609629924393156	neutral	043	sub-06	1.0	2.0	043_neutral	0.0		250.37246045777465	
28.0	165.49947884767425	fix	1.0		444	20.0	male	black	2.609629924393156	neutral	043	sub-06	1.0	2.0	043_neutral	0.0		250.6723468698092	3.7582538423866936
28.0	165.8995913187755	pulse	1.0	t		20.0	male	black	2.609629924393156	neutral	043	sub-06	1.0	2.0	043_neutral	0.0		251.07245934091043	
28.0	166.59957178877085	pulse	1.0	t		20.0	male	black	2.609629924393156	neutral	043	sub-06	1.0	2.0	043_neutral	0.0		251.77243981090578	
28.0	167.29955105134468	pulse	1.0	t		20.0	male	black	2.609629924393156	neutral	043	sub-06	1.0	2.0	043_neutral	0.0		252.4724190734796	
28.0	167.99953967141846	pulse	1.0	t		20.0	male	black	2.609629924393156	neutral	043	sub-06	1.0	2.0	043_neutral	0.0		253.1724076935534	
28.0	168.6995177265744	pulse	1.0	t		20.0	male	black	2.609629924393156	neutral	043	sub-06	1.0	2.0	043_neutral	0.0		253.87238574870935	
29.0	169.25773269006095	face	0.0		146	31.0	female	white	2.1822522881018704	smiling	102	sub-06	1.0	2.0	102_smiling	0.0		254.43060071219588	1.2416462436722213
29.0	169.39951570414632	pulse	0.0	t		31.0	female	white	2.1822522881018704	smiling	102	sub-06	1.0	2.0	102_smiling	0.0		254.57238372628126	
29.0	170.09948802406143	pulse	0.0	t		31.0	female	white	2.1822522881018704	smiling	102	sub-06	1.0	2.0	102_smiling	0.0		255.27235604619636	
29.0	170.49937893373317	fix	1.0		444	31.0	female	white	2.1822522881018704	smiling	102	sub-06	1.0	2.0	102_smiling	0.0		255.6722469558681	3.7582484089998616
29.0	170.7994853979253	pulse	1.0	t		31.0	female	white	2.1822522881018704	smiling	102	sub-06	1.0	2.0	102_smiling	0.0		255.97235342006024	
29.0	171.49946315122543	pulse	1.0	t		31.0	female	white	2.1822522881018704	smiling	102	sub-06	1.0	2.0	102_smiling	0.0		256.67233117336036	
29.0	172.19945116758936	pulse	1.0	t		31.0	female	white	2.1822522881018704	smiling	102	sub-06	1.0	2.0	102_smiling	0.0		257.3723191897243	
29.0	172.89943616540586	pulse	1.0	t		31.0	female	white	2.1822522881018704	smiling	102	sub-06	1.0	2.0	102_smiling	0.0		258.0723041875408	
29.0	173.59941603168954	pulse	1.0	t		31.0	female	white	2.1822522881018704	smiling	102	sub-06	1.0	2.0	102_smiling	0.0		258.7722840538245	
30.0	174.25762734273303	face	0.0		146	21.0	male	black	2.969757262236371	neutral	137	sub-06	1.0	2.0	137_neutral	0.0		259.43049536486797	1.2416432251247898
30.0	174.29941099071402	pulse	0.0	t		21.0	male	black	2.969757262236371	neutral	137	sub-06	1.0	2.0	137_neutral	0.0		259.47227901284896	
30.0	174.99940776086805	pulse	0.0	t		21.0	male	black	2.969757262236371	neutral	137	sub-06	1.0	2.0	137_neutral	0.0		260.172275783003	
30.0	175.49927056785782	fix	1.0		443	21.0	male	black	2.969757262236371	neutral	137	sub-06	1.0	2.0	137_neutral	0.0		260.67213858999276	3.7582499182735774
30.0	175.69937977892732	pulse	1.0	t		21.0	male	black	2.969757262236371	neutral	137	sub-06	1.0	2.0	137_neutral	0.0		260.87224780106226	
30.0	176.39936356932412	pulse	1.0	t		21.0	male	black	2.969757262236371	neutral	137	sub-06	1.0	2.0	137_neutral	0.0		261.57223159145906	
30.0	177.09934615230122	pulse	1.0	t		21.0	male	black	2.969757262236371	neutral	137	sub-06	1.0	2.0	137_neutral	0.0		262.27221417443616	
30.0	177.79932632044074	pulse	1.0	t		21.0	male	black	2.969757262236371	neutral	137	sub-06	1.0	2.0	137_neutral	0.0		262.9721943425757	
30.0	178.49933093881918	pulse	1.0	t		21.0	male	black	2.969757262236371	neutral	137	sub-06	1.0	2.0	137_neutral	0.0		263.6721989609541	
30.0	179.19931503107182	pulse	1.0	t		21.0	male	black	2.969757262236371	neutral	137	sub-06	1.0	2.0	137_neutral	0.0		264.37218305320675	
31.0	179.2575204861314	face	0.0		147	20.0	female	white	3.9502586549940313	smiling	091	sub-06	1.0	2.0	091_smiling	0.0		264.43038850826633	1.2416462436722213
31.0	179.8992948973555	pulse	0.0	t		20.0	female	white	3.9502586549940313	smiling	091	sub-06	1.0	2.0	091_smiling	0.0		265.07216291949044	
31.0	180.49916672980362	fix	1.0		444	20.0	female	white	3.9502586549940313	smiling	091	sub-06	1.0	2.0	091_smiling	0.0		265.67203475193855	3.7665847332118574
31.0	180.59928080073587	pulse	1.0	t		20.0	female	white	3.9502586549940313	smiling	091	sub-06	1.0	2.0	091_smiling	0.0		265.7721488228708	
31.0	181.29926700597207	pulse	1.0	t		20.0	female	white	3.9502586549940313	smiling	091	sub-06	1.0	2.0	091_smiling	0.0		266.472135028107	
31.0	181.99924445741817	pulse	1.0	t		20.0	female	white	3.9502586549940313	smiling	091	sub-06	1.0	2.0	091_smiling	0.0		267.1721124795531	
31.0	182.69922522926572	pulse	1.0	t		20.0	female	white	3.9502586549940313	smiling	091	sub-06	1.0	2.0	091_smiling	0.0		267.87209325140066	
31.0	183.39922713095075	pulse	1.0	t		20.0	female	white	3.9502586549940313	smiling	091	sub-06	1.0	2.0	091_smiling	0.0		268.5720951530857	
31.0	184.09919945086585	pulse	1.0	t		20.0	female	white	3.9502586549940313	smiling	091	sub-06	1.0	2.0	091_smiling	0.0		269.2720674730008	
32.0	184.26575146301548	face	0.0		147	31.0	female	east_asian	3.395941106247513	smiling	087	sub-06	1.0	2.0	087_smiling	0.0		269.4386194851504	1.249975927077685
32.0	184.7991877690838	pulse	0.0	t		31.0	female	east_asian	3.395941106247513	smiling	087	sub-06	1.0	2.0	087_smiling	0.0		269.97205579121874	
32.0	185.49918484109367	pulse	0.0	t		31.0	female	east_asian	3.395941106247513	smiling	087	sub-06	1.0	2.0	087_smiling	0.0		270.6720528632286	
32.0	185.51572739009316	fix	1.0		443	31.0	female	east_asian	3.395941106247513	smiling	087	sub-06	1.0	2.0	087_smiling	0.0		270.6885954122281	3.7499157070451474
32.0	186.19916138697408	pulse	1.0	t		31.0	female	east_asian	3.395941106247513	smiling	087	sub-06	1.0	2.0	087_smiling	0.0		271.372029409109	
32.0	186.89914457366103	pulse	1.0	t		31.0	female	east_asian	3.395941106247513	smiling	087	sub-06	1.0	2.0	087_smiling	0.0		272.07201259579597	
32.0	187.59912293067282	pulse	1.0	t		31.0	female	east_asian	3.395941106247513	smiling	087	sub-06	1.0	2.0	087_smiling	0.0		272.77199095280776	
32.0	188.29911487114805	pulse	1.0	t		31.0	female	east_asian	3.395941106247513	smiling	087	sub-06	1.0	2.0	087_smiling	0.0		273.471982893283	
32.0	188.99909775598098	pulse	1.0	t		31.0	female	east_asian	3.395941106247513	smiling	087	sub-06	1.0	2.0	087_smiling	0.0		274.1719657781159	
33.0	189.2656430971383	face	0.0		146	32.0	male	white	2.389176283326701	neutral	092	sub-06	1.0	2.0	092_neutral	1.0	dominance	274.43851111927324	1.241647149237906
33.0	189.69908516863507	pulse	0.0	t		32.0	male	white	2.389176283326701	neutral	092	sub-06	1.0	2.0	092_neutral	1.0	dominance	274.87195319077	
33.0	190.39906352564503	pulse	0.0	t		32.0	male	white	2.389176283326701	neutral	092	sub-06	1.0	2.0	092_neutral	1.0	dominance	275.57193154777997	
33.0	190.50729024637621	fix	1.0		177	32.0	male	white	2.389176283326701	neutral	092	sub-06	1.0	2.0	092_neutral	1.0	dominance	275.68015826851115	1.4999690598833695
33.0	191.09905848467133	pulse	1.0	t		32.0	male	white	2.389176283326701	neutral	092	sub-06	1.0	2.0	092_neutral	1.0	dominance	276.27192650680627	
33.0	191.79904499176155	pulse	1.0	t		32.0	male	white	2.389176283326701	neutral	092	sub-06	1.0	2.0	092_neutral	1.0	dominance	276.9719130138965	
33.0	192.00725930625958	rating	2.0		295	32.0	male	white	2.389176283326701	neutral	092	sub-06	1.0	2.0	092_neutral	1.0	dominance	277.1801273283945	2.499947024480207
33.0	192.4990333099795	pulse	2.0	t		32.0	male	white	2.389176283326701	neutral	092	sub-06	1.0	2.0	092_neutral	1.0	dominance	277.67190133211443	
33.0	193.19901740223213	pulse	2.0	t		32.0	male	white	2.389176283326701	neutral	092	sub-06	1.0	2.0	092_neutral	1.0	dominance	278.37188542436706	
33.0	193.83233565288538	response	2.0	d		32.0	male	white	2.389176283326701	neutral	092	sub-06	1.0	2.0	092_neutral	1.0	dominance	279.0052036750203	
33.0	193.89899213698482	pulse	2.0	t		32.0	male	white	2.389176283326701	neutral	092	sub-06	1.0	2.0	092_neutral	1.0	dominance	279.07186015911975	
33.0	194.5072063307398	fix	3.0		443	32.0	male	white	2.389176283326701	neutral	092	sub-06	1.0	2.0	092_neutral	1.0	dominance	279.6800743528747	3.7582517294013087
33.0	194.5989898127027	pulse	3.0	t		32.0	male	white	2.389176283326701	neutral	092	sub-06	1.0	2.0	092_neutral	1.0	dominance	279.77185783483765	
33.0	195.29896816971268	pulse	3.0	t		32.0	male	white	2.389176283326701	neutral	092	sub-06	1.0	2.0	092_neutral	1.0	dominance	280.4718361918476	
33.0	195.99895014897993	pulse	3.0	t		32.0	male	white	2.389176283326701	neutral	092	sub-06	1.0	2.0	092_neutral	1.0	dominance	281.17181817111486	
33.0	196.6989511451011	pulse	3.0	t		32.0	male	white	2.389176283326701	neutral	092	sub-06	1.0	2.0	092_neutral	1.0	dominance	281.871819167236	
33.0	197.39892437058006	pulse	3.0	t		32.0	male	white	2.389176283326701	neutral	092	sub-06	1.0	2.0	092_neutral	1.0	dominance	282.571792392715	
33.0	198.09890816097686	pulse	3.0	t		32.0	male	white	2.389176283326701	neutral	092	sub-06	1.0	2.0	092_neutral	1.0	dominance	283.2717761831118	
34.0	198.2654580601411	face	0.0		147	22.0	male	black	2.767608436132113	neutral	044	sub-06	1.0	2.0	044_neutral	1.0	attractiveness	283.43832608227603	1.2499771344992041
34.0	198.79889587548678	pulse	0.0	t		22.0	male	black	2.767608436132113	neutral	044	sub-06	1.0	2.0	044_neutral	1.0	attractiveness	283.9717638976217	
34.0	199.49887423249675	pulse	0.0	t		22.0	male	black	2.767608436132113	neutral	044	sub-06	1.0	2.0	044_neutral	1.0	attractiveness	284.6717422546317	
34.0	199.5154351946403	fix	1.0		176	22.0	male	black	2.767608436132113	neutral	044	sub-06	1.0	2.0	044_neutral	1.0	attractiveness	284.68830321677524	1.4916354523647897
34.0	200.19887371934237	pulse	1.0	t		22.0	male	black	2.767608436132113	neutral	044	sub-06	1.0	2.0	044_neutral	1.0	attractiveness	285.3717417414773	
34.0	200.8988475485312	pulse	1.0	t		22.0	male	black	2.767608436132113	neutral	044	sub-06	1.0	2.0	044_neutral	1.0	attractiveness	286.07171557066613	
34.0	201.0070706470051	rating	2.0		295	22.0	male	black	2.767608436132113	neutral	044	sub-06	1.0	2.0	044_neutral	1.0	attractiveness	286.17993866914003	2.4999467226261913
34.0	201.59884220570166	pulse	2.0	t		22.0	male	black	2.767608436132113	neutral	044	sub-06	1.0	2.0	044_neutral	1.0	attractiveness	286.7717102278366	
34.0	202.29882327940504	pulse	2.0	t		22.0	male	black	2.767608436132113	neutral	044	sub-06	1.0	2.0	044_neutral	1.0	attractiveness	287.47169130154	
34.0	202.9988128050427	pulse	2.0	t		22.0	male	black	2.767608436132113	neutral	044	sub-06	1.0	2.0	044_neutral	1.0	attractiveness	288.1716808271776	
34.0	203.34045871667695	response	2.0	w		22.0	male	black	2.767608436132113	neutral	044	sub-06	1.0	2.0	044_neutral	1.0	attractiveness	288.5133267388119	
34.0	203.50701736963128	fix	3.0		443	22.0	male	black	2.767608436132113	neutral	044	sub-06	1.0	2.0	044_neutral	1.0	attractiveness	288.6798853917662	3.7582565590782906
34.0	203.69879750100517	pulse	3.0	t		22.0	male	black	2.767608436132113	neutral	044	sub-06	1.0	2.0	044_neutral	1.0	attractiveness	288.8716655231401	
34.0	204.39877857470856	pulse	3.0	t		22.0	male	black	2.767608436132113	neutral	044	sub-06	1.0	2.0	044_neutral	1.0	attractiveness	289.5716465968435	
34.0	205.09876749663636	pulse	3.0	t		22.0	male	black	2.767608436132113	neutral	044	sub-06	1.0	2.0	044_neutral	1.0	attractiveness	290.2716355187713	
34.0	205.7987491740496	pulse	3.0	t		22.0	male	black	2.767608436132113	neutral	044	sub-06	1.0	2.0	044_neutral	1.0	attractiveness	290.9716171961845	
34.0	206.49873507742996	pulse	3.0	t		22.0	male	black	2.767608436132113	neutral	044	sub-06	1.0	2.0	044_neutral	1.0	attractiveness	291.6716030995649	
34.0	207.19871464185962	pulse	3.0	t		22.0	male	black	2.767608436132113	neutral	044	sub-06	1.0	2.0	044_neutral	1.0	attractiveness	292.37158266399456	
35.0	207.26527392870958	face	0.0		147	22.0	female	west_asian	3.8205332272184642	neutral	066	sub-06	1.0	2.0	066_neutral	0.0		292.4381419508445	1.241641715851074
35.0	207.89870628048084	pulse	0.0	t		22.0	female	west_asian	3.8205332272184642	neutral	066	sub-06	1.0	2.0	066_neutral	0.0		293.0715743026158	
35.0	208.50691564456065	fix	1.0		443	22.0	female	west_asian	3.8205332272184642	neutral	066	sub-06	1.0	2.0	066_neutral	0.0		293.6797836666956	3.758252936821009
35.0	208.59869278757105	pulse	1.0	t		22.0	female	west_asian	3.8205332272184642	neutral	066	sub-06	1.0	2.0	066_neutral	0.0		293.771560809706	
35.0	209.29867778538755	pulse	1.0	t		22.0	female	west_asian	3.8205332272184642	neutral	066	sub-06	1.0	2.0	066_neutral	0.0		294.4715458075225	
35.0	209.99866127393034	pulse	1.0	t		22.0	female	west_asian	3.8205332272184642	neutral	066	sub-06	1.0	2.0	066_neutral	0.0		295.1715292960653	
35.0	210.6986420457779	pulse	1.0	t		22.0	female	west_asian	3.8205332272184642	neutral	066	sub-06	1.0	2.0	066_neutral	0.0		295.8715100679128	
35.0	211.3986385140779	pulse	1.0	t		22.0	female	west_asian	3.8205332272184642	neutral	066	sub-06	1.0	2.0	066_neutral	0.0		296.57150653621284	
35.0	212.09861747479772	pulse	1.0	t		22.0	female	west_asian	3.8205332272184642	neutral	066	sub-06	1.0	2.0	066_neutral	0.0		297.27148549693266	
36.0	212.26516858138166	face	0.0		147	26.0	female	white	4.854755272582572	neutral	027	sub-06	1.0	2.0	027_neutral	0.0		297.4380366035166	1.250017281188775
36.0	212.79860911341893	pulse	0.0	t		26.0	female	white	4.854755272582572	neutral	027	sub-06	1.0	2.0	027_neutral	0.0		297.97147713555387	
36.0	213.49858415002564	pulse	0.0	t		26.0	female	white	4.854755272582572	neutral	027	sub-06	1.0	2.0	027_neutral	0.0		298.67145217216057	
36.0	213.51518586257043	fix	1.0		443	26.0	female	white	4.854755272582572	neutral	027	sub-06	1.0	2.0	027_neutral	0.0		298.68805388470537	3.749877975193158
36.0	214.19857790163223	pulse	1.0	t		26.0	female	white	4.854755272582572	neutral	027	sub-06	1.0	2.0	027_neutral	0.0		299.37144592376717	
36.0	214.89856108831918	pulse	1.0	t		26.0	female	white	4.854755272582572	neutral	027	sub-06	1.0	2.0	027_neutral	0.0		300.0714291104541	
36.0	215.59853672863574	pulse	1.0	t		26.0	female	white	4.854755272582572	neutral	027	sub-06	1.0	2.0	027_neutral	0.0		300.77140475077067	
36.0	216.29853198951605	pulse	1.0	t		26.0	female	white	4.854755272582572	neutral	027	sub-06	1.0	2.0	027_neutral	0.0		301.471400011651	
36.0	216.99851608176687	pulse	1.0	t		26.0	female	white	4.854755272582572	neutral	027	sub-06	1.0	2.0	027_neutral	0.0		302.1713841039018	
37.0	217.2650638377636	face	0.0		146	27.0	female	white	3.504576203740549	smiling	144	sub-06	1.0	2.0	144_smiling	0.0		302.4379318598985	1.2416429232707742
37.0	217.69848900539182	pulse	0.0	t		27.0	female	white	3.504576203740549	smiling	144	sub-06	1.0	2.0	144_smiling	0.0		302.87135702752676	
37.0	218.39848939780313	pulse	0.0	t		27.0	female	white	3.504576203740549	smiling	144	sub-06	1.0	2.0	144_smiling	0.0		303.57135741993807	
37.0	218.50670676103437	fix	1.0		444	27.0	female	white	3.504576203740549	smiling	144	sub-06	1.0	2.0	144_smiling	0.0		303.6795747831693	3.758252333111159
37.0	219.09847650860138	pulse	1.0	t		27.0	female	white	3.504576203740549	smiling	144	sub-06	1.0	2.0	144_smiling	0.0		304.2713445307363	
37.0	219.79848293810937	pulse	1.0	t		27.0	female	white	3.504576203740549	smiling	144	sub-06	1.0	2.0	144_smiling	0.0		304.9713509602443	
37.0	220.4984419764114	pulse	1.0	t		27.0	female	white	3.504576203740549	smiling	144	sub-06	1.0	2.0	144_smiling	0.0		305.67130999854635	
37.0	221.19842365382465	pulse	1.0	t		27.0	female	white	3.504576203740549	smiling	144	sub-06	1.0	2.0	144_smiling	0.0		306.3712916759596	
37.0	221.89841408502798	pulse	1.0	t		27.0	female	white	3.504576203740549	smiling	144	sub-06	1.0	2.0	144_smiling	0.0		307.0712821071629	
38.0	222.26495909414552	face	0.0		146	21.0	male	black	2.969757262236371	smiling	137	sub-06	1.0	2.0	137_smiling	0.0		307.43782711628046	1.2416522807689034
38.0	222.5984021013919	pulse	0.0	t		21.0	male	black	2.969757262236371	smiling	137	sub-06	1.0	2.0	137_smiling	0.0		307.77127012352685	
38.0	223.29837894912816	pulse	0.0	t		21.0	male	black	2.969757262236371	smiling	137	sub-06	1.0	2.0	137_smiling	0.0		308.4712469712631	
38.0	223.50661137491443	fix	1.0		444	21.0	male	black	2.969757262236371	smiling	137	sub-06	1.0	2.0	137_smiling	0.0		308.67947939704936	3.758239353355748
38.0	223.99837511557234	pulse	1.0	t		21.0	male	black	2.969757262236371	smiling	137	sub-06	1.0	2.0	137_smiling	0.0		309.1712431377073	
38.0	224.69834834105131	pulse	1.0	t		21.0	male	black	2.969757262236371	smiling	137	sub-06	1.0	2.0	137_smiling	0.0		309.87121636318625	
38.0	225.3983372629791	pulse	1.0	t		21.0	male	black	2.969757262236371	smiling	137	sub-06	1.0	2.0	137_smiling	0.0		310.57120528511405	
38.0	226.0983219589416	pulse	1.0	t		21.0	male	black	2.969757262236371	smiling	137	sub-06	1.0	2.0	137_smiling	0.0		311.27118998107653	
38.0	226.79831269199894	pulse	1.0	t		21.0	male	black	2.969757262236371	smiling	137	sub-06	1.0	2.0	137_smiling	0.0		311.9711807141339	
39.0	227.26485072827018	face	0.0		146	24.0	female	east_asian	4.409868682849185	neutral	030	sub-06	1.0	2.0	030_neutral	0.0		312.4377187504051	1.2416453381083556
39.0	227.4983025194906	pulse	0.0	t		24.0	female	east_asian	4.409868682849185	neutral	030	sub-06	1.0	2.0	030_neutral	0.0		312.67117054162554	
39.0	228.1982823857761	pulse	0.0	t		24.0	female	east_asian	4.409868682849185	neutral	030	sub-06	1.0	2.0	030_neutral	0.0		313.37115040791105	
39.0	228.50649606637853	fix	1.0		444	24.0	female	east_asian	4.409868682849185	neutral	030	sub-06	1.0	2.0	030_neutral	0.0		313.67936408851347	3.749918725594398
39.0	228.8982697984302	pulse	1.0	t		24.0	female	east_asian	4.409868682849185	neutral	030	sub-06	1.0	2.0	030_neutral	0.0		314.0711378205651	
39.0	229.5982448350369	pulse	1.0	t		24.0	female	east_asian	4.409868682849185	neutral	030	sub-06	1.0	2.0	030_neutral	0.0		314.77111285717183	
39.0	230.2982361718041	pulse	1.0	t		24.0	female	east_asian	4.409868682849185	neutral	030	sub-06	1.0	2.0	030_neutral	0.0		315.471104193939	
39.0	230.99822781042712	pulse	1.0	t		24.0	female	east_asian	4.409868682849185	neutral	030	sub-06	1.0	2.0	030_neutral	0.0		316.17109583256206	
39.0	231.69822427872532	pulse	1.0	t		24.0	female	east_asian	4.409868682849185	neutral	030	sub-06	1.0	2.0	030_neutral	0.0		316.87109230086025	
40.0	232.25641479197293	fix	0.0		720													317.42928281410786	5.999887106301685
40.0	232.39819931533202	pulse	0.0	t														317.57106733746696	
40.0	233.09818189831094	pulse	0.0	t														318.2710499204459	
40.0	233.7981653868519	pulse	0.0	t														318.97103340898684	
40.0	234.49815249765197	pulse	0.0	t														319.6710205197869	
40.0	235.19813477877506	pulse	0.0	t														320.37100280091	
40.0	235.89812098400944	pulse	0.0	t														321.0709890061444	
40.0	236.5981077929555	pulse	0.0	t														321.7709758150904	
40.0	237.29821051414547	pulse	0.0	t														322.4710785362804	
40.0	237.998099823988	pulse	0.0	t														323.17096784612295	
