trial_nr	onset	event_type	phase	response	nr_frames	trial_type	stim_name	task_probe	onset_abs	duration
0.0	0.05460704390270621	baseline	0.0		41.0		baseline	0.0	30.65579647258528	0.34752513771354643
0.0	0.40213218161625264	ISI	1.0		11.0		baseline	0.0	31.003321610298826	0.09999876239544392
1.0	0.5021309440116966	baseline	0.0		48.0		baseline	0.0	31.10332037269427	0.3999905217592641
1.0	0.7022398532262741	pulse	0.0	t			baseline	0.0	31.303429281908848	
1.0	0.9021214657709606	ISI	1.0		11.0		baseline	0.0	31.503310894453534	0.09999695126634833
2.0	1.002118417037309	baseline	0.0		48.0		baseline	0.0	31.603307845719883	0.39997573087339333
2.0	1.4020941479107023	ISI	1.0		11.0		baseline	0.0	32.003283576593276	0.09999664941187802
2.0	1.40657971034625	pulse	1.0	t			baseline	0.0	32.007769139028824	
3.0	1.5020907973225803	baseline	0.0		48.0		baseline	0.0	32.103280226005154	0.3999929365973003
3.0	1.9020837339198806	ISI	1.0		11.0		baseline	0.0	32.503273162602454	0.09998034925229149
4.0	2.002064083172172	baseline	0.0		48.0		baseline	0.0	32.603253511854746	0.40000863304749146
4.0	2.102192643134458	pulse	0.0	t			baseline	0.0	32.70338207181703	
4.0	2.4020727162196636	ISI	1.0		11.0		baseline	0.0	33.00326214490224	0.09997401030068431
5.0	2.502046726520348	baseline	0.0		48.0		baseline	0.0	33.10323615520292	0.40001617941788936
5.0	2.8021912244166742	pulse	0.0	t			baseline	0.0	33.40338065309925	
5.0	2.9020629059382372	ISI	1.0		11.0		baseline	0.0	33.50325233462081	0.09999393271846202
6.0	3.0020568386566993	baseline	0.0		48.0		baseline	0.0	33.60324626733927	0.399989918049414
6.0	3.4020467567061132	ISI	1.0		11.0		baseline	0.0	34.00323618538869	0.10000389392689613
7.0	3.5020506506330094	baseline	0.0		47.0		baseline	0.0	34.10324007931558	0.39999172917850956
7.0	3.5061881744759376	pulse	0.0	t			baseline	0.0	34.10737760315851	
7.0	3.902042379811519	ISI	1.0		11.0		baseline	0.0	34.50323180849409	0.09999453642785738
8.0	4.002036916239376	baseline	0.0		48.0		baseline	0.0	34.60322634492195	0.39998901248509355
8.0	4.202148240292445	pulse	0.0	t			baseline	0.0	34.80333766897502	
8.0	4.40202592872447	ISI	1.0		11.0		baseline	0.0	35.00321535740704	0.09999121602504601
9.0	4.502017144749516	baseline	0.0		48.0		baseline	0.0	35.10320657343209	0.3999917291780548
9.0	4.902008873927571	ISI	1.0		11.0		baseline	0.0	35.503198302610144	0.09999815868604855
9.0	4.906584992805165	pulse	1.0	t			baseline	0.0	35.50777442148774	
10.0	5.002007032613619	baseline	0.0		48.0		baseline	0.0	35.60319646129619	0.3999977662742822
10.0	5.402004798887901	ISI	1.0		11.0		baseline	0.0	36.003194227570475	0.09999634755695297
11.0	5.502001146444854	baseline	0.0		48.0		baseline	0.0	36.10319057512743	0.399984786517507
11.0	5.60210435060344	pulse	0.0	t			baseline	0.0	36.203293779286014	
11.0	5.901985932962361	ISI	1.0		8.0		baseline	0.0	36.503175361644935	0.13332836279096227
12.0	6.035314295753324	car	0.0		44.0	object	car-67.jpg	0.0	36.6365037244359	0.3666509601548569
12.0	6.302079990920447	pulse	0.0	t		object	car-67.jpg	0.0	36.90326941960302	
12.0	6.4019652559081806	ISI	1.0		8.0	object	car-67.jpg	0.0	37.003154684590754	0.11667805162369405
13.0	6.518643307531875	car	0.0		46.0	object	car-12.jpg	0.0	37.11983273621445	0.38327863221138614
13.0	6.901921939743261	ISI	1.0		8.0	object	car-12.jpg	0.0	37.503111368425834	0.11667261823731678
14.0	7.0185945579805775	car	0.0		45.0	object	car-113.jpg	0.0	37.61978398666315	0.38331515664276594
14.0	7.010634646713697	pulse	0.0	t		object	car-113.jpg	0.0	37.61182407539627	
14.0	7.4019097146233435	ISI	1.0		8.0	object	car-113.jpg	0.0	38.00309914330592	0.11667684420490332
15.0	7.518586558828247	car	0.0		46.0	object	car-114.jpg	0.0	38.11977598751082	0.3833115343850295
15.0	7.7020134621207035	pulse	0.0	t		object	car-114.jpg	0.0	38.30320289080328	
15.0	7.901898093213276	ISI	1.0		8.0	object	car-114.jpg	0.0	38.50308752189585	0.11666326073827804
16.0	8.018561353951554	car	0.0		46.0	object	car-110.jpg	0.0	38.61975078263413	0.38332753269014574
16.0	8.4018888866417	ISI	1.0		8.0	object	car-110.jpg	0.0	39.003078315324274	0.11667744791429868
16.0	8.432755351810556	pulse	1.0	t		object	car-110.jpg	0.0	39.03394478049313	
17.0	8.518566334555999	car	0.0		46.0	object	car-109.jpg	0.0	39.11975576323857	0.3833103269662388
17.0	8.901876661522238	ISI	1.0		7.0	object	car-109.jpg	0.0	39.50306609020481	0.11667986275278963
18.0	9.018556524275027	car	0.0		46.0	object	car-66.jpg	0.0	39.6197459529576	0.383312741804275
18.0	9.101988589284701	pulse	0.0	t		object	car-66.jpg	0.0	39.703178017967275	
18.0	9.401869266079302	ISI	1.0		8.0	object	car-66.jpg	0.0	40.003058694761876	0.11667684420444857
19.0	9.51854611028375	car	0.0		46.0	object	car-134.jpg	0.0	40.119735538966324	0.38331062882116385
19.0	9.80196996484301	pulse	0.0	t		object	car-134.jpg	0.0	40.403159393525584	
19.0	9.901856739104915	ISI	1.0		6.0	object	car-134.jpg	0.0	40.50304616778749	0.11667593864012815
20.0	10.018532677745043	car	0.0		46.0	object	car-102.jpg	0.0	40.619722106427616	0.38331274180472974
20.0	10.401845419549772	ISI	1.0		8.0	object	car-102.jpg	0.0	41.003034848232346	0.11667382565656226
21.0	10.518519245206335	car	0.0		45.0	object	car-102.jpg	1.0	41.11970867388891	0.38331726962633184
21.0	10.510698187150865	pulse	0.0	t		object	car-102.jpg	1.0	41.11188761583344	
21.0	10.901836514832667	ISI	1.0		6.0	object	car-102.jpg	1.0	41.50302594351524	0.11666265702888268
21.0	10.94377410876632	response	1.0	b		object	car-102.jpg	1.0	41.54496353744889	
22.0	11.01849917186155	car	0.0		46.0	object	car-77.jpg	0.0	41.61968860054412	0.3833254197061251
22.0	11.201918830638533	pulse	0.0	t		object	car-77.jpg	0.0	41.80310825932111	
22.0	11.401824591567674	ISI	1.0		8.0	object	car-77.jpg	0.0	42.00301402025025	0.11667925904339427
23.0	11.518503850611069	car	0.0		46.0	object	car-95.jpg	0.0	42.11969327929364	0.3833009694667453
23.0	11.901804820077814	ISI	1.0		6.0	object	car-95.jpg	0.0	42.50299424876039	0.11669042767107385
23.0	11.949336085444429	pulse	1.0	t		object	car-95.jpg	0.0	42.550525514127	
24.0	12.018495247748888	body	0.0		46.0	body	body-134.jpg	0.0	42.61968467643146	0.38330398801508636
24.0	12.401799235763974	ISI	1.0		8.0	body	body-134.jpg	0.0	43.00298866444655	0.11668227759128058
25.0	12.518481513355255	body	0.0		46.0	body	body-79.jpg	0.0	43.11967094203783	0.38335771817082787
25.0	12.601948895377518	pulse	0.0	t		body	body-79.jpg	0.0	43.20313832406009	
25.0	12.901839231526083	ISI	1.0		8.0	body	body-79.jpg	0.0	43.503028660208656	0.11667020339882583
26.0	13.018509434924908	body	0.0		46.0	body	body-136.jpg	0.0	43.61969886360748	0.3832798396306316
26.0	13.301902802148561	pulse	0.0	t		body	body-136.jpg	0.0	43.903092230831135	
26.0	13.40178927455554	ISI	1.0		8.0	body	body-136.jpg	0.0	44.002978703238114	0.1166735238016372
27.0	13.518462798357177	body	0.0		46.0	body	body-104.jpg	0.0	44.11965222703975	0.3833064028535773
27.0	13.901769201210755	ISI	1.0		8.0	body	body-104.jpg	0.0	44.50295862989333	0.1166783534786191
28.0	14.018447554689374	body	0.0		45.0	body	body-31.jpg	0.0	44.61963698337195	0.3833160622075411
28.0	14.010510886242628	pulse	0.0	t		body	body-31.jpg	0.0	44.6117003149252	
28.0	14.401763616896915	ISI	1.0		8.0	body	body-31.jpg	0.0	45.00295304557949	0.11667986275278963
29.0	14.518443479649704	body	0.0		46.0	body	body-97.jpg	0.0	45.11963290833228	0.3833076102728228
29.0	14.701870081087236	pulse	0.0	t		body	body-97.jpg	0.0	45.30305950976981	
29.0	14.901751089922527	ISI	1.0		8.0	body	body-97.jpg	0.0	45.5029405186051	0.11667956089786458
30.0	15.018430650820392	body	0.0		46.0	body	body-66.jpg	0.0	45.619620079502965	0.383300667612275
30.0	15.401731318432667	ISI	1.0		5.0	body	body-66.jpg	0.0	46.00292074711524	0.11669163508986458
30.0	15.452359312266253	pulse	1.0	t		body	body-66.jpg	0.0	46.05354874094883	
31.0	15.518422953522531	body	0.0		46.0	body	body-87.jpg	0.0	46.119612382205105	0.3833082139826729
31.0	15.901731167505204	ISI	1.0		7.0	body	body-87.jpg	0.0	46.50292059618778	0.11667684420444857
32.0	16.018408011709653	body	0.0		46.0	body	body-87.jpg	1.0	46.619597440392226	0.3833133455141251
32.0	16.101839774864857	pulse	0.0	t		body	body-87.jpg	1.0	46.70302920354743	
32.0	16.401721357223778	ISI	1.0		8.0	body	body-87.jpg	1.0	47.00291078590635	0.116680466462185
32.0	16.433095844032778	response	1.0	b		body	body-87.jpg	1.0	47.03428527271535	
33.0	16.518401823685963	body	0.0		46.0	body	body-33.jpg	0.0	47.11959125236854	0.38330791212774784
33.0	16.80181692445558	pulse	0.0	t		body	body-33.jpg	0.0	47.40300635313815	
33.0	16.90170973581371	ISI	1.0		8.0	body	body-33.jpg	0.0	47.502899164496284	0.11668016460771469
34.0	17.018389900421425	body	0.0		46.0	body	body-117.jpg	0.0	47.619579329104	0.38330911954653857
34.0	17.401699019967964	ISI	1.0		6.0	body	body-117.jpg	0.0	48.00288844865054	0.11667533493073279
35.0	17.518374354898697	body	0.0		45.0	body	body-24.jpg	0.0	48.11956378358127	0.3833160622075411
35.0	17.51042742338859	pulse	0.0	t		body	body-24.jpg	0.0	48.111616852071165	
35.0	17.901690417106238	ISI	1.0		8.0	body	body-24.jpg	0.0	48.50287984578881	0.1166852961391669
36.0	18.018375713245405	car	0.0		46.0	object	car-13.jpg	0.0	48.61956514192798	0.38330187503152047
36.0	18.201794164603143	pulse	0.0	t		object	car-13.jpg	0.0	48.80298359328572	
36.0	18.401677588276925	ISI	1.0		8.0	object	car-13.jpg	0.0	49.0028670169595	0.11667925904293952
37.0	18.518356847319865	car	0.0		46.0	object	car-25.jpg	0.0	49.11954627600244	0.38331153438548426
37.0	18.90166838170535	ISI	1.0		8.0	object	car-25.jpg	0.0	49.50285781038792	0.11667986275233488
37.0	18.93348236911379	pulse	1.0	t		object	car-25.jpg	0.0	49.53467179779636	
38.0	19.018348244457684	car	0.0		46.0	object	car-62.jpg	0.0	49.61953767314026	0.3833444365595824
38.0	19.401692681017266	ISI	1.0		8.0	object	car-62.jpg	0.0	50.00288210969984	0.11667986275233488
39.0	19.5183725437696	car	0.0		46.0	object	car-76.jpg	0.0	50.119561972452175	0.38327440624425435
39.0	19.60177080104131	pulse	0.0	t		object	car-76.jpg	0.0	50.202960229723885	
39.0	19.901646950013856	ISI	1.0		8.0	object	car-76.jpg	0.0	50.50283637869643	0.11667956089786458
40.0	20.01832651091172	car	0.0		46.0	object	car-97.jpg	0.0	50.619515939594294	0.3833133455141251
40.0	20.30175368587379	pulse	0.0	t		object	car-97.jpg	0.0	50.902943114556365	
40.0	20.401639856425845	ISI	1.0		8.0	object	car-97.jpg	0.0	51.00282928510842	0.1166756367852031
41.0	20.51831549321105	car	0.0		46.0	object	car-78.jpg	0.0	51.11950492189362	0.3833112325305592
41.0	20.901626725741608	ISI	1.0		8.0	object	car-78.jpg	0.0	51.50281615442418	0.11667231638284647
42.0	21.018299042124454	car	0.0		45.0	object	car-17.jpg	0.0	51.61948847080703	0.38331817519065225
42.0	21.01040282222175	pulse	0.0	t		object	car-17.jpg	0.0	51.61159225090432	
42.0	21.401617217315106	ISI	1.0		8.0	object	car-17.jpg	0.0	52.00280664599768	0.116671108963601
43.0	21.518288326278707	car	0.0		46.0	object	car-54.jpg	0.0	52.11947775496128	0.38331515664276594
43.0	21.701729416747185	pulse	0.0	t		object	car-54.jpg	0.0	52.30291884542976	
43.0	21.901603482921473	ISI	1.0		8.0	object	car-54.jpg	0.0	52.50279291160405	0.11668167388143047
44.0	22.018285156802904	car	0.0		46.0	object	car-136.jpg	0.0	52.61947458548548	0.38331153438548426
44.0	22.401596691188388	ISI	1.0		8.0	object	car-136.jpg	0.0	53.00278611987096	0.11667744791429868
44.0	22.432624346824014	pulse	1.0	t		object	car-136.jpg	0.0	53.03381377550659	
45.0	22.518274139102687	car	0.0		46.0	object	car-40.jpg	0.0	53.11946356778526	0.3833094214014636
45.0	22.90158356050415	ISI	1.0		8.0	object	car-40.jpg	0.0	53.502772989186724	0.11667956089786458
46.0	23.018263121402015	car	0.0		46.0	object	car-15.jpg	0.0	53.61945255008459	0.3833109306760889
46.0	23.10171088286188	pulse	0.0	t		object	car-15.jpg	0.0	53.702900311544454	
46.0	23.401574052078104	ISI	1.0		8.0	object	car-15.jpg	0.0	54.00276348076068	0.11667925904293952
47.0	23.518253311121043	car	0.0		46.0	object	car-130.jpg	0.0	54.11944273980362	0.3833142510784455
47.0	23.80168108979251	pulse	0.0	t		object	car-130.jpg	0.0	54.40287051847508	
47.0	23.90156756219949	ISI	1.0		2.0	object	car-130.jpg	0.0	54.50275699088206	0.1166756367852031
48.0	24.018243198984692	house	0.0		46.0	place	house-57.jpg	0.0	54.619432627667265	0.3833121380953344
48.0	24.401555337080026	ISI	1.0		6.0	place	house-57.jpg	0.0	55.0027447657626	0.11667201452746667
49.0	24.518227351607493	house	0.0		45.0	place	house-128.jpg	0.0	55.11941678029007	0.38331576035261605
49.0	24.51044553467682	pulse	0.0	t		place	house-128.jpg	0.0	55.11163496335939	
49.0	24.90154311196011	ISI	1.0		6.0	place	house-128.jpg	0.0	55.50273254064268	0.1166686941246553
50.0	25.018211806084764	house	0.0		46.0	place	house-93.jpg	0.0	55.61940123476734	0.38332240115869354
50.0	25.20164685945747	pulse	0.0	t		place	house-93.jpg	0.0	55.80283628814004	
50.0	25.401534207243458	ISI	1.0		7.0	place	house-93.jpg	0.0	56.00272363592603	0.11667020339882583
51.0	25.518204410642284	house	0.0		46.0	place	house-13.jpg	0.0	56.11939383932486	0.38335500147741186
51.0	25.901559412119695	ISI	1.0		7.0	place	house-13.jpg	0.0	56.50274884080227	0.11668167388143047
51.0	25.933824974319577	pulse	1.0	t		place	house-13.jpg	0.0	56.53501440300215	
52.0	26.018241086001126	house	0.0		46.0	place	house-13.jpg	1.0	56.6194305146837	0.3832719914057634
52.0	26.40151307740689	ISI	1.0		6.0	place	house-13.jpg	1.0	57.00270250608946	0.1250107535774987
52.0	26.493268185016404	response	1.0	b		place	house-13.jpg	1.0	57.09445761369898	
53.0	26.526523830984388	house	0.0		45.0	place	house-29.jpg	0.0	57.12771325966696	0.37497702130258403
53.0	26.601617458798955	pulse	0.0	t		place	house-29.jpg	0.0	57.20280688748153	
53.0	26.901500852286972	ISI	1.0		7.0	place	house-29.jpg	0.0	57.502690280969546	0.11668016460771469
54.0	27.018181016894687	house	0.0		46.0	place	house-4.jpg	0.0	57.61937044557726	0.3833112325305592
54.0	27.30161422895253	pulse	0.0	t		place	house-4.jpg	0.0	57.902803657635104	
54.0	27.401492249425246	ISI	1.0		6.0	place	house-4.jpg	0.0	58.00268167810782	0.11668257944575089
55.0	27.518174828870997	house	0.0		46.0	place	house-38.jpg	0.0	58.11936425755357	0.38330579914418195
55.0	27.90148062801518	ISI	1.0		7.0	place	house-38.jpg	0.0	58.50267005669775	0.11667171267254162
56.0	28.01815234068772	house	0.0		45.0	place	house-94.jpg	0.0	58.619341769370294	0.38331847704603206
56.0	28.01022744457896	pulse	0.0	t		place	house-94.jpg	0.0	58.61141687326153	
56.0	28.401470817733752	ISI	1.0		7.0	place	house-94.jpg	0.0	59.002660246416326	0.11668559799409195
57.0	28.518156415727844	house	0.0		46.0	place	house-31.jpg	0.0	59.11934584441042	0.3833021768864455
57.0	28.701575470795433	pulse	0.0	t		place	house-31.jpg	0.0	59.30276489947801	
57.0	28.90145859261429	ISI	1.0		4.0	place	house-31.jpg	0.0	59.502648021296864	0.11667986275233488
58.0	29.018138455366625	house	0.0		46.0	place	house-109.jpg	0.0	59.6193278840492	0.3833124399498047
58.0	29.40145089531643	ISI	1.0		7.0	place	house-109.jpg	0.0	60.002640323999	0.11667805162414879
58.0	29.439486110301914	pulse	1.0	t		place	house-109.jpg	0.0	60.04067553898449	
59.0	29.51812894694058	house	0.0		46.0	place	house-52.jpg	0.0	60.11931837562315	0.38331093067563415
59.0	29.901439877616212	ISI	1.0		11.0	place	house-52.jpg	0.0	60.502629306298786	0.09999604570202791
60.0	30.00143592331824	baseline	0.0		48.0		baseline	0.0	60.602625352000814	0.39999021990433903
60.0	30.10154486271813	pulse	0.0	t			baseline	0.0	60.7027342914007	
60.0	30.40142614322258	ISI	1.0		11.0		baseline	0.0	61.00261557190515	0.10000268650765065
61.0	30.50142882973023	baseline	0.0		48.0		baseline	0.0	61.102618258412804	0.39997512716399797
61.0	30.801515673358153	pulse	0.0	t			baseline	0.0	61.40270510204073	
61.0	30.901403956894228	ISI	1.0		11.0		baseline	0.0	61.5025933855768	0.09999906424991423
62.0	31.001403021144142	baseline	0.0		48.0		baseline	0.0	61.602592449826716	0.39999957740337777
62.0	31.40140259854752	ISI	1.0		11.0		baseline	0.0	62.002592027230094	0.10001355328085992
63.0	31.50141615182838	baseline	0.0		47.0		baseline	0.0	62.102605580510954	0.399982069824091
63.0	31.505627328243918	pulse	0.0	t			baseline	0.0	62.10681675692649	
63.0	31.90139822165247	ISI	1.0		11.0		baseline	0.0	62.502587650335045	0.09999815868604855
64.0	32.00139638033852	baseline	0.0		48.0		baseline	0.0	62.60258580902109	0.40006930586378076
64.0	32.2015813569642	pulse	0.0	t			baseline	0.0	62.80277078564677	
64.0	32.4014656862023	ISI	1.0		11.0		baseline	0.0	63.002655114884874	0.09999664941142328
65.0	32.501462335613724	baseline	0.0		48.0		baseline	0.0	63.1026517642963	0.39999384216207545
65.0	32.9014561777758	ISI	1.0		11.0		baseline	0.0	63.50264560645837	0.09999815868559381
65.0	32.90602324100928	pulse	1.0	t			baseline	0.0	63.50721266969185	
66.0	33.00145433646139	baseline	0.0		48.0		baseline	0.0	63.60264376514397	0.3999917291780548
66.0	33.40144606563945	ISI	1.0		11.0		baseline	0.0	64.00263549432202	0.09999725312127339
67.0	33.50144331876072	baseline	0.0		48.0		baseline	0.0	64.1026327474433	0.3999905217592641
67.0	33.601553465579855	pulse	0.0	t			baseline	0.0	64.20274289426243	
67.0	33.901433840519985	ISI	1.0		11.0		baseline	0.0	64.50262326920256	0.09999785683066875
68.0	34.001431697350654	baseline	0.0		48.0		baseline	0.0	64.60262112603323	0.39999112546865945
68.0	34.301535444848014	pulse	0.0	t			baseline	0.0	64.90272487353059	
68.0	34.40142282281931	ISI	1.0		11.0		baseline	0.0	65.00261225150189	0.0999909141705757
69.0	34.50141373698989	baseline	0.0		48.0		baseline	0.0	65.10260316567246	0.40000018111277313
69.0	34.90141391810266	ISI	1.0		11.0		baseline	0.0	65.50260334678524	0.10000057352408476
70.0	35.00141449162675	baseline	0.0		47.0		baseline	0.0	65.60260392030932	0.3999908236137344
70.0	35.00562657360706	pulse	0.0	t			baseline	0.0	65.60681600228963	
70.0	35.40140531524048	ISI	1.0		11.0		baseline	0.0	66.00259474392305	0.09999604570202791
71.0	35.50140136094251	baseline	0.0		48.0		baseline	0.0	66.10259078962508	0.39999293659775503
71.0	35.70151177943126	pulse	0.0	t			baseline	0.0	66.30270120811383	
71.0	35.901394297540264	ISI	1.0		6.0		baseline	0.0	66.50258372622284	0.11663216969282075
72.0	36.018026467233085	word	0.0		46.0	character	word-105.jpg	0.0	66.61921589591566	0.3832777266470657
72.0	36.40130419388015	ISI	1.0		7.0	character	word-105.jpg	0.0	67.00249362256272	0.11667714605937363
72.0	36.434986964400196	pulse	1.0	t		character	word-105.jpg	0.0	67.03617639308277	
73.0	36.517981339939524	word	0.0		46.0	character	word-108.jpg	0.0	67.1191707686221	0.3833112325305592
73.0	36.90129257247008	ISI	1.0		4.0	character	word-108.jpg	0.0	67.50248200115266	0.11667442936641237
74.0	37.017967001836496	word	0.0		46.0	character	word-87.jpg	0.0	67.61915643051907	0.383315458497691
74.0	37.10140057612034	pulse	0.0	t		character	word-87.jpg	0.0	67.70259000480291	
74.0	37.40128246033419	ISI	1.0		8.0	character	word-87.jpg	0.0	68.00247188901676	0.11667744791429868
75.0	37.517959908248486	word	0.0		46.0	character	word-97.jpg	0.0	68.11914933693106	0.3833118362399546
75.0	37.80138919619412	pulse	0.0	t		character	word-97.jpg	0.0	68.4025786248767	
75.0	37.90127174448844	ISI	1.0		7.0	character	word-97.jpg	0.0	68.50246117317101	0.11668861654197826
76.0	38.01796036103042	word	0.0		46.0	character	word-110.jpg	0.0	68.61914978971299	0.38330036575734994
76.0	38.40126072678777	ISI	1.0		6.0	character	word-110.jpg	0.0	69.00245015547034	0.11667352380209195
77.0	38.51793425058986	word	0.0		45.0	character	word-62.jpg	0.0	69.11912367927243	0.3833184770455773
77.0	38.50999305432106	pulse	0.0	t		character	word-62.jpg	0.0	69.11118248300363	
77.0	38.90125272763544	ISI	1.0		7.0	character	word-62.jpg	0.0	69.50244215631801	0.11667774976922374
78.0	39.01793047740466	word	0.0		46.0	character	word-90.jpg	0.0	69.61911990608723	0.3833094214014636
78.0	39.20135104174642	pulse	0.0	t		character	word-90.jpg	0.0	69.802540470429	
78.0	39.401239898806125	ISI	1.0		7.0	character	word-90.jpg	0.0	70.0024293274887	0.11668046646263974
79.0	39.517920365268765	word	0.0		46.0	character	word-37.jpg	0.0	70.11910979395134	0.3833094214014636
79.0	39.90122978667023	ISI	1.0		6.0	character	word-37.jpg	0.0	70.5024192153528	0.11667865533354416
79.0	39.94189596815568	pulse	1.0	t		character	word-37.jpg	0.0	70.54308539683825	
80.0	40.01790844200377	word	0.0		46.0	character	word-56.jpg	0.0	70.61909787068635	0.3833106288207091
80.0	40.40121907082448	ISI	1.0		7.0	character	word-56.jpg	0.0	71.00240849950706	0.11666748670586458
81.0	40.517886557530346	word	0.0		46.0	character	word-138.jpg	0.0	71.11907598621292	0.3833254197061251
81.0	40.60132948931323	pulse	0.0	t		character	word-138.jpg	0.0	71.2025189179958	
81.0	40.90121197723647	ISI	1.0		7.0	character	word-138.jpg	0.0	71.50240140591904	0.11667684420490332
82.0	41.017888821441375	word	0.0		46.0	character	word-52.jpg	0.0	71.61907825012395	0.3833112325305592
82.0	41.301312072290784	pulse	0.0	t		character	word-52.jpg	0.0	71.90250150097336	
82.0	41.401200053971934	ISI	1.0		5.0	character	word-52.jpg	0.0	72.00238948265451	0.1166659774312393
83.0	41.51786603140317	word	0.0		46.0	character	word-125.jpg	0.0	72.11905546008575	0.3833242122873344
83.0	41.90119024369051	ISI	1.0		11.0	character	word-125.jpg	0.0	72.50237967237308	0.09999755497619844
84.0	42.001187798666706	baseline	0.0		47.0		baseline	0.0	72.60237722734928	0.40006870215393064
84.0	42.005453610802306	pulse	0.0	t			baseline	0.0	72.60664303948488	
84.0	42.40125650082064	ISI	1.0		11.0		baseline	0.0	73.00244592950321	0.0999999698146894
85.0	42.501256470635326	baseline	0.0		48.0		baseline	0.0	73.1024458993179	0.3999944458714708
85.0	42.70136115388232	pulse	0.0	t			baseline	0.0	73.30255058256489	
85.0	42.9012509165068	ISI	1.0		11.0		baseline	0.0	73.50244034518937	0.09999272529921654
86.0	43.00124364180601	baseline	0.0		48.0		baseline	0.0	73.60243307048859	0.39999595514564135
86.0	43.401239596951655	ISI	1.0		11.0		baseline	0.0	74.00242902563423	0.09999604570202791
86.0	43.40585073098691	pulse	1.0	t			baseline	0.0	74.00704015966949	
87.0	43.50123564265368	baseline	0.0		48.0		baseline	0.0	74.10242507133626	0.3999917291780548
87.0	43.90122737183174	ISI	1.0		11.0		baseline	0.0	74.50241680051431	0.09999181973489613
88.0	44.00121919156663	baseline	0.0		48.0		baseline	0.0	74.60240862024921	0.3999965588550367
88.0	44.1013335643529	pulse	0.0	t			baseline	0.0	74.70252299303547	
88.0	44.40121575042167	ISI	1.0		11.0		baseline	0.0	75.00240517910424	0.09999906424991423
89.0	44.501214814671584	baseline	0.0		48.0		baseline	0.0	75.10240424335416	0.39999172917850956
89.0	44.801318260314474	pulse	0.0	t			baseline	0.0	75.40250768899705	
89.0	44.901206543850094	ISI	1.0		11.0		baseline	0.0	75.50239597253267	0.10000057352408476
90.0	45.00120711737418	baseline	0.0		48.0		baseline	0.0	75.60239654605675	0.3999956532907163
90.0	45.401202770664895	ISI	1.0		11.0		baseline	0.0	76.00239219934747	0.0999782362687256
91.0	45.50118100693362	baseline	0.0		47.0		baseline	0.0	76.1023704356162	0.3999992755484527
91.0	45.50569705670432	pulse	0.0	t			baseline	0.0	76.1068864853869	
91.0	45.90118028248207	ISI	1.0		11.0		baseline	0.0	76.50236971116465	0.10000268650765065
92.0	46.001182968989724	baseline	0.0		48.0		baseline	0.0	76.6023723976723	0.39999414401654576
92.0	46.20129278376862	pulse	0.0	t			baseline	0.0	76.8024822124512	
92.0	46.40117711300627	ISI	1.0		11.0		baseline	0.0	77.00236654168884	0.09999604570202791
93.0	46.5011731587083	baseline	0.0		48.0		baseline	0.0	77.10236258739087	0.39999323845222534
93.0	46.90116639716052	ISI	1.0		11.0		baseline	0.0	77.5023558258431	0.09999634755695297
93.0	46.905776021922065	pulse	1.0	t			baseline	0.0	77.50696545060464	
94.0	47.001162744717476	baseline	0.0		48.0		baseline	0.0	77.60235217340005	0.3999787494217344
94.0	47.40114149413921	ISI	1.0		11.0		baseline	0.0	78.00233092282178	0.10000087537900981
95.0	47.50114236951822	baseline	0.0		48.0		baseline	0.0	78.1023317982008	0.3999712030513365
95.0	47.60125070520826	pulse	0.0	t			baseline	0.0	78.20244013389083	
95.0	47.90111357256956	ISI	1.0		7.0		baseline	0.0	78.50230300125213	0.11666446815752352
96.0	48.01777804072708	adult	0.0		46.0	face	adult-140.jpg	0.0	78.61896746940965	0.3832750099536497
96.0	48.30115812633903	pulse	0.0	t		face	adult-140.jpg	0.0	78.9023475550216	
96.0	48.40105305068073	ISI	1.0		8.0	face	adult-140.jpg	0.0	79.0022424793633	0.11667171267254162
97.0	48.51772476335327	adult	0.0		46.0	face	adult-96.jpg	0.0	79.11891419203585	0.3833172696267866
97.0	48.90104203298006	ISI	1.0		7.0	face	adult-96.jpg	0.0	79.50223146166263	0.1166732219471669
98.0	49.017715254927225	adult	0.0		45.0	face	adult-118.jpg	0.0	79.6189046836098	0.38331666591693647
98.0	49.00976379559506	pulse	0.0	t		face	adult-118.jpg	0.0	79.61095322427764	
98.0	49.40103192084416	ISI	1.0		8.0	face	adult-118.jpg	0.0	80.00222134952674	0.11667925904293952
99.0	49.5177111798871	adult	0.0		46.0	face	adult-94.jpg	0.0	80.11890060856967	0.38331153438548426
99.0	49.70113838503448	pulse	0.0	t		face	adult-94.jpg	0.0	80.30232781371706	
99.0	49.901022714272585	ISI	1.0		8.0	face	adult-94.jpg	0.0	80.50221214295516	0.11668137202650541
100.0	50.01770408629909	adult	0.0		46.0	face	adult-117.jpg	0.0	80.61889351498166	0.3833097232563887
100.0	50.40101380955548	ISI	1.0		8.0	face	adult-117.jpg	0.0	81.00220323823805	0.11667895718846921
100.0	50.433141424108726	pulse	1.0	t		face	adult-117.jpg	0.0	81.0343308527913	
101.0	50.51769276674395	adult	0.0		46.0	face	adult-117.jpg	1.0	81.11888219542652	0.38329613979021815
101.0	50.90098890653417	ISI	1.0		8.0	face	adult-117.jpg	1.0	81.50217833521674	0.1166901258161488
102.0	51.017679032350316	adult	0.0		45.0	face	adult-58.jpg	0.0	81.61886846103289	0.3833106288207091
102.0	51.10120950202736	response	0.0	b		face	adult-58.jpg	0.0	81.70239893070993	
102.0	51.1013589201566	pulse	0.0	t		face	adult-58.jpg	0.0	81.70254834883917	
102.0	51.400989661171025	ISI	1.0		7.0	face	adult-58.jpg	0.0	82.0021790898536	0.11667895718846921
103.0	51.517668618359494	adult	0.0		46.0	face	adult-101.jpg	0.0	82.11885804704207	0.3832994601930295
103.0	51.80108281356479	pulse	0.0	t		face	adult-101.jpg	0.0	82.40227224224736	
103.0	51.90096807855252	ISI	1.0		6.0	face	adult-101.jpg	0.0	82.5021575072351	0.11669163508986458
104.0	52.01765971364239	adult	0.0		46.0	face	adult-73.jpg	0.0	82.61884914232496	0.38331274180472974
104.0	52.40097245544712	ISI	1.0		7.0	face	adult-73.jpg	0.0	83.00216188412969	0.11667020339882583
105.0	52.51764265884594	adult	0.0		45.0	face	adult-79.jpg	0.0	83.11883208752852	0.38331666591693647
105.0	52.509625998875435	pulse	0.0	t		face	adult-79.jpg	0.0	83.11081542755801	
105.0	52.90095932476288	ISI	1.0		8.0	face	adult-79.jpg	0.0	83.50214875344545	0.11667744791429868
106.0	53.01763677267718	adult	0.0		46.0	face	adult-20.jpg	0.0	83.61882620135975	0.38331304365920005
106.0	53.2010676000823	pulse	0.0	t		face	adult-20.jpg	0.0	83.80225702876487	
106.0	53.40094981633638	ISI	1.0		8.0	face	adult-20.jpg	0.0	84.00213924501895	0.11666959968943047
107.0	53.51761941602581	adult	0.0		46.0	face	adult-1.jpg	0.0	84.11880884470838	0.3833193826103525
107.0	53.90093879863616	ISI	1.0		4.0	face	adult-1.jpg	0.0	84.50212822731874	0.11667744791429868
107.0	53.962501181007156	pulse	1.0	t		face	adult-1.jpg	0.0	84.56369060968973	
108.0	54.01761624655046	house	0.0		46.0	place	house-72.jpg	0.0	84.61880567523303	0.3833459458332982
108.0	54.40096219238376	ISI	1.0		3.0	place	house-72.jpg	0.0	85.00215162106633	0.11668740912273279
109.0	54.51764960150649	house	0.0		46.0	place	house-135.jpg	0.0	85.11883903018906	0.3832674635832518
109.0	54.601043632810615	pulse	0.0	t		place	house-135.jpg	0.0	85.20223306149319	
109.0	54.90091706508974	ISI	1.0		7.0	place	house-135.jpg	0.0	85.50210649377232	0.11667956089786458
110.0	55.01759662598761	house	0.0		46.0	place	house-55.jpg	0.0	85.61878605467018	0.38331002511131373
110.0	55.30102259353043	pulse	0.0	t		place	house-55.jpg	0.0	85.902212022213	
110.0	55.40090665109892	ISI	1.0		6.0	place	house-55.jpg	0.0	86.0020960797815	0.11667956089786458
111.0	55.517586211996786	house	0.0		46.0	place	house-1.jpg	0.0	86.11877564067936	0.3833118362404093
111.0	55.900898048237195	ISI	1.0		6.0	place	house-1.jpg	0.0	86.50208747691977	0.11669072952554416
112.0	56.01758877776274	house	0.0		45.0	place	house-66.jpg	0.0	86.61877820644531	0.38329613979021815
112.0	56.0095799660171	pulse	0.0	t		place	house-66.jpg	0.0	86.61076939469967	
112.0	56.40088491755296	ISI	1.0		7.0	place	house-66.jpg	0.0	87.00207434623553	0.11667895718846921
113.0	56.51756387474143	house	0.0		46.0	place	house-97.jpg	0.0	87.118753303424	0.3833133455141251
113.0	56.70098353351841	pulse	0.0	t		place	house-97.jpg	0.0	87.30217296220098	
113.0	56.90087722025555	ISI	1.0		5.0	place	house-97.jpg	0.0	87.50206664893813	0.11667865533308941
114.0	57.01755587558864	house	0.0		46.0	place	house-28.jpg	0.0	87.61874530427121	0.38330670470850237
114.0	57.400862580297144	ISI	1.0		7.0	place	house-28.jpg	0.0	88.00205200897972	0.11666748670586458
114.0	57.437608875256046	pulse	1.0	t		place	house-28.jpg	0.0	88.03879830393862	
115.0	57.51753006700301	house	0.0		46.0	place	house-34.jpg	0.0	88.11871949568558	0.38332753269014574
115.0	57.900857599693154	ISI	1.0		7.0	place	house-34.jpg	0.0	88.50204702837573	0.11667714605937363
116.0	58.01753474575253	house	0.0		46.0	place	house-16.jpg	0.0	88.6187241744351	0.3833106288207091
116.0	58.10097224414858	pulse	0.0	t		place	house-16.jpg	0.0	88.70216167283115	
116.0	58.40084537457324	ISI	1.0		7.0	place	house-16.jpg	0.0	89.00203480325581	0.11667533493073279
117.0	58.51752070950397	house	0.0		46.0	place	house-45.jpg	0.0	89.11871013818654	0.38331606220708636
117.0	58.80094728075619	pulse	0.0	t		place	house-45.jpg	0.0	89.40213670943876	
117.0	58.900836771711056	ISI	1.0		6.0	place	house-45.jpg	0.0	89.50202620039363	0.11665148840074835
118.0	59.017488260111804	house	0.0		46.0	place	house-95.jpg	0.0	89.61867768879438	0.38333598462486407
118.0	59.40082424473667	ISI	1.0		6.0	place	house-95.jpg	0.0	90.00201367341924	0.116668392270185
119.0	59.51749263700685	house	0.0		45.0	place	house-32.jpg	0.0	90.11868206568943	0.38332089188406826
119.0	59.509561401946485	pulse	0.0	t		place	house-32.jpg	0.0	90.11075083062906	
119.0	59.90081352889092	ISI	1.0		7.0	place	house-32.jpg	0.0	90.5020029575735	0.11667774976922374
120.0	60.017491278660145	house	0.0		46.0	place	house-110.jpg	0.0	90.61868070734272	0.38331213809487963
120.0	60.200923011629584	pulse	0.0	t		place	house-110.jpg	0.0	90.80211244031216	
120.0	60.400803416755025	ISI	1.0		7.0	place	house-110.jpg	0.0	91.0019928454376	0.11667684420444857
121.0	60.51748026095947	house	0.0		46.0	place	house-123.jpg	0.0	91.11866968964205	0.38334986994595965
121.0	60.90083013090543	ISI	1.0		7.0	place	house-123.jpg	0.0	91.502019559588	0.11667744791429868
121.0	60.93520263966002	pulse	1.0	t		place	house-123.jpg	0.0	91.5363920683426	
122.0	61.01750757881973	house	0.0		46.0	place	house-41.jpg	0.0	91.6186970075023	0.38327651922782024
122.0	61.40078409804755	ISI	1.0		5.0	place	house-41.jpg	0.0	92.00197352673013	0.11667744791384393
123.0	61.517461545961396	house	0.0		46.0	place	house-14.jpg	0.0	92.11865097464397	0.3833076102728228
123.0	61.600894516535845	pulse	0.0	t		place	house-14.jpg	0.0	92.20208394521842	
123.0	61.90076915623422	ISI	1.0		4.0	place	house-14.jpg	0.0	92.50195858491679	0.11667986275278963
124.0	62.01744901898701	house	0.0		46.0	place	house-101.jpg	0.0	92.61863844766958	0.38331002511131373
124.0	62.30087226983642	pulse	0.0	t		place	house-101.jpg	0.0	92.90206169851899	
124.0	62.40075904409832	ISI	1.0		7.0	place	house-101.jpg	0.0	93.0019484727809	0.1166783534786191
125.0	62.51743739757694	house	0.0		46.0	place	house-143.jpg	0.0	93.11862682625951	0.38331485478829563
125.0	62.90075225236524	ISI	1.0		3.0	place	house-143.jpg	0.0	93.50194168104781	0.11667714605937363
126.0	63.01742939842461	house	0.0		45.0	place	house-86.jpg	0.0	93.61861882710718	0.3833103269662388
126.0	63.010236802078	pulse	0.0	t		place	house-86.jpg	0.0	93.61142623076057	
126.0	63.40073972539085	ISI	1.0		7.0	place	house-86.jpg	0.0	94.00192915407342	0.116680466462185
127.0	63.517420191853034	house	0.0		46.0	place	house-107.jpg	0.0	94.11860962053561	0.38331002511131373
127.0	63.70084709514549	pulse	0.0	t		place	house-107.jpg	0.0	94.30203652382806	
127.0	63.90073021696435	ISI	1.0		5.0	place	house-107.jpg	0.0	94.50191964564692	0.11667986275278963
128.0	64.01741007971714	house	0.0		46.0	place	house-121.jpg	0.0	94.61859950839971	0.38331002511131373
128.0	64.40072010482845	ISI	1.0		7.0	place	house-121.jpg	0.0	95.00190953351103	0.11667744791384393
128.0	64.43656868358994	pulse	1.0	t		place	house-121.jpg	0.0	95.03775811227251	
129.0	64.5173975527423	house	0.0		46.0	place	house-40.jpg	0.0	95.11858698142487	0.3833024787413706
129.0	64.90070003148367	ISI	1.0		7.0	place	house-40.jpg	0.0	95.50188946016624	0.11668620170348731
130.0	65.01738623318715	house	0.0		46.0	place	house-35.jpg	0.0	95.61857566186973	0.3833106288207091
130.0	65.10080894069779	pulse	0.0	t		place	house-35.jpg	0.0	95.70199836938036	
130.0	65.40069686200786	ISI	1.0		6.0	place	house-35.jpg	0.0	96.00188629069044	0.11668016460771469
131.0	65.51737702661558	house	0.0		46.0	place	house-131.jpg	0.0	96.11856645529815	0.3833103269662388
131.0	65.80080420157765	pulse	0.0	t		place	house-131.jpg	0.0	96.40199363026022	
131.0	65.90068735358182	ISI	1.0		7.0	place	house-131.jpg	0.0	96.50187678226439	0.11668016460725994
132.0	66.01736751818908	adult	0.0		46.0	face	adult-15.jpg	0.0	96.61855694687165	0.3833097232563887
132.0	66.40067724144546	ISI	1.0		7.0	face	adult-15.jpg	0.0	97.00186667012804	0.11667744791429868
133.0	66.51735468935976	adult	0.0		45.0	face	adult-123.jpg	0.0	97.11854411804234	0.3833124399498047
133.0	66.50989283852505	pulse	0.0	t		face	adult-123.jpg	0.0	97.11108226720762	
133.0	66.90066712930957	ISI	1.0		7.0	face	adult-123.jpg	0.0	97.50185655799214	0.11667805162369405
134.0	67.01734518093326	adult	0.0		46.0	face	adult-18.jpg	0.0	97.61853460961584	0.38334624768822323
134.0	67.2008092123674	pulse	0.0	t		face	adult-18.jpg	0.0	97.80199864104998	
134.0	67.40069142862149	ISI	1.0		7.0	face	adult-18.jpg	0.0	98.00188085730406	0.11668076831711005
135.0	67.5173721969386	adult	0.0		46.0	face	adult-114.jpg	0.0	98.11856162562117	0.38327440624425435
135.0	67.90064660318285	ISI	1.0		7.0	face	adult-114.jpg	0.0	98.50183603186542	0.11667805162369405
135.0	67.93565904412844	pulse	1.0	t		face	adult-114.jpg	0.0	98.53684847281102	
136.0	68.01732465480654	adult	0.0		46.0	face	adult-87.jpg	0.0	98.61851408348912	0.3833118362399546
136.0	68.4006364910465	ISI	1.0		7.0	face	adult-87.jpg	0.0	99.00182591972907	0.116668392270185
137.0	68.51730488331668	adult	0.0		46.0	face	adult-62.jpg	0.0	99.11849431199926	0.3833217974488434
137.0	68.600745702116	pulse	0.0	t		face	adult-62.jpg	0.0	99.20193513079857	
137.0	68.90062668076553	ISI	1.0		7.0	face	adult-62.jpg	0.0	99.5018161094481	0.11667261823731678
138.0	69.01729929900284	adult	0.0		46.0	face	adult-48.jpg	0.0	99.61848872768542	0.3833148547878409
138.0	69.30072888880295	pulse	0.0	t		face	adult-48.jpg	0.0	99.90191831748552	
138.0	69.40061415379068	ISI	1.0		8.0	face	adult-48.jpg	0.0	100.00180358247326	0.11667865533354416
139.0	69.51729280912423	adult	0.0		46.0	face	adult-53.jpg	0.0	100.1184822378068	0.3833118362404093
139.0	69.90060464536464	ISI	1.0		8.0	face	adult-53.jpg	0.0	100.50179407404721	0.1166708071082212
140.0	70.01727545247286	adult	0.0		45.0	face	adult-53.jpg	1.0	100.61846488115543	0.3833193826103525
140.0	70.009298637337	pulse	0.0	t		face	adult-53.jpg	1.0	100.61048806601957	
140.0	70.40059483508321	ISI	1.0		7.0	face	adult-53.jpg	1.0	101.00178426376578	0.11667231638239173
141.0	70.5172671514656	adult	0.0		45.0	face	adult-56.jpg	0.0	101.11845658014818	0.38331666591693647
141.0	70.50932354035831	response	0.0	b		face	adult-56.jpg	0.0	101.11051296904088	
141.0	70.70067111379285	pulse	0.0	t		face	adult-56.jpg	0.0	101.30186054247542	
141.0	70.90058381738254	ISI	1.0		8.0	face	adult-56.jpg	0.0	101.50177324606511	0.11667925904339427
142.0	71.01726307642593	adult	0.0		46.0	face	adult-63.jpg	0.0	101.61845250510851	0.3833106288207091
142.0	71.40057370524664	ISI	1.0		8.0	face	adult-63.jpg	0.0	102.00176313392922	0.1166783534786191
142.0	71.43247130643658	pulse	1.0	t		face	adult-63.jpg	0.0	102.03366073511916	
143.0	71.51725205872526	adult	0.0		46.0	face	adult-11.jpg	0.0	102.11844148740784	0.3833091195469933
143.0	71.90056117827226	ISI	1.0		5.0	face	adult-11.jpg	0.0	102.50175060695483	0.11668288130067594
144.0	72.01724405957293	car	0.0		46.0	object	car-55.jpg	0.0	102.6184334882555	0.3833076102728228
144.0	72.10067069119623	pulse	0.0	t		object	car-55.jpg	0.0	102.7018601198788	
144.0	72.40055166984575	ISI	1.0		8.0	object	car-55.jpg	0.0	103.00174109852833	0.11668076831711005
145.0	72.51723243816286	car	0.0		46.0	object	car-60.jpg	0.0	103.11842186684544	0.38330791212774784
145.0	72.80065810385076	pulse	0.0	t		object	car-60.jpg	0.0	103.40184753253334	
145.0	72.90054035029061	ISI	1.0		7.0	object	car-60.jpg	0.0	103.50172977897319	0.11668227759082583
146.0	73.01722262788144	car	0.0		46.0	object	car-47.jpg	0.0	103.61841205656401	0.3833091195469933
146.0	73.40053174742843	ISI	1.0		8.0	object	car-47.jpg	0.0	104.001721176111	0.11667292009224184
147.0	73.51720466752067	car	0.0		45.0	object	car-74.jpg	0.0	104.11839409620325	0.3833516810746005
147.0	73.5090953381241	pulse	0.0	t		object	car-74.jpg	0.0	104.11028476680667	
147.0	73.90055634859527	ISI	1.0		7.0	object	car-74.jpg	0.0	104.50174577727785	0.11668076831711005
148.0	74.01723711691238	car	0.0		46.0	object	car-52.jpg	0.0	104.61842654559496	0.3832741043893293
148.0	74.20062628835421	pulse	0.0	t		object	car-52.jpg	0.0	104.80181571703679	
148.0	74.40051122130171	ISI	1.0		8.0	object	car-52.jpg	0.0	105.00170064998429	0.11668016460725994
149.0	74.51719138590897	car	0.0		46.0	object	car-117.jpg	0.0	105.11838081459155	0.3833091195469933
149.0	74.90050050545597	ISI	1.0		6.0	object	car-117.jpg	0.0	105.50168993413854	0.11668891839690332
149.0	74.94482577091458	pulse	1.0	t		object	car-117.jpg	0.0	105.54601519959715	
150.0	75.01718942385287	car	0.0		46.0	object	car-30.jpg	0.0	105.61837885253544	0.38329915833810446
150.0	75.40048858219097	ISI	1.0		7.0	object	car-30.jpg	0.0	106.00167801087355	0.11667956089786458
151.0	75.51716814308884	car	0.0		46.0	object	car-88.jpg	0.0	106.11835757177141	0.3833097232563887
151.0	75.60059900067972	pulse	0.0	t		object	car-88.jpg	0.0	106.2017884293623	
151.0	75.90047786634523	ISI	1.0		7.0	object	car-88.jpg	0.0	106.5016672950278	0.11666205331903257
152.0	76.01713991966426	car	0.0		46.0	object	car-83.jpg	0.0	106.61832934834683	0.3833290419643163
152.0	76.30058671518873	pulse	0.0	t		object	car-83.jpg	0.0	106.9017761438713	
152.0	76.40046896162858	ISI	1.0		7.0	object	car-83.jpg	0.0	107.00165839031115	0.11667714605937363
153.0	76.51714610768795	car	0.0		46.0	object	car-16.jpg	0.0	107.11833553637052	0.3833130436596548
153.0	76.9004591513476	ISI	1.0		7.0	object	car-16.jpg	0.0	107.50164858003018	0.10843017087063345
154.0	77.00888932221824	car	0.0		46.0	object	car-27.jpg	0.0	107.61007875090081	0.3915570003000539
154.0	77.00477594676022	pulse	0.0	t		object	car-27.jpg	0.0	107.60596537544279	
154.0	77.40044632251829	ISI	1.0		6.0	object	car-27.jpg	0.0	108.00163575120087	0.1083480663633054
155.0	77.5087943888816	car	0.0		47.0	object	car-31.jpg	0.0	108.10998381756417	0.3916439344839091
155.0	77.70055399412786	pulse	0.0	t		object	car-31.jpg	0.0	108.30174342281043	
155.0	77.9004383233655	ISI	1.0		6.0	object	car-31.jpg	0.0	108.50162775204808	0.10834595337973951
156.0	78.00878427674525	car	0.0		47.0	object	car-59.jpg	0.0	108.60997370542782	0.39164121779094785
156.0	78.4004254945362	ISI	1.0		6.0	object	car-59.jpg	0.0	109.00161492321877	0.10835500902430795
156.0	78.44276757391162	pulse	1.0	t		object	car-59.jpg	0.0	109.0439570025942	
157.0	78.5087805035605	car	0.0		47.0	object	car-85.jpg	0.0	109.10996993224308	0.39163578440411584
157.0	78.90041628796462	ISI	1.0		6.0	object	car-85.jpg	0.0	109.50160571664719	0.11666869412511005
158.0	79.01708498208973	car	0.0		46.0	object	car-68.jpg	0.0	109.6182744107723	0.3833211937389933
158.0	79.10052821572708	pulse	0.0	t		object	car-68.jpg	0.0	109.70171764440965	
158.0	79.40040617582872	ISI	1.0		7.0	object	car-68.jpg	0.0	110.0015956045113	0.11667714605937363
159.0	79.5170833218881	car	0.0		46.0	object	car-126.jpg	0.0	110.11827275057067	0.38331153438548426
159.0	79.80051019499524	pulse	0.0	t		object	car-126.jpg	0.0	110.40169962367781	
159.0	79.90039485627358	ISI	1.0		7.0	object	car-126.jpg	0.0	110.50158428495615	0.1166783534786191
160.0	80.0170732097522	car	0.0		46.0	object	car-105.jpg	0.0	110.61826263843477	0.3833474551074687
160.0	80.40042066485967	ISI	1.0		7.0	object	car-105.jpg	0.0	111.00161009354224	0.11667593864012815
161.0	80.5170966034998	car	0.0		45.0	object	car-53.jpg	0.0	111.11828603218237	0.3833142510784455
161.0	80.50627541051517	pulse	0.0	t		object	car-53.jpg	0.0	111.10746483919775	
161.0	80.90041085457824	ISI	1.0		7.0	object	car-53.jpg	0.0	111.50160028326081	0.11667865533354416
162.0	81.01708950991178	car	0.0		46.0	object	car-20.jpg	0.0	111.61827893859436	0.38331002511131373
162.0	81.20053120408966	pulse	0.0	t		object	car-20.jpg	0.0	111.80172063277223	
162.0	81.4003995350231	ISI	1.0		7.0	object	car-20.jpg	0.0	112.00158896370567	0.11667865533308941
163.0	81.51707819035619	car	0.0		46.0	object	car-107.jpg	0.0	112.11826761903876	0.38329463051650237
163.0	81.90037282087269	ISI	1.0		7.0	object	car-107.jpg	0.0	112.50156224955526	0.11670189815322374
163.0	81.93889221096879	pulse	1.0	t		object	car-107.jpg	0.0	112.54008163965136	
164.0	82.01707471902591	car	0.0		46.0	object	car-122.jpg	0.0	112.61826414770849	0.38331576035261605
164.0	82.40039047937853	ISI	1.0		7.0	object	car-122.jpg	0.0	113.0015799080611	0.11666567557676899
165.0	82.5170561549553	car	0.0		46.0	object	car-131.jpg	0.0	113.11824558363787	0.3832759155184249
165.0	82.60046739198378	pulse	0.0	t		object	car-131.jpg	0.0	113.20165682066636	
165.0	82.90033207047372	ISI	1.0		7.0	object	car-131.jpg	0.0	113.5015214991563	0.11667895718801446
166.0	83.01701102766174	car	0.0		46.0	object	car-125.jpg	0.0	113.61820045634431	0.3833103269662388
166.0	83.3004354859304	pulse	0.0	t		object	car-125.jpg	0.0	113.90162491461297	
166.0	83.40032135462798	ISI	1.0		7.0	object	car-125.jpg	0.0	114.00151078331055	0.11667925904293952
167.0	83.51700061367092	car	0.0		46.0	object	car-36.jpg	0.0	114.11819004235349	0.3833112325305592
167.0	83.90031184620148	ISI	1.0		3.0	object	car-36.jpg	0.0	114.50150127488405	0.11667654234952352
168.0	84.016988388551	word	0.0		45.0	character	word-120.jpg	0.0	114.61817781723357	0.38331334551457985
168.0	84.00869854998018	pulse	0.0	t		character	word-120.jpg	0.0	114.60988797866275	
168.0	84.40030173406558	ISI	1.0		7.0	character	word-120.jpg	0.0	115.00149116274815	0.11668861654197826
169.0	84.51699035060756	word	0.0		46.0	character	word-123.jpg	0.0	115.11817977929013	0.38330096946720005
169.0	84.7004081982559	pulse	0.0	t		character	word-123.jpg	0.0	115.30159762693847	
169.0	84.90029132007476	ISI	1.0		6.0	character	word-123.jpg	0.0	115.50148074875733	0.11667805162369405
170.0	85.01696937169845	word	0.0		46.0	character	word-46.jpg	0.0	115.61815880038102	0.3833115343850295
170.0	85.40028090608348	ISI	1.0		6.0	character	word-46.jpg	0.0	116.00147033476605	0.11668016460771469
170.0	85.44190185432444	pulse	1.0	t		character	word-46.jpg	0.0	116.04309128300702	
171.0	85.5169610706912	word	0.0		46.0	character	word-118.jpg	0.0	116.11815049937377	0.38329885648363415
171.0	85.90025992717483	ISI	1.0		7.0	character	word-118.jpg	0.0	116.5014493558574	0.1166877109772031
172.0	86.01694763815203	word	0.0		46.0	character	word-55.jpg	0.0	116.6181370668346	0.3833121380953344
172.0	86.10038060872648	pulse	0.0	t		character	word-55.jpg	0.0	116.70157003740906	
172.0	86.40025977624737	ISI	1.0		6.0	character	word-55.jpg	0.0	117.00144920492994	0.11667684420444857
173.0	86.51693662045182	word	0.0		46.0	character	word-96.jpg	0.0	117.11812604913439	0.38331274180472974
173.0	86.80036198428479	pulse	0.0	t		character	word-96.jpg	0.0	117.40155141296736	
173.0	86.90024936225655	ISI	1.0		5.0	character	word-96.jpg	0.0	117.50143879093912	0.11667986275233488
174.0	87.01692922500888	word	0.0		46.0	character	word-27.jpg	0.0	117.61811865369145	0.3833151566432207
174.0	87.4002443816521	ISI	1.0		7.0	character	word-27.jpg	0.0	118.00143381033467	0.11666688299601446
175.0	87.51691126464812	word	0.0		45.0	character	word-33.jpg	0.0	118.11810069333069	0.38331576035261605
175.0	87.50899119821588	pulse	0.0	t		character	word-33.jpg	0.0	118.11018062689845	
175.0	87.90022702500073	ISI	1.0		5.0	character	word-33.jpg	0.0	118.5014164536833	0.11668952210629868
176.0	88.01691654710703	word	0.0		46.0	character	word-73.jpg	0.0	118.6181059757896	0.38329613979021815
176.0	88.20033560217462	pulse	0.0	t		character	word-73.jpg	0.0	118.80152503085719	
176.0	88.40021268689725	ISI	1.0		6.0	character	word-73.jpg	0.0	119.00140211557982	0.11667805162369405
177.0	88.51689073852094	word	0.0		46.0	character	word-109.jpg	0.0	119.11808016720352	0.38335107736520513
177.0	88.90024181588615	ISI	1.0		8.0	character	word-109.jpg	0.0	119.50143124456872	0.11668076831711005
177.0	88.93206063297157	pulse	1.0	t		character	word-109.jpg	0.0	119.53325006165414	
178.0	89.01692258420326	word	0.0		46.0	character	word-109.jpg	1.0	119.61811201288583	0.38327470809872466
178.0	89.3836399524157	response	0.0	b		character	word-109.jpg	1.0	119.98482938109828	
178.0	89.40019729230198	ISI	1.0		6.0	character	word-109.jpg	1.0	120.00138672098456	0.1166783534786191
179.0	89.5168756457806	word	0.0		46.0	character	word-132.jpg	0.0	120.11806507446317	0.3833097232563887
179.0	89.60027571418095	pulse	0.0	t		character	word-132.jpg	0.0	120.20146514286353	
179.0	89.90018536903699	ISI	1.0		3.0	character	word-132.jpg	0.0	120.50137479771956	0.11668016460771469
180.0	90.0168655336447	house	0.0		46.0	place	house-21.jpg	0.0	120.61805496232728	0.3832916119681613
180.0	90.30029180304246	pulse	0.0	t		place	house-21.jpg	0.0	120.90148123172503	
180.0	90.40015714561287	ISI	1.0		6.0	place	house-21.jpg	0.0	121.00134657429544	0.11669767218609195
181.0	90.51685481779896	house	0.0		46.0	place	house-83.jpg	0.0	121.11804424648153	0.3832973472094636
181.0	90.90015216500842	ISI	1.0		1.0	place	house-83.jpg	0.0	121.501341593691	0.11668650355841237
182.0	91.01683866856683	house	0.0		45.0	place	house-118.jpg	0.0	121.61802809724941	0.3833172696267866
182.0	91.00881627335502	pulse	0.0	t		place	house-118.jpg	0.0	121.6100057020376	
182.0	91.40015593819362	ISI	1.0		7.0	place	house-118.jpg	0.0	122.0013453668762	0.11667895718801446
183.0	91.51683489538163	house	0.0		46.0	place	house-82.jpg	0.0	122.11802432406421	0.38330851583759795
183.0	91.70026210052902	pulse	0.0	t		place	house-82.jpg	0.0	122.30145152921159	
183.0	91.90014341121923	ISI	1.0		6.0	place	house-82.jpg	0.0	122.5013328399018	0.11667895718801446
184.0	92.01682236840725	house	0.0		46.0	place	house-108.jpg	0.0	122.61801179708982	0.3833091195469933
184.0	92.40013148795424	ISI	1.0		7.0	place	house-108.jpg	0.0	123.00132091663681	0.11668137202650541
184.0	92.4344511721174	pulse	1.0	t		place	house-108.jpg	0.0	123.03564060079998	
185.0	92.51681285998075	house	0.0		46.0	place	house-117.jpg	0.0	123.11800228866332	0.38331002511131373
185.0	92.90012288509206	ISI	1.0		7.0	place	house-117.jpg	0.0	123.50131231377463	0.11665903477114625
186.0	93.0167819198632	house	0.0		46.0	place	house-117.jpg	1.0	123.61797134854578	0.3833320605122026
186.0	93.10023360543528	pulse	0.0	t		place	house-117.jpg	1.0	123.70142303411785	
186.0	93.40011398037541	ISI	1.0		7.0	place	house-117.jpg	1.0	124.00130340905798	0.11667895718801446
187.0	93.51679293756342	house	0.0		46.0	place	house-89.jpg	0.0	124.117982366246	0.3833091195469933
187.0	93.71689128185972	response	0.0	b		place	house-89.jpg	0.0	124.31808071054229	
187.0	93.8002004919631	pulse	0.0	t		place	house-89.jpg	0.0	124.40138992064567	
187.0	93.90010205711042	ISI	1.0		7.0	place	house-89.jpg	0.0	124.50129148579299	0.11668861654197826
188.0	94.0167906736524	house	0.0		46.0	place	house-71.jpg	0.0	124.61798010233497	0.38330096946720005
188.0	94.4000916431196	ISI	1.0		5.0	place	house-71.jpg	0.0	125.00128107180217	0.11667533493073279
189.0	94.51676697805033	house	0.0		45.0	place	house-56.jpg	0.0	125.1179564067329	0.3833148547878409
189.0	94.50543746157018	pulse	0.0	t		place	house-56.jpg	0.0	125.10662689025276	
189.0	94.90008183283817	ISI	1.0		2.0	place	house-56.jpg	0.0	125.50127126152074	0.11667865533354416
190.0	95.01676048817171	house	0.0		46.0	place	house-24.jpg	0.0	125.61794991685429	0.38334232357556175
190.0	95.20026013847291	pulse	0.0	t		place	house-24.jpg	0.0	125.80144956715549	
190.0	95.40010281174727	ISI	1.0		5.0	place	house-24.jpg	0.0	126.00129224042985	0.11668137202696016
191.0	95.51678418377423	house	0.0		46.0	place	house-64.jpg	0.0	126.11797361245681	0.3833145529333706
191.0	95.9000987367076	ISI	1.0		5.0	place	house-64.jpg	0.0	126.50128816539018	0.11667624049505321
191.0	95.95130236765863	pulse	1.0	t		place	house-64.jpg	0.0	126.5524917963412	
192.0	96.01677497720266	word	0.0		46.0	character	word-18.jpg	0.0	126.61796440588523	0.3833112325305592
192.0	96.40008620973322	ISI	1.0		4.0	character	word-18.jpg	0.0	127.00127563841579	0.11667593864012815
193.0	96.51676214837335	word	0.0		46.0	character	word-88.jpg	0.0	127.11795157705592	0.3833142510784455
193.0	96.60019481709287	pulse	0.0	t		character	word-88.jpg	0.0	127.20138424577544	
193.0	96.90007639945179	ISI	1.0		6.0	character	word-88.jpg	0.0	127.50126582813436	0.1166783534786191
194.0	97.01675475293041	word	0.0		46.0	character	word-82.jpg	0.0	127.61794418161298	0.3832985546287091
194.0	97.30018162603756	pulse	0.0	t		character	word-82.jpg	0.0	127.90137105472013	
194.0	97.40005330755912	ISI	1.0		5.0	character	word-82.jpg	0.0	128.0012427362417	0.11669887960533742
195.0	97.51675218716446	word	0.0		46.0	character	word-29.jpg	0.0	128.11794161584703	0.383303384305691
195.0	97.90005557147015	ISI	1.0		5.0	character	word-29.jpg	0.0	128.50124500015272	0.11667171267299636
196.0	98.01672728414314	word	0.0		45.0	character	word-102.jpg	0.0	128.61791671282572	0.3833169677718615
196.0	98.00392411249413	pulse	0.0	t		character	word-102.jpg	0.0	128.6051135411767	
196.0	98.400044251915	ISI	1.0		6.0	character	word-102.jpg	0.0	129.00123368059758	0.11667986275233488
197.0	98.51672411466734	word	0.0		46.0	character	word-9.jpg	0.0	129.1179135433499	0.3832976490643887
197.0	98.70012264360821	pulse	0.0	t		character	word-9.jpg	0.0	129.30131207229078	
197.0	98.90002176373173	ISI	1.0		6.0	character	word-9.jpg	0.0	129.5012111924143	0.11669103138046921
198.0	99.0167127951122	word	0.0		46.0	character	word-35.jpg	0.0	129.61790222379477	0.38331093067563415
198.0	99.40002372578783	ISI	1.0		6.0	character	word-35.jpg	0.0	130.0012131544704	0.1166783534786191
198.0	99.44288076946441	pulse	1.0	t		character	word-35.jpg	0.0	130.04407019814698	
199.0	99.51670207926645	word	0.0		46.0	character	word-116.jpg	0.0	130.11789150794903	0.38327350067993393
199.0	99.89997557994639	ISI	1.0		7.0	character	word-116.jpg	0.0	130.50116500862896	0.11668257944575089
200.0	100.01665815939214	word	0.0		46.0	character	word-11.jpg	0.0	130.6178475880747	0.3833064028535773
200.0	100.10009112996659	pulse	0.0	t		character	word-11.jpg	0.0	130.70128055864916	
200.0	100.39996456224571	ISI	1.0		7.0	character	word-11.jpg	0.0	131.0011539909283	0.11668137202650541
201.0	100.51664593427222	word	0.0		46.0	character	word-94.jpg	0.0	131.1178353629548	0.38331062882116385
201.0	100.80006707213806	pulse	0.0	t		character	word-94.jpg	0.0	131.40125650082064	
201.0	100.89995656309338	ISI	1.0		7.0	character	word-94.jpg	0.0	131.50114599177596	0.11667865533354416
202.0	101.01663521842693	word	0.0		46.0	character	word-54.jpg	0.0	131.6178246471095	0.3833124399498047
202.0	101.39994765837673	ISI	1.0		7.0	character	word-54.jpg	0.0	132.0011370870593	0.11667050525329614
203.0	101.51661816363003	word	0.0		45.0	character	word-40.jpg	0.0	132.1178075923126	0.3833199863202026
203.0	101.50866006349224	pulse	0.0	t		character	word-40.jpg	0.0	132.10984949217482	
203.0	101.89993814995023	ISI	1.0		7.0	character	word-40.jpg	0.0	132.5011275786328	0.11667533493027804
204.0	102.01661348488051	adult	0.0		46.0	face	adult-131.jpg	0.0	132.61780291356308	0.3833091195469933
204.0	102.20004069002789	pulse	0.0	t		face	adult-131.jpg	0.0	132.80123011871046	
204.0	102.3999226044275	ISI	1.0		7.0	face	adult-131.jpg	0.0	133.00111203311008	0.11668167388143047
205.0	102.51660427830893	adult	0.0		46.0	face	adult-100.jpg	0.0	133.1177937069915	0.3833097232563887
205.0	102.89991400156532	ISI	1.0		7.0	face	adult-100.jpg	0.0	133.5011034302479	0.11667986275278963
205.0	102.93341747032991	pulse	1.0	t		face	adult-100.jpg	0.0	133.5346068990125	
206.0	103.01659386431811	adult	0.0		46.0	face	adult-52.jpg	0.0	133.61778329300068	0.38330791212774784
206.0	103.39990177644586	ISI	1.0		7.0	face	adult-52.jpg	0.0	134.00109120512843	0.11668831468705321
207.0	103.51659009113291	adult	0.0		46.0	face	adult-98.jpg	0.0	134.11777951981549	0.38330157317705016
207.0	103.60001068566044	pulse	0.0	t		face	adult-98.jpg	0.0	134.201200114343	
207.0	103.89989166430996	ISI	1.0		7.0	face	adult-98.jpg	0.0	134.50108109299254	0.11668288130067594
208.0	104.01657454561064	adult	0.0		46.0	face	adult-21.jpg	0.0	134.6177639742932	0.3833097232563887
208.0	104.30000141871778	pulse	0.0	t		face	adult-21.jpg	0.0	134.90119084740036	
208.0	104.39988426886703	ISI	1.0		7.0	face	adult-21.jpg	0.0	135.0010736975496	0.1166810701720351
209.0	104.51656533903906	adult	0.0		46.0	face	adult-21.jpg	1.0	135.11775476772164	0.38330610099865225
209.0	104.89987144003771	ISI	1.0		7.0	face	adult-21.jpg	1.0	135.5010608687203	0.11667503307580773
210.0	105.01654647311352	adult	0.0		45.0	face	adult-144.jpg	0.0	135.6177359017961	0.3833163640620114
210.0	105.00645275021452	pulse	0.0	t		face	adult-144.jpg	0.0	135.6076421788971	
210.0	105.05831382093538	response	0.0	b		face	adult-144.jpg	0.0	135.65950324961796	
210.0	105.39986283717553	ISI	1.0		7.0	face	adult-144.jpg	0.0	136.0010522658581	0.11666446815752352
211.0	105.51652730533306	adult	0.0		46.0	face	adult-19.jpg	0.0	136.11771673401563	0.38334715325254365
211.0	105.6999976757179	pulse	0.0	t		face	adult-19.jpg	0.0	136.30118710440047	
211.0	105.8998744585856	ISI	1.0		7.0	face	adult-19.jpg	0.0	136.50106388726817	0.11669193694524438
212.0	106.01656639553084	adult	0.0		46.0	face	adult-106.jpg	0.0	136.61775582421342	0.3832997620474998
212.0	106.39986615757834	ISI	1.0		7.0	face	adult-106.jpg	0.0	137.00105558626092	0.11668861654243301
212.0	106.43598972606969	pulse	1.0	t		face	adult-106.jpg	0.0	137.03717915475227	
213.0	106.51655477412078	adult	0.0		46.0	face	adult-64.jpg	0.0	137.11774420280335	0.3833118362399546
213.0	106.89986661036073	ISI	1.0		7.0	face	adult-64.jpg	0.0	137.5010560390433	0.11668710726826248
214.0	107.016553717629	adult	0.0		46.0	face	adult-32.jpg	0.0	137.61774314631157	0.38330036575734994
214.0	107.09997310473682	pulse	0.0	t		face	adult-32.jpg	0.0	137.7011625334194	
214.0	107.39985408338634	ISI	1.0		7.0	face	adult-32.jpg	0.0	138.00104351206892	0.11668137202650541
215.0	107.51653545541285	adult	0.0		46.0	face	adult-30.jpg	0.0	138.11772488409542	0.3833112325305592
215.0	107.79995961182703	pulse	0.0	t		face	adult-30.jpg	0.0	138.4011490405096	
215.0	107.89984668794341	ISI	1.0		5.0	face	adult-30.jpg	0.0	138.50103611662598	0.11668016460771469
216.0	108.01652685255112	adult	0.0		46.0	face	adult-26.jpg	0.0	138.6177162812337	0.38330881769206826
216.0	108.39983567024319	ISI	1.0		7.0	face	adult-26.jpg	0.0	139.00102509892577	0.11667171267254162
217.0	108.51650738291573	adult	0.0		45.0	face	adult-38.jpg	0.0	139.1176968115983	0.38331757148171164
217.0	108.5064175841294	pulse	0.0	t		face	adult-38.jpg	0.0	139.10760701281197	
217.0	108.89982495439745	ISI	1.0		7.0	face	adult-38.jpg	0.0	139.50101438308002	0.11667895718801446
218.0	109.01650391158546	adult	0.0		46.0	face	adult-121.jpg	0.0	139.61769334026803	0.38331062882116385
218.0	109.1999311167333	pulse	0.0	t		face	adult-121.jpg	0.0	139.80112054541587	
218.0	109.39981454040662	ISI	1.0		7.0	face	adult-121.jpg	0.0	140.0010039690892	0.11667774976876899
219.0	109.51649229017539	adult	0.0		46.0	face	adult-27.jpg	0.0	140.11768171885797	0.38331062882116385
219.0	109.89980291899656	ISI	1.0		7.0	face	adult-27.jpg	0.0	140.50099234767913	0.11666205331903257
219.0	109.93595123958175	pulse	1.0	t		face	adult-27.jpg	0.0	140.53714066826433	
220.0	110.01646497231559	adult	0.0		46.0	face	adult-65.jpg	0.0	140.61765440099816	0.3833287401093912
220.0	110.39979371242498	ISI	1.0		7.0	face	adult-65.jpg	0.0	141.00098314110755	0.11668107017158036
221.0	110.51647478259656	adult	0.0		46.0	face	adult-17.jpg	0.0	141.11766421127913	0.38330881769206826
221.0	110.59990231978463	pulse	0.0	t		face	adult-17.jpg	0.0	141.2010917484672	
221.0	110.89978360028863	ISI	1.0		7.0	face	adult-17.jpg	0.0	141.5009730289712	0.11667774976922374
222.0	111.01646135005785	adult	0.0		46.0	face	adult-6.jpg	0.0	141.61765077874043	0.3833097232563887
222.0	111.29988490276219	pulse	0.0	t		face	adult-6.jpg	0.0	141.90107433144476	
222.0	111.39977107331424	ISI	1.0		7.0	face	adult-6.jpg	0.0	142.00096050199681	0.1166810701720351
223.0	111.51645214348628	adult	0.0		46.0	face	adult-5.jpg	0.0	142.11764157216885	0.38329644164468846
223.0	111.89974858513096	ISI	1.0		7.0	face	adult-5.jpg	0.0	142.50093801381354	0.1166852961391669
224.0	112.01643388127013	adult	0.0		45.0	face	adult-89.jpg	0.0	142.6176233099527	0.383318175191107
224.0	112.0065354584317	pulse	0.0	t		face	adult-89.jpg	0.0	142.60772488711427	
224.0	112.39975205646124	ISI	1.0		7.0	face	adult-89.jpg	0.0	143.0009414851438	0.11667774976922374
225.0	112.51642980623046	adult	0.0		46.0	face	adult-80.jpg	0.0	143.11761923491304	0.3833106288207091
225.0	112.69985942621634	pulse	0.0	t		face	adult-80.jpg	0.0	143.3010488548989	
225.0	112.89974043505117	ISI	1.0		7.0	face	adult-80.jpg	0.0	143.50092986373375	0.11668137202696016
226.0	113.01642180707813	adult	0.0		46.0	face	adult-142.jpg	0.0	143.6176112357607	0.3833064028535773
226.0	113.39972820993171	ISI	1.0		7.0	face	adult-142.jpg	0.0	144.00091763861428	0.11667895718801446
226.0	113.43624207668881	pulse	1.0	t		face	adult-142.jpg	0.0	144.0374315053714	
227.0	113.51640716711972	adult	0.0		46.0	face	adult-55.jpg	0.0	144.1175965958023	0.3833097232568434
227.0	113.89971689037657	ISI	1.0		5.0	face	adult-55.jpg	0.0	144.50090631905914	0.11668076831711005
228.0	114.01639765869368	word	0.0		46.0	character	word-63.jpg	0.0	144.61758708737625	0.3832765192273655
228.0	114.09979440669076	pulse	0.0	t		character	word-63.jpg	0.0	144.70098383537334	
228.0	114.39967417792104	ISI	1.0		3.0	character	word-63.jpg	0.0	145.00086360660362	0.11667684420490332
229.0	114.51635102212595	word	0.0		46.0	character	word-143.jpg	0.0	145.11754045080852	0.38329553608036804
229.0	114.79977668781385	pulse	0.0	t		character	word-143.jpg	0.0	145.40096611649642	
229.0	114.89964655820631	ISI	1.0		7.0	character	word-143.jpg	0.0	145.5008359868889	0.11669435178328058
230.0	115.0163409099896	word	0.0		46.0	character	word-20.jpg	0.0	145.61753033867217	0.38331213809487963
230.0	115.39965304808447	ISI	1.0		6.0	character	word-20.jpg	0.0	146.00084247676705	0.11667473122133742
231.0	115.51632777930581	word	0.0		45.0	character	word-39.jpg	0.0	146.11751720798839	0.3833079121272931
231.0	115.50632340542961	pulse	0.0	t		character	word-39.jpg	0.0	146.10751283411219	
231.0	115.8996356914331	ISI	1.0		6.0	character	word-39.jpg	0.0	146.50082512011568	0.11668408871992142
232.0	116.01631978015303	word	0.0		46.0	character	word-80.jpg	0.0	146.6175092088356	0.3833220993037685
232.0	116.19974336304313	pulse	0.0	t		character	word-80.jpg	0.0	146.8009327917257	
232.0	116.3996418794568	ISI	1.0		6.0	character	word-80.jpg	0.0	147.00083130813937	0.1166756367852031
233.0	116.516317516242	word	0.0		46.0	character	word-100.jpg	0.0	147.11750694492457	0.38330308245076594
233.0	116.89962059869276	ISI	1.0		6.0	character	word-100.jpg	0.0	147.50081002737534	0.11668076831711005
233.0	116.94138190941885	pulse	1.0	t		character	word-100.jpg	0.0	147.54257133810142	
234.0	117.01630136700987	word	0.0		46.0	character	word-61.jpg	0.0	147.61749079569245	0.3833118362404093
234.0	117.39961320325028	ISI	1.0		7.0	character	word-61.jpg	0.0	148.00080263193286	0.11667774976876899
235.0	117.51629095301905	word	0.0		46.0	character	word-99.jpg	0.0	148.11748038170163	0.3833027805958409
235.0	117.59974233673665	pulse	0.0	t		character	word-99.jpg	0.0	148.20093176541923	
235.0	117.89959373361489	ISI	1.0		7.0	character	word-99.jpg	0.0	148.50078316229747	0.11668439057484647
236.0	118.01627812418974	word	0.0		46.0	character	word-99.jpg	1.0	148.6174675528723	0.38331274180472974
236.0	118.29971797705366	pulse	0.0	t		character	word-99.jpg	1.0	148.90090740573623	
236.0	118.39959086599447	ISI	1.0		7.0	character	word-99.jpg	1.0	149.00078029467704	0.11667774976876899
237.0	118.51626861576324	word	0.0		46.0	character	word-8.jpg	0.0	149.1174580444458	0.38331062882116385
237.0	118.59969886964427	response	0.0	b		character	word-8.jpg	0.0	149.20088829832684	
237.0	118.8995792445844	ISI	1.0		6.0	character	word-8.jpg	0.0	149.50076867326698	0.11667261823731678
238.0	119.01625186282172	word	0.0		45.0	character	word-31.jpg	0.0	149.6174412915043	0.38331666591693647
238.0	119.00634408248379	pulse	0.0	t		character	word-31.jpg	0.0	149.60753351116637	
238.0	119.39956852873866	ISI	1.0		7.0	character	word-31.jpg	0.0	150.00075795742123	0.11667895718801446
239.0	119.51624748592667	word	0.0		46.0	character	word-60.jpg	0.0	150.11743691460924	0.3833109306760889
239.0	119.69966805026843	pulse	0.0	t		character	word-60.jpg	0.0	150.300857478951	
239.0	119.89955841660276	ISI	1.0		7.0	character	word-60.jpg	0.0	150.50074784528533	0.11668831468705321
240.0	120.01624673128981	word	0.0		46.0	character	word-107.jpg	0.0	150.61743615997239	0.38333538091501396
240.0	120.39958211220483	ISI	1.0		6.0	character	word-107.jpg	0.0	151.0007715408874	0.11668167388143047
240.0	120.44296921292289	pulse	1.0	t		character	word-107.jpg	0.0	151.04415864160546	
241.0	120.51626378608626	word	0.0		46.0	character	word-114.jpg	0.0	151.11745321476883	0.3833076102728228
241.0	120.89957139635908	ISI	1.0		6.0	character	word-114.jpg	0.0	151.50076082504165	0.11668257944620564
242.0	121.01625397580528	word	0.0		46.0	character	word-71.jpg	0.0	151.61744340448786	0.3833085158371432
242.0	121.09973071532659	pulse	0.0	t		character	word-71.jpg	0.0	151.70092014400916	
242.0	121.39956249164243	ISI	1.0		6.0	character	word-71.jpg	0.0	152.000751920325	0.11667865533354416
243.0	121.51624114697597	word	0.0		46.0	character	word-22.jpg	0.0	152.11743057565855	0.38331153438548426
243.0	121.79966983121176	pulse	0.0	t		character	word-22.jpg	0.0	152.40085925989433	
243.0	121.89955268136146	ISI	1.0		4.0	character	word-22.jpg	0.0	152.50074211004403	0.11667805162369405
244.0	122.01623073298515	word	0.0		46.0	character	word-5.jpg	0.0	152.61742016166772	0.3833094214014636
244.0	122.39954015438661	ISI	1.0		7.0	character	word-5.jpg	0.0	153.0007295830692	0.11667533493073279
245.0	122.51621548931735	word	0.0		45.0	character	word-42.jpg	0.0	153.11740491799992	0.38331515664276594
245.0	122.50633064994463	pulse	0.0	t		character	word-42.jpg	0.0	153.1075200786272	
245.0	122.89953064596011	ISI	1.0		6.0	character	word-42.jpg	0.0	153.5007200746427	0.11668167388188522
246.0	123.016212319842	word	0.0		46.0	character	word-86.jpg	0.0	153.61740174852457	0.38330821398221815
246.0	123.19963831757013	pulse	0.0	t		character	word-86.jpg	0.0	153.8008277462527	
246.0	123.39952053382422	ISI	1.0		7.0	character	word-86.jpg	0.0	154.0007099625068	0.11668137202696016
247.0	123.51620190585118	word	0.0		46.0	character	word-26.jpg	0.0	154.11739133453375	0.3833064028535773
247.0	123.89950830870475	ISI	1.0		6.0	character	word-26.jpg	0.0	154.50069773738733	0.116680466462185
247.0	123.94308286125761	pulse	1.0	t		character	word-26.jpg	0.0	154.54427228994018	
248.0	124.01618877516694	word	0.0		46.0	character	word-6.jpg	0.0	154.6173782038495	0.3833097232563887
248.0	124.39949849842333	ISI	1.0		7.0	character	word-6.jpg	0.0	155.0006879271059	0.11668076831711005
249.0	124.51617926674044	word	0.0		46.0	character	word-75.jpg	0.0	155.117368695423	0.3833064028535773
249.0	124.59963065045804	pulse	0.0	t		character	word-75.jpg	0.0	155.2008200791406	
249.0	124.89948566959401	ISI	1.0		6.0	character	word-75.jpg	0.0	155.5006750982766	0.11668137202650541
250.0	125.01616704162052	word	0.0		46.0	character	word-136.jpg	0.0	155.6173564703031	0.38331153438548426
250.0	125.29959210359902	pulse	0.0	t		character	word-136.jpg	0.0	155.9007815322816	
250.0	125.399478576006	ISI	1.0		6.0	character	word-136.jpg	0.0	156.00066800468858	0.11667865533354416
251.0	125.51615723133955	word	0.0		46.0	character	word-25.jpg	0.0	156.11734666002212	0.3833145529333706
251.0	125.89947178427292	ISI	1.0		7.0	character	word-25.jpg	0.0	156.5006612129555	0.1166686941246553
252.0	126.01614047839757	body	0.0		45.0	body	body-115.jpg	0.0	156.61732990708015	0.3833169677718615
252.0	126.0060090236475	pulse	0.0	t		body	body-115.jpg	0.0	156.60719845233007	
252.0	126.39945744616944	ISI	1.0		7.0	body	body-115.jpg	0.0	157.000646874852	0.11668167388143047
253.0	126.51613912005087	body	0.0		46.0	body	body-84.jpg	0.0	157.11732854873344	0.38330942140191837
253.0	126.69956149552172	pulse	0.0	t		body	body-84.jpg	0.0	157.3007509242043	
253.0	126.89944854145278	ISI	1.0		7.0	body	body-84.jpg	0.0	157.50063797013536	0.1166587329162212
254.0	127.016107274369	body	0.0		46.0	body	body-105.jpg	0.0	157.61729670305158	0.38329432866112256
254.0	127.39940160303013	ISI	1.0		7.0	body	body-105.jpg	0.0	158.0005910317127	0.1166810701720351
254.0	127.43501081093018	pulse	1.0	t		body	body-105.jpg	0.0	158.03620023961275	
255.0	127.51608267320216	body	0.0		46.0	body	body-40.jpg	0.0	158.11727210188474	0.38330398801508636
255.0	127.89938666121725	ISI	1.0		7.0	body	body-40.jpg	0.0	158.50057608989982	0.11668469242977153
256.0	128.01607135364702	body	0.0		46.0	body	body-114.jpg	0.0	158.6172607823296	0.3833094214014636
256.0	128.0995061353501	pulse	0.0	t		body	body-114.jpg	0.0	158.70069556403269	
256.0	128.39938077504848	ISI	1.0		7.0	body	body-114.jpg	0.0	159.00057020373106	0.11668167388143047
257.0	128.51606244892992	body	0.0		46.0	body	body-83.jpg	0.0	159.1172518776125	0.38330851583759795
257.0	128.79948539792485	pulse	0.0	t		body	body-83.jpg	0.0	159.40067482660743	
257.0	128.8993709647675	ISI	1.0		7.0	body	body-83.jpg	0.0	159.5005603934501	0.116680466462185
258.0	129.0160514312297	body	0.0		46.0	body	body-20.jpg	0.0	159.61724085991227	0.3832937249517272
258.0	129.39934515618143	ISI	1.0		7.0	body	body-20.jpg	0.0	160.000534584864	0.11667865533308941
259.0	129.51602381151451	body	0.0		45.0	body	body-20.jpg	1.0	160.1172132401971	0.38332451414225943
259.0	129.50614772593144	pulse	0.0	t		body	body-20.jpg	1.0	160.10733715461402	
259.0	129.89934832565677	ISI	1.0		5.0	body	body-20.jpg	1.0	160.50053775433935	0.11667925904293952
259.0	129.96613007949964	response	1.0	b		body	body-20.jpg	1.0	160.5673195081822	
260.0	130.0160275846997	body	0.0		46.0	body	body-3.jpg	0.0	160.6172170133823	0.38331093067563415
260.0	130.19945690283112	pulse	0.0	t		body	body-3.jpg	0.0	160.8006463315137	
260.0	130.39933851537535	ISI	1.0		6.0	body	body-3.jpg	0.0	161.00052794405792	0.11668016460771469
261.0	130.51601867998306	body	0.0		46.0	body	body-113.jpg	0.0	161.11720810866564	0.3833064028535773
261.0	130.89932508283664	ISI	1.0		7.0	body	body-113.jpg	0.0	161.5005145115192	0.11668589984856226
261.0	130.9358796999927	pulse	1.0	t		body	body-113.jpg	0.0	161.53706912867528	
262.0	131.0160109826852	body	0.0		46.0	body	body-86.jpg	0.0	161.61720041136778	0.38330791212774784
262.0	131.39931889481295	ISI	1.0		7.0	body	body-86.jpg	0.0	162.00050832349552	0.11667925904293952
263.0	131.5159981538559	body	0.0		46.0	body	body-8.jpg	0.0	162.11718758253846	0.38330881769206826
263.0	131.59942478547964	pulse	0.0	t		body	body-8.jpg	0.0	162.20061421416221	
263.0	131.89930697154796	ISI	1.0		7.0	body	body-8.jpg	0.0	162.50049640023053	0.11667986275278963
264.0	132.01598683430075	body	0.0		46.0	body	body-62.jpg	0.0	162.61717626298332	0.38331213809487963
264.0	132.29941008515016	pulse	0.0	t		body	body-62.jpg	0.0	162.90059951383273	
264.0	132.39929897239563	ISI	1.0		7.0	body	body-62.jpg	0.0	163.0004884010782	0.1166783534786191
265.0	132.51597732587425	body	0.0		46.0	body	body-7.jpg	0.0	163.11716675455682	0.3833012713221251
265.0	132.89927859719637	ISI	1.0		7.0	body	body-7.jpg	0.0	163.50046802587894	0.11668197573635553
266.0	133.01596057293273	body	0.0		45.0	body	body-137.jpg	0.0	163.6171500016153	0.38336103857363923
266.0	133.00648776537219	pulse	0.0	t		body	body-137.jpg	0.0	163.60767719405476	
266.0	133.39932161150637	ISI	1.0		7.0	body	body-137.jpg	0.0	164.00051104018894	0.11665722364205067
267.0	133.51597883514842	body	0.0		46.0	body	body-57.jpg	0.0	164.117168263831	0.3833211937389933
267.0	133.69942022747182	pulse	0.0	t		body	body-57.jpg	0.0	164.3006096561544	
267.0	133.8993000288874	ISI	1.0		7.0	body	body-57.jpg	0.0	164.50048945756998	0.11668046646263974
268.0	134.01598049535005	body	0.0		46.0	body	body-21.jpg	0.0	164.61716992403262	0.38331032696578404
268.0	134.39929082231583	ISI	1.0		7.0	body	body-21.jpg	0.0	165.0004802509984	0.11667956089786458
268.0	134.43594595712284	pulse	1.0	t		body	body-21.jpg	0.0	165.0371353858054	
269.0	134.5159703832137	body	0.0		46.0	body	body-70.jpg	0.0	165.11715981189627	0.38330851583759795
269.0	134.8992788990513	ISI	1.0		7.0	body	body-70.jpg	0.0	165.50046832773387	0.11667895718801446
270.0	135.0159578562393	body	0.0		46.0	body	body-58.jpg	0.0	165.61714728492188	0.3833103269662388
270.0	135.09938720455602	pulse	0.0	t		body	body-58.jpg	0.0	165.7005766332386	
270.0	135.39926818320555	ISI	1.0		7.0	body	body-58.jpg	0.0	166.00045761188812	0.11667986275233488
271.0	135.51594804595788	body	0.0		46.0	body	body-68.jpg	0.0	166.11713747464046	0.3833097232568434
271.0	135.79938276729035	pulse	0.0	t		body	body-68.jpg	0.0	166.40057219597293	
271.0	135.89925776921473	ISI	1.0		6.0	body	body-68.jpg	0.0	166.5004471978973	0.11667956089786458
272.0	136.0159373301126	body	0.0		46.0	body	body-124.jpg	0.0	166.61712675879517	0.3833133455141251
272.0	136.39925067562672	ISI	1.0		7.0	body	body-124.jpg	0.0	167.0004401043093	0.11667110896314625
273.0	136.51592178458986	body	0.0		45.0	body	body-89.jpg	0.0	167.11711121327244	0.38331485478829563
273.0	136.5061320294817	pulse	0.0	t		body	body-89.jpg	0.0	167.10732145816428	
273.0	136.89923663937816	ISI	1.0		7.0	body	body-89.jpg	0.0	167.50042606806073	0.11668288130067594
274.0	137.01591952067884	body	0.0		46.0	body	body-89.jpg	1.0	167.6171089493614	0.3833070065634274
274.0	137.19934461284265	pulse	0.0	t		body	body-89.jpg	1.0	167.80053404152522	
274.0	137.39922652724226	ISI	1.0		7.0	body	body-89.jpg	1.0	168.00041595592484	0.11668257944575089
275.0	137.515909106688	body	0.0		46.0	body	body-10.jpg	0.0	168.1170985353706	0.3833076102728228
275.0	137.5409935430239	response	0.0	b		body	body-10.jpg	0.0	168.14218297170646	
275.0	137.89921671696084	ISI	1.0		11.0	body	body-10.jpg	0.0	168.5004061456434	0.10004222948737151
275.0	137.90385441421904	pulse	1.0	t		body	body-10.jpg	0.0	168.5050438429016	
276.0	137.9992589464482	baseline	0.0		48.0		baseline	0.0	168.60044837513078	0.39999263474283
276.0	138.39925158119104	ISI	1.0		11.0		baseline	0.0	169.0004410098736	0.09999755497619844
277.0	138.49924913616724	baseline	0.0		48.0		baseline	0.0	169.1004385648498	0.39998931433956386
277.0	138.59935898113145	pulse	0.0	t			baseline	0.0	169.20054840981402	
277.0	138.8992384505068	ISI	1.0		11.0		baseline	0.0	169.50042787918937	0.09999846054051886
278.0	138.99923691104732	baseline	0.0		48.0		baseline	0.0	169.6004263397299	0.39999263474283
278.0	139.29934367709257	pulse	0.0	t			baseline	0.0	169.90053310577514	
278.0	139.39922954579015	ISI	1.0		11.0		baseline	0.0	170.00041897447272	0.09999755497619844
279.0	139.49922710076635	baseline	0.0		48.0		baseline	0.0	170.10041652944892	0.39999535143579124
279.0	139.89922245220214	ISI	1.0		11.0		baseline	0.0	170.5004118808847	0.09999483828278244
280.0	139.99921729048492	baseline	0.0		47.0		baseline	0.0	170.6004067191675	0.39999112546865945
280.0	140.0036850434867	pulse	0.0	t			baseline	0.0	170.60487447216929	
280.0	140.39920841595358	ISI	1.0		11.0		baseline	0.0	171.00039784463615	0.09999755497619844
281.0	140.49920597092978	baseline	0.0		48.0		baseline	0.0	171.10039539961235	0.3999938421616207
281.0	140.6993224265143	pulse	0.0	t			baseline	0.0	171.30051185519687	
281.0	140.8991998130914	ISI	1.0		11.0		baseline	0.0	171.50038924177397	0.09999664941187802
282.0	140.99919646250328	baseline	0.0		48.0		baseline	0.0	171.60038589118585	0.39999021990433903
282.0	141.39918668240762	ISI	1.0		11.0		baseline	0.0	172.0003761110902	0.09999996981423465
282.0	141.40402541496724	pulse	1.0	t			baseline	0.0	172.0052148436498	
283.0	141.49918665222185	baseline	0.0		48.0		baseline	0.0	172.10037608090443	0.3999844846630367
283.0	141.8991711368849	ISI	1.0		11.0		baseline	0.0	172.50036056556746	0.10000208279825529
284.0	141.99917321968314	baseline	0.0		48.0		baseline	0.0	172.60036264836572	0.39999263474283
284.0	142.09928849803418	pulse	0.0	t			baseline	0.0	172.70047792671676	
284.0	142.39916585442597	ISI	1.0		11.0		baseline	0.0	173.00035528310855	0.099985782638214
285.0	142.4991516370642	baseline	0.0		48.0		baseline	0.0	173.10034106574676	0.4000047089352847
285.0	142.7992731939953	pulse	0.0	t			baseline	0.0	173.40046262267788	
285.0	142.89915634599947	ISI	1.0		11.0		baseline	0.0	173.50034577468205	0.09999815868559381
286.0	142.99915450468507	baseline	0.0		48.0		baseline	0.0	173.60034393336764	0.399989918049414
286.0	143.39914442273448	ISI	1.0		11.0		baseline	0.0	174.00033385141705	0.09999725312127339
287.0	143.49914167585575	baseline	0.0		48.0		baseline	0.0	174.10033110453833	0.4083114513750843
287.0	143.50358377119892	pulse	0.0	t			baseline	0.0	174.1047731998815	
287.0	143.90745312723084	ISI	1.0		5.0		baseline	0.0	174.5086425559134	0.11664605501437109
288.0	144.0240991822452	house	0.0		46.0	place	house-106.jpg	0.0	174.62528861092778	0.38330308245076594
288.0	144.1991982132613	pulse	0.0	t		place	house-106.jpg	0.0	174.80038764194387	
288.0	144.40740226469597	ISI	1.0		6.0	place	house-106.jpg	0.0	175.00859169337855	0.11668740912273279
289.0	144.5240896738187	house	0.0		46.0	place	house-137.jpg	0.0	175.12527910250128	0.3833054972892569
289.0	144.8992188299444	pulse	0.0	t		place	house-137.jpg	0.0	175.50040825862698	
289.0	144.90739517110796	ISI	1.0		4.0	place	house-137.jpg	0.0	175.50858459979054	0.11666899597958036
290.0	145.02406416708754	house	0.0		46.0	place	house-54.jpg	0.0	175.62525359577012	0.383320891884523
290.0	145.40738505897207	ISI	1.0		5.0	place	house-54.jpg	0.0	176.00857448765464	0.11668499428424184
291.0	145.5240700532563	house	0.0		46.0	place	house-51.jpg	0.0	176.12525948193888	0.38330187503152047
291.0	145.59917032187695	pulse	0.0	t		place	house-51.jpg	0.0	176.20035975055953	
291.0	145.90737192828783	ISI	1.0		7.0	place	house-51.jpg	0.0	176.5085613569704	0.11668952210629868
292.0	146.02406145039413	house	0.0		46.0	place	house-60.jpg	0.0	176.6252508790767	0.38330157317705016
292.0	146.29915169743526	pulse	0.0	t		place	house-60.jpg	0.0	176.90034112611784	
292.0	146.40736302357118	ISI	1.0		4.0	place	house-60.jpg	0.0	177.00855245225375	0.11668861654197826
293.0	146.52405164011316	house	0.0		46.0	place	house-130.jpg	0.0	177.12524106879573	0.3833015731765954
293.0	146.90735321328975	ISI	1.0		6.0	place	house-130.jpg	0.0	177.50854264197233	0.12502162035070796
293.0	146.9991834827465	pulse	1.0	t		place	house-130.jpg	0.0	177.60037291142908	
294.0	147.03237483364046	house	0.0		45.0	place	house-67.jpg	0.0	177.63356426232303	0.3749667582392249
294.0	147.40734159187969	ISI	1.0		6.0	place	house-67.jpg	0.0	178.00853102056226	0.11668680541333742
295.0	147.52402839729302	house	0.0		46.0	place	house-75.jpg	0.0	178.1252178259756	0.3833021768864455
295.0	147.69912954129268	pulse	0.0	t		place	house-75.jpg	0.0	178.30031896997525	
295.0	147.90733057417947	ISI	1.0		7.0	place	house-75.jpg	0.0	178.50852000286204	0.11668801283212815
296.0	148.0240185870116	house	0.0		46.0	place	house-141.jpg	0.0	178.62520801569417	0.383306100999107
296.0	148.39911574652797	pulse	0.0	t		place	house-141.jpg	0.0	179.00030517521054	
296.0	148.4073246880107	ISI	1.0		6.0	place	house-141.jpg	0.0	179.00851411669328	0.11667473122088268
297.0	148.5239994192316	house	0.0		46.0	place	house-5.jpg	0.0	179.12518884791416	0.3832792359207815
297.0	148.90727865515237	ISI	1.0		6.0	place	house-5.jpg	0.0	179.50846808383494	0.11668771097765784
298.0	149.02396636613003	house	0.0		46.0	place	house-142.jpg	0.0	179.6251557948126	0.38330187503152047
298.0	149.0990645217671	pulse	0.0	t		place	house-142.jpg	0.0	179.70025395044968	
298.0	149.40726824116155	ISI	1.0		6.0	place	house-142.jpg	0.0	180.00845766984412	0.1166901258161488
299.0	149.5239583669777	house	0.0		46.0	place	house-88.jpg	0.0	180.12514779566027	0.3832985546287091
299.0	149.79902838974658	pulse	0.0	t		place	house-88.jpg	0.0	180.40021781842916	
299.0	149.9072569216064	ISI	1.0		7.0	place	house-88.jpg	0.0	180.50844635028898	0.11668861654197826
300.0	150.02394553814838	body	0.0		46.0	body	body-78.jpg	0.0	180.62513496683096	0.3833000639024249
300.0	150.4072456020508	ISI	1.0		7.0	body	body-78.jpg	0.0	181.00843503073338	0.1166901258161488
300.0	150.49904417675316	pulse	1.0	t		body	body-78.jpg	0.0	181.10023360543573	
301.0	150.52393572786696	body	0.0		46.0	body	body-19.jpg	0.0	181.12512515654953	0.3833012713221251
301.0	150.90723699918908	ISI	1.0		7.0	body	body-19.jpg	0.0	181.50842642787165	0.11670038887950795
302.0	151.0239373880686	body	0.0		46.0	body	body-19.jpg	1.0	181.62512681675116	0.3832879897104249
302.0	151.1990131762641	pulse	0.0	t		body	body-19.jpg	1.0	181.80020260494666	
302.0	151.407225377779	ISI	1.0		7.0	body	body-19.jpg	1.0	182.0084148064616	0.11667231638239173
302.0	151.48234073914	response	1.0	b		body	body-19.jpg	1.0	182.08353016782257	
303.0	151.5238976941614	body	0.0		46.0	body	body-99.jpg	0.0	182.12508712284398	0.383318175191107
303.0	151.89898368504964	pulse	0.0	t		body	body-99.jpg	0.0	182.50017311373222	
303.0	151.9072158693525	ISI	1.0		7.0	body	body-99.jpg	0.0	182.5084052980351	0.1166880128325829
304.0	152.0239038821851	body	0.0		46.0	body	body-129.jpg	0.0	182.62509331086767	0.3833009694667453
304.0	152.40720485165184	ISI	1.0		7.0	body	body-129.jpg	0.0	183.00839428033441	0.11668861654243301
305.0	152.52389346819427	body	0.0		46.0	body	body-106.jpg	0.0	183.12508289687685	0.3832967434996135
305.0	152.59899343496	pulse	0.0	t		body	body-106.jpg	0.0	183.20018286364257	
305.0	152.9071902116939	ISI	1.0		7.0	body	body-106.jpg	0.0	183.50837964037646	0.1166756367852031
306.0	153.0238658484791	body	0.0		46.0	body	body-132.jpg	0.0	183.62505527716166	0.38331968446527753
306.0	153.29897330124413	pulse	0.0	t		body	body-132.jpg	0.0	183.9001627299267	
306.0	153.40718553294437	ISI	1.0		6.0	body	body-132.jpg	0.0	184.00837496162694	0.11668257944575089
307.0	153.52386811239012	body	0.0		46.0	body	body-65.jpg	0.0	184.1250575410727	0.3833048935798615
307.0	153.90717300596998	ISI	1.0		7.0	body	body-65.jpg	0.0	184.50836243465255	0.11668710726780773
307.0	153.99895980833435	pulse	1.0	t		body	body-65.jpg	0.0	184.60014923701692	
308.0	154.0238601132378	body	0.0		46.0	body	body-107.jpg	0.0	184.62504954192036	0.38330519543433184
308.0	154.40716530867212	ISI	1.0		7.0	body	body-107.jpg	0.0	185.0083547373547	0.11668439057484647
309.0	154.52384969924697	body	0.0		46.0	body	body-43.jpg	0.0	185.12503912792954	0.3833278345450708
309.0	154.6989786138888	pulse	0.0	t		body	body-43.jpg	0.0	185.30016804257139	
309.0	154.90717753379204	ISI	1.0		6.0	body	body-43.jpg	0.0	185.5083669624746	0.11669254065463974
310.0	155.02387007444668	body	0.0		46.0	body	body-126.jpg	0.0	185.62505950312925	0.3832973472094636
310.0	155.39896180057622	pulse	0.0	t		body	body-126.jpg	0.0	186.0001512292588	
310.0	155.40716742165614	ISI	1.0		7.0	body	body-126.jpg	0.0	186.0083568503387	0.11669495549267594
311.0	155.52386237714882	body	0.0		46.0	body	body-133.jpg	0.0	186.1250518058314	0.3833003657578047
311.0	155.90716274290662	ISI	1.0		5.0	body	body-133.jpg	0.0	186.5083521715892	0.11668801283212815
312.0	156.02385075573875	word	0.0		46.0	character	word-41.jpg	0.0	186.62504018442132	0.38330308245076594
312.0	156.09894891137583	pulse	0.0	t		character	word-41.jpg	0.0	186.7001383400584	
312.0	156.40715383818952	ISI	1.0		5.0	character	word-41.jpg	0.0	187.0083432668721	0.1166901258161488
313.0	156.52384396400566	word	0.0		46.0	character	word-24.jpg	0.0	187.12503339268824	0.38329885648363415
313.0	156.79893541846604	pulse	0.0	t		character	word-24.jpg	0.0	187.40012484714862	
313.0	156.9071428204893	ISI	1.0		7.0	character	word-24.jpg	0.0	187.50833224917187	0.11668710726780773
314.0	157.0238299277571	word	0.0		46.0	character	word-79.jpg	0.0	187.62501935643968	0.38330308245076594
314.0	157.40713301020787	ISI	1.0		7.0	character	word-79.jpg	0.0	188.00832243889045	0.1250234314793488
314.0	157.49896750563175	pulse	1.0	t		character	word-79.jpg	0.0	188.10015693431433	
315.0	157.53215644168722	word	0.0		45.0	character	word-79.jpg	1.0	188.1333458703698	0.37496434340118867
315.0	157.9071207850884	ISI	1.0		6.0	character	word-79.jpg	1.0	188.50831021377098	0.11669163508986458
316.0	158.02381242017827	word	0.0		46.0	character	word-43.jpg	0.0	188.62500184886085	0.383268369148027
316.0	158.07386417318503	response	0.0	b		character	word-43.jpg	0.0	188.6750536018676	
316.0	158.19891175304883	pulse	0.0	t		character	word-43.jpg	0.0	188.8001011817314	
316.0	158.4070807893263	ISI	1.0		6.0	character	word-43.jpg	0.0	189.00827021800887	0.11668408871992142
317.0	158.52376487804622	word	0.0		46.0	character	word-76.jpg	0.0	189.1249543067288	0.3833070065634274
317.0	158.8988584153044	pulse	0.0	t		character	word-76.jpg	0.0	189.50004784398698	
317.0	158.90707188460965	ISI	1.0		7.0	character	word-76.jpg	0.0	189.50826131329222	0.11668288130067594
318.0	159.02375476591033	word	0.0		46.0	character	word-30.jpg	0.0	189.6249441945929	0.38330398801508636
318.0	159.4070587539254	ISI	1.0		6.0	character	word-30.jpg	0.0	190.00824818260799	0.11668348501007131
319.0	159.52374223893548	word	0.0		46.0	character	word-15.jpg	0.0	190.12493166761806	0.38330881769206826
319.0	159.59884009271764	pulse	0.0	t		character	word-15.jpg	0.0	190.2000295214002	
319.0	159.90705105662755	ISI	1.0		2.0	character	word-15.jpg	0.0	190.50824048531013	0.116683183155601
320.0	160.02373423978315	word	0.0		46.0	character	word-13.jpg	0.0	190.62492366846573	0.3833042898700114
320.0	160.2988272035177	pulse	0.0	t		character	word-13.jpg	0.0	190.90001663220028	
320.0	160.40703852965316	ISI	1.0		7.0	character	word-13.jpg	0.0	191.00822795833574	0.11669495549313069
321.0	160.5237334851463	word	0.0		46.0	character	word-47.jpg	0.0	191.12492291382887	0.38329523422589773
321.0	160.9070287193722	ISI	1.0		6.0	character	word-47.jpg	0.0	191.50821814805477	0.11668589984856226
321.0	160.99880737165677	pulse	1.0	t		character	word-47.jpg	0.0	191.59999680033934	
322.0	161.02371461922075	word	0.0		46.0	character	word-141.jpg	0.0	191.62490404790333	0.38330096946720005
322.0	161.40701558868795	ISI	1.0		5.0	character	word-141.jpg	0.0	192.00820501737053	0.11668922025182837
323.0	161.52370480893978	word	0.0		46.0	character	word-117.jpg	0.0	192.12489423762236	0.38330187503152047
323.0	161.6988029343911	pulse	0.0	t		character	word-117.jpg	0.0	192.29999236307367	
323.0	161.9070066839713	ISI	1.0		7.0	character	word-117.jpg	0.0	192.50819611265388	0.1166852961391669
324.0	162.02369198011047	car	0.0		46.0	object	car-26.jpg	0.0	192.62488140879304	0.3833036861601613
324.0	162.39878129140152	pulse	0.0	t		object	car-26.jpg	0.0	192.9999707200841	
324.0	162.40699566627063	ISI	1.0		6.0	object	car-26.jpg	0.0	193.0081850949532	0.11668680541333742
325.0	162.52368247168397	car	0.0		46.0	object	car-112.jpg	0.0	193.12487190036654	0.3833027805958409
325.0	162.9069852522798	ISI	1.0		6.0	object	car-112.jpg	0.0	193.50817468096238	0.11668620170348731
326.0	163.0236714539833	car	0.0		46.0	object	car-9.jpg	0.0	193.62486088266587	0.3833015731765954
326.0	163.09876870405606	pulse	0.0	t		object	car-9.jpg	0.0	193.69995813273863	
326.0	163.4069730271599	ISI	1.0		7.0	object	car-9.jpg	0.0	194.00816245584247	0.11668922025182837
327.0	163.52366224741172	car	0.0		46.0	object	car-142.jpg	0.0	194.1248516760943	0.38330368616061605
327.0	163.7987543055815	pulse	0.0	t		object	car-142.jpg	0.0	194.39994373426407	
327.0	163.90696593357234	ISI	1.0		7.0	object	car-142.jpg	0.0	194.5081553622549	0.11668831468705321
328.0	164.0236542482594	car	0.0		46.0	object	car-7.jpg	0.0	194.62484367694196	0.38333055123803206
328.0	164.40698479949742	ISI	1.0		7.0	object	car-7.jpg	0.0	195.00817422818	0.1250252426084444
328.0	164.49881174855136	pulse	1.0	t		object	car-7.jpg	0.0	195.10000117723393	
329.0	164.53201004210587	car	0.0		45.0	object	car-33.jpg	0.0	195.13319947078844	0.3749564951758657
329.0	164.90696653728173	ISI	1.0		7.0	object	car-33.jpg	0.0	195.5081559659643	0.11669737033162164
330.0	165.02366390761335	car	0.0		46.0	object	car-115.jpg	0.0	195.62485333629593	0.3832997620474998
330.0	165.19875961822618	pulse	0.0	t		object	car-115.jpg	0.0	195.79994904690875	
330.0	165.40696366966085	ISI	1.0		7.0	object	car-115.jpg	0.0	196.00815309834343	0.11669646476730122
331.0	165.52366013442816	car	0.0		46.0	object	car-81.jpg	0.0	196.12484956311073	0.3832976490643887
331.0	165.89874521975207	pulse	0.0	t		object	car-81.jpg	0.0	196.49993464843465	
331.0	165.90695778349254	ISI	1.0		7.0	object	car-81.jpg	0.0	196.50814721217512	0.11668680541288268
332.0	166.02364458890543	car	0.0		46.0	object	car-94.jpg	0.0	196.624834017588	0.38329704535453857
332.0	166.40694163425997	ISI	1.0		7.0	object	car-94.jpg	0.0	197.00813106294254	0.11669737033162164
333.0	166.5236390045916	car	0.0		46.0	object	car-69.jpg	0.0	197.12482843327416	0.38329342309680214
333.0	166.59869671168417	pulse	0.0	t		object	car-69.jpg	0.0	197.19988614036674	
333.0	166.9069324276884	ISI	1.0		7.0	object	car-69.jpg	0.0	197.50812185637096	0.11667774976922374
334.0	167.0236101774576	car	0.0		46.0	object	car-87.jpg	0.0	197.6247996061402	0.3833133455141251
334.0	167.2987085745781	pulse	0.0	t		object	car-87.jpg	0.0	197.89989800326066	
334.0	167.40692352297174	ISI	1.0		7.0	object	car-87.jpg	0.0	198.0081129516543	0.1167022000081488
335.0	167.5236257229799	car	0.0		46.0	object	car-22.jpg	0.0	198.12481515166246	0.38328617858178404
335.0	167.90691190156167	ISI	1.0		7.0	object	car-22.jpg	0.0	198.50810133024424	0.12502312962442375
335.0	167.998739454325	pulse	1.0	t		object	car-22.jpg	0.0	198.59992888300758	
336.0	168.0319350311861	adult	0.0		45.0	face	adult-16.jpg	0.0	198.63312445986867	0.3749661545298295
336.0	168.40690118571592	ISI	1.0		7.0	face	adult-16.jpg	0.0	199.0080906143985	0.11668197573635553
337.0	168.52358316145228	adult	0.0		46.0	face	adult-134.jpg	0.0	199.12477259013485	0.3833082139826729
337.0	168.698688833274	pulse	0.0	t		face	adult-134.jpg	0.0	199.29987826195656	
337.0	168.90689137543495	ISI	1.0		7.0	face	adult-134.jpg	0.0	199.50808080411753	0.1166877109772031
338.0	169.02357908641216	adult	0.0		46.0	face	adult-85.jpg	0.0	199.62476851509473	0.3833039880155411
338.0	169.39867111439662	pulse	0.0	t		face	adult-85.jpg	0.0	199.9998605430792	
338.0	169.4068830744277	ISI	1.0		7.0	face	adult-85.jpg	0.0	200.00807250311027	0.11668740912273279
339.0	169.52357048355043	adult	0.0		46.0	face	adult-85.jpg	1.0	200.124759912233	0.38330127132167036
339.0	169.8736867429293	response	0.0	b		face	adult-85.jpg	1.0	200.47487617161187	
339.0	169.9068717548721	ISI	1.0		7.0	face	adult-85.jpg	1.0	200.50806118355467	0.11670220000860354
340.0	170.0235739548807	adult	0.0		46.0	face	adult-7.jpg	0.0	200.62476338356328	0.3832867822911794
340.0	170.09862562487706	pulse	0.0	t		face	adult-7.jpg	0.0	200.69981505355963	
340.0	170.40686073717188	ISI	1.0		7.0	face	adult-7.jpg	0.0	201.00805016585446	0.11668740912273279
341.0	170.52354814629462	adult	0.0		46.0	face	adult-82.jpg	0.0	201.1247375749772	0.38328919712967036
341.0	170.79864322301273	pulse	0.0	t		face	adult-82.jpg	0.0	201.3998326516953	
341.0	170.9068373434243	ISI	1.0		7.0	face	adult-82.jpg	0.0	201.50802677210686	0.11670189815367848
342.0	171.02353924157796	adult	0.0		46.0	face	adult-4.jpg	0.0	201.62472867026054	0.3832674635832518
342.0	171.40680670516122	ISI	1.0		7.0	face	adult-4.jpg	0.0	202.0079961338438	0.11668710726826248
342.0	171.49858626301057	pulse	1.0	t		face	adult-4.jpg	0.0	202.09977569169314	
343.0	171.52349381242948	adult	0.0		46.0	face	adult-102.jpg	0.0	202.12468324111205	0.3833048935794068
343.0	171.90679870600889	ISI	1.0		7.0	face	adult-102.jpg	0.0	202.50798813469146	0.11667080710867594
344.0	172.02346951311756	adult	0.0		46.0	face	adult-13.jpg	0.0	202.62465894180013	0.3832958379352931
344.0	172.19857578864867	pulse	0.0	t		face	adult-13.jpg	0.0	202.79976521733124	
344.0	172.40676535105285	ISI	1.0		7.0	face	adult-13.jpg	0.0	203.00795477973543	0.11669254065463974
345.0	172.5234578917075	adult	0.0		46.0	face	adult-120.jpg	0.0	203.12464732039007	0.3833190807554274
345.0	172.8985598809004	pulse	0.0	t		face	adult-120.jpg	0.0	203.49974930958297	
345.0	172.90677697246292	ISI	1.0		6.0	face	adult-120.jpg	0.0	203.5079664011455	0.11668378686499636
346.0	173.02346075932792	adult	0.0		46.0	face	adult-113.jpg	0.0	203.6246501880105	0.3833054972892569
346.0	173.40676625661717	ISI	1.0		7.0	face	adult-113.jpg	0.0	204.00795568529975	0.11668680541333742
347.0	173.5234530620305	adult	0.0		46.0	face	adult-36.jpg	0.0	204.1246424907131	0.38330247874091583
347.0	173.59854850097418	pulse	0.0	t		face	adult-36.jpg	0.0	204.19973792965675	
347.0	173.90675554077143	ISI	1.0		5.0	face	adult-36.jpg	0.0	204.507944969454	0.116683183155601
348.0	174.02343872392703	body	0.0		46.0	body	body-14.jpg	0.0	204.6246281526096	0.3833054972892569
348.0	174.2985280654034	pulse	0.0	t		body	body-14.jpg	0.0	204.89971749408596	
348.0	174.4067442212163	ISI	1.0		7.0	body	body-14.jpg	0.0	205.00793364989886	0.11667382565656226
349.0	174.52341804687285	body	0.0		46.0	body	body-81.jpg	0.0	205.12460747555542	0.38331787333618195
349.0	174.90673592020903	ISI	1.0		7.0	body	body-81.jpg	0.0	205.5079253488916	0.1166852961391669
349.0	174.9985194021706	pulse	1.0	t		body	body-81.jpg	0.0	205.59970883085316	
350.0	175.0234212163482	body	0.0		46.0	body	body-74.jpg	0.0	205.62461064503077	0.3833064028535773
350.0	175.40672761920177	ISI	1.0		6.0	body	body-74.jpg	0.0	206.00791704788435	0.11668227759128058
351.0	175.52340989679305	body	0.0		46.0	body	body-98.jpg	0.0	206.12459932547563	0.38330308245076594
351.0	175.69850711668005	pulse	0.0	t		body	body-98.jpg	0.0	206.29969654536262	
351.0	175.90671297924382	ISI	1.0		7.0	body	body-98.jpg	0.0	206.5079024079264	0.11668348501007131
352.0	176.0233964642539	body	0.0		46.0	body	body-26.jpg	0.0	206.62458589293647	0.3833091195469933
352.0	176.39848426627123	pulse	0.0	t		body	body-26.jpg	0.0	206.9996736949538	
352.0	176.40670558380089	ISI	1.0		7.0	body	body-26.jpg	0.0	207.00789501248346	0.11668167388143047
353.0	176.52338725768232	body	0.0		46.0	body	body-120.jpg	0.0	207.1245766863649	0.38330398801508636
353.0	176.9066912456974	ISI	1.0		7.0	body	body-120.jpg	0.0	207.50788067437998	0.11668861654197826
354.0	177.02337986223938	body	0.0		46.0	body	body-1.jpg	0.0	207.62456929092195	0.3833332679319028
354.0	177.09850910892146	pulse	0.0	t		body	body-1.jpg	0.0	207.69969853760404	
354.0	177.40671313017128	ISI	1.0		7.0	body	body-1.jpg	0.0	208.00790255885386	0.1166877109772031
355.0	177.5234008411485	body	0.0		46.0	body	body-1.jpg	1.0	208.12459026983106	0.38330157317705016
355.0	177.79849169189947	pulse	0.0	t		body	body-1.jpg	1.0	208.39968112058204	
355.0	177.90670241432554	ISI	1.0		7.0	body	body-1.jpg	1.0	208.5078918430081	0.11668861654197826
355.0	177.96516927564835	response	1.0	b		body	body-1.jpg	1.0	208.56635870433092	
356.0	178.02339103086751	body	0.0		46.0	body	body-139.jpg	0.0	208.6245804595501	0.383303384305691
356.0	178.4066944151732	ISI	1.0		7.0	body	body-139.jpg	0.0	209.00788384385578	0.1250228277694987
356.0	178.4985264957586	pulse	1.0	t		body	body-139.jpg	0.0	209.09971592444117	
357.0	178.5317172429427	body	0.0		45.0	body	body-13.jpg	0.0	209.13290667162528	0.37496373969133856
357.0	178.90668098263404	ISI	1.0		7.0	body	body-13.jpg	0.0	209.50787041131662	0.11669103138046921
358.0	179.0233720140145	body	0.0		46.0	body	body-125.jpg	0.0	209.6245614426971	0.38330096946720005
358.0	179.19846470607945	pulse	0.0	t		body	body-125.jpg	0.0	209.79965413476202	
358.0	179.4066729834817	ISI	1.0		7.0	body	body-125.jpg	0.0	210.0078624121643	0.11669827589594206
359.0	179.52337125937765	body	0.0		46.0	body	body-50.jpg	0.0	210.12456068806023	0.38329070640338614
359.0	179.8984524205889	pulse	0.0	t		body	body-50.jpg	0.0	210.49964184927148	
359.0	179.90666196578104	ISI	1.0		5.0	body	body-50.jpg	0.0	210.50785139446361	0.1166901258161488
360.0	180.0233520915972	house	0.0		46.0	place	house-132.jpg	0.0	210.62454152027976	0.38329795091931373
360.0	180.4066500425165	ISI	1.0		6.0	place	house-132.jpg	0.0	211.00783947119908	0.11668740912273279
361.0	180.52333745163924	house	0.0		46.0	place	house-11.jpg	0.0	211.1245268803218	0.38327108584098823
361.0	180.5983993846994	pulse	0.0	t		place	house-11.jpg	0.0	211.19958881338198	
361.0	180.90660853748022	ISI	1.0		6.0	place	house-11.jpg	0.0	211.5077979661628	0.11668408871992142
362.0	181.02329262620015	house	0.0		46.0	place	house-65.jpg	0.0	211.62448205488272	0.38330459172493647
362.0	181.2983831750962	pulse	0.0	t		place	house-65.jpg	0.0	211.89957260377878	
362.0	181.40659721792508	ISI	1.0		6.0	place	house-65.jpg	0.0	212.00778664660766	0.1166880128325829
363.0	181.52328523075766	house	0.0		46.0	place	house-103.jpg	0.0	212.12447465944024	0.3833015731765954
363.0	181.90658680393426	ISI	1.0		7.0	place	house-103.jpg	0.0	212.50777623261683	0.1166852961391669
363.0	181.99837632299204	pulse	1.0	t		place	house-103.jpg	0.0	212.59956575167462	
364.0	182.02327210007343	house	0.0		46.0	place	house-138.jpg	0.0	212.624461528756	0.3833036861601613
364.0	182.4065757862336	ISI	1.0		4.0	place	house-138.jpg	0.0	213.00776521491616	0.11668771097765784
365.0	182.52326349721125	house	0.0		46.0	place	house-46.jpg	0.0	213.12445292589382	0.3833039880155411
365.0	182.6983679616137	pulse	0.0	t		place	house-46.jpg	0.0	213.2995573902963	
365.0	182.9065674852268	ISI	1.0		7.0	place	house-46.jpg	0.0	213.50775691390936	0.11667020339882583
366.0	183.0232376886256	house	0.0		46.0	place	house-46.jpg	1.0	213.6244271173082	0.38332089188406826
366.0	183.3983363574157	pulse	0.0	t		place	house-46.jpg	1.0	213.99952578609827	
366.0	183.40655858050968	ISI	1.0		4.0	place	house-46.jpg	1.0	214.00774800919226	0.11665631807773025
367.0	183.5232148985874	house	0.0		46.0	place	house-79.jpg	0.0	214.12440432726999	0.38333055123803206
367.0	183.55667610767887	response	0.0	b		place	house-79.jpg	0.0	214.15786553636144	
367.0	183.90654544982544	ISI	1.0		6.0	place	house-79.jpg	0.0	214.50773487850802	0.11668076831711005
368.0	184.02322621814255	house	0.0		46.0	place	house-120.jpg	0.0	214.62441564682513	0.38330791212774784
368.0	184.09834127764907	pulse	0.0	t		place	house-120.jpg	0.0	214.69953070633164	
368.0	184.4065341302703	ISI	1.0		6.0	place	house-120.jpg	0.0	215.00772355895288	0.11668680541333742
369.0	184.52322093568364	house	0.0		46.0	place	house-77.jpg	0.0	215.1244103643662	0.38329432866112256
369.0	184.79831027716	pulse	0.0	t		place	house-77.jpg	0.0	215.39949970584257	
369.0	184.90651526434476	ISI	1.0		5.0	place	house-77.jpg	0.0	215.50770469302734	0.11669525734805575
370.0	185.02321052169282	house	0.0		46.0	place	house-127.jpg	0.0	215.6243999503754	0.3833027805958409
370.0	185.40651330228866	ISI	1.0		6.0	place	house-127.jpg	0.0	216.00770273097123	0.1166880128325829
370.0	185.49829738796006	pulse	1.0	t		place	house-127.jpg	0.0	216.09948681664264	
371.0	185.52320131512124	house	0.0		46.0	place	house-19.jpg	0.0	216.12439074380381	0.3832919138226316
371.0	185.90649322894387	ISI	1.0		6.0	place	house-19.jpg	0.0	216.50768265762645	0.11669374807388522
372.0	186.02318697701776	car	0.0		46.0	object	car-116.jpg	0.0	216.62437640570033	0.3833054972892569
372.0	186.19828419690475	pulse	0.0	t		object	car-116.jpg	0.0	216.79947362558732	
372.0	186.40649247430702	ISI	1.0		7.0	object	car-116.jpg	0.0	217.0076819029896	0.11668710726780773
373.0	186.52317958157482	car	0.0		46.0	object	car-133.jpg	0.0	217.1243690102574	0.38333809760842996
373.0	186.898311152539	pulse	0.0	t		object	car-133.jpg	0.0	217.49950058122158	
373.0	186.90651767918325	ISI	1.0		7.0	object	car-133.jpg	0.0	217.50770710786583	0.11668499428469659
374.0	187.02320267346795	car	0.0		46.0	object	car-38.jpg	0.0	217.62439210215052	0.3833000639024249
374.0	187.40650273737037	ISI	1.0		7.0	object	car-38.jpg	0.0	218.00769216605295	0.11669163509031932
375.0	187.5231943724607	car	0.0		46.0	object	car-103.jpg	0.0	218.12438380114327	0.38329915833810446
375.0	187.59834716381738	pulse	0.0	t		object	car-103.jpg	0.0	218.19953659249995	
375.0	187.9064935307988	ISI	1.0		7.0	object	car-103.jpg	0.0	218.50768295948137	0.11668408871992142
376.0	188.02317761951872	car	0.0		46.0	object	car-119.jpg	0.0	218.6243670482013	0.38331002511131373
376.0	188.29827662034904	pulse	0.0	t		object	car-119.jpg	0.0	218.89946604903162	
376.0	188.40648764463003	ISI	1.0		7.0	object	car-119.jpg	0.0	219.0076770733126	0.11667382565656226
377.0	188.5231614702866	car	0.0		46.0	object	car-23.jpg	0.0	219.12435089896917	0.3832846693076135
377.0	188.9064461395942	ISI	1.0		7.0	object	car-23.jpg	0.0	219.50763556827678	0.11668257944575089
377.0	188.9982229807497	pulse	1.0	t		object	car-23.jpg	0.0	219.59941240943226	
378.0	189.02312871903996	car	0.0		46.0	object	car-56.jpg	0.0	219.62431814772253	0.3832867822911794
378.0	189.40641550133114	ISI	1.0		7.0	object	car-56.jpg	0.0	220.0076049300137	0.11667744791429868
379.0	189.52309294924544	car	0.0		46.0	object	car-29.jpg	0.0	220.124282377928	0.3833239104324093
379.0	189.69820767671126	pulse	0.0	t		object	car-29.jpg	0.0	220.29939710539384	
379.0	189.90641685967785	ISI	1.0		7.0	object	car-29.jpg	0.0	220.50760628836042	0.11668952210629868
380.0	190.02310638178415	car	0.0		46.0	object	car-29.jpg	1.0	220.62429581046672	0.38330459172493647
380.0	190.3981950893658	pulse	0.0	t		object	car-29.jpg	1.0	220.99938451804837	
380.0	190.40641097350908	ISI	1.0		7.0	object	car-29.jpg	1.0	221.00760040219166	0.11670552041141491
381.0	190.5231164939205	car	0.0		46.0	object	car-63.jpg	0.0	221.12430592260307	0.38328165075927245
381.0	190.55653423591957	response	0.0	b		object	car-63.jpg	0.0	221.15772366460214	
381.0	190.90639814467977	ISI	1.0		6.0	object	car-63.jpg	0.0	221.50758757336234	0.11668922025182837
382.0	191.0230873649316	car	0.0		46.0	object	car-108.jpg	0.0	221.62427679361417	0.3833021768859908
382.0	191.09821600790383	pulse	0.0	t		object	car-108.jpg	0.0	221.6994054365864	
382.0	191.4063895418176	ISI	1.0		7.0	object	car-108.jpg	0.0	222.00757897050016	0.11668680541333742
383.0	191.52307634723093	car	0.0		46.0	object	car-11.jpg	0.0	222.1242657759135	0.3833021768864455
383.0	191.7981650849979	pulse	0.0	t		object	car-11.jpg	0.0	222.39935451368046	
383.0	191.90637852411737	ISI	1.0		11.0	object	car-11.jpg	0.0	222.50756795279995	0.0999975549757437
384.0	192.00637607909312	baseline	0.0		48.0		baseline	0.0	222.6075655077757	0.39999112546865945
384.0	192.40636720456177	ISI	1.0		11.0		baseline	0.0	223.00755663324435	0.09998970675133023
384.0	192.49815279950735	pulse	1.0	t			baseline	0.0	223.09934222818993	
385.0	192.5063569113131	baseline	0.0		48.0		baseline	0.0	223.10754633999568	0.4000004829676982
385.0	192.9063573942808	ISI	1.0		11.0		baseline	0.0	223.50754682296338	0.09999725312127339
386.0	193.00635464740208	baseline	0.0		48.0		baseline	0.0	223.60754407608465	0.3999914273235845
386.0	193.1981359861943	pulse	0.0	t			baseline	0.0	223.79932541487688	
386.0	193.40634607472566	ISI	1.0		11.0		baseline	0.0	224.00753550340823	0.09999966795930959
387.0	193.50634574268497	baseline	0.0		48.0		baseline	0.0	224.10753517136754	0.39999172917850956
387.0	193.89812279513944	pulse	0.0	t			baseline	0.0	224.49931222382202	
387.0	193.90633747186348	ISI	1.0		11.0		baseline	0.0	224.50752690054605	0.09999574384710286
388.0	194.00633321571058	baseline	0.0		48.0		baseline	0.0	224.60752264439316	0.39999172917850956
388.0	194.4063249448891	ISI	1.0		11.0		baseline	0.0	225.00751437357167	0.09999936610483928
