trial_nr	onset	event_type	phase	response	nr_frames	trial_type	stim_name	task_probe	onset_abs	duration
0.0	0.054576528938014235	baseline	0.0		41.0		baseline	0.0	88.24410428296187	0.3491838348068086
0.0	0.4037603637448228	ISI	1.0		11.0		baseline	0.0	88.59328811776868	0.09999483831370526
1.0	0.5037552020585281	baseline	0.0		48.0		baseline	0.0	88.69328295608238	0.39999384219936474
1.0	0.703866223586374	pulse	0.0	t			baseline	0.0	88.89339397761023	
1.0	0.9037490442578928	ISI	1.0		11.0		baseline	0.0	89.09327679828175	0.09999514016681132
2.0	1.0037441844247041	baseline	0.0		48.0		baseline	0.0	89.19327193844856	0.39996486431255107
2.0	1.4037090487372552	ISI	1.0		11.0		baseline	0.0	89.59323680276111	0.09999846055006856
2.0	1.4083020437560663	pulse	1.0	t			baseline	0.0	89.59782979777992	
3.0	1.5037075092873238	baseline	0.0		48.0		baseline	0.0	89.69323526331118	0.399989314404138
3.0	1.9036968236914618	ISI	1.0		11.0		baseline	0.0	90.09322457771532	0.09999815869696249
4.0	2.0036949823884243	baseline	0.0		48.0		baseline	0.0	90.19322273641228	0.3999878051390624
4.0	2.1038078452193076	pulse	0.0	t			baseline	0.0	90.29333559924316	
4.0	2.4036827875274867	ISI	1.0		11.0		baseline	0.0	90.59321054155134	0.0999975549912051
5.0	2.5036803425186918	baseline	0.0		48.0		baseline	0.0	90.69320809654255	0.3999911255218649
5.0	2.803783787536304	pulse	0.0	t			baseline	0.0	90.99331154156016	
5.0	2.9036714680405566	ISI	1.0		11.0		baseline	0.0	91.09319922206441	0.09999634757923559
6.0	3.0036678156197922	baseline	0.0		48.0		baseline	0.0	91.19319556964365	0.399989314404138
6.0	3.40365713002393	ISI	1.0		11.0		baseline	0.0	91.59318488404779	0.09999695128499297
7.0	3.503654081308923	baseline	0.0		47.0		baseline	0.0	91.69318183533278	0.39998810699216847
7.0	3.5079213769568014	pulse	0.0	t			baseline	0.0	91.69744913098066	
7.0	3.9036421883010917	ISI	1.0		11.0		baseline	0.0	92.09316994232495	0.10000842169847601
8.0	4.003650609999568	baseline	0.0		48.0		baseline	0.0	92.19317836402342	0.3999784476968671
8.0	4.2037477462899915	pulse	0.0	t			baseline	0.0	92.39327550031385	
8.0	4.403629057696435	ISI	1.0		11.0		baseline	0.0	92.59315681172029	0.09999815869650774
9.0	4.5036272163929425	baseline	0.0		48.0		baseline	0.0	92.6931549704168	0.3999920310811831
9.0	4.903619247474126	ISI	1.0		11.0		baseline	0.0	93.09314700149798	0.09999332904908442
9.0	4.908169379369156	pulse	1.0	t			baseline	0.0	93.09769713339301	
10.0	5.00361257652321	baseline	0.0		48.0		baseline	0.0	93.19314033054707	0.3999887106983806
10.0	5.403601287221591	ISI	1.0		11.0		baseline	0.0	93.59312904124545	0.09999936610893201
11.0	5.503600653330523	baseline	0.0		48.0		baseline	0.0	93.69312840735438	0.399989314404138
11.0	5.603711101337467	pulse	0.0	t			baseline	0.0	93.79323885536132	
11.0	5.903589967734661	ISI	1.0		7.0		baseline	0.0	94.09311772175852	0.12500426367341788
12.0	6.0285942314080785	car	0.0		45.0	object	car-136.jpg	0.0	94.21812198543194	0.3749675130725336
12.0	6.303675875094086	pulse	0.0	t		object	car-136.jpg	0.0	94.49320362911794	
12.0	6.403561744480612	ISI	1.0		5.0	object	car-136.jpg	0.0	94.59308949850447	0.11667976205535524
13.0	6.520241506535967	car	0.0		46.0	object	car-79.jpg	0.0	94.70976926055982	0.38330378695718537
13.0	6.903545293493153	ISI	1.0		7.0	object	car-79.jpg	0.0	95.09307304751701	0.11668157317308214
14.0	7.020226866666235	car	0.0		45.0	object	car-79.jpg	1.0	95.20975462069009	0.38330559807491227
14.0	7.010499050521503	pulse	0.0	t		object	car-79.jpg	1.0	95.20002680454536	
14.0	7.403532464741147	ISI	1.0		7.0	object	car-79.jpg	1.0	95.593060218765	0.1166851954089907
15.0	7.520217660150138	car	0.0		46.0	object	car-26.jpg	0.0	95.709745414174	0.3833022776921098
15.0	7.645309159336193	response	0.0	b		object	car-26.jpg	0.0	95.83483691336005	
15.0	7.703619911550959	pulse	0.0	t		object	car-26.jpg	0.0	95.89314766557482	
15.0	7.903519937842248	ISI	1.0		7.0	object	car-26.jpg	0.0	96.0930476918661	0.11668247873240034
16.0	8.020202416574648	car	0.0		46.0	object	car-87.jpg	0.0	96.2097301705985	0.3833025795447611
16.0	8.403504996119409	ISI	1.0		7.0	object	car-87.jpg	0.0	96.59303275014327	0.11667583796679537
16.0	8.438674491098482	pulse	1.0	t		object	car-87.jpg	0.0	96.62820224512234	
17.0	8.520180834086204	car	0.0		46.0	object	car-107.jpg	0.0	96.70970858811006	0.38330922031036607
17.0	8.90349005439657	ISI	1.0		7.0	object	car-107.jpg	0.0	97.09301780842043	0.11667704537876489
18.0	9.020167099775335	car	0.0		46.0	object	car-125.jpg	0.0	97.20969485379919	0.38330952216347214
18.0	9.103599868512902	pulse	0.0	t		object	car-125.jpg	0.0	97.29312762253676	
18.0	9.403476621938808	ISI	1.0		7.0	object	car-125.jpg	0.0	97.59300437596266	0.11668942135111138
19.0	9.520166043289919	car	0.0		46.0	object	car-12.jpg	0.0	97.70969379731378	0.3832980517499891
19.0	9.80358184788929	pulse	0.0	t		object	car-12.jpg	0.0	97.99310960191315	
19.0	9.903464095039908	ISI	1.0		7.0	object	car-12.jpg	0.0	98.09299184906376	0.11669213802770173
20.0	10.02015623306761	car	0.0		46.0	object	car-133.jpg	0.0	98.20968398709147	0.38329352395567184
20.0	10.403449757023282	ISI	1.0		7.0	object	car-133.jpg	0.0	98.59297751104714	0.11668127132043082
21.0	10.520131028343712	car	0.0		45.0	object	car-1.jpg	0.0	98.70965878236757	0.38330740919263917
21.0	10.510469016149273	pulse	0.0	t		object	car-1.jpg	0.0	98.69999677017313	
21.0	10.903438437536352	ISI	1.0		7.0	object	car-1.jpg	0.0	99.09296619156021	0.11668459170323331
22.0	11.020123029239585	car	0.0		46.0	object	car-113.jpg	0.0	99.20965078326344	0.38329986286817075
22.0	11.20354761776116	pulse	0.0	t		object	car-113.jpg	0.0	99.39307537178502	
22.0	11.403422892107756	ISI	1.0		7.0	object	car-113.jpg	0.0	99.59295064613161	0.11668489355588463
23.0	11.52010778566364	car	0.0		46.0	object	car-138.jpg	0.0	99.7096355396875	0.3833022776921098
23.0	11.90341006335575	ISI	1.0		4.0	object	car-138.jpg	0.0	100.0929378173796	0.11668459170323331
23.0	11.967292116113185	pulse	1.0	t		object	car-138.jpg	0.0	100.15681987013704	
24.0	12.020094655058983	word	0.0		46.0	character	word-6.jpg	0.0	100.20962240908284	0.3833001647212768
24.0	12.40339481978026	ISI	1.0		6.0	character	word-6.jpg	0.0	100.59292257380412	0.11668579911474808
25.0	12.520080618895008	word	0.0		46.0	character	word-2.jpg	0.0	100.70960837291886	0.38327209239378135
25.0	12.603472939332732	pulse	0.0	t		character	word-2.jpg	0.0	100.79300069335659	
25.0	12.90335271128879	ISI	1.0		6.0	character	word-2.jpg	0.0	101.09288046531265	0.11668036576111263
26.0	13.020033077049902	word	0.0		46.0	character	word-30.jpg	0.0	101.20956083107376	0.38330257954521585
26.0	13.303468803946544	pulse	0.0	t		character	word-30.jpg	0.0	101.4929965579704	
26.0	13.403335656595118	ISI	1.0		6.0	character	word-30.jpg	0.0	101.59286341061897	0.11669183617459566
27.0	13.520027492769714	word	0.0		46.0	character	word-12.jpg	0.0	101.70955524679357	0.38330288139786717
27.0	13.90333037416758	ISI	1.0		7.0	character	word-12.jpg	0.0	102.09285812819144	0.11667463055482585
28.0	14.020005004722407	word	0.0		45.0	character	word-29.jpg	0.0	102.20953275874626	0.3833131443993807
28.0	14.012026426625198	pulse	0.0	t		character	word-29.jpg	0.0	102.20155418064905	
28.0	14.403318149121787	ISI	1.0		7.0	character	word-29.jpg	0.0	102.59284590314564	0.11667644167255276
29.0	14.51999459079434	word	0.0		46.0	character	word-53.jpg	0.0	102.7095223448182	0.38330439066294275
29.0	14.703403784813872	pulse	0.0	t		character	word-53.jpg	0.0	102.89293153883773	
29.0	14.903298981457283	ISI	1.0		7.0	character	word-53.jpg	0.0	103.09282673548114	0.11668066761421869
30.0	15.019979649071502	word	0.0		46.0	character	word-76.jpg	0.0	103.20950740309536	0.38330439066294275
30.0	15.403284039734444	ISI	1.0		6.0	character	word-76.jpg	0.0	103.5928117937583	0.11668278058550641
30.0	15.446352725475663	pulse	1.0	t		character	word-76.jpg	0.0	103.63588047949952	
31.0	15.51996682031995	word	0.0		46.0	character	word-93.jpg	0.0	103.70949457434381	0.38329533507339875
31.0	15.90326215539335	ISI	1.0		7.0	character	word-93.jpg	0.0	104.0927899094172	0.11667613981944669
32.0	16.019938295212796	word	0.0		46.0	character	word-94.jpg	0.0	104.20946604923665	0.38331676663528924
32.0	16.10337861027483	pulse	0.0	t		character	word-94.jpg	0.0	104.29290636429869	
32.0	16.403255061848085	ISI	1.0		7.0	character	word-94.jpg	0.0	104.59278281587194	0.11668428985012724
33.0	16.519939351698213	word	0.0		46.0	character	word-57.jpg	0.0	104.70946710572207	0.3833025795447611
33.0	16.80336360818137	pulse	0.0	t		character	word-57.jpg	0.0	104.99289136220523	
33.0	16.903241931242974	ISI	1.0		7.0	character	word-57.jpg	0.0	105.09276968526683	0.11668519540944544
34.0	17.01992712665242	word	0.0		46.0	character	word-117.jpg	0.0	105.20945488067628	0.38330107028014027
34.0	17.40322819693256	ISI	1.0		7.0	character	word-117.jpg	0.0	105.59275595095642	0.11668036576111263
35.0	17.519908562693672	word	0.0		45.0	character	word-97.jpg	0.0	105.70943631671753	0.3833098240165782
35.0	17.512035029435083	pulse	0.0	t		character	word-97.jpg	0.0	105.70156278345894	
35.0	17.90321838671025	ISI	1.0		7.0	character	word-97.jpg	0.0	106.0927461407341	0.11668066761421869
36.0	18.01989905432447	car	0.0		46.0	object	car-92.jpg	0.0	106.20942680834833	0.38330408881029143
36.0	18.20332032246324	pulse	0.0	t		object	car-92.jpg	0.0	106.3928480764871	
36.0	18.40320314313476	ISI	1.0		8.0	object	car-92.jpg	0.0	106.59273089715862	0.1166824787319456
37.0	18.519885621866706	car	0.0		46.0	object	car-122.jpg	0.0	106.70941337589056	0.38333699078566497
37.0	18.90322261265237	ISI	1.0		7.0	object	car-122.jpg	0.0	107.09275036667623	0.11668157317308214
37.0	18.935806133109054	pulse	1.0	t		object	car-122.jpg	0.0	107.12533388713291	
38.0	19.019904185825453	car	0.0		46.0	object	car-134.jpg	0.0	107.20943193984931	0.3832708849813571
38.0	19.40317507080681	ISI	1.0		8.0	object	car-134.jpg	0.0	107.59270282483067	0.11668610096830889
39.0	19.51986117177512	car	0.0		46.0	object	car-96.jpg	0.0	107.70938892579898	0.38330046657392813
39.0	19.603282771951854	pulse	0.0	t		object	car-96.jpg	0.0	107.79281052597571	
39.0	19.903161638349047	ISI	1.0		5.0	object	car-96.jpg	0.0	108.0926893923729	0.11668066761421869
40.0	20.019842305963266	car	0.0		46.0	object	car-108.jpg	0.0	108.20937005998712	0.3833043906633975
40.0	20.303260827240138	pulse	0.0	t		object	car-108.jpg	0.0	108.492788581264	
40.0	20.403146696626663	ISI	1.0		7.0	object	car-108.jpg	0.0	108.59267445065052	0.11668398799702118
41.0	20.519830684623685	car	0.0		46.0	object	car-64.jpg	0.0	108.70935843864754	0.38329382580832316
41.0	20.903124510432008	ISI	1.0		7.0	object	car-64.jpg	0.0	109.09265226445586	0.1166879120860358
42.0	21.019812422518044	car	0.0		45.0	object	car-140.jpg	0.0	109.2093401765419	0.38330740919263917
42.0	21.011224403243887	pulse	0.0	t		object	car-140.jpg	0.0	109.20075215726774	
42.0	21.403119831710683	ISI	1.0		6.0	object	car-140.jpg	0.0	109.59264758573454	0.11668610096830889
43.0	21.51980593267899	car	0.0		46.0	object	car-89.jpg	0.0	109.70933368670285	0.3833013721327916
43.0	21.703226295258446	pulse	0.0	t		object	car-89.jpg	0.0	109.8927540492823	
43.0	21.903107304811783	ISI	1.0		7.0	object	car-89.jpg	0.0	110.09263505883564	0.11668217687929427
44.0	22.019789481691078	car	0.0		46.0	object	car-99.jpg	0.0	110.20931723571493	0.38330439066294275
44.0	22.40309387235402	ISI	1.0		7.0	object	car-99.jpg	0.0	110.59262162637788	0.11668278058505166
44.0	22.441423164379103	pulse	1.0	t		object	car-99.jpg	0.0	110.63095091840296	
45.0	22.519776652939072	car	0.0		46.0	object	car-88.jpg	0.0	110.70930440696293	0.38330529622226095
45.0	22.903081949161333	ISI	1.0		4.0	object	car-88.jpg	0.0	111.09260970318519	0.1083480159654755
46.0	23.01142996512681	car	0.0		47.0	object	car-120.jpg	0.0	111.20095771915067	0.39163824972365546
46.0	23.103188744747058	pulse	0.0	t		object	car-120.jpg	0.0	111.29271649877091	
46.0	23.403068214850464	ISI	1.0		6.0	object	car-120.jpg	0.0	111.59259596887432	0.1083480159654755
47.0	23.51141623081594	car	0.0		47.0	object	car-21.jpg	0.0	111.7009439848398	0.39162647745706636
47.0	23.80316861115307	pulse	0.0	t		object	car-21.jpg	0.0	111.99269636517693	
47.0	23.903042708273006	ISI	1.0		7.0	object	car-21.jpg	0.0	112.09257046229686	0.10836190120289757
48.0	24.011404609475903	body	0.0		47.0	body	body-138.jpg	0.0	112.20093236349976	0.3916340237819895
48.0	24.403038633257893	ISI	1.0		6.0	body	body-138.jpg	0.0	112.59256638728175	0.10834499743577908
49.0	24.511383630693672	body	0.0		46.0	body	body-111.jpg	0.0	112.70091138471753	0.39164157010645795
49.0	24.507094903483903	pulse	0.0	t		body	body-111.jpg	0.0	112.69662265750776	
49.0	24.90302520080013	ISI	1.0		7.0	body	body-111.jpg	0.0	113.09255295482399	0.10834952523055108
50.0	25.01137472603068	body	0.0		47.0	body	body-42.jpg	0.0	113.20090248005454	0.39166783131577176
50.0	25.203163660764403	pulse	0.0	t		body	body-42.jpg	0.0	113.39269141478826	
50.0	25.403042557346453	ISI	1.0		7.0	body	body-42.jpg	0.0	113.59257031137031	0.11669274173391386
51.0	25.519735299080367	body	0.0		46.0	body	body-97.jpg	0.0	113.70926305310422	0.3832947313671866
51.0	25.903030030447553	ISI	1.0		4.0	body	body-97.jpg	0.0	114.09255778447141	0.11667644167255276
51.0	25.964570911453848	pulse	1.0	t		body	body-97.jpg	0.0	114.1540986654777	
52.0	26.019706472120106	body	0.0		46.0	body	body-25.jpg	0.0	114.20923422614396	0.38330861660506343
52.0	26.40301508872517	ISI	1.0		7.0	body	body-25.jpg	0.0	114.59254284274903	0.11668821393868711
53.0	26.519703302663856	body	0.0		46.0	body	body-58.jpg	0.0	114.70923105668771	0.38329986286817075
53.0	26.603119167634304	pulse	0.0	t		body	body-58.jpg	0.0	114.79264692165816	
53.0	26.903003165532027	ISI	1.0		7.0	body	body-58.jpg	0.0	115.09253091955588	0.11668428985012724
54.0	27.019687455382154	body	0.0		46.0	body	body-78.jpg	0.0	115.20921520940601	0.3832696775698423
54.0	27.303072169124334	pulse	0.0	t		body	body-78.jpg	0.0	115.49259992314819	
54.0	27.402957132951997	ISI	1.0		7.0	body	body-78.jpg	0.0	115.59248488697585	0.11668428985012724
55.0	27.519641422802124	body	0.0		46.0	body	body-72.jpg	0.0	115.70916917682598	0.38330439066294275
55.0	27.902945813465067	ISI	1.0		8.0	body	body-72.jpg	0.0	116.09247356748892	0.1166773472314162
56.0	28.019623160696483	body	0.0		45.0	body	body-85.jpg	0.0	116.20915091472034	0.38330771104574524
56.0	28.01149607093066	pulse	0.0	t		body	body-85.jpg	0.0	116.20102382495452	
56.0	28.402930871742228	ISI	1.0		8.0	body	body-85.jpg	0.0	116.59245862576608	0.11668428985012724
57.0	28.519615161592355	body	0.0		46.0	body	body-92.jpg	0.0	116.70914291561621	0.3833019758390037
57.0	28.70303854270196	pulse	0.0	t		body	body-92.jpg	0.0	116.89256629672582	
57.0	28.90291713743136	ISI	1.0		8.0	body	body-92.jpg	0.0	117.09244489145522	0.1166897232037627
58.0	29.019606860635122	body	0.0		46.0	body	body-96.jpg	0.0	117.20913461465898	0.3832971461915804
58.0	29.402904006826702	ISI	1.0		7.0	body	body-96.jpg	0.0	117.59243176085056	0.11668187502618821
58.0	29.435283776518645	pulse	1.0	t		body	body-96.jpg	0.0	117.6248115305425	
59.0	29.51958588185289	body	0.0		46.0	body	body-86.jpg	0.0	117.70911363587675	0.38329201469059626
59.0	29.902877896543487	ISI	1.0		7.0	body	body-86.jpg	0.0	118.09240565056734	0.11668217687929427
60.0	30.01956007342278	adult	0.0		46.0	face	adult-95.jpg	0.0	118.20908782744664	0.38330348510362455
60.0	30.10302031078163	pulse	0.0	t		face	adult-95.jpg	0.0	118.29254806480549	
60.0	30.402863558526406	ISI	1.0		8.0	face	adult-95.jpg	0.0	118.59239131255026	0.11669545841050422
61.0	30.51955901693691	adult	0.0		46.0	face	adult-141.jpg	0.0	118.70908677096077	0.3832877887489303
61.0	30.802978443772645	pulse	0.0	t		face	adult-141.jpg	0.0	118.9925061977965	
61.0	30.90284680568584	ISI	1.0		8.0	face	adult-141.jpg	0.0	119.0923745597097	0.11669938249951883
62.0	31.01954618818536	adult	0.0		46.0	face	adult-74.jpg	0.0	119.20907394220922	0.38328748689582426
62.0	31.402833675081183	ISI	1.0		8.0	face	adult-74.jpg	0.0	119.59236142910504	0.11669515655739815
63.0	31.51952883163858	adult	0.0		45.0	face	adult-34.jpg	0.0	119.70905658566244	0.3833074091930939
63.0	31.511646544643554	pulse	0.0	t		face	adult-34.jpg	0.0	119.70117429866741	
63.0	31.902836240831675	ISI	1.0		8.0	face	adult-34.jpg	0.0	120.09236399485553	0.11668368614391511
64.0	32.01951992697559	adult	0.0		46.0	face	adult-23.jpg	0.0	120.20904768099945	0.38330318325097323
64.0	32.20294149696747	pulse	0.0	t		face	adult-23.jpg	0.0	120.39246925099133	
64.0	32.402823110226564	ISI	1.0		8.0	face	adult-23.jpg	0.0	120.59235086425042	0.11668670467406628
65.0	32.51950981490063	adult	0.0		46.0	face	adult-10.jpg	0.0	120.70903756892449	0.38330046657392813
65.0	32.90281028147456	ISI	1.0		8.0	face	adult-10.jpg	0.0	121.09233803549841	0.11668247873240034
65.0	32.934478885534645	pulse	1.0	t		face	adult-10.jpg	0.0	121.1240066395585	
66.0	33.01949276020696	adult	0.0		46.0	face	adult-144.jpg	0.0	121.20902051423082	0.38333336854930167
66.0	33.40282612875626	ISI	1.0		8.0	face	adult-144.jpg	0.0	121.59235388278012	0.1166879120860358
67.0	33.519514040842296	adult	0.0		46.0	face	adult-33.jpg	0.0	121.70904179486615	0.38326816830476673
67.0	33.60291722798729	pulse	0.0	t		face	adult-33.jpg	0.0	121.79244498201115	
67.0	33.90278220914706	ISI	1.0		8.0	face	adult-33.jpg	0.0	122.09230996317092	0.11668217687929427
68.0	34.01946438602636	adult	0.0		46.0	face	adult-33.jpg	1.0	122.20899214005021	0.38330257954521585
68.0	34.30288502027361	pulse	0.0	t		face	adult-33.jpg	1.0	122.49241277429746	
68.0	34.40276696557157	ISI	1.0		8.0	face	adult-33.jpg	1.0	122.59229471959543	0.1250190544697034
68.0	34.49454566748909	response	1.0	b		face	adult-33.jpg	1.0	122.68407342151295	
69.0	34.527786020041276	adult	0.0		45.0	face	adult-39.jpg	0.0	122.71731377406513	0.37495211857003596
69.0	34.90273813861131	ISI	1.0		7.0	face	adult-39.jpg	0.0	123.09226589263517	0.1166942509985347
70.0	35.01943238960985	adult	0.0		45.0	face	adult-71.jpg	0.0	123.2089601436337	0.38330891845771475
70.0	35.0115395377602	pulse	0.0	t		face	adult-71.jpg	0.0	123.20106729178406	
70.0	35.40274130806756	ISI	1.0		8.0	face	adult-71.jpg	0.0	123.59226906209142	0.11668398799747592
71.0	35.51942529606504	adult	0.0		46.0	face	adult-98.jpg	0.0	123.7089530500889	0.38329110913127806
71.0	35.70284686605646	pulse	0.0	t		face	adult-98.jpg	0.0	123.89237462008032	
71.0	35.902716405196315	ISI	1.0		11.0	face	adult-98.jpg	0.0	124.09224415922017	0.10001023281620292
72.0	36.00272663801252	baseline	0.0		48.0		baseline	0.0	124.19225439203638	0.39998931440459273
72.0	36.40271595241711	ISI	1.0		11.0		baseline	0.0	124.59224370644097	0.09999453646059919
72.0	36.407441460895825	pulse	1.0	t			baseline	0.0	124.59696921491968	
73.0	36.50271048887771	baseline	0.0		48.0		baseline	0.0	124.69223824290157	0.3999902199634562
73.0	36.90270070884117	ISI	1.0		11.0		baseline	0.0	125.09222846286502	0.09999755499075036
74.0	37.00269826383192	baseline	0.0		48.0		baseline	0.0	125.19222601785577	0.3999884088457293
74.0	37.10281474889871	pulse	0.0	t			baseline	0.0	125.29234250292257	
74.0	37.402686672677646	ISI	1.0		11.0		baseline	0.0	125.5922144267015	0.10000027166734071
75.0	37.50268694434499	baseline	0.0		48.0		baseline	0.0	125.69221469836884	0.39998327734474515
75.0	37.802787974539115	pulse	0.0	t			baseline	0.0	125.99231572856297	
75.0	37.90267022168973	ISI	1.0		11.0		baseline	0.0	126.09219797571359	0.1000017809324163
76.0	38.00267200262215	baseline	0.0		48.0		baseline	0.0	126.192199756646	0.39998901255148667
76.0	38.402661015173635	ISI	1.0		11.0		baseline	0.0	126.59218876919749	0.09999876240271988
77.0	38.502659777576355	baseline	0.0		47.0		baseline	0.0	126.69218753160021	0.39998659772754763
77.0	38.50685462850788	pulse	0.0	t			baseline	0.0	126.69638238253174	
77.0	38.9026463753039	ISI	1.0		11.0		baseline	0.0	127.09217412932776	0.09999725313764429
78.0	39.00264362844155	baseline	0.0		48.0		baseline	0.0	127.1921713824654	0.3999887106983806
78.0	39.20275344255788	pulse	0.0	t			baseline	0.0	127.39228119658173	
78.0	39.40263233913993	ISI	1.0		11.0		baseline	0.0	127.59216009316378	0.09999966796203807
79.0	39.502632007101965	baseline	0.0		48.0		baseline	0.0	127.69215976112582	0.4000530053840521
79.0	39.90268501248602	ISI	1.0		11.0		baseline	0.0	128.09221276650987	0.10000087537355284
79.0	39.907305174273006	pulse	1.0	t			baseline	0.0	128.09683292829686	
80.0	40.00268588785957	baseline	0.0		48.0		baseline	0.0	128.19221364188343	0.3999868995806537
80.0	40.402672787440224	ISI	1.0		11.0		baseline	0.0	128.59220054146408	0.09999815869650774
81.0	40.50267094613673	baseline	0.0		48.0		baseline	0.0	128.6921987001606	0.39998931440459273
81.0	40.60278743120398	pulse	0.0	t			baseline	0.0	128.79231518522784	
81.0	40.902660260541325	ISI	1.0		11.0		baseline	0.0	129.09218801456518	0.09999725313764429
82.0	41.00265751367897	baseline	0.0		48.0		baseline	0.0	129.19218526770283	0.39998931440459273
82.0	41.302764580932944	pulse	0.0	t			baseline	0.0	129.4922923349568	
82.0	41.40264682808356	ISI	1.0		11.0		baseline	0.0	129.59217458210742	0.09999634757878084
83.0	41.50264317566234	baseline	0.0		48.0		baseline	0.0	129.6921709296862	0.3999899181103501
83.0	41.90263309377269	ISI	1.0		4.0		baseline	0.0	130.09216084779655	0.11664142672634625
84.0	42.01927452049904	house	0.0		45.0	place	house-140.jpg	0.0	130.2088022745229	0.38330680548642704
84.0	42.01228964242773	pulse	0.0	t		place	house-140.jpg	0.0	130.2018173964516	
84.0	42.402581325985466	ISI	1.0		7.0	place	house-140.jpg	0.0	130.59210908000932	0.11668579911520283
85.0	42.51926712510067	house	0.0		46.0	place	house-14.jpg	0.0	130.70879487912453	0.3832714886875692
85.0	42.70267028206035	pulse	0.0	t		place	house-14.jpg	0.0	130.8921980360842	
85.0	42.90253861378824	ISI	1.0		7.0	place	house-14.jpg	0.0	131.0920663678121	0.1166710083189173
86.0	43.019209622107155	house	0.0		46.0	place	house-101.jpg	0.0	131.208737376131	0.3833143518113502
86.0	43.402523973918505	ISI	1.0		8.0	place	house-101.jpg	0.0	131.59205172794236	0.11669123246883828
86.0	43.434243892985705	pulse	1.0	t		place	house-101.jpg	0.0	131.62377164700956	
87.0	43.519215206387344	house	0.0		46.0	place	house-101.jpg	1.0	131.7087429604112	0.38329684433847433
87.0	43.90251205072582	ISI	1.0		5.0	place	house-101.jpg	1.0	132.09203980474967	0.11668006390800656
87.0	43.97763993828903	response	1.0	b		place	house-101.jpg	1.0	132.1671676923129	
88.0	44.019192114633825	house	0.0		46.0	place	house-71.jpg	0.0	132.20871986865768	0.3833065036337757
88.0	44.102617638899574	pulse	0.0	t		place	house-71.jpg	0.0	132.29214539292343	
88.0	44.4024986182676	ISI	1.0		7.0	place	house-71.jpg	0.0	132.59202637229146	0.11666738608300875
89.0	44.51916600435061	house	0.0		46.0	place	house-63.jpg	0.0	132.70869375837447	0.3833185777534709
89.0	44.80260173124725	pulse	0.0	t		place	house-63.jpg	0.0	132.9921294852711	
89.0	44.90248458210408	ISI	1.0		7.0	place	house-63.jpg	0.0	133.09201233612794	0.11668278058505166
90.0	45.01916736268913	house	0.0		46.0	place	house-15.jpg	0.0	133.208695116713	0.3833040888098367
90.0	45.40247145149897	ISI	1.0		7.0	place	house-15.jpg	0.0	133.59199920552282	0.11667764908452227
91.0	45.51914910058349	house	0.0		45.0	place	house-7.jpg	0.0	133.70867685460735	0.3833065036337757
91.0	45.51075607833809	pulse	0.0	t		place	house-7.jpg	0.0	133.70028383236195	
91.0	45.902455604217266	ISI	1.0		7.0	place	house-7.jpg	0.0	134.09198335824112	0.11668338429126379
92.0	46.01913898850853	house	0.0		46.0	place	house-81.jpg	0.0	134.2086667425324	0.3833022776921098
92.0	46.202562369618136	pulse	0.0	t		place	house-81.jpg	0.0	134.392090123642	
92.0	46.40244126620064	ISI	1.0		6.0	place	house-81.jpg	0.0	134.5919690202245	0.11668398799702118
93.0	46.51912525419766	house	0.0		46.0	place	house-18.jpg	0.0	134.70865300822152	0.3833046925160488
93.0	46.90242994671371	ISI	1.0		5.0	place	house-18.jpg	0.0	135.09195770073757	0.10848143498515128
93.0	46.95499251253659	pulse	1.0	t		place	house-18.jpg	0.0	135.14452026656045	
94.0	47.01091138169886	house	0.0		47.0	place	house-11.jpg	0.0	135.20043913572272	0.3915042269982223
94.0	47.40241560869708	ISI	1.0		6.0	place	house-11.jpg	0.0	135.59194336272094	0.10834922337744501
95.0	47.51076483207453	house	0.0		47.0	place	house-32.jpg	0.0	135.70029258609839	0.3916294959872175
95.0	47.60252813948955	pulse	0.0	t		place	house-32.jpg	0.0	135.7920558935134	
95.0	47.902394328061746	ISI	1.0		6.0	place	house-32.jpg	0.0	136.0919220820856	0.10836522158570006
96.0	48.010759549647446	adult	0.0		47.0	face	adult-16.jpg	0.0	136.2002873036713	0.3916017255123734
96.0	48.30248959286337	pulse	0.0	t		face	adult-16.jpg	0.0	136.49201734688722	
96.0	48.40236127515982	ISI	1.0		4.0	face	adult-16.jpg	0.0	136.59188902918368	0.10835827896698902
97.0	48.51071955412681	adult	0.0		47.0	face	adult-75.jpg	0.0	136.70024730815067	0.39167507578758887
97.0	48.9023946299144	ISI	1.0		6.0	face	adult-75.jpg	0.0	137.09192238393825	0.11669606211671635
98.0	49.019090692031114	adult	0.0		45.0	face	adult-32.jpg	0.0	137.20861844605497	0.38330107028014027
98.0	49.00633227191747	pulse	0.0	t		face	adult-32.jpg	0.0	137.19586002594133	
98.0	49.402391762311254	ISI	1.0		6.0	face	adult-32.jpg	0.0	137.5919195163351	0.1166870065267176
99.0	49.51907876883797	adult	0.0		46.0	face	adult-110.jpg	0.0	137.70860652286183	0.3832989573093073
99.0	49.70249913141788	pulse	0.0	t		face	adult-110.jpg	0.0	137.89202688544174	
99.0	49.90237772614728	ISI	1.0		7.0	face	adult-110.jpg	0.0	138.09190548017114	0.11668670467406628
100.0	50.019064430821345	adult	0.0		46.0	face	adult-24.jpg	0.0	138.2085921848452	0.38330167398589765
100.0	50.40236610480724	ISI	1.0		7.0	face	adult-24.jpg	0.0	138.5918938588311	0.11668640282141496
100.0	50.44118922831558	pulse	1.0	t		face	adult-24.jpg	0.0	138.63071698233944	
101.0	50.51905250762866	adult	0.0		46.0	face	adult-92.jpg	0.0	138.70858026165251	0.3833007684270342
101.0	50.90235327605569	ISI	1.0		7.0	face	adult-92.jpg	0.0	139.09188103007955	0.11668579911474808
102.0	51.01903907517044	adult	0.0		46.0	face	adult-28.jpg	0.0	139.2085668291943	0.38329956101551943
102.0	51.10247033464293	pulse	0.0	t		face	adult-28.jpg	0.0	139.2919980886668	
102.0	51.40233863618596	ISI	1.0		7.0	face	adult-28.jpg	0.0	139.59186639020982	0.11669002505686876
103.0	51.51902866124283	adult	0.0		46.0	face	adult-30.jpg	0.0	139.70855641526668	0.38326394236264605
103.0	51.80241186571993	pulse	0.0	t		face	adult-30.jpg	0.0	139.9919396197438	
103.0	51.902292603605474	ISI	1.0		7.0	face	adult-30.jpg	0.0	140.09182035762933	0.11668368614436986
104.0	52.018976289749844	adult	0.0		46.0	face	adult-37.jpg	0.0	140.2085040437737	0.3833025795447611
104.0	52.402278869294605	ISI	1.0		7.0	face	adult-37.jpg	0.0	140.59180662331846	0.1166800639084613
105.0	52.518958933203066	adult	0.0		45.0	face	adult-65.jpg	0.0	140.70848668722692	0.38329684433847433
105.0	52.51091938080299	pulse	0.0	t		face	adult-65.jpg	0.0	140.70044713482685	
105.0	52.90225577754154	ISI	1.0		7.0	face	adult-65.jpg	0.0	141.0917835315654	0.11669062876262615
106.0	53.01894640630417	adult	0.0		46.0	face	adult-12.jpg	0.0	141.20847416032802	0.3833074091930939
106.0	53.20237129667885	pulse	0.0	t		face	adult-12.jpg	0.0	141.3918990507027	
106.0	53.40225381549726	ISI	1.0		7.0	face	adult-12.jpg	0.0	141.59178156952112	0.11668459170277856
107.0	53.51893840720004	adult	0.0		46.0	face	adult-84.jpg	0.0	141.7084661612239	0.38329020357286936
107.0	53.90222861077291	ISI	1.0		8.0	face	adult-84.jpg	0.0	142.09175636479677	0.11668127131997608
107.0	53.933926494572006	pulse	1.0	t		face	adult-84.jpg	0.0	142.12345424859586	
108.0	54.018909882092885	adult	0.0		46.0	face	adult-121.jpg	0.0	142.20843763611674	0.38331344625248676
108.0	54.40222332834537	ISI	1.0		7.0	face	adult-121.jpg	0.0	142.59175108236923	0.11668549726209676
109.0	54.51890882560747	adult	0.0		46.0	face	adult-90.jpg	0.0	142.70843657963133	0.3833019758390037
109.0	54.602333444314354	pulse	0.0	t		face	adult-90.jpg	0.0	142.7918611983382	
109.0	54.90221080144647	ISI	1.0		7.0	face	adult-90.jpg	0.0	143.09173855547033	0.11667131017202337
110.0	55.018882111618495	adult	0.0		46.0	face	adult-100.jpg	0.0	143.20840986564235	0.3833137481055928
110.0	55.3023154236912	pulse	0.0	t		face	adult-100.jpg	0.0	143.49184317771505	
110.0	55.40219585972409	ISI	1.0		7.0	face	adult-100.jpg	0.0	143.59172361374794	0.11668579911474808
111.0	55.518881658838836	adult	0.0		46.0	face	adult-128.jpg	0.0	143.7084094128627	0.3833019758390037
111.0	55.90218363467784	ISI	1.0		5.0	face	adult-128.jpg	0.0	144.0917113887017	0.1166800639084613
112.0	56.0188636985863	adult	0.0		45.0	face	adult-25.jpg	0.0	144.20839145261016	0.38330559807491227
112.0	56.009190517831485	pulse	0.0	t		face	adult-25.jpg	0.0	144.19871827185534	
112.0	56.402169296661214	ISI	1.0		7.0	face	adult-25.jpg	0.0	144.59169705068507	0.11668398799702118
113.0	56.518853284658235	adult	0.0		46.0	face	adult-9.jpg	0.0	144.7083810386821	0.38330257954521585
113.0	56.70227847688602	pulse	0.0	t		face	adult-9.jpg	0.0	144.89180623090988	
113.0	56.90215586420345	ISI	1.0		7.0	face	adult-9.jpg	0.0	145.0916836182273	0.1166851954089907
114.0	57.01884105961244	adult	0.0		46.0	face	adult-56.jpg	0.0	145.2083688136363	0.3833019758390037
114.0	57.402143035451445	ISI	1.0		7.0	face	adult-56.jpg	0.0	145.5916707894753	0.11668881764489925
114.0	57.43708493327995	pulse	1.0	t		face	adult-56.jpg	0.0	145.6266126873038	
115.0	57.518831853096344	adult	0.0		46.0	face	adult-140.jpg	0.0	145.7083596071202	0.38332219998937944
115.0	57.902154053085724	ISI	1.0		7.0	face	adult-140.jpg	0.0	146.09168180710958	0.11669515655739815
116.0	58.01884920964312	adult	0.0		46.0	face	adult-103.jpg	0.0	146.20837696366698	0.3832995610150647
116.0	58.102272017231826	pulse	0.0	t		face	adult-103.jpg	0.0	146.29179977125568	
116.0	58.40214877065819	ISI	1.0		7.0	face	adult-103.jpg	0.0	146.59167652468204	0.1166728194366442
117.0	58.51882159009483	adult	0.0		46.0	face	adult-122.jpg	0.0	146.7083493441187	0.3833125406936233
117.0	58.80225188363784	pulse	0.0	t		face	adult-122.jpg	0.0	146.9917796376617	
117.0	58.902134130788454	ISI	1.0		7.0	face	adult-122.jpg	0.0	147.0916618848123	0.11668670467406628
118.0	59.01882083546252	adult	0.0		46.0	face	adult-3.jpg	0.0	147.20834858948638	0.38329835360309517
118.0	59.402119189065616	ISI	1.0		7.0	face	adult-3.jpg	0.0	147.59164694308947	0.11668247873240034
119.0	59.518801667798016	adult	0.0		45.0	face	adult-93.jpg	0.0	147.70832942182187	0.38330559807491227
119.0	59.5088990787749	pulse	0.0	t		face	adult-93.jpg	0.0	147.69842683279876	
119.0	59.90210726587293	ISI	1.0		4.0	face	adult-93.jpg	0.0	148.09163501989678	0.11666255643513068
120.0	60.01876982230806	word	0.0		46.0	character	word-36.jpg	0.0	148.20829757633192	0.3833237092540003
120.0	60.20221523868577	pulse	0.0	t		character	word-36.jpg	0.0	148.39174299270962	
120.0	60.40209353156206	ISI	1.0		5.0	character	word-36.jpg	0.0	148.59162128558592	0.11668670467406628
121.0	60.518780236236125	word	0.0		46.0	character	word-113.jpg	0.0	148.70830799025998	0.3832932221025658
121.0	60.90207345833869	ISI	1.0		6.0	character	word-113.jpg	0.0	149.09160121236255	0.1166960621162616
121.0	60.9471690868736	pulse	1.0	t		character	word-113.jpg	0.0	149.13669684089746	
122.0	61.01876952045495	word	0.0		46.0	character	word-32.jpg	0.0	149.2082972744788	0.38326605533393376
122.0	61.40203557578889	ISI	1.0		6.0	character	word-32.jpg	0.0	149.59156332981274	0.11668066761421869
123.0	61.518716243403105	word	0.0		46.0	character	word-51.jpg	0.0	149.70824399742696	0.3833049943691549
123.0	61.60214961584643	pulse	0.0	t		character	word-51.jpg	0.0	149.79167736987029	
123.0	61.90202123777226	ISI	1.0		5.0	character	word-51.jpg	0.0	150.09154899179612	0.11668579911474808
124.0	62.01870703688701	word	0.0		46.0	character	word-126.jpg	0.0	150.20823479091086	0.38330107028014027
124.0	62.30212253963373	pulse	0.0	t		character	word-126.jpg	0.0	150.49165029365759	
124.0	62.40200810716715	ISI	1.0		7.0	character	word-126.jpg	0.0	150.591535861191	0.11668157317353689
125.0	62.518689680340685	word	0.0		46.0	character	word-13.jpg	0.0	150.70821743436454	0.3833065036337757
125.0	62.90199618397446	ISI	1.0		6.0	character	word-13.jpg	0.0	151.09152393799832	0.11667885649649179
126.0	63.01867504047095	word	0.0		45.0	character	word-106.jpg	0.0	151.2082027944948	0.3832883924546877
126.0	63.00890888899676	pulse	0.0	t		character	word-106.jpg	0.0	151.1984366430206	
126.0	63.40196343292564	ISI	1.0		7.0	character	word-106.jpg	0.0	151.5914911869495	0.11671387144269829
127.0	63.51867730436834	word	0.0		46.0	character	word-118.jpg	0.0	151.7082050583922	0.38328748689582426
127.0	63.702090120623325	pulse	0.0	t		character	word-118.jpg	0.0	151.89161787464718	
127.0	63.90196479126416	ISI	1.0		7.0	character	word-118.jpg	0.0	152.09149254528802	0.11668640282096021
128.0	64.01865119408512	word	0.0		46.0	character	word-104.jpg	0.0	152.20817894810898	0.38330288139786717
128.0	64.40195407548299	ISI	1.0		6.0	character	word-104.jpg	0.0	152.59148182950685	0.11668579911520283
128.0	64.44266649682413	pulse	1.0	t		character	word-104.jpg	0.0	152.632194250848	
129.0	64.5186398745982	word	0.0		46.0	character	word-129.jpg	0.0	152.70816762862205	0.38329865545620123
129.0	64.9019385300544	ISI	1.0		6.0	character	word-129.jpg	0.0	153.09146628407825	0.11667402684861372
130.0	65.01861255690301	word	0.0		46.0	character	word-65.jpg	0.0	153.20814031092686	0.3833025795447611
130.0	65.10204623119944	pulse	0.0	t		character	word-65.jpg	0.0	153.2915739852233	
130.0	65.40191513644777	ISI	1.0		5.0	character	word-65.jpg	0.0	153.59144289047163	0.11669545841095896
131.0	65.51861059485873	word	0.0		46.0	character	word-91.jpg	0.0	153.70813834888258	0.3832962406322622
131.0	65.80257547003794	pulse	0.0	t		character	word-91.jpg	0.0	153.9921032240618	
131.0	65.90190683549099	ISI	1.0		6.0	character	word-91.jpg	0.0	154.09143458951485	0.11668881764489925
132.0	66.01859565313589	house	0.0		46.0	place	house-106.jpg	0.0	154.20812340715975	0.38330288139786717
132.0	66.40189853453376	ISI	1.0		6.0	place	house-106.jpg	0.0	154.5914262885576	0.11668127132043082
133.0	66.51857980585419	house	0.0		45.0	place	house-62.jpg	0.0	154.70810755987804	0.3833037869567306
133.0	66.50896397716633	pulse	0.0	t		place	house-62.jpg	0.0	154.6984917311902	
133.0	66.90188359281092	ISI	1.0		7.0	place	house-62.jpg	0.0	155.09141134683478	0.11668881764489925
134.0	67.01857241045582	house	0.0		46.0	place	house-8.jpg	0.0	155.20810016447967	0.38332974631384786
134.0	67.2020226564814	pulse	0.0	t		place	house-8.jpg	0.0	155.39155041050526	
134.0	67.40190215676967	ISI	1.0		5.0	place	house-8.jpg	0.0	155.59142991079352	0.11668459170323331
135.0	67.5185867484729	house	0.0		46.0	place	house-90.jpg	0.0	155.70811450249676	0.3832968443380196
135.0	67.90188359281092	ISI	1.0		7.0	place	house-90.jpg	0.0	156.09141134683478	0.11669364729277731
135.0	67.93820495878026	pulse	1.0	t		place	house-90.jpg	0.0	156.12773271280412	
136.0	68.0185772401037	house	0.0		46.0	place	house-91.jpg	0.0	156.20810499412755	0.38326937571673625
136.0	68.40184661582043	ISI	1.0		5.0	place	house-91.jpg	0.0	156.5913743698443	0.11668036576111263
137.0	68.51852698158154	house	0.0		46.0	place	house-121.jpg	0.0	156.7080547356054	0.3833034851040793
137.0	68.60195431696548	pulse	0.0	t		place	house-121.jpg	0.0	156.79148207098933	
137.0	68.90183046668562	ISI	1.0		7.0	place	house-121.jpg	0.0	157.09135822070948	0.11668368614436986
138.0	69.01851415283	house	0.0		46.0	place	house-128.jpg	0.0	157.20804190685385	0.38330288139786717
138.0	69.30193659819543	pulse	0.0	t		place	house-128.jpg	0.0	157.49146435221928	
138.0	69.40181703422786	ISI	1.0		7.0	place	house-128.jpg	0.0	157.59134478825172	0.11668398799702118
139.0	69.51850102222488	house	0.0		46.0	place	house-92.jpg	0.0	157.70802877624874	0.3833016739863524
139.0	69.90180269621123	ISI	1.0		7.0	place	house-92.jpg	0.0	158.0913304502351	0.11668006390800656
140.0	70.01848276011924	house	0.0		45.0	place	house-131.jpg	0.0	158.2080105141431	0.38330710733998785
140.0	70.00877516812443	pulse	0.0	t		place	house-131.jpg	0.0	158.1983029221483	
140.0	70.40178986745923	ISI	1.0		6.0	place	house-131.jpg	0.0	158.59131762148309	0.11668670467406628
141.0	70.5184765721333	house	0.0		46.0	place	house-2.jpg	0.0	158.70800432615715	0.38330046657392813
141.0	70.7018969347132	pulse	0.0	t		place	house-2.jpg	0.0	158.89142468873706	
141.0	70.90177703870722	ISI	1.0		7.0	place	house-2.jpg	0.0	159.09130479273108	0.11668157317353689
142.0	71.01845861188076	house	0.0		46.0	place	house-2.jpg	1.0	159.20798636590462	0.3833034851040793
142.0	71.40176209698484	ISI	1.0		7.0	place	house-2.jpg	1.0	159.5912898510087	0.1166824787319456
142.0	71.43958367228879	pulse	1.0	t		place	house-2.jpg	1.0	159.62911142631265	
143.0	71.51844457571679	house	0.0		46.0	place	house-129.jpg	0.0	159.70797232974064	0.3833040888098367
143.0	71.53521069791122	response	0.0	b		place	house-129.jpg	0.0	159.72473845193508	
143.0	71.90174866452662	ISI	1.0		4.0	place	house-129.jpg	0.0	160.09127641855048	0.11668881764489925
144.0	72.01843748217152	word	0.0		46.0	character	word-82.jpg	0.0	160.20796523619538	0.38329865545620123
144.0	72.1018587804956	pulse	0.0	t		character	word-82.jpg	0.0	160.29138653451946	
144.0	72.40173613762772	ISI	1.0		6.0	character	word-82.jpg	0.0	160.59126389165158	0.11668338429126379
145.0	72.51841952191899	word	0.0		46.0	character	word-34.jpg	0.0	160.70794727594284	0.3832950332202927
145.0	72.80185555066873	pulse	0.0	t		character	word-34.jpg	0.0	160.9913833046926	
145.0	72.90171455513928	ISI	1.0		7.0	character	word-34.jpg	0.0	161.09124230916314	0.11667855464338572
146.0	73.01839310978266	word	0.0		46.0	character	word-67.jpg	0.0	161.20792086380652	0.3833164647826379
146.0	73.4017095745653	ISI	1.0		7.0	character	word-67.jpg	0.0	161.59123732858916	0.11668066761421869
147.0	73.51839024217952	word	0.0		45.0	character	word-40.jpg	0.0	161.70791799620338	0.38330378695718537
147.0	73.5087704894031	pulse	0.0	t		character	word-40.jpg	0.0	161.69829824342696	
147.0	73.9016940291367	ISI	1.0		6.0	character	word-40.jpg	0.0	162.09122178316056	0.11668428985012724
148.0	74.01837831898683	word	0.0		46.0	character	word-42.jpg	0.0	162.2079060730107	0.3833342741081651
148.0	74.20183550763068	pulse	0.0	t		character	word-42.jpg	0.0	162.39136326165453	
148.0	74.401712593095	ISI	1.0		5.0	character	word-42.jpg	0.0	162.59124034711886	0.1166851954089907
149.0	74.51839778850399	word	0.0		46.0	character	word-5.jpg	0.0	162.70792554252785	0.3833028813983219
149.0	74.90170066990231	ISI	1.0		6.0	character	word-5.jpg	0.0	163.09122842392617	0.11668428985012724
149.0	74.94873660942403	pulse	1.0	t		character	word-5.jpg	0.0	163.1382643634479	
150.0	75.01838495975244	word	0.0		46.0	character	word-122.jpg	0.0	163.2079127137763	0.38329986286817075
150.0	75.40168482262061	ISI	1.0		7.0	character	word-122.jpg	0.0	163.59121257664447	0.11668761023292973
151.0	75.51837243285354	word	0.0		46.0	character	word-122.jpg	1.0	163.7079001868774	0.3832995610150647
151.0	75.60179765526618	pulse	0.0	t		character	word-122.jpg	1.0	163.79132540929004	
151.0	75.9016719938686	ISI	1.0		6.0	character	word-122.jpg	1.0	164.09119974789246	0.1166879120860358
152.0	76.01835990595464	word	0.0		46.0	character	word-71.jpg	0.0	164.2078876599785	0.38329865545620123
152.0	76.11012200595769	response	0.0	b		character	word-71.jpg	0.0	164.29964975998155	
152.0	76.30175820308114	pulse	0.0	t		character	word-71.jpg	0.0	164.491285957105	
152.0	76.40165856141084	ISI	1.0		6.0	character	word-71.jpg	0.0	164.5911863154347	0.1166574249346013
153.0	76.51831598634544	word	0.0		46.0	character	word-59.jpg	0.0	164.7078437403693	0.38332914260763573
153.0	76.90164512895308	ISI	1.0		5.0	character	word-59.jpg	0.0	165.09117288297693	0.11666889534762959
154.0	77.01831402430071	word	0.0		45.0	character	word-14.jpg	0.0	165.20784177832456	0.38331676663528924
154.0	77.00866831216763	pulse	0.0	t		character	word-14.jpg	0.0	165.19819606619149	
154.0	77.401630790936	ISI	1.0		7.0	character	word-14.jpg	0.0	165.59115854495985	0.11670270288232132
155.0	77.51833349381832	word	0.0		46.0	character	word-79.jpg	0.0	165.70786124784217	0.3832932221025658
155.0	77.70173695263111	pulse	0.0	t		character	word-79.jpg	0.0	165.89126470665497	
155.0	77.90162671592088	ISI	1.0		7.0	character	word-79.jpg	0.0	166.09115446994474	0.11667764908452227
156.0	78.0183043650054	adult	0.0		46.0	face	adult-112.jpg	0.0	166.20783211902926	0.3832992591619586
156.0	78.40160362416736	ISI	1.0		7.0	face	adult-112.jpg	0.0	166.59113137819122	0.1166879120860358
156.0	78.43743357347739	pulse	1.0	t		face	adult-112.jpg	0.0	166.62696132750125	
157.0	78.5182915362534	adult	0.0		46.0	face	adult-62.jpg	0.0	166.70781929027726	0.3833007684270342
157.0	78.90159230468043	ISI	1.0		4.0	face	adult-62.jpg	0.0	167.0911200587043	0.11666708422990268
158.0	79.01825938891034	adult	0.0		46.0	face	adult-46.jpg	0.0	167.2077871429342	0.38332069072430386
158.0	79.10170121323745	pulse	0.0	t		face	adult-46.jpg	0.0	167.2912289672613	
158.0	79.40158007963464	ISI	1.0		7.0	face	adult-46.jpg	0.0	167.5911078336585	0.11668428985012724
159.0	79.51826436948477	adult	0.0		46.0	face	adult-22.jpg	0.0	167.70779212350863	0.3833007684270342
159.0	79.80168470187937	pulse	0.0	t		face	adult-22.jpg	0.0	167.99121245590322	
159.0	79.9015651379118	ISI	1.0		4.0	face	adult-22.jpg	0.0	168.09109289193566	0.1166897232037627
160.0	80.01825486111557	adult	0.0		46.0	face	adult-35.jpg	0.0	168.20778261513942	0.3832627349511313
160.0	80.4015175960667	ISI	1.0		7.0	face	adult-35.jpg	0.0	168.59104535009055	0.11667946020270392
161.0	80.5181970562694	adult	0.0		45.0	face	adult-118.jpg	0.0	168.70772481029326	0.3833086166046087
161.0	80.50857398311018	pulse	0.0	t		face	adult-118.jpg	0.0	168.69810173713404	
161.0	80.90150567287401	ISI	1.0		7.0	face	adult-118.jpg	0.0	169.09103342689787	0.11668398799702118
162.0	81.01818966087103	adult	0.0		46.0	face	adult-107.jpg	0.0	169.2077174148949	0.3832995610150647
162.0	81.20161304198064	pulse	0.0	t		face	adult-107.jpg	0.0	169.3911407960045	
162.0	81.4014892218861	ISI	1.0		7.0	face	adult-107.jpg	0.0	169.59101697590995	0.11668398799747592
163.0	81.51817320988357	adult	0.0		46.0	face	adult-4.jpg	0.0	169.70770096390743	0.3833086166046087
163.0	81.90148182648818	ISI	1.0		7.0	face	adult-4.jpg	0.0	170.09100958051204	0.11667915834914311
163.0	81.93844463005053	pulse	1.0	t		face	adult-4.jpg	0.0	170.12797238407438	
164.0	82.01816098483732	adult	0.0		46.0	face	adult-49.jpg	0.0	170.20768873886118	0.38328627948385474
164.0	82.40144726432118	ISI	1.0		7.0	face	adult-49.jpg	0.0	170.59097501834503	0.11671296588383484
165.0	82.51816023020501	adult	0.0		46.0	face	adult-13.jpg	0.0	170.70768798422887	0.38328175168908274
165.0	82.60157277479266	pulse	0.0	t		face	adult-13.jpg	0.0	170.79110052881651	
165.0	82.9014419818941	ISI	1.0		7.0	face	adult-13.jpg	0.0	171.09096973591795	0.11669032690997483
166.0	83.01813230880407	adult	0.0		46.0	face	adult-64.jpg	0.0	171.20766006282793	0.38330559807491227
166.0	83.30155384861018	pulse	0.0	t		face	adult-64.jpg	0.0	171.49108160263404	
166.0	83.40143790687898	ISI	1.0		7.0	face	adult-64.jpg	0.0	171.59096566090284	0.11668670467361153
167.0	83.5181246115526	adult	0.0		46.0	face	adult-5.jpg	0.0	171.70765236557645	0.3832983536035499
167.0	83.90142296515614	ISI	1.0		4.0	face	adult-5.jpg	0.0	172.09095071918	0.11667855464338572
168.0	84.01810151979953	house	0.0		45.0	place	house-40.jpg	0.0	172.2076292738234	0.3833080128988513
168.0	84.00839845559904	pulse	0.0	t		place	house-40.jpg	0.0	172.1979262096229	
168.0	84.40140953269838	ISI	1.0		6.0	place	house-40.jpg	0.0	172.59093728672224	0.11668489355588463
169.0	84.51809442625427	house	0.0		46.0	place	house-35.jpg	0.0	172.70762218027812	0.3833016739863524
169.0	84.70152203330554	pulse	0.0	t		place	house-35.jpg	0.0	172.8910497873294	
169.0	84.90139610024062	ISI	1.0		6.0	place	house-35.jpg	0.0	173.09092385426447	0.11668308243815773
170.0	85.01807918267878	house	0.0		46.0	place	house-136.jpg	0.0	173.20760693670263	0.38330348510362455
170.0	85.4013826677824	ISI	1.0		6.0	place	house-136.jpg	0.0	173.59091042180626	0.11668187502618821
170.0	85.44616889700774	pulse	1.0	t		place	house-136.jpg	0.0	173.6356966510316	
171.0	85.51806454280859	house	0.0		46.0	place	house-73.jpg	0.0	173.70759229683244	0.3833043906633975
171.0	85.90136893347199	ISI	1.0		6.0	place	house-73.jpg	0.0	174.09089668749584	0.11667161202467469
172.0	86.01804054549666	house	0.0		46.0	place	house-76.jpg	0.0	174.20756829952052	0.38334725378672374
172.0	86.10151195141589	pulse	0.0	t		place	house-76.jpg	0.0	174.29103970543974	
172.0	86.40138779928338	ISI	1.0		6.0	place	house-76.jpg	0.0	174.59091555330724	0.11668428985012724
173.0	86.51807208913351	house	0.0		46.0	place	house-85.jpg	0.0	174.70759984315737	0.38330288139786717
173.0	86.80149272338076	pulse	0.0	t		place	house-85.jpg	0.0	174.99102047740462	
173.0	86.90137497053138	ISI	1.0		6.0	place	house-85.jpg	0.0	175.09090272455524	0.1166710083189173
174.0	87.0180459788503	house	0.0		46.0	place	house-6.jpg	0.0	175.20757373287415	0.38331404995824414
174.0	87.40136002880854	ISI	1.0		7.0	place	house-6.jpg	0.0	175.5908877828324	0.11668187502618821
175.0	87.51804190383473	house	0.0		45.0	place	house-6.jpg	1.0	175.70756965785858	0.38329473136764136
175.0	87.50850697174747	pulse	0.0	t		place	house-6.jpg	1.0	175.69803472577132	
175.0	87.90133663520237	ISI	1.0		4.0	place	house-6.jpg	1.0	176.09086438922623	0.11670451400004822
176.0	88.01804114920242	house	0.0		46.0	place	house-80.jpg	0.0	176.20756890322627	0.38325971642143486
176.0	88.04310007845152	response	0.0	b		place	house-80.jpg	0.0	176.23262783247537	
176.0	88.20141713939347	pulse	0.0	t		place	house-80.jpg	0.0	176.39094489341733	
176.0	88.40130086562385	ISI	1.0		6.0	place	house-80.jpg	0.0	176.5908286196477	0.1167051177058056
177.0	88.51800598332966	house	0.0		46.0	place	house-55.jpg	0.0	176.70753373735351	0.38328175168908274
177.0	88.90128773501874	ISI	1.0		5.0	place	house-55.jpg	0.0	177.0908154890426	0.11668398799702118
177.0	88.95080550978264	pulse	1.0	t		place	house-55.jpg	0.0	177.1403332638065	
178.0	89.01797172301576	house	0.0		46.0	place	house-54.jpg	0.0	177.20749947703962	0.38330318325097323
178.0	89.40127490626674	ISI	1.0		6.0	place	house-54.jpg	0.0	177.5908026602906	0.11668640282141496
179.0	89.51796130908815	house	0.0		46.0	place	house-117.jpg	0.0	177.707489063112	0.38329986286817075
179.0	89.60138441852996	pulse	0.0	t		place	house-117.jpg	0.0	177.79091217255382	
179.0	89.90126117195632	ISI	1.0		7.0	place	house-117.jpg	0.0	178.09078892598018	0.11668459170277856
180.0	90.0179457636591	body	0.0		46.0	body	body-35.jpg	0.0	178.20747351768296	0.3833019758390037
180.0	90.30136126640582	pulse	0.0	t		body	body-35.jpg	0.0	178.49088902042968	
180.0	90.4012477394981	ISI	1.0		5.0	body	body-35.jpg	0.0	178.59077549352196	0.11668338429126379
181.0	90.51793112378937	body	0.0		46.0	body	body-98.jpg	0.0	178.70745887781322	0.3832832609541583
181.0	90.90121438474353	ISI	1.0		7.0	body	body-98.jpg	0.0	179.09074213876738	0.11669847694020063
182.0	91.01791286168373	body	0.0		45.0	body	body-98.jpg	1.0	179.20744061570758	0.38330891845771475
182.0	91.0084183778963	pulse	0.0	t		body	body-98.jpg	1.0	179.19794613192016	
182.0	91.40122178014144	ISI	1.0		5.0	body	body-98.jpg	1.0	179.5907495341653	0.11668247873240034
183.0	91.51790425887384	body	0.0		46.0	body	body-91.jpg	0.0	179.7074320128977	0.3833022776921098
183.0	91.65132840970864	response	0.0	b		body	body-91.jpg	0.0	179.8408561637325	
183.0	91.70131043436322	pulse	0.0	t		body	body-91.jpg	0.0	179.89083818838708	
183.0	91.90120653656595	ISI	1.0		7.0	body	body-91.jpg	0.0	180.0907342905898	0.11669334543967125
184.0	92.01789988200562	body	0.0		46.0	body	body-81.jpg	0.0	180.20742763602948	0.38329261839635365
184.0	92.40119250040198	ISI	1.0		7.0	body	body-81.jpg	0.0	180.59072025442583	0.11668338429126379
184.0	92.43760200744282	pulse	1.0	t		body	body-81.jpg	0.0	180.62712976146668	
185.0	92.51787588469324	body	0.0		46.0	body	body-36.jpg	0.0	180.7074036387171	0.38331072957544166
185.0	92.90118661426868	ISI	1.0		5.0	body	body-36.jpg	0.0	181.09071436829254	0.11667795093762834
186.0	93.01786456520631	body	0.0		46.0	body	body-27.jpg	0.0	181.20739231923017	0.38329986286817075
186.0	93.10129069317827	pulse	0.0	t		body	body-27.jpg	0.0	181.29081844720213	
186.0	93.40116442807448	ISI	1.0		7.0	body	body-27.jpg	0.0	181.59069218209834	0.1166664805241453
187.0	93.51783090859863	body	0.0		46.0	body	body-142.jpg	0.0	181.70735866262248	0.38331978516498566
187.0	93.80127387996663	pulse	0.0	t		body	body-142.jpg	0.0	181.9908016339905	
187.0	93.90115069376361	ISI	1.0		5.0	body	body-142.jpg	0.0	182.09067844778747	0.11667402684861372
188.0	94.01782472061223	body	0.0		46.0	body	body-24.jpg	0.0	182.20735247463608	0.3833451408158908
188.0	94.40116986142812	ISI	1.0		6.0	body	body-24.jpg	0.0	182.59069761545197	0.1166851954089907
189.0	94.5178550568371	body	0.0		45.0	body	body-103.jpg	0.0	182.70738281086096	0.3833001647212768
189.0	94.50926643385719	pulse	0.0	t		body	body-103.jpg	0.0	182.69879418788105	
189.0	94.90115522155838	ISI	1.0		7.0	body	body-103.jpg	0.0	183.09068297558224	0.11668549726209676
190.0	95.01784071882048	body	0.0		46.0	body	body-80.jpg	0.0	183.20736847284434	0.38329020357286936
190.0	95.20126651475402	pulse	0.0	t		body	body-80.jpg	0.0	183.39079426877788	
190.0	95.40113092239335	ISI	1.0		7.0	body	body-80.jpg	0.0	183.5906586764172	0.11668278058505166
191.0	95.5178137029784	body	0.0		46.0	body	body-43.jpg	0.0	183.70734145700226	0.3833155592233197
191.0	95.90112926220172	ISI	1.0		11.0	body	body-43.jpg	0.0	184.09065701622558	0.10003438105513851
191.0	95.90573101095697	pulse	1.0	t		body	body-43.jpg	0.0	184.09525876498083	
192.0	96.00116364325686	baseline	0.0		48.0		baseline	0.0	184.19069139728072	0.39998810699216847
192.0	96.40115175024903	ISI	1.0		11.0		baseline	0.0	184.59067950427288	0.09999876240271988
193.0	96.50115051265175	baseline	0.0		48.0		baseline	0.0	184.6906782666756	0.39998780513951715
193.0	96.60130563490065	pulse	0.0	t			baseline	0.0	184.7908333889245	
193.0	96.90113831779126	ISI	1.0		11.0		baseline	0.0	185.09066607181512	0.09999634757878084
194.0	97.00113466537005	baseline	0.0		48.0		baseline	0.0	185.1906624193939	0.3999899181103501
194.0	97.3012532030375	pulse	0.0	t			baseline	0.0	185.49078095706136	
194.0	97.4011245834804	ISI	1.0		11.0		baseline	0.0	185.59065233750425	0.09999846055006856
195.0	97.50112304403046	baseline	0.0		48.0		baseline	0.0	185.69065079805432	0.3999980681405759
195.0	97.90112111217104	ISI	1.0		11.0		baseline	0.0	186.0906488661949	0.09998699013658552
196.0	98.00110810230763	baseline	0.0		47.0		baseline	0.0	186.19063585633148	0.39999293664004654
196.0	98.00545055934845	pulse	0.0	t			baseline	0.0	186.1949783133723	
196.0	98.40110103894767	ISI	1.0		11.0		baseline	0.0	186.59062879297153	0.10000208278552236
197.0	98.5011031217332	baseline	0.0		48.0		baseline	0.0	186.69063087575705	0.3999712032255047
197.0	98.70118727834551	pulse	0.0	t			baseline	0.0	186.89071503236937	
197.0	98.9010743249587	ISI	1.0		11.0		baseline	0.0	187.09060207898256	0.10002653287710928
198.0	99.00110085783581	baseline	0.0		48.0		baseline	0.0	187.19062861185967	0.3999476586923265
198.0	99.40104851652814	ISI	1.0		11.0		baseline	0.0	187.590576270552	0.1000189865530956
198.0	99.40576346015268	pulse	1.0	t			baseline	0.0	187.59529121417654	
199.0	99.50106750308123	baseline	0.0		48.0		baseline	0.0	187.6905952571051	0.39997784399065495
199.0	99.90104534707189	ISI	1.0		11.0		baseline	0.0	188.09057310109574	0.10000811984536995
200.0	100.00105346691726	baseline	0.0		48.0		baseline	0.0	188.1905812209411	0.39997754213800363
200.0	100.10118776131003	pulse	0.0	t			baseline	0.0	188.2907155153339	
200.0	100.40103100905526	ISI	1.0		11.0		baseline	0.0	188.59055876307912	0.10001053466885423
201.0	100.50104154372411	baseline	0.0		48.0		baseline	0.0	188.69056929774797	0.3999887106983806
201.0	100.80114498874218	pulse	0.0	t			baseline	0.0	188.99067274276604	
201.0	100.9010302544225	ISI	1.0		11.0		baseline	0.0	189.09055800844635	0.09999604572612952
202.0	101.00102630014862	baseline	0.0		48.0		baseline	0.0	189.19055405417248	0.39999354034625867
202.0	101.40101984049488	ISI	1.0		11.0		baseline	0.0	189.59054759451874	0.09999453646059919
203.0	101.50101437695548	baseline	0.0		47.0		baseline	0.0	189.69054213097934	0.39999172922853177
203.0	101.50528891707518	pulse	0.0	t			baseline	0.0	189.69481667109903	
203.0	101.90100610618401	ISI	1.0		11.0		baseline	0.0	190.09053386020787	0.09999242348976622
204.0	102.00099852967378	baseline	0.0		48.0		baseline	0.0	190.19052628369764	0.3999914273754257
204.0	102.20110924934897	pulse	0.0	t			baseline	0.0	190.39063700337283	
204.0	102.4009899570492	ISI	1.0		11.0		baseline	0.0	190.59051771107306	0.10000962910999078
205.0	102.5009995861592	baseline	0.0		48.0		baseline	0.0	190.69052734018305	0.39996456245989975
205.0	102.9009641486191	ISI	1.0		11.0		baseline	0.0	191.09049190264295	0.10000751613915781
205.0	102.90579319267181	pulse	1.0	t			baseline	0.0	191.09532094669567	
206.0	103.00097166475825	baseline	0.0		48.0		baseline	0.0	191.1904994187821	0.3999899181103501
206.0	103.4009615828686	ISI	1.0		11.0		baseline	0.0	191.59048933689246	0.09999966796158333
207.0	103.50096125083019	baseline	0.0		48.0		baseline	0.0	191.69048900485404	0.39998659772754763
207.0	103.60108679148698	pulse	0.0	t			baseline	0.0	191.79061454551083	
207.0	103.90094784855773	ISI	1.0		11.0		baseline	0.0	192.0904756025816	0.09999755499075036
208.0	104.00094540354849	baseline	0.0		48.0		baseline	0.0	192.19047315757234	0.39998659772754763
208.0	104.30105216894935	pulse	0.0	t			baseline	0.0	192.4905799229732	
208.0	104.40093200127603	ISI	1.0		11.0		baseline	0.0	192.5904597552999	0.09999966796158333
209.0	104.50093166923762	baseline	0.0		48.0		baseline	0.0	192.69045942326147	0.39999504961133425
209.0	104.90092671884895	ISI	1.0		11.0		baseline	0.0	193.0904544728728	0.09999061237203932
210.0	105.00091733122099	baseline	0.0		47.0		baseline	0.0	193.19044508524485	0.39998780513951715
210.0	105.00533434594945	pulse	0.0	t			baseline	0.0	193.1948620999733	
210.0	105.4009051363605	ISI	1.0		11.0		baseline	0.0	193.59043289038436	0.09999846054961381
211.0	105.50090359691012	baseline	0.0		48.0		baseline	0.0	193.69043135093398	0.3999887106983806
211.0	105.70101250546713	pulse	0.0	t			baseline	0.0	193.890540259491	
211.0	105.9008923076085	ISI	1.0		11.0		baseline	0.0	194.09042006163236	0.09998880125431242
212.0	106.00088110886281	baseline	0.0		48.0		baseline	0.0	194.19040886288667	0.3999992755530002
212.0	106.40088038441581	ISI	1.0		11.0		baseline	0.0	194.59040813843967	0.09999725313764429
212.0	106.40560438362945	pulse	1.0	t			baseline	0.0	194.5951321376533	
213.0	106.50087763755346	baseline	0.0		48.0		baseline	0.0	194.69040539157731	0.39998780513951715
213.0	106.90086544269298	ISI	1.0		11.0		baseline	0.0	195.09039319671683	0.09999725313764429
214.0	107.00086269583062	baseline	0.0		48.0		baseline	0.0	195.19039044985448	0.39998901255148667
214.0	107.10100031060665	pulse	0.0	t			baseline	0.0	195.2905280646305	
214.0	107.4008517083821	ISI	1.0		11.0		baseline	0.0	195.59037946240596	0.10000147907976498
215.0	107.50085318746187	baseline	0.0		48.0		baseline	0.0	195.69038094148573	0.399991729228077
215.0	107.80095270839092	pulse	0.0	t			baseline	0.0	195.99048046241478	
215.0	107.90084491668995	ISI	1.0		7.0		baseline	0.0	196.0903726707138	0.11664444525604267
216.0	108.01748936194599	adult	0.0		46.0	face	adult-85.jpg	0.0	196.20701711596985	0.3833004665743829
216.0	108.40078982852037	ISI	1.0		7.0	face	adult-85.jpg	0.0	196.59031758254423	0.11668881764489925
217.0	108.51747864616527	adult	0.0		45.0	face	adult-21.jpg	0.0	196.70700640018913	0.38330620178066965
217.0	108.50823409664918	pulse	0.0	t		face	adult-21.jpg	0.0	196.69776185067303	
217.0	108.90078484794594	ISI	1.0		7.0	face	adult-21.jpg	0.0	197.0903126019698	0.11667493240747717
218.0	109.01745978035342	adult	0.0		46.0	face	adult-67.jpg	0.0	197.20698753437728	0.3832702812755997
218.0	109.20084905207568	pulse	0.0	t		face	adult-67.jpg	0.0	197.39037680609954	
218.0	109.40073006162902	ISI	1.0		7.0	face	adult-67.jpg	0.0	197.59025781565288	0.1166691972011904
219.0	109.51739925883021	adult	0.0		46.0	face	adult-138.jpg	0.0	197.70692701285407	0.38331706848794056
219.0	109.90071632731815	ISI	1.0		7.0	face	adult-138.jpg	0.0	198.090244081342	0.11668640282141496
219.0	109.93669237347285	pulse	1.0	t		face	adult-138.jpg	0.0	198.1262201274967	
220.0	110.01740273013957	adult	0.0		46.0	face	adult-2.jpg	0.0	198.20693048416342	0.3832995610150647
220.0	110.40070229115463	ISI	1.0		7.0	face	adult-2.jpg	0.0	198.5902300451785	0.11667251758353814
221.0	110.51737480873817	adult	0.0		46.0	face	adult-125.jpg	0.0	198.70690256276202	0.3833007684270342
221.0	110.60081874603611	pulse	0.0	t		face	adult-125.jpg	0.0	198.79034650005997	
221.0	110.9006755771652	ISI	1.0		7.0	face	adult-125.jpg	0.0	199.09020333118906	0.11671236217807746
222.0	111.01738793934328	adult	0.0		46.0	face	adult-86.jpg	0.0	199.20691569336714	0.38328929801355116
222.0	111.30079257538227	pulse	0.0	t		face	adult-86.jpg	0.0	199.49032032940613	
222.0	111.40067723735683	ISI	1.0		7.0	face	adult-86.jpg	0.0	199.5902049913807	0.11668157317308214
223.0	111.51735881052991	adult	0.0		46.0	face	adult-86.jpg	1.0	199.70688656455377	0.38330710733998785
223.0	111.9006659178699	ISI	1.0		5.0	face	adult-86.jpg	1.0	200.09019367189376	0.11667795093762834
224.0	112.01734386880753	adult	0.0		45.0	face	adult-73.jpg	0.0	200.2068716228314	0.38330801289839656
224.0	112.00844222428213	pulse	0.0	t		face	adult-73.jpg	0.0	200.197969978306	
224.0	112.00862575089695	response	0.0	b		face	adult-73.jpg	0.0	200.1981535049208	
224.0	112.40065188170593	ISI	1.0		7.0	face	adult-73.jpg	0.0	200.59017963572978	0.11667764908452227
225.0	112.51732953079045	adult	0.0		46.0	face	adult-69.jpg	0.0	200.7068572848143	0.3833110314285477
225.0	112.70075170448808	pulse	0.0	t		face	adult-69.jpg	0.0	200.89027945851194	
225.0	112.900640562219	ISI	1.0		7.0	face	adult-69.jpg	0.0	201.09016831624285	0.11667885649649179
226.0	113.01731941871549	adult	0.0		46.0	face	adult-77.jpg	0.0	201.20684717273934	0.3833019758390037
226.0	113.40062139455449	ISI	1.0		7.0	face	adult-77.jpg	0.0	201.59014914857835	0.1166942509985347
226.0	113.43693249752232	pulse	1.0	t		face	adult-77.jpg	0.0	201.62646025154618	
227.0	113.51731564555303	adult	0.0		46.0	face	adult-40.jpg	0.0	201.70684339957688	0.38329292024991446
227.0	113.90060856580294	ISI	1.0		7.0	face	adult-40.jpg	0.0	202.0901363198268	0.11668066761421869
228.0	114.01728923341716	body	0.0		46.0	body	body-132.jpg	0.0	202.20681698744102	0.3832974480442317
228.0	114.1007364910979	pulse	0.0	t		body	body-132.jpg	0.0	202.29026424512176	
228.0	114.40058668146139	ISI	1.0		7.0	body	body-132.jpg	0.0	202.59011443548525	0.1166800639084613
229.0	114.51726674536985	body	0.0		46.0	body	body-1.jpg	0.0	202.7067944993937	0.3833146536644563
229.0	114.80069824632437	pulse	0.0	t		body	body-1.jpg	0.0	202.99022600034823	
229.0	114.90058139903431	ISI	1.0		7.0	body	body-1.jpg	0.0	203.09010915305817	0.11668338429080904
230.0	115.01726478332512	body	0.0		46.0	body	body-19.jpg	0.0	203.20679253734897	0.38333306669665035
230.0	115.40059785002177	ISI	1.0		7.0	body	body-19.jpg	0.0	203.59012560404562	0.1166879120860358
231.0	115.5172857621078	body	0.0		45.0	body	body-116.jpg	0.0	203.70681351613166	0.3832808461302193
231.0	115.50801072544027	pulse	0.0	t		body	body-116.jpg	0.0	203.69753847946413	
231.0	115.90056660823802	ISI	1.0		7.0	body	body-116.jpg	0.0	204.09009436226188	0.11670391029383609
232.0	116.01727051853186	body	0.0		46.0	body	body-31.jpg	0.0	204.20679827255572	0.3833062017811244
232.0	116.20068424034616	pulse	0.0	t		body	body-31.jpg	0.0	204.39021199437002	
232.0	116.40057672031298	ISI	1.0		7.0	body	body-31.jpg	0.0	204.59010447433684	0.11668006390800656
233.0	116.51725678422099	body	0.0		46.0	body	body-37.jpg	0.0	204.70678453824485	0.38330771104574524
233.0	116.90056449526674	ISI	1.0		7.0	body	body-37.jpg	0.0	205.0900922492906	0.11666134902361591
233.0	116.93765528449467	pulse	1.0	t		body	body-37.jpg	0.0	205.12718303851852	
234.0	117.01722584429035	body	0.0		46.0	body	body-90.jpg	0.0	205.2067535983142	0.3832669608927972
234.0	117.40049280518315	ISI	1.0		7.0	body	body-90.jpg	0.0	205.590020559207	0.11672624741504478
235.0	117.5172190525982	body	0.0		46.0	body	body-34.jpg	0.0	205.70674680662205	0.3832736016584022
235.0	117.60062133418387	pulse	0.0	t		body	body-34.jpg	0.0	205.79014908820773	
235.0	117.9004926542566	ISI	1.0		7.0	body	body-34.jpg	0.0	206.09002040828045	0.11669394914542863
236.0	118.01718660340202	body	0.0		46.0	body	body-13.jpg	0.0	206.20671435742588	0.38329654248536826
236.0	118.3005996913248	pulse	0.0	t		body	body-13.jpg	0.0	206.49012744534866	
236.0	118.40048314588739	ISI	1.0		7.0	body	body-13.jpg	0.0	206.59001089991125	0.11668911949800531
237.0	118.5171722653854	body	0.0		46.0	body	body-29.jpg	0.0	206.70670001940925	0.3832989573093073
237.0	118.9004712226947	ISI	1.0		7.0	body	body-29.jpg	0.0	207.08999897671856	0.11666738608300875
238.0	119.01713860877771	body	0.0		45.0	body	body-115.jpg	0.0	207.20666636280157	0.3833173703410466
238.0	119.00732295341413	pulse	0.0	t		body	body-115.jpg	0.0	207.196850707438	
238.0	119.40045597911876	ISI	1.0		7.0	body	body-115.jpg	0.0	207.58998373314262	0.11668610096830889
239.0	119.51714208008707	body	0.0		46.0	body	body-120.jpg	0.0	207.70666983411093	0.38330107028014027
239.0	119.70056485749046	pulse	0.0	t		body	body-120.jpg	0.0	207.89009261151432	
239.0	119.90044315036721	ISI	1.0		7.0	body	body-120.jpg	0.0	208.08997090439107	0.11668579911474808
240.0	120.01712894948196	body	0.0		46.0	body	body-61.jpg	0.0	208.20665670350581	0.3833034851040793
240.0	120.40043243458604	ISI	1.0		4.0	body	body-61.jpg	0.0	208.5899601886099	0.11668187502618821
240.0	120.45868221249793	pulse	1.0	t		body	body-61.jpg	0.0	208.6482099665218	
241.0	120.51711430961223	body	0.0		46.0	body	body-130.jpg	0.0	208.70664206363608	0.38330559807491227
241.0	120.90041990768714	ISI	1.0		7.0	body	body-130.jpg	0.0	209.089947661711	0.1166800639084613
242.0	121.0170999715956	body	0.0		46.0	body	body-71.jpg	0.0	209.20662772561946	0.3833025795447611
242.0	121.10052760883218	pulse	0.0	t		body	body-71.jpg	0.0	209.29005536285604	
242.0	121.40040255114036	ISI	1.0		7.0	body	body-71.jpg	0.0	209.58993030516422	0.11668761023292973
243.0	121.51709016137329	body	0.0		46.0	body	body-16.jpg	0.0	209.70661791539715	0.38329986286817075
243.0	121.80050596597312	pulse	0.0	t		body	body-16.jpg	0.0	209.99003371999697	
243.0	121.90039002424146	ISI	1.0		7.0	body	body-16.jpg	0.0	210.08991777826532	0.11668398799747592
244.0	122.01707401223894	body	0.0		46.0	body	body-84.jpg	0.0	210.2066017662628	0.3833022776921098
244.0	122.40037628993105	ISI	1.0		7.0	body	body-84.jpg	0.0	210.5899040439549	0.11668036576111263
245.0	122.51705665569216	body	0.0		45.0	body	body-33.jpg	0.0	210.70658440971602	0.3833146536644563
245.0	122.50728718383516	pulse	0.0	t		body	body-33.jpg	0.0	210.69681493785902	
245.0	122.90037130935661	ISI	1.0		7.0	body	body-33.jpg	0.0	211.08989906338047	0.11667674352565882
246.0	123.01704805288227	body	0.0		46.0	body	body-48.jpg	0.0	211.20657580690613	0.38333216113733215
246.0	123.20049890261316	pulse	0.0	t		body	body-48.jpg	0.0	211.39002665663702	
246.0	123.4003802140196	ISI	1.0		4.0	body	body-48.jpg	0.0	211.58990796804346	0.1166879120860358
247.0	123.51706812610564	body	0.0		46.0	body	body-73.jpg	0.0	211.7065958801295	0.38330167398589765
247.0	123.90036980009154	ISI	1.0		6.0	body	body-73.jpg	0.0	212.0898975541154	0.11667704537876489
247.0	123.94622458888352	pulse	1.0	t		body	body-73.jpg	0.0	212.13575234290738	
248.0	124.0170468454703	body	0.0		46.0	body	body-65.jpg	0.0	212.20657459949416	0.3833071073395331
248.0	124.40035395280984	ISI	1.0		7.0	body	body-65.jpg	0.0	212.5898817068337	0.11668730838027841
249.0	124.51704126119012	body	0.0		46.0	body	body-89.jpg	0.0	212.70656901521397	0.38329895730885255
249.0	124.60046497433768	pulse	0.0	t		body	body-89.jpg	0.0	212.78999272836154	
249.0	124.90034021849897	ISI	1.0		7.0	body	body-89.jpg	0.0	213.08986797252282	0.11668821393914186
250.0	125.01702843243811	body	0.0		46.0	body	body-63.jpg	0.0	213.20655618646197	0.38329654248536826
250.0	125.30044272777286	pulse	0.0	t		body	body-63.jpg	0.0	213.48997048179672	
250.0	125.40032497492348	ISI	1.0		7.0	body	body-63.jpg	0.0	213.58985272894733	0.11668549726209676
251.0	125.51701047218558	body	0.0		46.0	body	body-3.jpg	0.0	213.70653822620943	0.3833025795447611
251.0	125.90031305173034	ISI	1.0		4.0	body	body-3.jpg	0.0	214.0898408057542	0.11668217687929427
252.0	126.01699522860963	house	0.0		45.0	place	house-70.jpg	0.0	214.2065229826335	0.3833046925160488
252.0	126.00734498868178	pulse	0.0	t		place	house-70.jpg	0.0	214.19687274270564	
252.0	126.40029992112568	ISI	1.0		6.0	place	house-70.jpg	0.0	214.58982767514954	0.11666798978876614
253.0	126.51696791091445	house	0.0		46.0	place	house-142.jpg	0.0	214.7064956649383	0.3833185777534709
253.0	126.70040910135049	pulse	0.0	t		place	house-142.jpg	0.0	214.88993685537434	
253.0	126.90028648866792	ISI	1.0		5.0	place	house-142.jpg	0.0	215.08981424269177	0.11669274173345912
254.0	127.01697923040138	house	0.0		46.0	place	house-59.jpg	0.0	215.20650698442523	0.3832932221025658
254.0	127.40027245250394	ISI	1.0		5.0	place	house-59.jpg	0.0	215.5898002065278	0.11668308243815773
254.0	127.45109996736937	pulse	1.0	t		place	house-59.jpg	0.0	215.64062772139323	
255.0	127.5169555349421	house	0.0		46.0	place	house-130.jpg	0.0	215.70648328896596	0.3833110314285477
255.0	127.90026656637065	ISI	1.0		5.0	place	house-130.jpg	0.0	216.0897943203945	0.1166710083189173
256.0	128.01693757468956	house	0.0		46.0	place	house-95.jpg	0.0	216.20646532871342	0.38330831475195737
256.0	128.100371248986	pulse	0.0	t		place	house-95.jpg	0.0	216.28989900300985	
256.0	128.40024588944152	ISI	1.0		6.0	place	house-95.jpg	0.0	216.58977364346538	0.11668881764489925
257.0	128.51693470708642	house	0.0		46.0	place	house-69.jpg	0.0	216.70646246111028	0.3832980517499891
257.0	128.80035292650973	pulse	0.0	t		place	house-69.jpg	0.0	216.9898806805336	
257.0	128.9002327588364	ISI	1.0		7.0	place	house-69.jpg	0.0	217.08976051286027	0.11668428985012724
258.0	129.01691704868654	house	0.0		46.0	place	house-75.jpg	0.0	217.2064448027104	0.3833022776921098
258.0	129.40021932637865	ISI	1.0		6.0	place	house-75.jpg	0.0	217.5897470804025	0.11667976205535524
259.0	129.516899088434	house	0.0		45.0	place	house-37.jpg	0.0	217.70642684245786	0.3832883924546877
259.0	129.50720357055843	pulse	0.0	t		place	house-37.jpg	0.0	217.6967313245823	
259.0	129.9001874808887	ISI	1.0		6.0	place	house-37.jpg	0.0	218.08971523491255	0.11670511770626035
260.0	130.01689259859495	house	0.0		46.0	place	house-10.jpg	0.0	218.2064203526188	0.3832989573093073
260.0	130.2003117537629	pulse	0.0	t		place	house-10.jpg	0.0	218.38983950778675	
260.0	130.40019155590426	ISI	1.0		7.0	place	house-10.jpg	0.0	218.5897193099281	0.11668459170277856
261.0	130.51687614760704	house	0.0		46.0	place	house-10.jpg	1.0	218.7064039016309	0.3832929202494597
261.0	130.9001690678565	ISI	1.0		3.0	place	house-10.jpg	1.0	219.08969682188035	0.11670089176459442
261.0	130.95857218708488	pulse	1.0	t		place	house-10.jpg	1.0	219.14809994110874	
261.0	130.95874424328622	response	1.0	b		place	house-10.jpg	1.0	219.14827199731008	
262.0	131.0168699596211	house	0.0		46.0	place	house-45.jpg	0.0	219.20639771364495	0.3832917128374902
262.0	131.40016167245858	ISI	1.0		6.0	place	house-45.jpg	0.0	219.58968942648244	0.1166897232037627
263.0	131.51685139566234	house	0.0		46.0	place	house-72.jpg	0.0	219.7063791496862	0.38330318325097323
263.0	131.60027510881037	pulse	0.0	t		place	house-72.jpg	0.0	219.78980286283422	
263.0	131.90015457891332	ISI	1.0		6.0	place	house-72.jpg	0.0	220.08968233293717	0.11668247873240034
264.0	132.01683705764572	house	0.0		46.0	place	house-17.jpg	0.0	220.20636481166957	0.38326937571673625
264.0	132.30022388435873	pulse	0.0	t		place	house-17.jpg	0.0	220.4897516383826	
264.0	132.40010643336245	ISI	1.0		7.0	place	house-17.jpg	0.0	220.5896341873863	0.11668127131997608
265.0	132.51678770468243	house	0.0		46.0	place	house-105.jpg	0.0	220.70631545870629	0.3833119369878659
265.0	132.9000996416703	ISI	1.0		7.0	place	house-105.jpg	0.0	221.08962739569415	0.11667251758353814
266.0	133.01677215925383	house	0.0		45.0	place	house-102.jpg	0.0	221.2062999132777	0.3832905054255207
266.0	133.00676512909786	pulse	0.0	t		place	house-102.jpg	0.0	221.1962928831217	
266.0	133.40006266467935	ISI	1.0		7.0	place	house-102.jpg	0.0	221.5895904187032	0.11668489355633938
267.0	133.5167475582357	house	0.0		46.0	place	house-102.jpg	1.0	221.70627531225955	0.3833176721941527
267.0	133.70019810611393	pulse	0.0	t		place	house-102.jpg	1.0	221.8897258601378	
267.0	133.90006523042985	ISI	1.0		7.0	place	house-102.jpg	1.0	222.0895929844537	0.11668308243815773
268.0	134.016748312868	house	0.0		46.0	place	house-93.jpg	0.0	222.20627606689186	0.3833028813983219
268.0	134.20017048656564	response	0.0	b		place	house-93.jpg	0.0	222.3896982405895	
268.0	134.40005119426633	ISI	1.0		4.0	place	house-93.jpg	0.0	222.58957894829018	0.116671913877326
268.0	134.45925029981527	pulse	1.0	t		place	house-93.jpg	0.0	222.64877805383912	
269.0	134.51672310814365	house	0.0		46.0	place	house-31.jpg	0.0	222.7062508621675	0.38331284254672937
269.0	134.90003595069038	ISI	1.0		7.0	place	house-31.jpg	0.0	223.08956370471424	0.11668489355588463
270.0	135.01672084424627	house	0.0		46.0	place	house-3.jpg	0.0	223.20624859827012	0.3833028813983219
270.0	135.10014878333595	pulse	0.0	t		place	house-3.jpg	0.0	223.2896765373598	
270.0	135.4000237256446	ISI	1.0		6.0	place	house-3.jpg	0.0	223.58955147966844	0.1166851954089907
271.0	135.51670892105358	house	0.0		46.0	place	house-118.jpg	0.0	223.70623667507743	0.38330046657392813
271.0	135.80011234968106	pulse	0.0	t		place	house-118.jpg	0.0	223.98964010370491	
271.0	135.9000093876275	ISI	1.0		6.0	place	house-118.jpg	0.0	224.08953714165136	0.11668761023292973
272.0	136.01669699786044	house	0.0		46.0	place	house-43.jpg	0.0	224.2062247518843	0.3832989573093073
272.0	136.39999595516974	ISI	1.0		6.0	place	house-43.jpg	0.0	224.5895237091936	0.11668066761421869
273.0	136.51667662278396	house	0.0		45.0	place	house-16.jpg	0.0	224.70620437680782	0.38330650363423047
273.0	136.50681961356167	pulse	0.0	t		place	house-16.jpg	0.0	224.69634736758553	
273.0	136.8999831264182	ISI	1.0		6.0	place	house-16.jpg	0.0	225.08951088044205	0.11666708422990268
274.0	137.0166502106481	house	0.0		46.0	place	house-137.jpg	0.0	225.20617796467195	0.3833188796061222
274.0	137.20008898625974	pulse	0.0	t		place	house-137.jpg	0.0	225.3896167402836	
274.0	137.39996909025422	ISI	1.0		6.0	place	house-137.jpg	0.0	225.58949684427807	0.11668368614391511
275.0	137.51665277639813	house	0.0		46.0	place	house-88.jpg	0.0	225.706180530422	0.38330408881029143
275.0	137.89995686520842	ISI	1.0		7.0	place	house-88.jpg	0.0	226.08948461923228	0.11666889534762959
275.0	137.93628155156057	pulse	1.0	t		place	house-88.jpg	0.0	226.12580930558443	
276.0	138.01662576055605	car	0.0		46.0	object	car-13.jpg	0.0	226.2061535145799	0.38334665008096636
276.0	138.39997241063702	ISI	1.0		7.0	object	car-13.jpg	0.0	226.58950016466088	0.11668821393914186
277.0	138.51666062457616	car	0.0		46.0	object	car-70.jpg	0.0	226.70618837860002	0.38330016472082207
277.0	138.60008463957683	pulse	0.0	t		object	car-70.jpg	0.0	226.7896123936007	
277.0	138.89996078929698	ISI	1.0		7.0	object	car-70.jpg	0.0	227.08948854332084	0.11668670467406628
278.0	139.01664749397105	car	0.0		46.0	object	car-117.jpg	0.0	227.2061752479949	0.3832820535421888
278.0	139.30006390227663	pulse	0.0	t		object	car-117.jpg	0.0	227.4895916563005	
278.0	139.39992954751324	ISI	1.0		7.0	object	car-117.jpg	0.0	227.5894573015371	0.11672051220830326
279.0	139.51665005972154	car	0.0		46.0	object	car-56.jpg	0.0	227.7061778137454	0.3832826572479462
279.0	139.8999327169695	ISI	1.0		7.0	object	car-56.jpg	0.0	228.08946047099334	0.11668127132043082
280.0	140.01661398828992	car	0.0		45.0	object	car-6.jpg	0.0	228.20614174231378	0.3833034851040793
280.0	140.0067355475053	pulse	0.0	t		object	car-6.jpg	0.0	228.19626330152914	
280.0	140.399917473394	ISI	1.0		7.0	object	car-6.jpg	0.0	228.58944522741785	0.11669304358656518
281.0	140.51661051698056	car	0.0		46.0	object	car-54.jpg	0.0	228.70613827100442	0.3832944295145353
281.0	140.70002665361835	pulse	0.0	t		object	car-54.jpg	0.0	228.8895544076422	
281.0	140.8999049464951	ISI	1.0		7.0	object	car-54.jpg	0.0	229.08943270051896	0.11668761023292973
282.0	141.01659255672803	car	0.0		46.0	object	car-54.jpg	1.0	229.20612031075188	0.38329895730885255
282.0	141.39989151403688	ISI	1.0		3.0	object	car-54.jpg	1.0	229.58941926806074	0.11668881764489925
282.0	141.4587217552389	pulse	1.0	t		object	car-54.jpg	1.0	229.64824950926277	
282.0	141.45889200032207	response	1.0	b		object	car-54.jpg	1.0	229.64841975434592	
283.0	141.51658033168178	car	0.0		46.0	object	car-77.jpg	0.0	229.70610808570564	0.3833004665743829
283.0	141.89988079825616	ISI	1.0		6.0	object	car-77.jpg	0.0	230.08940855228002	0.11668157317308214
284.0	142.01656237142925	car	0.0		46.0	object	car-143.jpg	0.0	230.2060901254531	0.3833028813983219
284.0	142.09999423460795	pulse	0.0	t		object	car-143.jpg	0.0	230.2895219886318	
284.0	142.39986525282757	ISI	1.0		7.0	object	car-143.jpg	0.0	230.58939300685142	0.11668338429080904
285.0	142.51654863711838	car	0.0		46.0	object	car-104.jpg	0.0	230.70607639114223	0.38329956101551943
285.0	142.79998134548532	pulse	0.0	t		object	car-104.jpg	0.0	230.98950909950918	
285.0	142.8998481981339	ISI	1.0		4.0	object	car-104.jpg	0.0	231.08937595215775	0.11669213802770173
286.0	143.0165403361616	car	0.0		46.0	object	car-59.jpg	0.0	231.20606809018545	0.38329865545620123
286.0	143.3998389916178	ISI	1.0		7.0	object	car-59.jpg	0.0	231.58936674564166	0.11668096946732476
287.0	143.51651996108512	car	0.0		45.0	object	car-82.jpg	0.0	231.70604771510898	0.38330499436870014
287.0	143.5067583374057	pulse	0.0	t		object	car-82.jpg	0.0	231.69628609142956	
287.0	143.89982495545382	ISI	1.0		7.0	object	car-82.jpg	0.0	232.08935270947768	0.11668911949800531
288.0	144.01651407495183	adult	0.0		46.0	face	adult-18.jpg	0.0	232.20604182897569	0.3832956369265048
288.0	144.1999314190016	pulse	0.0	t		face	adult-18.jpg	0.0	232.38945917302544	
288.0	144.39980971187833	ISI	1.0		7.0	face	adult-18.jpg	0.0	232.5893374659022	0.11668278058505166
289.0	144.51649249246339	adult	0.0		46.0	face	adult-78.jpg	0.0	232.70602024648724	0.38330589992801833
289.0	144.8997983923914	ISI	1.0		7.0	face	adult-78.jpg	0.0	233.08932614641526	0.11668308243815773
289.0	144.93581126461004	pulse	1.0	t		face	adult-78.jpg	0.0	233.1253390186339	
290.0	145.01648147482956	adult	0.0		46.0	face	adult-11.jpg	0.0	233.20600922885342	0.38329986286817075
290.0	145.39978133769773	ISI	1.0		7.0	face	adult-11.jpg	0.0	233.5893090917216	0.1166942509985347
291.0	145.51647558869627	adult	0.0		46.0	face	adult-104.jpg	0.0	233.70600334272012	0.38329714619112565
291.0	145.59989235922558	pulse	0.0	t		face	adult-104.jpg	0.0	233.78942011324943	
291.0	145.8997727348874	ISI	1.0		7.0	face	adult-104.jpg	0.0	234.08930048891125	0.11668247873240034
292.0	146.0164552136198	adult	0.0		46.0	face	adult-115.jpg	0.0	234.20598296764365	0.38329986286817075
292.0	146.29987614972015	pulse	0.0	t		face	adult-115.jpg	0.0	234.489403903744	
292.0	146.39975507648796	ISI	1.0		7.0	face	adult-115.jpg	0.0	234.58928283051182	0.11667764908452227
293.0	146.51643272557249	adult	0.0		46.0	face	adult-29.jpg	0.0	234.70596047959634	0.3833086166046087
293.0	146.8997413421771	ISI	1.0		7.0	face	adult-29.jpg	0.0	235.08926909620095	0.11668278058505166
294.0	147.01642412276215	adult	0.0		45.0	face	adult-52.jpg	0.0	235.205951876786	0.38330408881029143
294.0	147.00659216733766	pulse	0.0	t		face	adult-52.jpg	0.0	235.19611992136151	
294.0	147.39972821157244	ISI	1.0		7.0	face	adult-52.jpg	0.0	235.5892559655963	0.11667402684861372
295.0	147.51640223842105	adult	0.0		46.0	face	adult-52.jpg	1.0	235.7059299924449	0.38331404995824414
295.0	147.6998195824708	pulse	0.0	t		face	adult-52.jpg	1.0	235.88934733649467	
295.0	147.8997162883793	ISI	1.0		7.0	face	adult-52.jpg	1.0	236.08924404240315	0.11668428985012724
296.0	148.01640057822942	adult	0.0		46.0	face	adult-114.jpg	0.0	236.20592833225328	0.3833019758390037
296.0	148.19981943154426	response	0.0	b		face	adult-114.jpg	0.0	236.3893471855681	
296.0	148.39970255406843	ISI	1.0		7.0	face	adult-114.jpg	0.0	236.58923030809228	0.11668549726209676
296.0	148.4358243952147	pulse	1.0	t		face	adult-114.jpg	0.0	236.62535214923855	
297.0	148.51638805133052	adult	0.0		46.0	face	adult-80.jpg	0.0	236.70591580535438	0.3832832609541583
297.0	148.89967131228468	ISI	1.0		7.0	face	adult-80.jpg	0.0	237.08919906630854	0.11670209917610919
298.0	149.0163734114608	adult	0.0		46.0	face	adult-20.jpg	0.0	237.20590116548465	0.38330137213324633
298.0	149.09979833202078	pulse	0.0	t		face	adult-20.jpg	0.0	237.28932608604464	
298.0	149.39967478359404	ISI	1.0		7.0	face	adult-20.jpg	0.0	237.5892025376179	0.11668610096785414
299.0	149.5163608845619	adult	0.0		46.0	face	adult-139.jpg	0.0	237.70588863858575	0.3832841665130218
299.0	149.79978302807422	pulse	0.0	t		face	adult-139.jpg	0.0	237.98931078209807	
299.0	149.8996450510749	ISI	1.0		7.0	face	adult-139.jpg	0.0	238.08917280509877	0.11670723067709332
300.0	150.016352281752	car	0.0		46.0	object	car-141.jpg	0.0	238.20588003577586	0.38329593877915613
300.0	150.39964822053116	ISI	1.0		7.0	object	car-141.jpg	0.0	238.58917597455502	0.11668157317308214
301.0	150.51632979370424	car	0.0		45.0	object	car-141.jpg	1.0	238.7058575477281	0.38330710733998785
301.0	150.50647429374703	pulse	0.0	t		object	car-141.jpg	1.0	238.6960020477709	
301.0	150.89963690104423	ISI	1.0		7.0	object	car-141.jpg	1.0	239.0891646550681	0.11668217687929427
302.0	151.01631907792353	car	0.0		46.0	object	car-95.jpg	0.0	239.20584683194738	0.3833007684270342
302.0	151.04974567376757	response	0.0	b		object	car-95.jpg	0.0	239.23927342779143	
302.0	151.1997337052967	pulse	0.0	t		object	car-95.jpg	0.0	239.38926145932055	
302.0	151.39961984635056	ISI	1.0		7.0	object	car-95.jpg	0.0	239.58914760037442	0.11668549726209676
303.0	151.51630534361266	car	0.0		46.0	object	car-19.jpg	0.0	239.7058330976365	0.3833022776921098
303.0	151.89960762130477	ISI	1.0		4.0	object	car-19.jpg	0.0	240.08913537532862	0.11668549726209676
303.0	151.96002379808897	pulse	1.0	t		object	car-19.jpg	0.0	240.14955155211283	
304.0	152.01629311856686	car	0.0		46.0	object	car-93.jpg	0.0	240.20582087259072	0.38330167398589765
304.0	152.39959479255276	ISI	1.0		7.0	object	car-93.jpg	0.0	240.58912254657662	0.11667312128975027
305.0	152.5162679138425	car	0.0		46.0	object	car-55.jpg	0.0	240.70579566786637	0.38331344625248676
305.0	152.59970822890455	pulse	0.0	t		object	car-55.jpg	0.0	240.7892359829284	
305.0	152.899581360095	ISI	1.0		7.0	object	car-55.jpg	0.0	241.08910911411886	0.11668489355633938
306.0	153.01626625365134	car	0.0		46.0	object	car-37.jpg	0.0	241.2057940076752	0.38329986286817075
306.0	153.29968447307465	pulse	0.0	t		object	car-37.jpg	0.0	241.4892122270985	
306.0	153.3995661165195	ISI	1.0		7.0	object	car-37.jpg	0.0	241.58909387054337	0.11668942135065663
307.0	153.51625553787017	car	0.0		46.0	object	car-83.jpg	0.0	241.70578329189402	0.38329473136764136
307.0	153.8995502692378	ISI	1.0		7.0	object	car-83.jpg	0.0	242.08907802326166	0.11668338429080904
308.0	154.01623365352862	car	0.0		45.0	object	car-25.jpg	0.0	242.20576140755247	0.38330318325097323
308.0	154.00626495870165	pulse	0.0	t		object	car-25.jpg	0.0	242.1957927127255	
308.0	154.3995368367796	ISI	1.0		5.0	object	car-25.jpg	0.0	242.58906459080345	0.1166755361136893
309.0	154.51621237289328	car	0.0		46.0	object	car-91.jpg	0.0	242.70574012691714	0.38331223884051724
309.0	154.69964511144553	pulse	0.0	t		object	car-91.jpg	0.0	242.8891728654694	
309.0	154.8995246117338	ISI	1.0		7.0	object	car-91.jpg	0.0	243.08905236575765	0.11667010276005385
310.0	155.01619471449385	car	0.0		46.0	object	car-5.jpg	0.0	243.2057224685177	0.3833173703410466
310.0	155.3995120848349	ISI	1.0		7.0	object	car-5.jpg	0.0	243.58903983885875	0.11668761023292973
310.0	155.43573806526092	pulse	1.0	t		object	car-5.jpg	0.0	243.62526581928478	
311.0	155.51619969506783	car	0.0		46.0	object	car-94.jpg	0.0	243.70572744909168	0.3833016739863524
311.0	155.89950136905418	ISI	1.0		11.0	object	car-94.jpg	0.0	244.08902912307803	0.10001657172870182
312.0	155.99951794078288	baseline	0.0		48.0		baseline	0.0	244.18904569480674	0.40000652002436254
312.0	156.09964680182202	pulse	0.0	t			baseline	0.0	244.28917455584588	
312.0	156.39952446080724	ISI	1.0		11.0		baseline	0.0	244.5890522148311	0.09999423460794787
313.0	156.4995186954152	baseline	0.0		48.0		baseline	0.0	244.68904644943905	0.39999112552231963
313.0	156.7996242534041	pulse	0.0	t			baseline	0.0	244.98915200742795	
313.0	156.8995098209375	ISI	1.0		11.0		baseline	0.0	245.08903757496137	0.10000147907976498
314.0	156.99951130001728	baseline	0.0		48.0		baseline	0.0	245.18903905404113	0.39998810699216847
314.0	157.39949940700944	ISI	1.0		11.0		baseline	0.0	245.5890271610333	0.09999363090219049
315.0	157.49949303791163	baseline	0.0		47.0		baseline	0.0	245.6890207919355	0.39998840884527453
315.0	157.50397163064872	pulse	0.0	t			baseline	0.0	245.69349938467258	
315.0	157.8994814467569	ISI	1.0		11.0		baseline	0.0	246.08900920078077	0.09999906425582594
316.0	157.99948051101273	baseline	0.0		48.0		baseline	0.0	246.1890082650366	0.39998780513951715
316.0	158.19958760845202	pulse	0.0	t			baseline	0.0	246.38911536247588	
316.0	158.39946831615225	ISI	1.0		11.0		baseline	0.0	246.5889960701761	0.09999966796158333
317.0	158.49946798411383	baseline	0.0		48.0		baseline	0.0	246.6889957381377	0.39998599402179025
317.0	158.89945397813563	ISI	1.0		11.0		baseline	0.0	247.08898173215948	0.10000027166734071
317.0	158.90428513515917	pulse	1.0	t			baseline	0.0	247.09381288918303	
318.0	158.99945424980297	baseline	0.0		48.0		baseline	0.0	247.18898200382682	0.39998720143375976
318.0	159.39944145123673	ISI	1.0		11.0		baseline	0.0	247.58896920526058	0.10001204393392982
319.0	159.49945349517066	baseline	0.0		48.0		baseline	0.0	247.6889812491945	0.39997452360785246
319.0	159.5995509634995	pulse	0.0	t			baseline	0.0	247.78907871752335	
319.0	159.8994280187785	ISI	1.0		11.0		baseline	0.0	248.08895577280236	0.09999846055006856
320.0	159.99942647932858	baseline	0.0		48.0		baseline	0.0	248.18895423335243	0.39998689958019895
320.0	160.2995305280524	pulse	0.0	t			baseline	0.0	248.48905828207626	
320.0	160.39941337890878	ISI	1.0		11.0		baseline	0.0	248.58894113293263	0.09999906425582594
321.0	160.4994124431646	baseline	0.0		48.0		baseline	0.0	248.68894019718846	0.39998388105050253
321.0	160.8993963242151	ISI	1.0		11.0		baseline	0.0	249.08892407823896	0.1000026864917345
322.0	160.99939901070684	baseline	0.0		47.0		baseline	0.0	249.1889267647307	0.39998961625724405
322.0	161.0039108072724	pulse	0.0	t			baseline	0.0	249.19343856129626	
322.0	161.39938862696408	ISI	1.0		11.0		baseline	0.0	249.58891638098794	0.09999423460794787
323.0	161.49938286157203	baseline	0.0		48.0		baseline	0.0	249.6889106155959	0.3999986718472428
323.0	161.69949509051185	pulse	0.0	t			baseline	0.0	249.8890228445357	
323.0	161.89938153341927	ISI	1.0		7.0		baseline	0.0	250.08890928744313	0.11665591566952571
324.0	162.0160374490888	car	0.0		46.0	object	car-103.jpg	0.0	250.20556520311266	0.383284166512567
324.0	162.39932161560137	ISI	1.0		7.0	object	car-103.jpg	0.0	250.58884936962522	0.11668519540944544
324.0	162.43676013946788	pulse	1.0	t		object	car-103.jpg	0.0	250.62628789349174	
325.0	162.5160068110108	car	0.0		46.0	object	car-9.jpg	0.0	250.70553456503467	0.38330046657392813
325.0	162.89930727758474	ISI	1.0		7.0	object	car-9.jpg	0.0	251.0888350316086	0.11668489355588463
326.0	163.01599217114062	car	0.0		46.0	object	car-84.jpg	0.0	251.20551992516448	0.3833016739863524
326.0	163.09944969182288	pulse	0.0	t		object	car-84.jpg	0.0	251.28897744584674	
326.0	163.39929384512698	ISI	1.0		7.0	object	car-84.jpg	0.0	251.58882159915083	0.11668881764489925
327.0	163.51598266277188	car	0.0		46.0	object	car-41.jpg	0.0	251.70551041679573	0.3832974480442317
327.0	163.79939907107746	pulse	0.0	t		object	car-41.jpg	0.0	251.98892682510132	
327.0	163.8992801108161	ISI	1.0		7.0	object	car-41.jpg	0.0	252.08880786483996	0.11668851579179318
328.0	164.0159686266079	car	0.0		46.0	object	car-127.jpg	0.0	252.20549638063176	0.3832983536035499
328.0	164.39926698021145	ISI	1.0		7.0	object	car-127.jpg	0.0	252.5887947342353	0.11668036576111263
329.0	164.51594734597256	car	0.0		45.0	object	car-80.jpg	0.0	252.70547509999642	0.3833046925160488
329.0	164.50602664577036	pulse	0.0	t		object	car-80.jpg	0.0	252.69555439979422	
329.0	164.8992520384886	ISI	1.0		7.0	object	car-80.jpg	0.0	253.08877979251247	0.11668851579179318
330.0	165.0159405542804	car	0.0		46.0	object	car-61.jpg	0.0	253.20546830830426	0.38328024242400716
330.0	165.1993603131541	pulse	0.0	t		object	car-61.jpg	0.0	253.38888806717796	
330.0	165.3992207967044	ISI	1.0		7.0	object	car-61.jpg	0.0	253.58874855072827	0.11671175847186532
331.0	165.51593255517628	car	0.0		46.0	object	car-81.jpg	0.0	253.70546030920013	0.38329382580832316
331.0	165.8992263809846	ISI	1.0		7.0	object	car-81.jpg	0.0	254.08875413500846	0.11668519540944544
331.0	165.93594106139335	pulse	1.0	t		object	car-81.jpg	0.0	254.1254688154172	
332.0	166.01591157639405	car	0.0		46.0	object	car-105.jpg	0.0	254.2054393304179	0.3832687720105241
332.0	166.39918034840457	ISI	1.0		7.0	object	car-105.jpg	0.0	254.58870810242843	0.11666889534808433
333.0	166.51584924375265	car	0.0		46.0	object	car-137.jpg	0.0	254.7053769977765	0.3833065036337757
333.0	166.5993529479415	pulse	0.0	t		object	car-137.jpg	0.0	254.78888070196535	
333.0	166.89915574738643	ISI	1.0		7.0	object	car-137.jpg	0.0	255.0886835014103	0.11669666582247373
334.0	167.0158524132089	car	0.0		46.0	object	car-8.jpg	0.0	255.20538016723276	0.38330046657392813
334.0	167.29927093448532	pulse	0.0	t		object	car-8.jpg	0.0	255.48879868850918	
334.0	167.39915287978283	ISI	1.0		7.0	object	car-8.jpg	0.0	255.5886806338067	0.11668579911520283
335.0	167.51583867889804	car	0.0		46.0	object	car-31.jpg	0.0	255.7053664329219	0.38330288139786717
335.0	167.8991415602959	ISI	1.0		8.0	object	car-31.jpg	0.0	256.08866931431976	0.1250190544697034
335.0	167.99924748050853	pulse	1.0	t		object	car-31.jpg	0.0	256.1887752345324	
336.0	168.0241606147656	car	0.0		45.0	object	car-139.jpg	0.0	256.21368836878946	0.3749675130725336
336.0	168.39912812783814	ISI	1.0		8.0	object	car-139.jpg	0.0	256.588655881862	0.12501633779311305
337.0	168.52414446563125	car	0.0		46.0	object	car-100.jpg	0.0	256.7136722196551	0.3833025795447611
337.0	168.6992466655056	pulse	0.0	t		object	car-100.jpg	0.0	256.88877441952945	
337.0	168.907447045176	ISI	1.0		7.0	object	car-100.jpg	0.0	257.09697479919987	0.11668308243815773
338.0	169.02413012761417	car	0.0		46.0	object	car-48.jpg	0.0	257.213657881638	0.38330257954521585
338.0	169.39921234482108	pulse	0.0	t		object	car-48.jpg	0.0	257.58874009884494	
338.0	169.4074327071594	ISI	1.0		7.0	object	car-48.jpg	0.0	257.59696046118324	0.11668398799702118
339.0	169.5241166951564	car	0.0		46.0	object	car-34.jpg	0.0	257.71364444918026	0.38330288139786717
339.0	169.90741957655428	ISI	1.0		7.0	object	car-34.jpg	0.0	258.09694733057813	0.11668338429126379
340.0	170.02410296084554	car	0.0		46.0	object	car-16.jpg	0.0	258.2136307148694	0.38330137213324633
340.0	170.09921575575981	pulse	0.0	t		object	car-16.jpg	0.0	258.28874350978367	
340.0	170.40740433297879	ISI	1.0		7.0	object	car-16.jpg	0.0	258.59693208700264	0.11668428985012724
341.0	170.5240886228289	car	0.0		46.0	object	car-33.jpg	0.0	258.71361637685277	0.38330318325097323
341.0	170.79917690728053	pulse	0.0	t		object	car-33.jpg	0.0	258.9887046613044	
341.0	170.9073918060799	ISI	1.0		7.0	object	car-33.jpg	0.0	259.09691956010374	0.11668308243815773
342.0	171.02407488851804	car	0.0		46.0	object	car-109.jpg	0.0	259.2136026425419	0.3833019758390037
342.0	171.40737686435705	ISI	1.0		7.0	object	car-109.jpg	0.0	259.5969046183809	0.11669032690997483
342.0	171.49915345330373	pulse	1.0	t		object	car-109.jpg	0.0	259.6886812073276	
343.0	171.52406719126702	car	0.0		46.0	object	car-71.jpg	0.0	259.7135949452909	0.3832989573093073
343.0	171.90736614857633	ISI	1.0		7.0	object	car-71.jpg	0.0	260.0968939026002	0.11668368614391511
344.0	172.02404983472024	car	0.0		46.0	object	car-71.jpg	1.0	260.2135775887441	0.38330710733998785
344.0	172.19917105133254	pulse	0.0	t		object	car-71.jpg	1.0	260.3886988053564	
344.0	172.39914140936935	response	0.0	b		object	car-71.jpg	1.0	260.5886691633932	
344.0	172.40735694206023	ISI	1.0		7.0	object	car-71.jpg	1.0	260.5968846960841	0.11671175847141058
345.0	172.52406870053164	car	0.0		46.0	object	car-20.jpg	0.0	260.7135964545555	0.38327329980575087
345.0	172.89911409167462	pulse	0.0	t		object	car-20.jpg	0.0	261.0886418456985	
345.0	172.9073420003374	ISI	1.0		7.0	object	car-20.jpg	0.0	261.09686975436125	0.11668036576111263
346.0	173.0240223660985	car	0.0		46.0	object	car-132.jpg	0.0	261.21355012012236	0.38330107028014027
346.0	173.40732343637865	ISI	1.0		5.0	object	car-132.jpg	0.0	261.5968511904025	0.1166851954089907
347.0	173.52400863178764	car	0.0		46.0	object	car-39.jpg	0.0	261.7135363858115	0.3832850720718852
347.0	173.59910905072957	pulse	0.0	t		object	car-39.jpg	0.0	261.7886368047534	
347.0	173.90729370385952	ISI	1.0		6.0	object	car-39.jpg	0.0	262.0968214578834	0.11672171962027278
348.0	174.0240154234798	house	0.0		46.0	place	house-107.jpg	0.0	262.21354317750365	0.38328265724840094
348.0	174.299081068958	pulse	0.0	t		place	house-107.jpg	0.0	262.48860882298186	
348.0	174.4072980807282	ISI	1.0		6.0	place	house-107.jpg	0.0	262.59682583475205	0.1166824787319456
349.0	174.52398055946014	house	0.0		46.0	place	house-116.jpg	0.0	262.713508313484	0.38329473136764136
349.0	174.90727529082778	ISI	1.0		7.0	place	house-116.jpg	0.0	263.09680304485164	0.11669394914542863
349.0	174.9990564075688	pulse	1.0	t		place	house-116.jpg	0.0	263.18858416159264	
350.0	175.0239692399732	house	0.0		46.0	place	house-119.jpg	0.0	263.21349699399707	0.3833028813983219
350.0	175.40727212137153	ISI	1.0		7.0	place	house-119.jpg	0.0	263.5967998753954	0.11668127131997608
351.0	175.5239533926915	house	0.0		46.0	place	house-113.jpg	0.0	263.71348114671537	0.38330378695718537
351.0	175.69903929250495	pulse	0.0	t		place	house-113.jpg	0.0	263.8885670465288	
351.0	175.9072571796487	ISI	1.0		6.0	place	house-113.jpg	0.0	264.09678493367255	0.1166824787319456
352.0	176.02393965838064	house	0.0		46.0	place	house-46.jpg	0.0	264.2134674124045	0.3833016739863524
352.0	176.3990209700287	pulse	0.0	t		place	house-46.jpg	0.0	264.58854872405254	
352.0	176.407241332367	ISI	1.0		7.0	place	house-46.jpg	0.0	264.59676908639085	0.11668640282096021
353.0	176.52392773518795	house	0.0		46.0	place	house-46.jpg	1.0	264.7134554892118	0.3833007684270342
353.0	176.907228503615	ISI	1.0		4.0	place	house-46.jpg	1.0	265.09675625763884	0.11668278058505166
354.0	177.02391128420004	house	0.0		46.0	place	house-28.jpg	0.0	265.2134390382239	0.38330137213324633
354.0	177.09900959017114	pulse	0.0	t		place	house-28.jpg	0.0	265.288537344195	
354.0	177.14897078697004	response	0.0	b		place	house-28.jpg	0.0	265.3384985409939	
354.0	177.4072126563333	ISI	1.0		6.0	place	house-28.jpg	0.0	265.59674041035714	0.11668036576111263
355.0	177.5238930220944	house	0.0		46.0	place	house-9.jpg	0.0	265.71342077611826	0.38331767219460744
355.0	177.798986438047	pulse	0.0	t		place	house-9.jpg	0.0	265.98851419207085	
355.0	177.907210694289	ISI	1.0		7.0	place	house-9.jpg	0.0	266.09673844831286	0.11667553611323456
356.0	178.02388623040224	house	0.0		46.0	place	house-109.jpg	0.0	266.2134139844261	0.38330107028014027
356.0	178.40718730068238	ISI	1.0		5.0	place	house-109.jpg	0.0	266.59671505470624	0.11668700652717234
356.0	178.49897928413156	pulse	1.0	t		place	house-109.jpg	0.0	266.6885070381554	
357.0	178.52387430720955	house	0.0		46.0	place	house-61.jpg	0.0	266.7134020612334	0.3833753261142192
357.0	178.90724963332377	ISI	1.0		6.0	place	house-61.jpg	0.0	267.09677738734763	0.11663116372483273
358.0	179.0238807970486	house	0.0		46.0	place	house-41.jpg	0.0	267.21340855107246	0.38331163513475985
358.0	179.19897786542242	pulse	0.0	t		place	house-41.jpg	0.0	267.3885056194463	
358.0	179.40719243218336	ISI	1.0		6.0	place	house-41.jpg	0.0	267.5967201862072	0.11668579911474808
359.0	179.5238782312981	house	0.0		46.0	place	house-21.jpg	0.0	267.71340598532197	0.38329020357286936
359.0	179.89896346703472	pulse	0.0	t		place	house-21.jpg	0.0	268.0884912210586	
359.0	179.90716843487098	ISI	1.0		11.0	place	house-21.jpg	0.0	268.09669618889484	0.10004615332127287
360.0	180.00721458819226	baseline	0.0		48.0		baseline	0.0	268.1967423422161	0.39998629587444157
360.0	180.4072008840667	ISI	1.0		11.0		baseline	0.0	268.59672863809055	0.10000147907976498
361.0	180.50720236314646	baseline	0.0		48.0		baseline	0.0	268.6967301171703	0.3999875032864111
361.0	180.59898438544678	pulse	0.0	t			baseline	0.0	268.78851213947064	
361.0	180.90718986643287	ISI	1.0		11.0		baseline	0.0	269.09671762045673	0.09999725313809904
362.0	181.00718711957097	baseline	0.0		48.0		baseline	0.0	269.19671487359483	0.39998961625724405
362.0	181.29895730923408	pulse	0.0	t			baseline	0.0	269.48848506325794	
362.0	181.40717673582822	ISI	1.0		11.0		baseline	0.0	269.5967044898521	0.09999604572567478
363.0	181.5071727815539	baseline	0.0		48.0		baseline	0.0	269.69670053557775	0.39999172922853177
363.0	181.90716451078242	ISI	1.0		11.0		baseline	0.0	270.0966922648063	0.10000147907931023
363.0	181.99898275544047	pulse	1.0	t			baseline	0.0	270.1885105094643	
364.0	182.00716598986173	baseline	0.0		48.0		baseline	0.0	270.1966937438856	0.399982673638533
364.0	182.40714866350027	ISI	1.0		11.0		baseline	0.0	270.5966764175241	0.10000449760991614
365.0	182.50715316111018	baseline	0.0		48.0		baseline	0.0	270.69668091513404	0.3999878051390624
365.0	182.69892398466436	pulse	0.0	t			baseline	0.0	270.8884517386882	
365.0	182.90714096624924	ISI	1.0		11.0		baseline	0.0	271.0966687202731	0.09999906425582594
366.0	183.00714003050507	baseline	0.0		48.0		baseline	0.0	271.1966677845289	0.39998388105050253
366.0	183.39890053068757	pulse	0.0	t			baseline	0.0	271.5884282847114	
366.0	183.40712391155557	ISI	1.0		11.0		baseline	0.0	271.59665166557943	0.09999574387302346
367.0	183.5071196554286	baseline	0.0		48.0		baseline	0.0	271.69664740945245	0.39998961625724405
367.0	183.90710927168584	ISI	1.0		11.0		baseline	0.0	272.0966370257097	0.09997944381166235
368.0	184.0070887154975	baseline	0.0		48.0		baseline	0.0	272.19661646952136	0.4000038033477722
368.0	184.0988719452098	pulse	0.0	t			baseline	0.0	272.28839969923365	
368.0	184.40709251884527	ISI	1.0		11.0		baseline	0.0	272.59662027286913	0.1000017809324163
369.0	184.5070942997777	baseline	0.0		48.0		baseline	0.0	272.69662205380155	0.39998780513951715
369.0	184.79886237647042	pulse	0.0	t			baseline	0.0	272.9883901304943	
369.0	184.9070821049172	ISI	1.0		11.0		baseline	0.0	273.09660985894106	0.10000329019749188
370.0	185.0070853951147	baseline	0.0		48.0		baseline	0.0	273.19661314913856	0.39998327734474515
370.0	185.40706867245945	ISI	1.0		11.0		baseline	0.0	273.5965964264833	0.09998155678249532
370.0	185.49884405399416	pulse	1.0	t			baseline	0.0	273.688371808018	
371.0	185.50705022924194	baseline	0.0		48.0		baseline	0.0	273.6965779832658	0.4000031996420148
371.0	185.90705342888396	ISI	1.0		7.0		baseline	0.0	274.0965811829078	0.11664504896180006
372.0	186.02369847784576	body	0.0		46.0	body	body-131.jpg	0.0	274.2132262318696	0.3833019758390037
372.0	186.19879162213056	pulse	0.0	t		body	body-131.jpg	0.0	274.3883193761544	
372.0	186.40700045368476	ISI	1.0		7.0	body	body-131.jpg	0.0	274.5965282077086	0.1166879120860358
373.0	186.5236883657708	body	0.0		46.0	body	body-143.jpg	0.0	274.71321611979465	0.3833022776921098
373.0	186.8987702811246	pulse	0.0	t		body	body-143.jpg	0.0	275.08829803514845	
373.0	186.9069906434629	ISI	1.0		7.0	body	body-143.jpg	0.0	275.09651839748676	0.1166755361136893
374.0	187.0236661795766	body	0.0		46.0	body	body-69.jpg	0.0	275.21319393360045	0.3833071073395331
374.0	187.40697328691613	ISI	1.0		4.0	body	body-69.jpg	0.0	275.59650104094	0.11668640282096021
375.0	187.5236596897371	body	0.0		46.0	body	body-51.jpg	0.0	275.71318744376094	0.38330408881029143
375.0	187.59875950497326	pulse	0.0	t		body	body-51.jpg	0.0	275.7882872589971	
375.0	187.90696377854738	ISI	1.0		7.0	body	body-51.jpg	0.0	276.09649153257124	0.11668821393868711
376.0	188.02365199248607	body	0.0		46.0	body	body-8.jpg	0.0	276.2131797465099	0.3832624330980252
376.0	188.29869982863784	pulse	0.0	t		body	body-8.jpg	0.0	276.4882275826617	
376.0	188.4069144255841	ISI	1.0		7.0	body	body-8.jpg	0.0	276.59644217960795	0.11668670467406628
377.0	188.52360113025816	body	0.0		46.0	body	body-28.jpg	0.0	276.713128884282	0.3833007684270342
377.0	188.9069018986852	ISI	1.0		7.0	body	body-28.jpg	0.0	277.09642965270905	0.11668579911520283
377.0	188.99867848763188	pulse	1.0	t		body	body-28.jpg	0.0	277.18820624165573	
378.0	189.0235876978004	body	0.0		46.0	body	body-88.jpg	0.0	277.21311545182425	0.3832856757776426
378.0	189.40687337357804	ISI	1.0		7.0	body	body-88.jpg	0.0	277.5964011276019	0.11669847694065538
379.0	189.5235718505187	body	0.0		46.0	body	body-41.jpg	0.0	277.71309960454255	0.38330499436870014
379.0	189.69866137256759	pulse	0.0	t		body	body-41.jpg	0.0	277.88818912659144	
379.0	189.9068768448874	ISI	1.0		7.0	body	body-41.jpg	0.0	278.09640459891125	0.11668459170323331
380.0	190.02356143659063	body	0.0		46.0	body	body-53.jpg	0.0	278.2130891906145	0.38330137213324633
380.0	190.39862554261845	pulse	0.0	t		body	body-53.jpg	0.0	278.5881532966423	
380.0	190.40686280872387	ISI	1.0		7.0	body	body-53.jpg	0.0	278.59639056274773	0.11666708422990268
381.0	190.52352989295377	body	0.0		46.0	body	body-94.jpg	0.0	278.71305764697763	0.38331857775301614
381.0	190.9068484707068	ISI	1.0		7.0	body	body-94.jpg	0.0	279.09637622473065	0.11668459170323331
382.0	191.02353306241002	body	0.0		46.0	body	body-75.jpg	0.0	279.2130608164339	0.38330137213324633
382.0	191.09862533132127	pulse	0.0	t		body	body-75.jpg	0.0	279.28815308534513	
382.0	191.40683443454327	ISI	1.0		7.0	body	body-75.jpg	0.0	279.5963621885671	0.1166701027595991
383.0	191.52350453730287	body	0.0		46.0	body	body-32.jpg	0.0	279.7130322913267	0.3833146536644563
383.0	191.79860821625698	pulse	0.0	t		body	body-32.jpg	0.0	279.98813597028084	
383.0	191.90681919096733	ISI	1.0		4.0	body	body-32.jpg	0.0	280.0963469449912	0.11668459170323331
384.0	192.02350378267056	word	0.0		46.0	character	word-74.jpg	0.0	280.2130315366944	0.3833046925160488
384.0	192.4068084751866	ISI	1.0		6.0	character	word-74.jpg	0.0	280.59633622921046	0.11668338429080904
384.0	192.49858385672132	pulse	1.0	t		character	word-74.jpg	0.0	280.6881116107452	
385.0	192.52349185947742	word	0.0		46.0	character	word-144.jpg	0.0	280.7130196135013	0.3833113332816538
385.0	192.90680319275907	ISI	1.0		5.0	character	word-144.jpg	0.0	281.0963309467829	0.11667613981990144
386.0	193.02347933257897	word	0.0		46.0	character	word-119.jpg	0.0	281.21300708660283	0.3833013721327916
386.0	193.19856825092165	pulse	0.0	t		character	word-119.jpg	0.0	281.3880960049455	
386.0	193.40678070471176	ISI	1.0		6.0	character	word-119.jpg	0.0	281.5963084587356	0.11668700652717234
387.0	193.52346771123894	word	0.0		46.0	character	word-44.jpg	0.0	281.7129954652628	0.3832889961604451
387.0	193.8985502302985	pulse	0.0	t		character	word-44.jpg	0.0	282.08807798432235	
387.0	193.90675670739938	ISI	1.0		7.0	character	word-44.jpg	0.0	282.09628446142324	0.11669787323444325
388.0	194.02345458063382	word	0.0		46.0	character	word-121.jpg	0.0	282.2129823346577	0.38332974631384786
388.0	194.40678432694767	ISI	1.0		7.0	character	word-121.jpg	0.0	282.59631208097153	0.11668911949800531
389.0	194.52347344644568	word	0.0		46.0	character	word-16.jpg	0.0	282.71300120046953	0.3832974480442317
389.0	194.59856118756215	pulse	0.0	t		character	word-16.jpg	0.0	282.788088941586	
389.0	194.9067708944899	ISI	1.0		7.0	character	word-16.jpg	0.0	283.09629864851377	0.11668911949800531
390.0	195.02346001398791	word	0.0		46.0	character	word-8.jpg	0.0	283.21298776801177	0.3832968443380196
390.0	195.29854045026195	pulse	0.0	t		character	word-8.jpg	0.0	283.4880682042858	
390.0	195.40675685832593	ISI	1.0		6.0	character	word-8.jpg	0.0	283.5962846123498	0.11668610096830889
391.0	195.52344295929424	word	0.0		46.0	character	word-86.jpg	0.0	283.7129707133181	0.38330046657392813
