trial_nr	onset	event_type	phase	response	nr_frames	face_age	face_sex	face_eth	attractiveness	expression	face_id	sub_id	ses	run	trial_type	catch	rating_type	onset_abs	duration
-1.0	0.05577190160420287	fix	0.0		714													22.354910619283146	5.966354055766715
-1.0	0.7056837147219994	pulse	0.0	t														23.004822432400942	
-1.0	1.4056738440694971	pulse	0.0	t														23.70481256174844	
-1.0	2.1056470695484677	pulse	0.0	t														24.40478578722741	
-1.0	2.8056405192992315	pulse	0.0	t														25.104779236978175	
-1.0	3.505620385583825	pulse	0.0	t														25.804759103262768	
-1.0	4.205596025900377	pulse	0.0	t														26.50473474357932	
-1.0	4.905593399764257	pulse	0.0	t														27.2047321174432	
-1.0	5.6055856420953205	pulse	0.0	t														27.904724359774264	
0.0	6.022125957370918	face	0.0		144	32.0	male	white	2.389176283326701	neutral	092	sub-04	2.0	3.0	092_neutral	0.0		28.32126467504986	1.2333050897850626
0.0	6.305571545475686	pulse	0.0	t		32.0	male	white	2.389176283326701	neutral	092	sub-04	2.0	3.0	092_neutral	0.0		28.60471026315463	
0.0	7.005548996921789	pulse	0.0	t		32.0	male	white	2.389176283326701	neutral	092	sub-04	2.0	3.0	092_neutral	0.0		29.304687714600732	
0.0	7.25543104715598	fix	1.0		445	32.0	male	white	2.389176283326701	neutral	092	sub-04	2.0	3.0	092_neutral	0.0		29.554569764834923	3.7582520312562337
0.0	7.705532485463664	pulse	1.0	t		32.0	male	white	2.389176283326701	neutral	092	sub-04	2.0	3.0	092_neutral	0.0		30.004671203142607	
0.0	8.405521105537446	pulse	1.0	t		32.0	male	white	2.389176283326701	neutral	092	sub-04	2.0	3.0	092_neutral	0.0		30.70465982321639	
0.0	9.105499160693398	pulse	1.0	t		32.0	male	white	2.389176283326701	neutral	092	sub-04	2.0	3.0	092_neutral	0.0		31.40463787837234	
0.0	9.805473895445175	pulse	1.0	t		32.0	male	white	2.389176283326701	neutral	092	sub-04	2.0	3.0	092_neutral	0.0		32.10461261312412	
0.0	10.50547277858277	pulse	1.0	t		32.0	male	white	2.389176283326701	neutral	092	sub-04	2.0	3.0	092_neutral	0.0		32.804611496261714	
1.0	11.013683078412214	face	0.0		146	27.0	male	black	3.5523278949462798	smiling	042	sub-04	2.0	3.0	042_smiling	0.0		33.31282179609116	1.2416377917388672
1.0	11.205472869139157	pulse	0.0	t		27.0	male	black	3.5523278949462798	smiling	042	sub-04	2.0	3.0	042_smiling	0.0		33.5046115868181	
1.0	11.905445490908278	pulse	0.0	t		27.0	male	black	3.5523278949462798	smiling	042	sub-04	2.0	3.0	042_smiling	0.0		34.20458420858722	
1.0	12.255320870151081	fix	1.0		445	27.0	male	black	3.5523278949462798	smiling	042	sub-04	2.0	3.0	042_smiling	0.0		34.554459587830024	3.7582562572233655
1.0	12.605429281305078	pulse	1.0	t		27.0	male	black	3.5523278949462798	smiling	042	sub-04	2.0	3.0	042_smiling	0.0		34.90456799898402	
1.0	13.305436918231862	pulse	1.0	t		27.0	male	black	3.5523278949462798	smiling	042	sub-04	2.0	3.0	042_smiling	0.0		35.604575635910805	
1.0	14.005401993630585	pulse	1.0	t		27.0	male	black	3.5523278949462798	smiling	042	sub-04	2.0	3.0	042_smiling	0.0		36.30454071130953	
1.0	14.705381859915178	pulse	1.0	t		27.0	male	black	3.5523278949462798	smiling	042	sub-04	2.0	3.0	042_smiling	0.0		37.00452057759412	
1.0	15.405379837487999	pulse	1.0	t		27.0	male	black	3.5523278949462798	smiling	042	sub-04	2.0	3.0	042_smiling	0.0		37.70451855516694	
2.0	16.013577127374447	face	0.0		146	24.0	female	east_asian	4.409868682849185	smiling	030	sub-04	2.0	3.0	030_smiling	0.0		38.31271584505339	1.2416377917388672
2.0	16.105451165778504	pulse	0.0	t		24.0	female	east_asian	4.409868682849185	smiling	030	sub-04	2.0	3.0	030_smiling	0.0		38.40458988345745	
2.0	16.805345305298033	pulse	0.0	t		24.0	female	east_asian	4.409868682849185	smiling	030	sub-04	2.0	3.0	030_smiling	0.0		39.104484022976976	
2.0	17.255214919113314	fix	1.0		444	24.0	female	east_asian	4.409868682849185	smiling	030	sub-04	2.0	3.0	030_smiling	0.0		39.55435363679226	3.758233919968916
2.0	17.505335132790606	pulse	1.0	t		24.0	female	east_asian	4.409868682849185	smiling	030	sub-04	2.0	3.0	030_smiling	0.0		39.80447385046955	
2.0	18.205318923187406	pulse	1.0	t		24.0	female	east_asian	4.409868682849185	smiling	030	sub-04	2.0	3.0	030_smiling	0.0		40.50445764086635	
2.0	18.9052924505213	pulse	1.0	t		24.0	female	east_asian	4.409868682849185	smiling	030	sub-04	2.0	3.0	030_smiling	0.0		41.204431168200244	
2.0	19.605282881723724	pulse	1.0	t		24.0	female	east_asian	4.409868682849185	smiling	030	sub-04	2.0	3.0	030_smiling	0.0		41.90442159940267	
2.0	20.305420014362426	pulse	1.0	t		24.0	female	east_asian	4.409868682849185	smiling	030	sub-04	2.0	3.0	030_smiling	0.0		42.60455873204137	
3.0	21.01344883908223	face	0.0		147	31.0	female	west_asian	2.364902506963788	neutral	006	sub-04	2.0	3.0	006_neutral	0.0		43.31258755676117	1.2416601289942264
3.0	21.005906393012992	pulse	0.0	t		31.0	female	west_asian	2.364902506963788	neutral	006	sub-04	2.0	3.0	006_neutral	0.0		43.305045110691935	
3.0	21.705246025251654	pulse	0.0	t		31.0	female	west_asian	2.364902506963788	neutral	006	sub-04	2.0	3.0	006_neutral	0.0		44.0043847429306	
3.0	22.255108968076456	fix	1.0		443	31.0	female	west_asian	2.364902506963788	neutral	006	sub-04	2.0	3.0	006_neutral	0.0		44.5542476857554	3.7582562572233655
3.0	22.40523192863202	pulse	1.0	t		31.0	female	west_asian	2.364902506963788	neutral	006	sub-04	2.0	3.0	006_neutral	0.0		44.70437064631096	
3.0	23.105221756125502	pulse	1.0	t		31.0	female	west_asian	2.364902506963788	neutral	006	sub-04	2.0	3.0	006_neutral	0.0		45.404360473804445	
3.0	23.80519649087819	pulse	1.0	t		31.0	female	west_asian	2.364902506963788	neutral	006	sub-04	2.0	3.0	006_neutral	0.0		46.10433520855713	
3.0	24.505186016515836	pulse	1.0	t		31.0	female	west_asian	2.364902506963788	neutral	006	sub-04	2.0	3.0	006_neutral	0.0		46.80432473419478	
3.0	25.20516648651028	pulse	1.0	t		31.0	female	west_asian	2.364902506963788	neutral	006	sub-04	2.0	3.0	006_neutral	0.0		47.50430520418922	
3.0	25.90514333424653	pulse	1.0	t		31.0	female	west_asian	2.364902506963788	neutral	006	sub-04	2.0	3.0	006_neutral	0.0		48.204282051925475	
4.0	26.01336522529982	face	0.0		147	27.0	female	white	3.504576203740549	neutral	144	sub-04	2.0	3.0	144_neutral	0.0		48.312503942978765	1.2416402065773582
4.0	26.60513829327101	pulse	0.0	t		27.0	female	white	3.504576203740549	neutral	144	sub-04	2.0	3.0	144_neutral	0.0		48.904277010949954	
4.0	27.25500543187718	fix	1.0		444	27.0	female	white	3.504576203740549	neutral	144	sub-04	2.0	3.0	144_neutral	0.0		49.55414414955612	3.7582366366614224
4.0	27.30513144116685	pulse	1.0	t		27.0	female	white	3.504576203740549	neutral	144	sub-04	2.0	3.0	144_neutral	0.0		49.60427015884579	
4.0	28.00512760761103	pulse	1.0	t		27.0	female	white	3.504576203740549	neutral	144	sub-04	2.0	3.0	144_neutral	0.0		50.30426632528997	
4.0	28.70510777574964	pulse	1.0	t		27.0	female	white	3.504576203740549	neutral	144	sub-04	2.0	3.0	144_neutral	0.0		51.00424649342858	
4.0	29.405075567841777	pulse	1.0	t		27.0	female	white	3.504576203740549	neutral	144	sub-04	2.0	3.0	144_neutral	0.0		51.70421428552072	
4.0	30.10506781017375	pulse	1.0	t		27.0	female	white	3.504576203740549	neutral	144	sub-04	2.0	3.0	144_neutral	0.0		52.40420652785269	
4.0	30.805047072748494	pulse	1.0	t		27.0	female	white	3.504576203740549	neutral	144	sub-04	2.0	3.0	144_neutral	0.0		53.10418579042744	
5.0	31.013242068538602	face	0.0		146	25.0	female	west_asian	2.6756864305610826	neutral	064	sub-04	2.0	3.0	064_neutral	1.0	dominance	53.312380786217545	1.2416562048820197
5.0	31.505028750161728	pulse	0.0	t		25.0	female	west_asian	2.6756864305610826	neutral	064	sub-04	2.0	3.0	064_neutral	1.0	dominance	53.80416746784067	
5.0	32.20501163499375	pulse	0.0	t		25.0	female	west_asian	2.6756864305610826	neutral	064	sub-04	2.0	3.0	064_neutral	1.0	dominance	54.504150352672696	
5.0	32.25489827342062	fix	1.0		177	25.0	female	west_asian	2.6756864305610826	neutral	064	sub-04	2.0	3.0	064_neutral	1.0	dominance	54.554036991099565	1.5083449270741767
5.0	32.90500900885672	pulse	1.0	t		25.0	female	west_asian	2.6756864305610826	neutral	064	sub-04	2.0	3.0	064_neutral	1.0	dominance	55.204147726535666	
5.0	33.60498978070609	pulse	1.0	t		25.0	female	west_asian	2.6756864305610826	neutral	064	sub-04	2.0	3.0	064_neutral	1.0	dominance	55.904128498385035	
5.0	33.7632432004948	rating	2.0		294	25.0	female	west_asian	2.6756864305610826	neutral	064	sub-04	2.0	3.0	064_neutral	1.0	dominance	56.06238191817374	2.491569949870609
5.0	34.29971556221517	pulse	2.0	t		25.0	female	west_asian	2.6756864305610826	neutral	064	sub-04	2.0	3.0	064_neutral	1.0	dominance	56.59885427989411	
5.0	34.888295911890054	response	2.0	y		25.0	female	west_asian	2.6756864305610826	neutral	064	sub-04	2.0	3.0	064_neutral	1.0	dominance	57.187434629569	
5.0	35.00493683537297	pulse	2.0	t		25.0	female	west_asian	2.6756864305610826	neutral	064	sub-04	2.0	3.0	064_neutral	1.0	dominance	57.304075553051916	
5.0	35.70494115189649	pulse	2.0	t		25.0	female	west_asian	2.6756864305610826	neutral	064	sub-04	2.0	3.0	064_neutral	1.0	dominance	58.004079869575435	
5.0	36.25481315036541	fix	3.0		443	25.0	female	west_asian	2.6756864305610826	neutral	064	sub-04	2.0	3.0	064_neutral	1.0	dominance	58.55395186804435	3.7665898647419453
5.0	36.40493067753414	pulse	3.0	t		25.0	female	west_asian	2.6756864305610826	neutral	064	sub-04	2.0	3.0	064_neutral	1.0	dominance	58.70406939521308	
5.0	37.104917184624355	pulse	3.0	t		25.0	female	west_asian	2.6756864305610826	neutral	064	sub-04	2.0	3.0	064_neutral	1.0	dominance	59.4040559023033	
5.0	37.804891013813176	pulse	3.0	t		25.0	female	west_asian	2.6756864305610826	neutral	064	sub-04	2.0	3.0	064_neutral	1.0	dominance	60.10402973149212	
5.0	38.504873596790276	pulse	3.0	t		25.0	female	west_asian	2.6756864305610826	neutral	064	sub-04	2.0	3.0	064_neutral	1.0	dominance	60.80401231446922	
5.0	39.20486010388049	pulse	3.0	t		25.0	female	west_asian	2.6756864305610826	neutral	064	sub-04	2.0	3.0	064_neutral	1.0	dominance	61.503998821559435	
5.0	39.904905472658356	pulse	3.0	t		25.0	female	west_asian	2.6756864305610826	neutral	064	sub-04	2.0	3.0	064_neutral	1.0	dominance	62.2040441903373	
6.0	40.02140301510735	face	0.0		146	26.0	female	white	4.854755272582572	neutral	027	sub-04	2.0	3.0	027_neutral	1.0	trustworthiness	62.320541732786296	1.2333198806709333
6.0	40.604845494108304	pulse	0.0	t		26.0	female	white	4.854755272582572	neutral	027	sub-04	2.0	3.0	027_neutral	1.0	trustworthiness	62.90398421178725	
6.0	41.254722895778286	fix	1.0		176	26.0	female	white	4.854755272582572	neutral	027	sub-04	2.0	3.0	027_neutral	1.0	trustworthiness	63.55386161345723	1.4999726821397417
6.0	41.30482898265018	pulse	1.0	t		26.0	female	white	4.854755272582572	neutral	027	sub-04	2.0	3.0	027_neutral	1.0	trustworthiness	63.60396770032912	
6.0	42.004816093449335	pulse	1.0	t		26.0	female	white	4.854755272582572	neutral	027	sub-04	2.0	3.0	027_neutral	1.0	trustworthiness	64.30395481112828	
6.0	42.7048107506198	pulse	1.0	t		26.0	female	white	4.854755272582572	neutral	027	sub-04	2.0	3.0	027_neutral	1.0	trustworthiness	65.00394946829874	
6.0	42.75469557791803	rating	2.0		295	26.0	female	white	4.854755272582572	neutral	027	sub-04	2.0	3.0	027_neutral	1.0	trustworthiness	65.05383429559697	2.499931026176455
6.0	43.39966361300321	pulse	2.0	t		26.0	female	white	4.854755272582572	neutral	027	sub-04	2.0	3.0	027_neutral	1.0	trustworthiness	65.69880233068216	
6.0	44.10475871085055	pulse	2.0	t		26.0	female	white	4.854755272582572	neutral	027	sub-04	2.0	3.0	027_neutral	1.0	trustworthiness	66.40389742852949	
6.0	44.1297396109876	response	2.0	b		26.0	female	white	4.854755272582572	neutral	027	sub-04	2.0	3.0	027_neutral	1.0	trustworthiness	66.42887832866654	
6.0	44.80475548100458	pulse	2.0	t		26.0	female	white	4.854755272582572	neutral	027	sub-04	2.0	3.0	027_neutral	1.0	trustworthiness	67.10389419868352	
6.0	45.25462660409448	fix	3.0		444	26.0	female	white	4.854755272582572	neutral	027	sub-04	2.0	3.0	027_neutral	1.0	trustworthiness	67.55376532177343	3.7665799035330565
6.0	45.504733838014545	pulse	3.0	t		26.0	female	white	4.854755272582572	neutral	027	sub-04	2.0	3.0	027_neutral	1.0	trustworthiness	67.80387255569349	
6.0	46.20472275994325	pulse	3.0	t		26.0	female	white	4.854755272582572	neutral	027	sub-04	2.0	3.0	027_neutral	1.0	trustworthiness	68.5038614776222	
6.0	46.904703229937695	pulse	3.0	t		26.0	female	white	4.854755272582572	neutral	027	sub-04	2.0	3.0	027_neutral	1.0	trustworthiness	69.20384194761664	
6.0	47.60469396299504	pulse	3.0	t		26.0	female	white	4.854755272582572	neutral	027	sub-04	2.0	3.0	027_neutral	1.0	trustworthiness	69.90383268067399	
6.0	48.30466809403788	pulse	3.0	t		26.0	female	white	4.854755272582572	neutral	027	sub-04	2.0	3.0	027_neutral	1.0	trustworthiness	70.60380681171682	
7.0	49.02120650762754	face	0.0		146	28.0	male	white	3.9076800636689217	neutral	033	sub-04	2.0	3.0	033_neutral	0.0		71.32034522530648	1.2333093157531039
7.0	49.007337184799326	pulse	0.0	t		28.0	male	white	3.9076800636689217	neutral	033	sub-04	2.0	3.0	033_neutral	0.0		71.30647590247827	
7.0	49.70464563604037	pulse	0.0	t		28.0	male	white	3.9076800636689217	neutral	033	sub-04	2.0	3.0	033_neutral	0.0		72.00378435371931	
7.0	50.25451582338064	fix	1.0		443	28.0	male	white	3.9076800636689217	neutral	033	sub-04	2.0	3.0	033_neutral	0.0		72.55365454105959	3.7582553516585904
7.0	50.40464150062962	pulse	1.0	t		28.0	male	white	3.9076800636689217	neutral	033	sub-04	2.0	3.0	033_neutral	0.0		72.70378021830857	
7.0	51.10461200941427	pulse	1.0	t		28.0	male	white	3.9076800636689217	neutral	033	sub-04	2.0	3.0	033_neutral	0.0		73.40375072709321	
7.0	51.80460304432654	pulse	1.0	t		28.0	male	white	3.9076800636689217	neutral	033	sub-04	2.0	3.0	033_neutral	0.0		74.10374176200548	
7.0	52.50457928835385	pulse	1.0	t		28.0	male	white	3.9076800636689217	neutral	033	sub-04	2.0	3.0	033_neutral	0.0		74.8037180060328	
7.0	53.20457122882999	pulse	1.0	t		28.0	male	white	3.9076800636689217	neutral	033	sub-04	2.0	3.0	033_neutral	0.0		75.50370994650893	
7.0	53.9045526043883	pulse	1.0	t		28.0	male	white	3.9076800636689217	neutral	033	sub-04	2.0	3.0	033_neutral	0.0		76.20369132206724	
8.0	54.012771175039234	face	0.0		147	22.0	male	black	2.767608436132113	smiling	044	sub-04	2.0	3.0	044_smiling	0.0		76.31190989271818	1.2416513752059473
8.0	54.60454363930057	pulse	0.0	t		22.0	male	black	2.767608436132113	smiling	044	sub-04	2.0	3.0	044_smiling	0.0		76.90368235697952	
8.0	55.25442255024518	fix	1.0		443	22.0	male	black	2.767608436132113	smiling	044	sub-04	2.0	3.0	044_smiling	0.0		77.55356126792412	3.758247503434177
8.0	55.30463971968584	pulse	1.0	t		22.0	male	black	2.767608436132113	smiling	044	sub-04	2.0	3.0	044_smiling	0.0		77.60377843736478	
8.0	56.00450850340076	pulse	1.0	t		22.0	male	black	2.767608436132113	smiling	044	sub-04	2.0	3.0	044_smiling	0.0		78.3036472210797	
8.0	56.70450708468343	pulse	1.0	t		22.0	male	black	2.767608436132113	smiling	044	sub-04	2.0	3.0	044_smiling	0.0		79.00364580236237	
8.0	57.404473065646926	pulse	1.0	t		22.0	male	black	2.767608436132113	smiling	044	sub-04	2.0	3.0	044_smiling	0.0		79.70361178332587	
8.0	58.10446711910663	pulse	1.0	t		22.0	male	black	2.767608436132113	smiling	044	sub-04	2.0	3.0	044_smiling	0.0		80.40360583678557	
8.0	58.804452418778055	pulse	1.0	t		22.0	male	black	2.767608436132113	smiling	044	sub-04	2.0	3.0	044_smiling	0.0		81.103591136457	
9.0	59.01267005367936	face	0.0		146	47.0	male	east_asian	2.171110226820533	neutral	024	sub-04	2.0	3.0	024_neutral	0.0		81.3118087713583	1.2416489603665468
9.0	59.50444466110912	pulse	0.0	t		47.0	male	east_asian	2.171110226820533	neutral	024	sub-04	2.0	3.0	024_neutral	0.0		81.80358337878806	
9.0	60.20443147005426	pulse	0.0	t		47.0	male	east_asian	2.171110226820533	neutral	024	sub-04	2.0	3.0	024_neutral	0.0		82.5035701877332	
9.0	60.254319014045905	fix	1.0		445	47.0	male	east_asian	2.171110226820533	neutral	024	sub-04	2.0	3.0	024_neutral	0.0		82.55345773172485	3.7583673397930397
9.0	60.904412543757644	pulse	1.0	t		47.0	male	east_asian	2.171110226820533	neutral	024	sub-04	2.0	3.0	024_neutral	0.0		83.20355126143659	
9.0	61.604386372946465	pulse	1.0	t		47.0	male	east_asian	2.171110226820533	neutral	024	sub-04	2.0	3.0	024_neutral	0.0		83.90352509062541	
9.0	62.30437861527753	pulse	1.0	t		47.0	male	east_asian	2.171110226820533	neutral	024	sub-04	2.0	3.0	024_neutral	0.0		84.60351733295647	
9.0	63.004377498415124	pulse	1.0	t		47.0	male	east_asian	2.171110226820533	neutral	024	sub-04	2.0	3.0	024_neutral	0.0		85.30351621609407	
9.0	63.7043597795373	pulse	1.0	t		47.0	male	east_asian	2.171110226820533	neutral	024	sub-04	2.0	3.0	024_neutral	0.0		86.00349849721624	
10.0	64.01268635383894	face	0.0		146	26.0	female	white	4.854755272582572	smiling	027	sub-04	2.0	3.0	027_smiling	0.0		86.31182507151789	1.2415245961856272
10.0	64.40434749404722	pulse	0.0	t		26.0	female	white	4.854755272582572	smiling	027	sub-04	2.0	3.0	027_smiling	0.0		86.70348621172616	
10.0	65.10435996065007	pulse	0.0	t		26.0	female	white	4.854755272582572	smiling	027	sub-04	2.0	3.0	027_smiling	0.0		87.40349867832902	
10.0	65.25421095002457	fix	1.0		444	26.0	female	white	4.854755272582572	smiling	027	sub-04	2.0	3.0	027_smiling	0.0		87.55334966770351	3.7665805072429066
10.0	65.80430722661549	pulse	1.0	t		26.0	female	white	4.854755272582572	smiling	027	sub-04	2.0	3.0	027_smiling	0.0		88.10344594429444	
10.0	66.50428256507803	pulse	1.0	t		26.0	female	white	4.854755272582572	smiling	027	sub-04	2.0	3.0	027_smiling	0.0		88.80342128275697	
10.0	67.20426877031332	pulse	1.0	t		26.0	female	white	4.854755272582572	smiling	027	sub-04	2.0	3.0	027_smiling	0.0		89.50340748799226	
10.0	67.90426765345	pulse	1.0	t		26.0	female	white	4.854755272582572	smiling	027	sub-04	2.0	3.0	027_smiling	0.0		90.20340637112895	
10.0	68.60425114199279	pulse	1.0	t		26.0	female	white	4.854755272582572	smiling	027	sub-04	2.0	3.0	027_smiling	0.0		90.90338985967173	
11.0	69.02079145726748	face	0.0		145	20.0	male	black	2.609629924393156	smiling	043	sub-04	2.0	3.0	043_smiling	0.0		91.31993017494642	1.2333144472841013
11.0	69.30423915835672	pulse	0.0	t		20.0	male	black	2.609629924393156	smiling	043	sub-04	2.0	3.0	043_smiling	0.0		91.60337787603567	
11.0	70.00421268568971	pulse	0.0	t		20.0	male	black	2.609629924393156	smiling	043	sub-04	2.0	3.0	043_smiling	0.0		92.30335140336865	
11.0	70.25410590455158	fix	1.0		444	20.0	male	black	2.609629924393156	smiling	043	sub-04	2.0	3.0	043_smiling	0.0		92.55324462223052	3.7665780924044157
11.0	70.70421820963293	pulse	1.0	t		20.0	male	black	2.609629924393156	smiling	043	sub-04	2.0	3.0	043_smiling	0.0		93.00335692731187	
11.0	71.4041914351119	pulse	1.0	t		20.0	male	black	2.609629924393156	smiling	043	sub-04	2.0	3.0	043_smiling	0.0		93.70333015279084	
11.0	72.10417582921764	pulse	1.0	t		20.0	male	black	2.609629924393156	smiling	043	sub-04	2.0	3.0	043_smiling	0.0		94.40331454689658	
11.0	72.80416143074399	pulse	1.0	t		20.0	male	black	2.609629924393156	smiling	043	sub-04	2.0	3.0	043_smiling	0.0		95.10330014842293	
11.0	73.50413163767462	pulse	1.0	t		20.0	male	black	2.609629924393156	smiling	043	sub-04	2.0	3.0	043_smiling	0.0		95.80327035535356	
12.0	74.020683996956	face	0.0		145	19.0	male	white	3.2522881018702745	smiling	018	sub-04	2.0	3.0	018_smiling	0.0		96.31982271463494	1.2333159565587266
12.0	74.20412810597281	pulse	0.0	t		19.0	male	white	3.2522881018702745	smiling	018	sub-04	2.0	3.0	018_smiling	0.0		96.50326682365176	
12.0	74.90411400935318	pulse	0.0	t		19.0	male	white	3.2522881018702745	smiling	018	sub-04	2.0	3.0	018_smiling	0.0		97.20325272703212	
12.0	75.25399995351472	fix	1.0		444	19.0	male	white	3.2522881018702745	smiling	018	sub-04	2.0	3.0	018_smiling	0.0		97.55313867119366	3.7665826202264725
12.0	75.60410625168515	pulse	1.0	t		19.0	male	white	3.2522881018702745	smiling	018	sub-04	2.0	3.0	018_smiling	0.0		97.9032449693641	
12.0	76.30409124950074	pulse	1.0	t		19.0	male	white	3.2522881018702745	smiling	018	sub-04	2.0	3.0	018_smiling	0.0		98.60322996717969	
12.0	77.00405602304545	pulse	1.0	t		19.0	male	white	3.2522881018702745	smiling	018	sub-04	2.0	3.0	018_smiling	0.0		99.3031947407244	
12.0	77.70404283198968	pulse	1.0	t		19.0	male	white	3.2522881018702745	smiling	018	sub-04	2.0	3.0	018_smiling	0.0		100.00318154966862	
12.0	78.40404111141743	pulse	1.0	t		19.0	male	white	3.2522881018702745	smiling	018	sub-04	2.0	3.0	018_smiling	0.0		100.70317982909637	
13.0	79.0205825737412	face	0.0		145	31.0	male	west_asian	1.9538400318344609	neutral	070	sub-04	2.0	3.0	070_neutral	0.0		101.31972129142014	1.2333126361554605
13.0	79.10402158141187	pulse	0.0	t		31.0	male	west_asian	1.9538400318344609	neutral	070	sub-04	2.0	3.0	070_neutral	0.0		101.40316029909081	
13.0	79.80401865341992	pulse	0.0	t		31.0	male	west_asian	1.9538400318344609	neutral	070	sub-04	2.0	3.0	070_neutral	0.0		102.10315737109886	
13.0	80.25389520989665	fix	1.0		444	31.0	male	west_asian	1.9538400318344609	neutral	070	sub-04	2.0	3.0	070_neutral	0.0		102.5530339275756	3.766553944019506
13.0	80.50399821784958	pulse	1.0	t		31.0	male	west_asian	1.9538400318344609	neutral	070	sub-04	2.0	3.0	070_neutral	0.0		102.80313693552853	
13.0	81.20397657485955	pulse	1.0	t		31.0	male	west_asian	1.9538400318344609	neutral	070	sub-04	2.0	3.0	070_neutral	0.0		103.5031152925385	
13.0	81.90396881719153	pulse	1.0	t		31.0	male	west_asian	1.9538400318344609	neutral	070	sub-04	2.0	3.0	070_neutral	0.0		104.20310753487047	
13.0	82.60394113710572	pulse	1.0	t		31.0	male	west_asian	1.9538400318344609	neutral	070	sub-04	2.0	3.0	070_neutral	0.0		104.90307985478466	
13.0	83.30393790725884	pulse	1.0	t		31.0	male	west_asian	1.9538400318344609	neutral	070	sub-04	2.0	3.0	070_neutral	0.0		105.60307662493778	
14.0	84.02044915391616	face	0.0		145	34.0	male	white	2.651014723438122	neutral	121	sub-04	2.0	3.0	121_neutral	0.0		106.3195878715951	1.2333398030878016
14.0	84.00654028810823	pulse	0.0	t		34.0	male	white	2.651014723438122	neutral	121	sub-04	2.0	3.0	121_neutral	0.0		106.30567900578717	
14.0	84.70416900729924	pulse	0.0	t		34.0	male	white	2.651014723438122	neutral	121	sub-04	2.0	3.0	121_neutral	0.0		107.00330772497819	
14.0	85.25378895700396	fix	1.0		443	34.0	male	white	2.651014723438122	neutral	121	sub-04	2.0	3.0	121_neutral	0.0		107.5529276746829	3.766579903533966
14.0	85.40390165449662	pulse	1.0	t		34.0	male	white	2.651014723438122	neutral	121	sub-04	2.0	3.0	121_neutral	0.0		107.70304037217556	
14.0	86.10387970965257	pulse	1.0	t		34.0	male	white	2.651014723438122	neutral	121	sub-04	2.0	3.0	121_neutral	0.0		108.40301842733152	
14.0	86.80386350004937	pulse	1.0	t		34.0	male	white	2.651014723438122	neutral	121	sub-04	2.0	3.0	121_neutral	0.0		109.10300221772832	
14.0	87.50384457375276	pulse	1.0	t		34.0	male	white	2.651014723438122	neutral	121	sub-04	2.0	3.0	121_neutral	0.0		109.8029832914317	
14.0	88.2038416457608	pulse	1.0	t		34.0	male	white	2.651014723438122	neutral	121	sub-04	2.0	3.0	121_neutral	0.0		110.50298036343975	
14.0	88.90381245640128	pulse	1.0	t		34.0	male	white	2.651014723438122	neutral	121	sub-04	2.0	3.0	121_neutral	0.0		111.20295117408023	
15.0	89.02036886053793	face	0.0		146	28.0	male	white	3.9076800636689217	smiling	033	sub-04	2.0	3.0	033_smiling	0.0		111.31950757821687	1.2333132398644011
15.0	89.60381224510274	pulse	0.0	t		28.0	male	white	3.9076800636689217	smiling	033	sub-04	2.0	3.0	033_smiling	0.0		111.90295096278169	
15.0	90.25368210040233	fix	1.0		443	28.0	male	white	3.9076800636689217	smiling	033	sub-04	2.0	3.0	033_smiling	0.0		112.55282081808127	3.758355265600585
15.0	90.30378637614558	pulse	1.0	t		28.0	male	white	3.9076800636689217	smiling	033	sub-04	2.0	3.0	033_smiling	0.0		112.60292509382452	
15.0	91.00378133517006	pulse	1.0	t		28.0	male	white	3.9076800636689217	smiling	033	sub-04	2.0	3.0	033_smiling	0.0		113.302920052849	
15.0	91.7037605977448	pulse	1.0	t		28.0	male	white	3.9076800636689217	smiling	033	sub-04	2.0	3.0	033_smiling	0.0		114.00289931542375	
15.0	92.40374438814251	pulse	1.0	t		28.0	male	white	3.9076800636689217	smiling	033	sub-04	2.0	3.0	033_smiling	0.0		114.70288310582146	
15.0	93.1037242544262	pulse	1.0	t		28.0	male	white	3.9076800636689217	smiling	033	sub-04	2.0	3.0	033_smiling	0.0		115.40286297210514	
15.0	93.80372434498258	pulse	1.0	t		28.0	male	white	3.9076800636689217	smiling	033	sub-04	2.0	3.0	033_smiling	0.0		116.10286306266153	
16.0	94.01203736600291	face	0.0		146	22.0	female	white	4.614007162753682	smiling	009	sub-04	2.0	3.0	009_smiling	0.0		116.31117608368186	1.2415339536855754
16.0	94.50368428885031	pulse	0.0	t		22.0	female	white	4.614007162753682	smiling	009	sub-04	2.0	3.0	009_smiling	0.0		116.80282300652925	
16.0	95.20369856658272	pulse	0.0	t		22.0	female	white	4.614007162753682	smiling	009	sub-04	2.0	3.0	009_smiling	0.0		117.50283728426166	
16.0	95.25357131968849	fix	1.0		445	22.0	female	white	4.614007162753682	smiling	009	sub-04	2.0	3.0	009_smiling	0.0		117.55271003736743	3.7665853369198885
16.0	95.90367782915746	pulse	1.0	t		22.0	female	white	4.614007162753682	smiling	009	sub-04	2.0	3.0	009_smiling	0.0		118.2028165468364	
16.0	96.60366373253783	pulse	1.0	t		22.0	female	white	4.614007162753682	smiling	009	sub-04	2.0	3.0	009_smiling	0.0		118.90280245021677	
16.0	97.3036523526116	pulse	1.0	t		22.0	female	white	4.614007162753682	smiling	009	sub-04	2.0	3.0	009_smiling	0.0		119.60279107029055	
16.0	98.00362195583239	pulse	1.0	t		22.0	female	white	4.614007162753682	smiling	009	sub-04	2.0	3.0	009_smiling	0.0		120.30276067351133	
16.0	98.70362929090425	pulse	1.0	t		22.0	female	white	4.614007162753682	smiling	009	sub-04	2.0	3.0	009_smiling	0.0		121.00276800858319	
17.0	99.02015665660838	face	0.0		145	23.0	male	white	2.6275368085953046	neutral	141	sub-04	2.0	3.0	141_neutral	0.0		121.31929537428732	1.2333141454291763
17.0	99.4036100627527	pulse	0.0	t		23.0	male	white	2.6275368085953046	neutral	141	sub-04	2.0	3.0	141_neutral	0.0		121.70274878043165	
17.0	100.10358449565047	pulse	0.0	t		23.0	male	white	2.6275368085953046	neutral	141	sub-04	2.0	3.0	141_neutral	0.0		122.40272321332941	
17.0	100.25347080203755	fix	1.0		444	23.0	male	white	2.6275368085953046	neutral	141	sub-04	2.0	3.0	141_neutral	0.0		122.5526095197165	3.766595599982793
17.0	100.80357281386932	pulse	1.0	t		23.0	male	white	2.6275368085953046	neutral	141	sub-04	2.0	3.0	141_neutral	0.0		123.10271153154827	
17.0	101.50355086902528	pulse	1.0	t		23.0	male	white	2.6275368085953046	neutral	141	sub-04	2.0	3.0	141_neutral	0.0		123.80268958670422	
17.0	102.20353013160002	pulse	1.0	t		23.0	male	white	2.6275368085953046	neutral	141	sub-04	2.0	3.0	141_neutral	0.0		124.50266884927896	
17.0	102.90352026094752	pulse	1.0	t		23.0	male	white	2.6275368085953046	neutral	141	sub-04	2.0	3.0	141_neutral	0.0		125.20265897862646	
17.0	103.60350586247387	pulse	1.0	t		23.0	male	white	2.6275368085953046	neutral	141	sub-04	2.0	3.0	141_neutral	0.0		125.90264458015281	
18.0	104.02006640202035	face	0.0		145	31.0	female	white	2.1822522881018704	smiling	102	sub-04	2.0	3.0	102_smiling	0.0		126.31920511969929	1.2332912044648765
18.0	104.30350172706221	pulse	0.0	t		31.0	female	white	2.1822522881018704	smiling	102	sub-04	2.0	3.0	102_smiling	0.0		126.60264044474116	
18.0	105.00348491375007	pulse	0.0	t		31.0	female	white	2.1822522881018704	smiling	102	sub-04	2.0	3.0	102_smiling	0.0		127.30262363142901	
18.0	105.25335760648522	fix	1.0		444	31.0	female	white	2.1822522881018704	smiling	102	sub-04	2.0	3.0	102_smiling	0.0		127.55249632416417	3.766588657322245
18.0	105.70346991156566	pulse	1.0	t		31.0	female	white	2.1822522881018704	smiling	102	sub-04	2.0	3.0	102_smiling	0.0		128.0026086292446	
18.0	106.40344706115684	pulse	1.0	t		31.0	female	white	2.1822522881018704	smiling	102	sub-04	2.0	3.0	102_smiling	0.0		128.70258577883578	
18.0	107.10343054969871	pulse	1.0	t		31.0	female	white	2.1822522881018704	smiling	102	sub-04	2.0	3.0	102_smiling	0.0		129.40256926737766	
18.0	107.80341584937014	pulse	1.0	t		31.0	female	white	2.1822522881018704	smiling	102	sub-04	2.0	3.0	102_smiling	0.0		130.10255456704908	
18.0	108.50340326202422	pulse	1.0	t		31.0	female	white	2.1822522881018704	smiling	102	sub-04	2.0	3.0	102_smiling	0.0		130.80254197970316	
19.0	109.01994626380747	face	0.0		145	40.0	male	black	2.408674890569041	smiling	061	sub-04	2.0	3.0	061_smiling	0.0		131.3190849814864	1.233296034140949
19.0	109.20339973032333	pulse	0.0	t		40.0	male	black	2.408674890569041	smiling	061	sub-04	2.0	3.0	061_smiling	0.0		131.50253844800227	
19.0	109.90337446507601	pulse	0.0	t		40.0	male	black	2.408674890569041	smiling	061	sub-04	2.0	3.0	061_smiling	0.0		132.20251318275496	
19.0	110.25324229794842	fix	1.0		444	40.0	male	black	2.408674890569041	smiling	061	sub-04	2.0	3.0	061_smiling	0.0		132.55238101562736	3.766596203692643
19.0	110.60336640555215	pulse	1.0	t		40.0	male	black	2.408674890569041	smiling	061	sub-04	2.0	3.0	061_smiling	0.0		132.9025051232311	
19.0	111.30333751804756	pulse	1.0	t		40.0	male	black	2.408674890569041	smiling	061	sub-04	2.0	3.0	061_smiling	0.0		133.6024762357265	
19.0	112.0033409290063	pulse	1.0	t		40.0	male	black	2.408674890569041	smiling	061	sub-04	2.0	3.0	061_smiling	0.0		134.30247964668524	
19.0	112.70332139900074	pulse	1.0	t		40.0	male	black	2.408674890569041	smiling	061	sub-04	2.0	3.0	061_smiling	0.0		135.00246011667969	
19.0	113.40331333947779	pulse	1.0	t		40.0	male	black	2.408674890569041	smiling	061	sub-04	2.0	3.0	061_smiling	0.0		135.70245205715673	
20.0	114.01983850164106	face	0.0		145	21.0	male	east_asian/white	3.501790688420215	neutral	036	sub-04	2.0	3.0	036_neutral	0.0		136.31897721932	1.2332999582540651
20.0	114.10329803543846	pulse	0.0	t		21.0	male	east_asian/white	3.501790688420215	neutral	036	sub-04	2.0	3.0	036_neutral	0.0		136.4024367531174	
20.0	114.80328212769018	pulse	0.0	t		21.0	male	east_asian/white	3.501790688420215	neutral	036	sub-04	2.0	3.0	036_neutral	0.0		137.10242084536912	
20.0	115.25313845989513	fix	1.0		1185	21.0	male	east_asian/white	3.501790688420215	neutral	036	sub-04	2.0	3.0	036_neutral	0.0		137.55227717757407	10.016463764895889
20.0	115.50325927728136	pulse	1.0	t		21.0	male	east_asian/white	3.501790688420215	neutral	036	sub-04	2.0	3.0	036_neutral	0.0		137.8023979949603	
20.0	116.20323672872746	pulse	1.0	t		21.0	male	east_asian/white	3.501790688420215	neutral	036	sub-04	2.0	3.0	036_neutral	0.0		138.5023754464064	
20.0	116.90322142468813	pulse	1.0	t		21.0	male	east_asian/white	3.501790688420215	neutral	036	sub-04	2.0	3.0	036_neutral	0.0		139.20236014236707	
20.0	117.60320038540885	pulse	1.0	t		21.0	male	east_asian/white	3.501790688420215	neutral	036	sub-04	2.0	3.0	036_neutral	0.0		139.9023391030878	
20.0	118.3031962499972	pulse	1.0	t		21.0	male	east_asian/white	3.501790688420215	neutral	036	sub-04	2.0	3.0	036_neutral	0.0		140.60233496767614	
20.0	119.00317551257194	pulse	1.0	t		21.0	male	east_asian/white	3.501790688420215	neutral	036	sub-04	2.0	3.0	036_neutral	0.0		141.3023142302509	
20.0	119.70315809554995	pulse	1.0	t		21.0	male	east_asian/white	3.501790688420215	neutral	036	sub-04	2.0	3.0	036_neutral	0.0		142.0022968132289	
20.0	120.40315456384906	pulse	1.0	t		21.0	male	east_asian/white	3.501790688420215	neutral	036	sub-04	2.0	3.0	036_neutral	0.0		142.702293281528	
20.0	121.10314469319655	pulse	1.0	t		21.0	male	east_asian/white	3.501790688420215	neutral	036	sub-04	2.0	3.0	036_neutral	0.0		143.4022834108755	
20.0	121.80312425762622	pulse	1.0	t		21.0	male	east_asian/white	3.501790688420215	neutral	036	sub-04	2.0	3.0	036_neutral	0.0		144.10226297530517	
20.0	122.50311197213523	pulse	1.0	t		21.0	male	east_asian/white	3.501790688420215	neutral	036	sub-04	2.0	3.0	036_neutral	0.0		144.80225068981417	
20.0	123.20308459390435	pulse	1.0	t		21.0	male	east_asian/white	3.501790688420215	neutral	036	sub-04	2.0	3.0	036_neutral	0.0		145.5022233115833	
20.0	123.90307894921989	pulse	1.0	t		21.0	male	east_asian/white	3.501790688420215	neutral	036	sub-04	2.0	3.0	036_neutral	0.0		146.20221766689883	
20.0	124.60305851364956	pulse	1.0	t		21.0	male	east_asian/white	3.501790688420215	neutral	036	sub-04	2.0	3.0	036_neutral	0.0		146.9021972313285	
21.0	125.26960222479102	face	0.0		145	28.0	female	white	5.676880222841227	smiling	124	sub-04	2.0	3.0	124_smiling	0.0		147.56874094246996	1.2333171639775173
21.0	125.3031352753269	pulse	0.0	t		28.0	female	white	5.676880222841227	smiling	124	sub-04	2.0	3.0	124_smiling	0.0		147.60227399300584	
21.0	126.00304028161918	pulse	0.0	t		28.0	female	white	5.676880222841227	smiling	124	sub-04	2.0	3.0	124_smiling	0.0		148.30217899929812	
21.0	126.50291938876853	fix	1.0		443	28.0	female	white	5.676880222841227	smiling	124	sub-04	2.0	3.0	124_smiling	0.0		148.80205810644748	3.758316024475789
21.0	126.70302709056341	pulse	1.0	t		28.0	female	white	5.676880222841227	smiling	124	sub-04	2.0	3.0	124_smiling	0.0		149.00216580824235	
21.0	127.40300393829966	pulse	1.0	t		28.0	female	white	5.676880222841227	smiling	124	sub-04	2.0	3.0	124_smiling	0.0		149.7021426559786	
21.0	128.10295724136085	pulse	1.0	t		28.0	female	white	5.676880222841227	smiling	124	sub-04	2.0	3.0	124_smiling	0.0		150.4020959590398	
21.0	128.80297121723925	pulse	1.0	t		28.0	female	white	5.676880222841227	smiling	124	sub-04	2.0	3.0	124_smiling	0.0		151.1021099349182	
21.0	129.5029480649755	pulse	1.0	t		28.0	female	white	5.676880222841227	smiling	124	sub-04	2.0	3.0	124_smiling	0.0		151.80208678265444	
21.0	130.20295177778917	pulse	1.0	t		28.0	female	white	5.676880222841227	smiling	124	sub-04	2.0	3.0	124_smiling	0.0		152.5020904954681	
22.0	130.26123541324432	face	0.0		147	20.0	male	black	2.609629924393156	neutral	043	sub-04	2.0	3.0	043_neutral	0.0		152.56037413092326	1.2415677614235392
22.0	130.90293768116953	pulse	0.0	t		20.0	male	black	2.609629924393156	neutral	043	sub-04	2.0	3.0	043_neutral	0.0		153.20207639884848	
22.0	131.50280317466786	fix	1.0		443	20.0	male	black	2.609629924393156	neutral	043	sub-04	2.0	3.0	043_neutral	0.0		153.8019418923468	3.766563301518545
22.0	131.60292660309824	pulse	1.0	t		20.0	male	black	2.609629924393156	neutral	043	sub-04	2.0	3.0	043_neutral	0.0		153.90206532077718	
22.0	132.30289167849696	pulse	1.0	t		20.0	male	black	2.609629924393156	neutral	043	sub-04	2.0	3.0	043_neutral	0.0		154.6020303961759	
22.0	133.00288512824773	pulse	1.0	t		20.0	male	black	2.609629924393156	neutral	043	sub-04	2.0	3.0	043_neutral	0.0		155.30202384592667	
22.0	133.70286891864453	pulse	1.0	t		20.0	male	black	2.609629924393156	neutral	043	sub-04	2.0	3.0	043_neutral	0.0		156.00200763632347	
22.0	134.40287625371639	pulse	1.0	t		20.0	male	black	2.609629924393156	neutral	043	sub-04	2.0	3.0	043_neutral	0.0		156.70201497139533	
22.0	135.1028398198414	pulse	1.0	t		20.0	male	black	2.609629924393156	neutral	043	sub-04	2.0	3.0	043_neutral	0.0		157.40197853752034	
23.0	135.2693664761864	face	0.0		146	19.0	female	white	4.298846000795861	smiling	100	sub-04	2.0	3.0	100_smiling	0.0		157.56850519386535	1.233331954863388
23.0	135.8028377974142	pulse	0.0	t		19.0	female	white	4.298846000795861	smiling	100	sub-04	2.0	3.0	100_smiling	0.0		158.10197651509316	
23.0	136.5026984310498	fix	1.0		444	19.0	female	white	4.298846000795861	smiling	100	sub-04	2.0	3.0	100_smiling	0.0		158.80183714872874	3.7665877517583795
23.0	136.51009296826214	pulse	1.0	t		19.0	female	white	4.298846000795861	smiling	100	sub-04	2.0	3.0	100_smiling	0.0		158.80923168594109	
23.0	137.202795115144	pulse	1.0	t		19.0	female	white	4.298846000795861	smiling	100	sub-04	2.0	3.0	100_smiling	0.0		159.50193383282294	
23.0	137.9027813203793	pulse	1.0	t		19.0	female	white	4.298846000795861	smiling	100	sub-04	2.0	3.0	100_smiling	0.0		160.20192003805823	
23.0	138.60276360150237	pulse	1.0	t		19.0	female	white	4.298846000795861	smiling	100	sub-04	2.0	3.0	100_smiling	0.0		160.90190231918132	
23.0	139.30275493826957	pulse	1.0	t		19.0	female	white	4.298846000795861	smiling	100	sub-04	2.0	3.0	100_smiling	0.0		161.60189365594852	
23.0	140.00274114350486	pulse	1.0	t		19.0	female	white	4.298846000795861	smiling	100	sub-04	2.0	3.0	100_smiling	0.0		162.3018798611838	
24.0	140.26928618280817	face	0.0		145	19.0	male	white	2.243931555909272	neutral	130	sub-04	2.0	3.0	130_neutral	0.0		162.56842490048712	1.2333017693817965
24.0	140.70274757301195	pulse	0.0	t		19.0	male	white	2.243931555909272	neutral	130	sub-04	2.0	3.0	130_neutral	0.0		163.0018862906909	
24.0	141.4027026872027	pulse	0.0	t		19.0	male	white	2.243931555909272	neutral	130	sub-04	2.0	3.0	130_neutral	0.0		163.70184140488163	
24.0	141.50258795218997	fix	1.0		444	19.0	male	white	2.243931555909272	neutral	130	sub-04	2.0	3.0	130_neutral	0.0		163.8017266698689	3.766569036760302
24.0	142.1027042870328	pulse	1.0	t		19.0	male	white	2.243931555909272	neutral	130	sub-04	2.0	3.0	130_neutral	0.0		164.40184300471174	
24.0	142.80268475702724	pulse	1.0	t		19.0	male	white	2.243931555909272	neutral	130	sub-04	2.0	3.0	130_neutral	0.0		165.10182347470618	
24.0	143.50266100105364	pulse	1.0	t		19.0	male	white	2.243931555909272	neutral	130	sub-04	2.0	3.0	130_neutral	0.0		165.80179971873258	
24.0	144.20264358403074	pulse	1.0	t		19.0	male	white	2.243931555909272	neutral	130	sub-04	2.0	3.0	130_neutral	0.0		166.50178230170968	
24.0	144.90263492079794	pulse	1.0	t		19.0	male	white	2.243931555909272	neutral	130	sub-04	2.0	3.0	130_neutral	0.0		167.20177363847688	
25.0	145.26915698895027	face	0.0		145	40.0	female	west_asian	1.5777954635893354	smiling	038	sub-04	2.0	3.0	038_smiling	0.0		167.56829570662921	1.2333250122028403
25.0	145.60262172974308	pulse	0.0	t		40.0	female	west_asian	1.5777954635893354	smiling	038	sub-04	2.0	3.0	038_smiling	0.0		167.90176044742202	
25.0	146.30260642570465	pulse	0.0	t		40.0	female	west_asian	1.5777954635893354	smiling	038	sub-04	2.0	3.0	038_smiling	0.0		168.6017451433836	
25.0	146.5024820011531	fix	1.0		444	40.0	female	west_asian	1.5777954635893354	smiling	038	sub-04	2.0	3.0	038_smiling	0.0		168.80162071883205	3.7583600952766574
25.0	147.00259263093994	pulse	1.0	t		40.0	female	west_asian	1.5777954635893354	smiling	038	sub-04	2.0	3.0	038_smiling	0.0		169.3017313486189	
25.0	147.70257249722363	pulse	1.0	t		40.0	female	west_asian	1.5777954635893354	smiling	038	sub-04	2.0	3.0	038_smiling	0.0		170.00171121490257	
25.0	148.4025647395556	pulse	1.0	t		40.0	female	west_asian	1.5777954635893354	smiling	038	sub-04	2.0	3.0	038_smiling	0.0		170.70170345723454	
25.0	149.10254279471064	pulse	1.0	t		40.0	female	west_asian	1.5777954635893354	smiling	038	sub-04	2.0	3.0	038_smiling	0.0		171.4016815123896	
25.0	149.80253503704262	pulse	1.0	t		40.0	female	west_asian	1.5777954635893354	smiling	038	sub-04	2.0	3.0	038_smiling	0.0		172.10167375472156	
26.0	150.26084209642977	face	0.0		146	24.0	female	black	3.0955033824114606	neutral	099	sub-04	2.0	3.0	099_neutral	0.0		172.5599808141087	1.2415472352968209
26.0	150.50251550703615	pulse	0.0	t		24.0	female	black	3.0955033824114606	neutral	099	sub-04	2.0	3.0	099_neutral	0.0		172.8016542247151	
26.0	151.20249537332074	pulse	0.0	t		24.0	female	black	3.0955033824114606	neutral	099	sub-04	2.0	3.0	099_neutral	0.0		173.5016340909997	
26.0	151.5023893317266	fix	1.0		444	24.0	female	black	3.0955033824114606	neutral	099	sub-04	2.0	3.0	099_neutral	0.0		173.80152804940553	3.7582290902910245
26.0	151.90249304903864	pulse	1.0	t		24.0	female	black	3.0955033824114606	neutral	099	sub-04	2.0	3.0	099_neutral	0.0		174.20163176671758	
26.0	152.60247321717816	pulse	1.0	t		24.0	female	black	3.0955033824114606	neutral	099	sub-04	2.0	3.0	099_neutral	0.0		174.9016119348571	
26.0	153.30246153539701	pulse	1.0	t		24.0	female	black	3.0955033824114606	neutral	099	sub-04	2.0	3.0	099_neutral	0.0		175.60160025307596	
26.0	154.00244442022904	pulse	1.0	t		24.0	female	black	3.0955033824114606	neutral	099	sub-04	2.0	3.0	099_neutral	0.0		176.30158313790798	
26.0	154.70243364401267	pulse	1.0	t		24.0	female	black	3.0955033824114606	neutral	099	sub-04	2.0	3.0	099_neutral	0.0		177.00157236169161	
27.0	155.26061842201761	face	0.0		146	32.0	male	white	2.389176283326701	smiling	092	sub-04	2.0	3.0	092_smiling	0.0		177.55975713969656	1.241663449398402
27.0	155.40241230287756	pulse	0.0	t		32.0	male	white	2.389176283326701	smiling	092	sub-04	2.0	3.0	092_smiling	0.0		177.7015510205565	
27.0	156.1023900561786	pulse	0.0	t		32.0	male	white	2.389176283326701	smiling	092	sub-04	2.0	3.0	092_smiling	0.0		178.40152877385754	
27.0	156.50228187141602	fix	1.0		444	32.0	male	white	2.389176283326701	smiling	092	sub-04	2.0	3.0	092_smiling	0.0		178.80142058909496	3.7665796016781314
27.0	156.80238260036458	pulse	1.0	t		32.0	male	white	2.389176283326701	smiling	092	sub-04	2.0	3.0	092_smiling	0.0		179.10152131804352	
27.0	157.50236578705153	pulse	1.0	t		32.0	male	white	2.389176283326701	smiling	092	sub-04	2.0	3.0	092_smiling	0.0		179.80150450473047	
27.0	158.2023541052713	pulse	1.0	t		32.0	male	white	2.389176283326701	smiling	092	sub-04	2.0	3.0	092_smiling	0.0		180.50149282295024	
27.0	158.9023403105066	pulse	1.0	t		32.0	male	white	2.389176283326701	smiling	092	sub-04	2.0	3.0	092_smiling	0.0		181.20147902818553	
27.0	159.60231383783957	pulse	1.0	t		32.0	male	white	2.389176283326701	smiling	092	sub-04	2.0	3.0	092_smiling	0.0		181.90145255551852	
28.0	160.26886147309415	face	0.0		145	21.0	male	east_asian/white	3.501790688420215	smiling	036	sub-04	2.0	3.0	036_smiling	0.0		182.5680001907731	1.2333168621225923
28.0	160.30232026734666	pulse	0.0	t		21.0	male	east_asian/white	3.501790688420215	smiling	036	sub-04	2.0	3.0	036_smiling	0.0		182.6014589850256	
28.0	161.0022919835519	pulse	0.0	t		21.0	male	east_asian/white	3.501790688420215	smiling	036	sub-04	2.0	3.0	036_smiling	0.0		183.30143070123086	
28.0	161.50217833521674	fix	1.0		443	21.0	male	east_asian/white	3.501790688420215	smiling	036	sub-04	2.0	3.0	036_smiling	0.0		183.80131705289568	3.7582215439206266
28.0	161.70229056483367	pulse	1.0	t		21.0	male	east_asian/white	3.501790688420215	smiling	036	sub-04	2.0	3.0	036_smiling	0.0		184.00142928251262	
28.0	162.40226529958636	pulse	1.0	t		21.0	male	east_asian/white	3.501790688420215	smiling	036	sub-04	2.0	3.0	036_smiling	0.0		184.7014040172653	
28.0	163.10224727885452	pulse	1.0	t		21.0	male	east_asian/white	3.501790688420215	smiling	036	sub-04	2.0	3.0	036_smiling	0.0		185.40138599653346	
28.0	163.8022334840898	pulse	1.0	t		21.0	male	east_asian/white	3.501790688420215	smiling	036	sub-04	2.0	3.0	036_smiling	0.0		186.10137220176875	
28.0	164.5022094262622	pulse	1.0	t		21.0	male	east_asian/white	3.501790688420215	smiling	036	sub-04	2.0	3.0	036_smiling	0.0		186.80134814394114	
28.0	165.20220378157683	pulse	1.0	t		21.0	male	east_asian/white	3.501790688420215	smiling	036	sub-04	2.0	3.0	036_smiling	0.0		187.50134249925577	
29.0	165.26039987913737	face	0.0		147	22.0	female	white	4.614007162753682	neutral	009	sub-04	2.0	3.0	009_neutral	1.0	dominance	187.5595385968163	1.2416712976228155
29.0	165.90219904245623	pulse	0.0	t		22.0	female	white	4.614007162753682	neutral	009	sub-04	2.0	3.0	009_neutral	1.0	dominance	188.20133776013517	
29.0	166.50207117676018	fix	1.0		177	22.0	female	white	4.614007162753682	neutral	009	sub-04	2.0	3.0	009_neutral	1.0	dominance	188.80120989443913	1.499958193108796
29.0	166.60218464398258	pulse	1.0	t		22.0	female	white	4.614007162753682	neutral	009	sub-04	2.0	3.0	009_neutral	1.0	dominance	188.90132336166153	
29.0	167.30216179357285	pulse	1.0	t		22.0	female	white	4.614007162753682	neutral	009	sub-04	2.0	3.0	009_neutral	1.0	dominance	189.6013005112518	
29.0	168.00202936986898	rating	2.0		294	22.0	female	white	4.614007162753682	neutral	009	sub-04	2.0	3.0	009_neutral	1.0	dominance	190.30116808754792	2.499941591095194
29.0	167.9972138801295	pulse	2.0	t		22.0	female	white	4.614007162753682	neutral	009	sub-04	2.0	3.0	009_neutral	1.0	dominance	190.29635259780844	
29.0	168.69688162854345	pulse	2.0	t		22.0	female	white	4.614007162753682	neutral	009	sub-04	2.0	3.0	009_neutral	1.0	dominance	190.9960203462224	
29.0	169.3968521373281	pulse	2.0	t		22.0	female	white	4.614007162753682	neutral	009	sub-04	2.0	3.0	009_neutral	1.0	dominance	191.69599085500704	
29.0	169.57710050950118	response	2.0	b		22.0	female	white	4.614007162753682	neutral	009	sub-04	2.0	3.0	009_neutral	1.0	dominance	191.87623922718012	
29.0	170.1020912199192	pulse	2.0	t		22.0	female	white	4.614007162753682	neutral	009	sub-04	2.0	3.0	009_neutral	1.0	dominance	192.40122993759815	
29.0	170.50197096096417	fix	3.0		444	22.0	female	white	4.614007162753682	neutral	009	sub-04	2.0	3.0	009_neutral	1.0	dominance	192.80110967864312	3.7665765831307
29.0	170.80208980120187	pulse	3.0	t		22.0	female	white	4.614007162753682	neutral	009	sub-04	2.0	3.0	009_neutral	1.0	dominance	193.10122851888082	
29.0	171.5020751008724	pulse	3.0	t		22.0	female	white	4.614007162753682	neutral	009	sub-04	2.0	3.0	009_neutral	1.0	dominance	193.80121381855133	
29.0	172.2020552690119	pulse	3.0	t		22.0	female	white	4.614007162753682	neutral	009	sub-04	2.0	3.0	009_neutral	1.0	dominance	194.50119398669085	
29.0	172.90204690763403	pulse	3.0	t		22.0	female	white	4.614007162753682	neutral	009	sub-04	2.0	3.0	009_neutral	1.0	dominance	195.20118562531297	
29.0	173.60202194424073	pulse	3.0	t		22.0	female	white	4.614007162753682	neutral	009	sub-04	2.0	3.0	009_neutral	1.0	dominance	195.90116066191968	
30.0	174.26854754409487	face	0.0		145	22.0	female	west_asian	3.8205332272184642	neutral	066	sub-04	2.0	3.0	066_neutral	0.0		196.56768626177382	1.2333268233305716
30.0	174.30200996060557	pulse	0.0	t		22.0	female	west_asian	3.8205332272184642	neutral	066	sub-04	2.0	3.0	066_neutral	0.0		196.60114867828452	
30.0	175.00200129737186	pulse	0.0	t		22.0	female	west_asian	3.8205332272184642	neutral	066	sub-04	2.0	3.0	066_neutral	0.0		197.3011400150508	
30.0	175.50187436742544	fix	1.0		443	22.0	female	west_asian	3.8205332272184642	neutral	066	sub-04	2.0	3.0	066_neutral	0.0		197.8010130851044	3.758333532055076
30.0	175.70198599333344	pulse	1.0	t		22.0	female	west_asian	3.8205332272184642	neutral	066	sub-04	2.0	3.0	066_neutral	0.0		198.00112471101238	
30.0	176.40196887816637	pulse	1.0	t		22.0	female	west_asian	3.8205332272184642	neutral	066	sub-04	2.0	3.0	066_neutral	0.0		198.70110759584531	
30.0	177.10194844259513	pulse	1.0	t		22.0	female	west_asian	3.8205332272184642	neutral	066	sub-04	2.0	3.0	066_neutral	0.0		199.40108716027407	
30.0	177.8019343459764	pulse	1.0	t		22.0	female	west_asian	3.8205332272184642	neutral	066	sub-04	2.0	3.0	066_neutral	0.0		200.10107306365535	
30.0	178.50191783451828	pulse	1.0	t		22.0	female	west_asian	3.8205332272184642	neutral	066	sub-04	2.0	3.0	066_neutral	0.0		200.80105655219722	
30.0	179.20190856757563	pulse	1.0	t		22.0	female	west_asian	3.8205332272184642	neutral	066	sub-04	2.0	3.0	066_neutral	0.0		201.50104728525457	
31.0	179.26020789948052	face	0.0		147	25.0	female	black	3.858336649423	neutral	126	sub-04	2.0	3.0	126_neutral	0.0		201.55934661715946	1.241561422471932
31.0	179.90192284530804	pulse	0.0	t		25.0	female	black	3.858336649423	neutral	126	sub-04	2.0	3.0	126_neutral	0.0		202.20106156298698	
31.0	180.50176932195245	fix	1.0		443	25.0	female	black	3.858336649423	neutral	126	sub-04	2.0	3.0	126_neutral	0.0		202.8009080396314	3.7582426737581045
31.0	180.6018897318354	pulse	1.0	t		25.0	female	black	3.858336649423	neutral	126	sub-04	2.0	3.0	126_neutral	0.0		202.90102844951434	
31.0	181.3018683907003	pulse	1.0	t		25.0	female	black	3.858336649423	neutral	126	sub-04	2.0	3.0	126_neutral	0.0		203.60100710837924	
31.0	182.00185308666187	pulse	1.0	t		25.0	female	black	3.858336649423	neutral	126	sub-04	2.0	3.0	126_neutral	0.0		204.3009918043408	
31.0	182.70184080117087	pulse	1.0	t		25.0	female	black	3.858336649423	neutral	126	sub-04	2.0	3.0	126_neutral	0.0		205.00097951884982	
31.0	183.4018185544719	pulse	1.0	t		25.0	female	black	3.858336649423	neutral	126	sub-04	2.0	3.0	126_neutral	0.0		205.70095727215084	
31.0	184.10179570406308	pulse	1.0	t		25.0	female	black	3.858336649423	neutral	126	sub-04	2.0	3.0	126_neutral	0.0		206.40093442174202	
32.0	184.26001199571056	face	0.0		147	34.0	male	white	2.651014723438122	smiling	121	sub-04	2.0	3.0	121_smiling	1.0	attractiveness	206.5591507133895	1.2416604308491515
32.0	184.80180696324715	pulse	0.0	t		34.0	male	white	2.651014723438122	smiling	121	sub-04	2.0	3.0	121_smiling	1.0	attractiveness	207.1009456809261	
32.0	185.5016724265597	fix	1.0		176	34.0	male	white	2.651014723438122	smiling	121	sub-04	2.0	3.0	121_smiling	1.0	attractiveness	207.80081114423865	1.499966343189044
32.0	185.50965829734014	pulse	1.0	t		34.0	male	white	2.651014723438122	smiling	121	sub-04	2.0	3.0	121_smiling	1.0	attractiveness	207.80879701501908	
32.0	186.20176729952527	pulse	1.0	t		34.0	male	white	2.651014723438122	smiling	121	sub-04	2.0	3.0	121_smiling	1.0	attractiveness	208.50090601720422	
32.0	186.9017450528263	pulse	1.0	t		34.0	male	white	2.651014723438122	smiling	121	sub-04	2.0	3.0	121_smiling	1.0	attractiveness	209.20088377050524	
32.0	187.00163876974875	rating	2.0		295	34.0	male	white	2.651014723438122	smiling	121	sub-04	2.0	3.0	121_smiling	1.0	attractiveness	209.3007774874277	2.4999461189172507
32.0	187.59648653078602	pulse	2.0	t		34.0	male	white	2.651014723438122	smiling	121	sub-04	2.0	3.0	121_smiling	1.0	attractiveness	209.89562524846497	
32.0	188.29646337852228	pulse	2.0	t		34.0	male	white	2.651014723438122	smiling	121	sub-04	2.0	3.0	121_smiling	1.0	attractiveness	210.59560209620122	
32.0	188.42669833324817	response	2.0	b		34.0	male	white	2.651014723438122	smiling	121	sub-04	2.0	3.0	121_smiling	1.0	attractiveness	210.7258370509271	
32.0	189.00169974441997	pulse	2.0	t		34.0	male	white	2.651014723438122	smiling	121	sub-04	2.0	3.0	121_smiling	1.0	attractiveness	211.3008384620989	
32.0	189.501584888666	fix	3.0		443	34.0	male	white	2.651014723438122	smiling	121	sub-04	2.0	3.0	121_smiling	1.0	attractiveness	211.80072360634495	3.7665826202264725
32.0	189.70169470344445	pulse	3.0	t		34.0	male	white	2.651014723438122	smiling	121	sub-04	2.0	3.0	121_smiling	1.0	attractiveness	212.0008334211234	
32.0	190.40167124932577	pulse	3.0	t		34.0	male	white	2.651014723438122	smiling	121	sub-04	2.0	3.0	121_smiling	1.0	attractiveness	212.70080996700472	
32.0	191.10166318980282	pulse	3.0	t		34.0	male	white	2.651014723438122	smiling	121	sub-04	2.0	3.0	121_smiling	1.0	attractiveness	213.40080190748176	
32.0	191.80166388406906	pulse	3.0	t		34.0	male	white	2.651014723438122	smiling	121	sub-04	2.0	3.0	121_smiling	1.0	attractiveness	214.100802601748	
32.0	192.50162594091944	pulse	3.0	t		34.0	male	white	2.651014723438122	smiling	121	sub-04	2.0	3.0	121_smiling	1.0	attractiveness	214.80076465859838	
32.0	193.201615466558	pulse	3.0	t		34.0	male	white	2.651014723438122	smiling	121	sub-04	2.0	3.0	121_smiling	1.0	attractiveness	215.50075418423694	
33.0	193.26816750889247	face	0.0		146	27.0	female	white	3.504576203740549	smiling	144	sub-04	2.0	3.0	144_smiling	0.0		215.56730622657142	1.2332999582531556
33.0	193.90160891630876	pulse	0.0	t		27.0	female	white	3.504576203740549	smiling	144	sub-04	2.0	3.0	144_smiling	0.0		216.2007476339877	
33.0	194.50146746714563	fix	1.0		443	27.0	female	white	3.504576203740549	smiling	144	sub-04	2.0	3.0	144_smiling	0.0		216.80060618482457	3.7665907703067205
33.0	194.6015945178342	pulse	1.0	t		27.0	female	white	3.504576203740549	smiling	144	sub-04	2.0	3.0	144_smiling	0.0		216.90073323551314	
33.0	195.3015746859728	pulse	1.0	t		27.0	female	white	3.504576203740549	smiling	144	sub-04	2.0	3.0	144_smiling	0.0		217.60071340365175	
33.0	196.00154760959686	pulse	1.0	t		27.0	female	white	3.504576203740549	smiling	144	sub-04	2.0	3.0	144_smiling	0.0		218.3006863272758	
33.0	196.70153924821898	pulse	1.0	t		27.0	female	white	3.504576203740549	smiling	144	sub-04	2.0	3.0	144_smiling	0.0		219.00067796589792	
33.0	197.40151458668151	pulse	1.0	t		27.0	female	white	3.504576203740549	smiling	144	sub-04	2.0	3.0	144_smiling	0.0		219.70065330436046	
33.0	198.10151256425343	pulse	1.0	t		27.0	female	white	3.504576203740549	smiling	144	sub-04	2.0	3.0	144_smiling	0.0		220.40065128193237	
34.0	198.26805823745235	face	0.0		146	37.0	male	white	3.898925586947871	smiling	101	sub-04	2.0	3.0	101_smiling	0.0		220.5671969551313	1.2333014675268714
34.0	198.80149514723144	pulse	0.0	t		37.0	male	white	3.898925586947871	smiling	101	sub-04	2.0	3.0	101_smiling	0.0		221.10063386491038	
34.0	199.50135970497922	fix	1.0		444	37.0	male	white	3.898925586947871	smiling	101	sub-04	2.0	3.0	101_smiling	0.0		221.80049842265817	3.7582565590792
34.0	199.5089610127352	pulse	1.0	t		37.0	male	white	3.898925586947871	smiling	101	sub-04	2.0	3.0	101_smiling	0.0		221.80809973041414	
34.0	200.20146333173489	pulse	1.0	t		37.0	male	white	3.898925586947871	smiling	101	sub-04	2.0	3.0	101_smiling	0.0		222.50060204941383	
34.0	200.90144923511525	pulse	1.0	t		37.0	male	white	3.898925586947871	smiling	101	sub-04	2.0	3.0	101_smiling	0.0		223.2005879527942	
34.0	201.60143906260873	pulse	1.0	t		37.0	male	white	3.898925586947871	smiling	101	sub-04	2.0	3.0	101_smiling	0.0		223.90057778028768	
34.0	202.3014276826816	pulse	1.0	t		37.0	male	white	3.898925586947871	smiling	101	sub-04	2.0	3.0	101_smiling	0.0		224.60056640036055	
34.0	203.00140573783756	pulse	1.0	t		37.0	male	white	3.898925586947871	smiling	101	sub-04	2.0	3.0	101_smiling	0.0		225.3005444555165	
35.0	203.25961626405842	face	0.0		146	24.0	female	east_asian	2.9076800636689217	neutral	034	sub-04	2.0	3.0	034_neutral	0.0		225.55875498173737	1.2416405084313737
35.0	203.70139103750807	pulse	0.0	t		24.0	female	east_asian	2.9076800636689217	neutral	034	sub-04	2.0	3.0	034_neutral	0.0		226.00052975518702	
35.0	204.4013687908091	pulse	0.0	t		24.0	female	east_asian	2.9076800636689217	neutral	034	sub-04	2.0	3.0	034_neutral	0.0		226.70050750848804	
35.0	204.5012567724898	fix	1.0		444	24.0	female	east_asian	2.9076800636689217	neutral	034	sub-04	2.0	3.0	034_neutral	0.0		226.80039549016874	3.7665907703067205
35.0	205.10136948507534	pulse	1.0	t		24.0	female	east_asian	2.9076800636689217	neutral	034	sub-04	2.0	3.0	034_neutral	0.0		227.40050820275428	
35.0	205.80135086063365	pulse	1.0	t		24.0	female	east_asian	2.9076800636689217	neutral	034	sub-04	2.0	3.0	034_neutral	0.0		228.1004895783126	
35.0	206.5013328399018	pulse	1.0	t		24.0	female	east_asian	2.9076800636689217	neutral	034	sub-04	2.0	3.0	034_neutral	0.0		228.80047155758075	
35.0	207.2013090839282	pulse	1.0	t		24.0	female	east_asian	2.9076800636689217	neutral	034	sub-04	2.0	3.0	034_neutral	0.0		229.50044780160715	
35.0	207.9013043448076	pulse	1.0	t		24.0	female	east_asian	2.9076800636689217	neutral	034	sub-04	2.0	3.0	034_neutral	0.0		230.20044306248656	
36.0	208.26784754279652	face	0.0		145	19.0	female	white	4.298846000795861	neutral	100	sub-04	2.0	3.0	100_neutral	0.0		230.56698626047546	1.2333026749465716
36.0	208.60129628528466	pulse	0.0	t		19.0	female	white	4.298846000795861	neutral	100	sub-04	2.0	3.0	100_neutral	0.0		230.9004350029636	
36.0	209.3012755478594	pulse	0.0	t		19.0	female	white	4.298846000795861	neutral	100	sub-04	2.0	3.0	100_neutral	0.0		231.60041426553835	
36.0	209.5011502177431	fix	1.0		444	19.0	female	white	4.298846000795861	neutral	100	sub-04	2.0	3.0	100_neutral	0.0		231.80028893542203	3.766579299824116
36.0	210.0012668846266	pulse	1.0	t		19.0	female	white	4.298846000795861	neutral	100	sub-04	2.0	3.0	100_neutral	0.0		232.30040560230555	
36.0	210.7012419212333	pulse	1.0	t		19.0	female	white	4.298846000795861	neutral	100	sub-04	2.0	3.0	100_neutral	0.0		233.00038063891225	
36.0	211.4012245042113	pulse	1.0	t		19.0	female	white	4.298846000795861	neutral	100	sub-04	2.0	3.0	100_neutral	0.0		233.70036322189026	
36.0	212.1012143317039	pulse	1.0	t		19.0	female	white	4.298846000795861	neutral	100	sub-04	2.0	3.0	100_neutral	0.0		234.40035304938283	
36.0	212.80119993323024	pulse	1.0	t		19.0	female	white	4.298846000795861	neutral	100	sub-04	2.0	3.0	100_neutral	0.0		235.10033865090918	
37.0	213.2677295175672	face	0.0		145	40.0	male	black	2.408674890569041	neutral	061	sub-04	2.0	3.0	061_neutral	0.0		235.56686823524615	1.2333138435742512
37.0	213.50118523290075	pulse	0.0	t		40.0	male	black	2.408674890569041	neutral	061	sub-04	2.0	3.0	061_neutral	0.0		235.8003239505797	
37.0	214.20115725096002	pulse	0.0	t		40.0	male	black	2.408674890569041	neutral	061	sub-04	2.0	3.0	061_neutral	0.0		236.50029596863897	
37.0	214.50104336114146	fix	1.0		444	40.0	male	black	2.408674890569041	neutral	061	sub-04	2.0	3.0	061_neutral	0.0		236.8001820788204	3.7665928832902864
37.0	214.901154624823	pulse	1.0	t		40.0	male	black	2.408674890569041	neutral	061	sub-04	2.0	3.0	061_neutral	0.0		237.20029334250194	
37.0	215.60112513360855	pulse	1.0	t		40.0	male	black	2.408674890569041	neutral	061	sub-04	2.0	3.0	061_neutral	0.0		237.9002638512875	
37.0	216.301119790779	pulse	1.0	t		40.0	male	black	2.408674890569041	neutral	061	sub-04	2.0	3.0	061_neutral	0.0		238.60025850845796	
37.0	217.0011135423838	pulse	1.0	t		40.0	male	black	2.408674890569041	neutral	061	sub-04	2.0	3.0	061_neutral	0.0		239.30025226006273	
37.0	217.70109582350688	pulse	1.0	t		40.0	male	black	2.408674890569041	neutral	061	sub-04	2.0	3.0	061_neutral	0.0		240.00023454118582	
38.0	218.26763624443174	face	0.0		145	36.0	female	white	2.7548746518105847	smiling	011	sub-04	2.0	3.0	011_smiling	0.0		240.56677496211069	1.2333044860752125
38.0	218.40108051946845	pulse	0.0	t		36.0	female	white	2.7548746518105847	smiling	011	sub-04	2.0	3.0	011_smiling	0.0		240.7002192371474	
38.0	219.1010676302676	pulse	0.0	t		36.0	female	white	2.7548746518105847	smiling	011	sub-04	2.0	3.0	011_smiling	0.0		241.40020634794655	
38.0	219.50094073050695	fix	1.0		444	36.0	female	white	2.7548746518105847	smiling	011	sub-04	2.0	3.0	011_smiling	0.0		241.8000794481859	3.7582788963345592
38.0	219.8010740597756	pulse	1.0	t		36.0	female	white	2.7548746518105847	smiling	011	sub-04	2.0	3.0	011_smiling	0.0		242.10021277745454	
38.0	220.50103309807764	pulse	1.0	t		36.0	female	white	2.7548746518105847	smiling	011	sub-04	2.0	3.0	011_smiling	0.0		242.80017181575658	
38.0	221.20102081258756	pulse	1.0	t		36.0	female	white	2.7548746518105847	smiling	011	sub-04	2.0	3.0	011_smiling	0.0		243.5001595302665	
38.0	221.90100430112943	pulse	1.0	t		36.0	female	white	2.7548746518105847	smiling	011	sub-04	2.0	3.0	011_smiling	0.0		244.20014301880838	
38.0	222.60098084701076	pulse	1.0	t		36.0	female	white	2.7548746518105847	smiling	011	sub-04	2.0	3.0	011_smiling	0.0		244.9001195646897	
39.0	223.2592196268415	face	0.0		146	54.0	female	white	2.286908077994429	smiling	136	sub-04	2.0	3.0	136_smiling	1.0	trustworthiness	245.55835834452046	1.2416260194013375
39.0	223.30099270990468	pulse	0.0	t		54.0	female	white	2.286908077994429	smiling	136	sub-04	2.0	3.0	136_smiling	1.0	trustworthiness	245.60013142758362	
39.0	224.00096110570666	pulse	0.0	t		54.0	female	white	2.286908077994429	smiling	136	sub-04	2.0	3.0	136_smiling	1.0	trustworthiness	246.3000998233856	
39.0	224.50084564624285	fix	1.0		177	54.0	female	white	2.286908077994429	smiling	136	sub-04	2.0	3.0	136_smiling	1.0	trustworthiness	246.7999843639218	1.499958796818646
39.0	224.7009605925532	pulse	1.0	t		54.0	female	white	2.286908077994429	smiling	136	sub-04	2.0	3.0	136_smiling	1.0	trustworthiness	247.00009931023214	
39.0	225.4009392514181	pulse	1.0	t		54.0	female	white	2.286908077994429	smiling	136	sub-04	2.0	3.0	136_smiling	1.0	trustworthiness	247.70007796909704	
39.0	226.0008044430615	rating	2.0		294	54.0	female	white	2.286908077994429	smiling	136	sub-04	2.0	3.0	136_smiling	1.0	trustworthiness	248.29994316074044	2.4999603060932714
39.0	226.0959300614486	pulse	2.0	t		54.0	female	white	2.286908077994429	smiling	136	sub-04	2.0	3.0	136_smiling	1.0	trustworthiness	248.39506877912754	
39.0	226.79564882332488	pulse	2.0	t		54.0	female	white	2.286908077994429	smiling	136	sub-04	2.0	3.0	136_smiling	1.0	trustworthiness	249.09478754100383	
39.0	227.49562053952923	response	2.0	y		54.0	female	white	2.286908077994429	smiling	136	sub-04	2.0	3.0	136_smiling	1.0	trustworthiness	249.79475925720817	
39.0	227.4957479222585	pulse	2.0	t		54.0	female	white	2.286908077994429	smiling	136	sub-04	2.0	3.0	136_smiling	1.0	trustworthiness	249.79488663993743	
39.0	228.20087622413484	pulse	2.0	t		54.0	female	white	2.286908077994429	smiling	136	sub-04	2.0	3.0	136_smiling	1.0	trustworthiness	250.5000149418138	
39.0	228.50076474915477	fix	3.0		444	54.0	female	white	2.286908077994429	smiling	136	sub-04	2.0	3.0	136_smiling	1.0	trustworthiness	250.7999034668337	3.7499069532550493
39.0	228.90086756090204	pulse	3.0	t		54.0	female	white	2.286908077994429	smiling	136	sub-04	2.0	3.0	136_smiling	1.0	trustworthiness	251.200006278581	
39.0	229.60083746597775	pulse	3.0	t		54.0	female	white	2.286908077994429	smiling	136	sub-04	2.0	3.0	136_smiling	1.0	trustworthiness	251.8999761836567	
39.0	230.30083755653413	pulse	3.0	t		54.0	female	white	2.286908077994429	smiling	136	sub-04	2.0	3.0	136_smiling	1.0	trustworthiness	252.59997627421308	
39.0	231.00080534862627	pulse	3.0	t		54.0	female	white	2.286908077994429	smiling	136	sub-04	2.0	3.0	136_smiling	1.0	trustworthiness	253.29994406630522	
39.0	231.70079366684513	pulse	3.0	t		54.0	female	white	2.286908077994429	smiling	136	sub-04	2.0	3.0	136_smiling	1.0	trustworthiness	253.99993238452407	
40.0	232.25067170240982	fix	0.0		720													254.54981042008876	5.999886502592744
40.0	232.40080522788412	pulse	0.0	t														254.69994394556306	
40.0	233.1007657754608	pulse	0.0	t														255.39990449313973	
40.0	233.80075318811487	pulse	0.0	t														256.0998919057938	
40.0	234.50073063956097	pulse	0.0	t														256.7998693572399	
40.0	235.2007237874568	pulse	0.0	t														257.49986250513575	
40.0	235.90071452051416	pulse	0.0	t														258.1998532381931	
40.0	236.60069348123398	pulse	0.0	t														258.8998321989129	
40.0	237.30068059203404	pulse	0.0	t														259.599819309713	
40.0	238.00067192880124	pulse	0.0	t														260.2998106464802	
