trial_nr	onset	event_type	phase	response	nr_frames	face_age	face_sex	face_eth	attractiveness	expression	face_id	sub_id	ses	run	trial_type	catch	onset_abs	duration
-1.0	0.05816314610456175	fix	0.0		713												23.865282107271014	5.957875812248858
-1.0	0.6999243254567773	pulse	0.0	t													24.50704328662323	
-1.0	1.3998700824749903	pulse	0.0	t													25.206989043641443	
-1.0	2.0998481377628195	pulse	0.0	t													25.90696709892927	
-1.0	2.799756766864448	pulse	0.0	t													26.6068757280309	
-1.0	3.4997471981250783	pulse	0.0	t													27.30686615929153	
-1.0	4.199789548099034	pulse	0.0	t													28.006908509265486	
-1.0	4.899706025377782	pulse	0.0	t													28.706824986544234	
-1.0	5.599760751323629	pulse	0.0	t													29.40687971249008	
0.0	6.01603895835342	face	0.0		144	54.0	female	white	2.286908077994429	smiling	136	sub-04	1.0	5.0	136_smiling	0.0	29.823157919519872	1.2332876831005706
0.0	6.2996500618346545	pulse	0.0	t		54.0	female	white	2.286908077994429	smiling	136	sub-04	1.0	5.0	136_smiling	0.0	30.106769023001107	
0.0	6.999665245039068	pulse	0.0	t		54.0	female	white	2.286908077994429	smiling	136	sub-04	1.0	5.0	136_smiling	0.0	30.80678420620552	
0.0	7.24932664145399	fix	1.0		446	54.0	female	white	2.286908077994429	smiling	136	sub-04	1.0	5.0	136_smiling	0.0	31.056445602620443	3.758234775817982
0.0	7.699710009836963	pulse	1.0	t		54.0	female	white	2.286908077994429	smiling	136	sub-04	1.0	5.0	136_smiling	0.0	31.506828971003415	
0.0	8.39960777223132	pulse	1.0	t		54.0	female	white	2.286908077994429	smiling	136	sub-04	1.0	5.0	136_smiling	0.0	32.20672673339777	
0.0	9.099598505344147	pulse	1.0	t		54.0	female	white	2.286908077994429	smiling	136	sub-04	1.0	5.0	136_smiling	0.0	32.9067174665106	
0.0	9.799563279100767	pulse	1.0	t		54.0	female	white	2.286908077994429	smiling	136	sub-04	1.0	5.0	136_smiling	0.0	33.60668224026722	
0.0	10.499409122781799	pulse	1.0	t		54.0	female	white	2.286908077994429	smiling	136	sub-04	1.0	5.0	136_smiling	0.0	34.30652808394825	
1.0	11.007561417271972	face	0.0		146	21.0	male	black	2.969757262236371	smiling	137	sub-04	1.0	5.0	137_smiling	0.0	34.814680378438425	1.2416318051627968
1.0	11.19939412068834	pulse	0.0	t		21.0	male	black	2.969757262236371	smiling	137	sub-04	1.0	5.0	137_smiling	0.0	35.00651308185479	
1.0	11.899394513096922	pulse	0.0	t		21.0	male	black	2.969757262236371	smiling	137	sub-04	1.0	5.0	137_smiling	0.0	35.706513474263375	
1.0	12.24919322243477	fix	1.0		448	21.0	male	black	2.969757262236371	smiling	137	sub-04	1.0	5.0	137_smiling	0.0	36.05631218360122	3.766552938523091
1.0	12.599382227680508	pulse	1.0	t		21.0	male	black	2.969757262236371	smiling	137	sub-04	1.0	5.0	137_smiling	0.0	36.40650118884696	
1.0	13.299486155663544	pulse	1.0	t		21.0	male	black	2.969757262236371	smiling	137	sub-04	1.0	5.0	137_smiling	0.0	37.106605116829996	
1.0	13.999378484703811	pulse	1.0	t		21.0	male	black	2.969757262236371	smiling	137	sub-04	1.0	5.0	137_smiling	0.0	37.806497445870264	
1.0	14.699445888475566	pulse	1.0	t		21.0	male	black	2.969757262236371	smiling	137	sub-04	1.0	5.0	137_smiling	0.0	38.50656484964202	
1.0	15.399428471558167	pulse	1.0	t		21.0	male	black	2.969757262236371	smiling	137	sub-04	1.0	5.0	137_smiling	0.0	39.20654743272462	
2.0	16.01574616095786	face	0.0		146	24.0	male	white	3.1153999204138483	neutral	012	sub-04	1.0	5.0	012_neutral	0.0	39.82286512212431	1.2416426718700677
2.0	16.099288804181924	pulse	0.0	t		24.0	male	white	3.1153999204138483	neutral	012	sub-04	1.0	5.0	012_neutral	0.0	39.906407765348376	
2.0	16.79933024859656	pulse	0.0	t		24.0	male	white	3.1153999204138483	neutral	012	sub-04	1.0	5.0	012_neutral	0.0	40.606449209763014	
2.0	17.257388832827928	fix	1.0		445	24.0	male	white	3.1153999204138483	neutral	012	sub-04	1.0	5.0	012_neutral	0.0	41.06450779399438	3.7582269276408624
2.0	17.49924129252213	pulse	1.0	t		24.0	male	white	3.1153999204138483	neutral	012	sub-04	1.0	5.0	012_neutral	0.0	41.30636025368858	
2.0	18.19935276682918	pulse	1.0	t		24.0	male	white	3.1153999204138483	neutral	012	sub-04	1.0	5.0	012_neutral	0.0	42.00647172799563	
2.0	18.89933685917731	pulse	1.0	t		24.0	male	white	3.1153999204138483	neutral	012	sub-04	1.0	5.0	012_neutral	0.0	42.70645582034376	
2.0	19.599313103347413	pulse	1.0	t		24.0	male	white	3.1153999204138483	neutral	012	sub-04	1.0	5.0	012_neutral	0.0	43.406432064513865	
2.0	20.299293271606075	pulse	1.0	t		24.0	male	white	3.1153999204138483	neutral	012	sub-04	1.0	5.0	012_neutral	0.0	44.10641223277253	
3.0	21.01561576046879	face	0.0		147	23.0	male	white	2.6275368085953046	neutral	141	sub-04	1.0	5.0	141_neutral	0.0	44.82273472163524	1.2416351255451445
3.0	21.007830670134354	pulse	0.0	t		23.0	male	white	2.6275368085953046	neutral	141	sub-04	1.0	5.0	141_neutral	0.0	44.814949631300806	
3.0	21.69920440608712	pulse	0.0	t		23.0	male	white	2.6275368085953046	neutral	141	sub-04	1.0	5.0	141_neutral	0.0	45.50632336725357	
3.0	22.257250886013935	fix	1.0		446	23.0	male	white	2.6275368085953046	neutral	141	sub-04	1.0	5.0	141_neutral	0.0	46.06436984718039	3.7582383980543455
3.0	22.399245246796454	pulse	1.0	t		23.0	male	white	2.6275368085953046	neutral	141	sub-04	1.0	5.0	141_neutral	0.0	46.206364207962906	
3.0	23.099202776081256	pulse	1.0	t		23.0	male	white	2.6275368085953046	neutral	141	sub-04	1.0	5.0	141_neutral	0.0	46.90632173724771	
3.0	23.799204074049157	pulse	1.0	t		23.0	male	white	2.6275368085953046	neutral	141	sub-04	1.0	5.0	141_neutral	0.0	47.60632303521561	
3.0	24.499002828663833	pulse	1.0	t		23.0	male	white	2.6275368085953046	neutral	141	sub-04	1.0	5.0	141_neutral	0.0	48.306121789830286	
3.0	25.199161995743452	pulse	1.0	t		23.0	male	white	2.6275368085953046	neutral	141	sub-04	1.0	5.0	141_neutral	0.0	49.006280956909904	
3.0	25.89913944732507	pulse	1.0	t		23.0	male	white	2.6275368085953046	neutral	141	sub-04	1.0	5.0	141_neutral	0.0	49.70625840849152	
4.0	26.01548928406828	face	0.0		147	21.0	male	east_asian/white	3.501790688420215	neutral	036	sub-04	1.0	5.0	036_neutral	0.0	49.82260824523473	1.2416372385159775
4.0	26.59894393714694	pulse	0.0	t		21.0	male	east_asian/white	3.501790688420215	neutral	036	sub-04	1.0	5.0	036_neutral	0.0	50.406062898313394	
4.0	27.257126522584258	fix	1.0		443	21.0	male	east_asian/white	3.501790688420215	neutral	036	sub-04	1.0	5.0	036_neutral	0.0	51.06424548375071	3.7582290406116954
4.0	27.298973911148096	pulse	1.0	t		21.0	male	east_asian/white	3.501790688420215	neutral	036	sub-04	1.0	5.0	036_neutral	0.0	51.10609287231455	
4.0	27.99897188873274	pulse	1.0	t		21.0	male	east_asian/white	3.501790688420215	neutral	036	sub-04	1.0	5.0	036_neutral	0.0	51.80609084989919	
4.0	28.69894269954966	pulse	1.0	t		21.0	male	east_asian/white	3.501790688420215	neutral	036	sub-04	1.0	5.0	036_neutral	0.0	52.506061660716114	
4.0	29.398880004684543	pulse	1.0	t		21.0	male	east_asian/white	3.501790688420215	neutral	036	sub-04	1.0	5.0	036_neutral	0.0	53.205998965850995	
4.0	30.09883330802768	pulse	1.0	t		21.0	male	east_asian/white	3.501790688420215	neutral	036	sub-04	1.0	5.0	036_neutral	0.0	53.90595226919413	
4.0	30.798815589257174	pulse	1.0	t		21.0	male	east_asian/white	3.501790688420215	neutral	036	sub-04	1.0	5.0	036_neutral	0.0	54.605934550423626	
5.0	31.015355563195953	face	0.0		146	25.0	female	black	3.858336649423	smiling	126	sub-04	1.0	5.0	126_smiling	0.0	54.822474524362406	1.2416248625431763
5.0	31.498802700135457	pulse	0.0	t		25.0	female	black	3.858336649423	smiling	126	sub-04	1.0	5.0	126_smiling	0.0	55.30592166130191	
5.0	32.198775322069196	pulse	0.0	t		25.0	female	black	3.858336649423	smiling	126	sub-04	1.0	5.0	126_smiling	0.0	56.00589428323565	
5.0	32.25698042573913	fix	1.0		445	25.0	female	black	3.858336649423	smiling	126	sub-04	1.0	5.0	126_smiling	0.0	56.06409938690558	3.766571653409301
5.0	32.89876303665278	pulse	1.0	t		25.0	female	black	3.858336649423	smiling	126	sub-04	1.0	5.0	126_smiling	0.0	56.70588199781923	
5.0	33.598746223441594	pulse	1.0	t		25.0	female	black	3.858336649423	smiling	126	sub-04	1.0	5.0	126_smiling	0.0	57.40586518460805	
5.0	34.29872518428874	pulse	1.0	t		25.0	female	black	3.858336649423	smiling	126	sub-04	1.0	5.0	126_smiling	0.0	58.105844145455194	
5.0	34.99870233401725	pulse	1.0	t		25.0	female	black	3.858336649423	smiling	126	sub-04	1.0	5.0	126_smiling	0.0	58.805821295183705	
5.0	35.69867586151122	pulse	1.0	t		25.0	female	black	3.858336649423	smiling	126	sub-04	1.0	5.0	126_smiling	0.0	59.50579482267767	
6.0	36.02355207914843	face	0.0		145	25.0	female	west_asian	2.6756864305610826	neutral	064	sub-04	1.0	5.0	064_neutral	0.0	59.83067104031488	1.2332970405423112
6.0	36.3986575390345	pulse	0.0	t		25.0	female	west_asian	2.6756864305610826	neutral	064	sub-04	1.0	5.0	064_neutral	0.0	60.205776500200955	
6.0	37.098656422178465	pulse	0.0	t		25.0	female	west_asian	2.6756864305610826	neutral	064	sub-04	1.0	5.0	064_neutral	0.0	60.90577538334492	
6.0	37.25684911969074	fix	1.0		445	25.0	female	west_asian	2.6756864305610826	neutral	064	sub-04	1.0	5.0	064_neutral	0.0	61.063968080857194	3.7665517311115764
6.0	37.79863417561319	pulse	1.0	t		25.0	female	west_asian	2.6756864305610826	neutral	064	sub-04	1.0	5.0	064_neutral	0.0	61.60575313677964	
6.0	38.49861041978329	pulse	1.0	t		25.0	female	west_asian	2.6756864305610826	neutral	064	sub-04	1.0	5.0	064_neutral	0.0	62.30572938094974	
6.0	39.19858907877733	pulse	1.0	t		25.0	female	west_asian	2.6756864305610826	neutral	064	sub-04	1.0	5.0	064_neutral	0.0	63.005708039943784	
6.0	39.89856230441819	pulse	1.0	t		25.0	female	west_asian	2.6756864305610826	neutral	064	sub-04	1.0	5.0	064_neutral	0.0	63.705681265584644	
6.0	40.59855515050185	pulse	1.0	t		25.0	female	west_asian	2.6756864305610826	neutral	064	sub-04	1.0	5.0	064_neutral	0.0	64.4056741116683	
7.0	41.02340085080232	face	0.0		145	40.0	female	west_asian	1.5777954635893354	smiling	038	sub-04	1.0	5.0	038_smiling	0.0	64.83051981196877	1.2333142461629905
7.0	41.29852535761256	pulse	0.0	t		40.0	female	west_asian	1.5777954635893354	smiling	038	sub-04	1.0	5.0	038_smiling	0.0	65.10564431877901	
7.0	41.998485905427515	pulse	0.0	t		40.0	female	west_asian	1.5777954635893354	smiling	038	sub-04	1.0	5.0	038_smiling	0.0	65.80560486659397	
7.0	42.25671509696531	fix	1.0		445	40.0	female	west_asian	1.5777954635893354	smiling	038	sub-04	1.0	5.0	038_smiling	0.0	66.06383405813176	3.7665680311729375
7.0	42.698487203395416	pulse	1.0	t		40.0	female	west_asian	1.5777954635893354	smiling	038	sub-04	1.0	5.0	038_smiling	0.0	66.50560616456187	
7.0	43.39845861791764	pulse	1.0	t		40.0	female	west_asian	1.5777954635893354	smiling	038	sub-04	1.0	5.0	038_smiling	0.0	67.20557757908409	
7.0	44.09844965288357	pulse	1.0	t		40.0	female	west_asian	1.5777954635893354	smiling	038	sub-04	1.0	5.0	038_smiling	0.0	67.90556861405003	
7.0	44.79844491379208	pulse	1.0	t		40.0	female	west_asian	1.5777954635893354	smiling	038	sub-04	1.0	5.0	038_smiling	0.0	68.60556387495853	
7.0	45.498428100580895	pulse	1.0	t		40.0	female	west_asian	1.5777954635893354	smiling	038	sub-04	1.0	5.0	038_smiling	0.0	69.30554706174735	
8.0	46.023283128138246	face	0.0		145	26.0	female	white	4.854755272582572	neutral	027	sub-04	1.0	5.0	027_neutral	0.0	69.8304020893047	1.2333133406045818
8.0	46.198407665133345	pulse	0.0	t		26.0	female	white	4.854755272582572	neutral	027	sub-04	1.0	5.0	027_neutral	0.0	70.0055266262998	
8.0	46.89839236118769	pulse	0.0	t		26.0	female	white	4.854755272582572	neutral	027	sub-04	1.0	5.0	027_neutral	0.0	70.70551132235414	
8.0	47.25659646874283	fix	1.0		445	26.0	female	white	4.854755272582572	neutral	027	sub-04	1.0	5.0	027_neutral	0.0	71.06371542990928	3.7583168798300903
8.0	47.598376151681805	pulse	1.0	t		26.0	female	white	4.854755272582572	neutral	027	sub-04	1.0	5.0	027_neutral	0.0	71.40549511284826	
8.0	48.29834605693941	pulse	1.0	t		26.0	female	white	4.854755272582572	neutral	027	sub-04	1.0	5.0	027_neutral	0.0	72.10546501810586	
8.0	48.99833014928754	pulse	1.0	t		26.0	female	white	4.854755272582572	neutral	027	sub-04	1.0	5.0	027_neutral	0.0	72.80544911045399	
8.0	49.698300658250446	pulse	1.0	t		26.0	female	white	4.854755272582572	neutral	027	sub-04	1.0	5.0	027_neutral	0.0	73.5054196194169	
8.0	50.398278713538275	pulse	1.0	t		26.0	female	white	4.854755272582572	neutral	027	sub-04	1.0	5.0	027_neutral	0.0	74.20539767470473	
9.0	51.01491334857292	face	0.0		146	27.0	male	black	3.5523278949462798	smiling	042	sub-04	1.0	5.0	042_smiling	1.0	74.82203230973937	1.2415306844122824
9.0	51.098280917065495	pulse	0.0	t		27.0	male	black	3.5523278949462798	smiling	042	sub-04	1.0	5.0	042_smiling	1.0	74.90539987823195	
9.0	51.79824538896901	pulse	0.0	t		27.0	male	black	3.5523278949462798	smiling	042	sub-04	1.0	5.0	042_smiling	1.0	75.60536435013546	
9.0	52.2564440329852	fix	1.0		236	27.0	male	black	3.5523278949462798	smiling	042	sub-04	1.0	5.0	042_smiling	1.0	76.06356299415165	2.008313634910337
9.0	52.498222840550625	pulse	1.0	t		27.0	male	black	3.5523278949462798	smiling	042	sub-04	1.0	5.0	042_smiling	1.0	76.30534180171708	
9.0	53.19824074043299	pulse	1.0	t		27.0	male	black	3.5523278949462798	smiling	042	sub-04	1.0	5.0	042_smiling	1.0	77.00535970159945	
9.0	53.89818046039181	pulse	1.0	t		27.0	male	black	3.5523278949462798	smiling	042	sub-04	1.0	5.0	042_smiling	1.0	77.70529942155827	
9.0	54.26475766789554	rating	2.0		234	27.0	male	black	3.5523278949462798	smiling	042	sub-04	1.0	5.0	042_smiling	1.0	78.07187662906199	1.991596412900435
9.0	54.598216169600164	pulse	2.0	t		27.0	male	black	3.5523278949462798	smiling	042	sub-04	1.0	5.0	042_smiling	1.0	78.40533513076662	
9.0	55.048154606683966	response	2.0	b		27.0	male	black	3.5523278949462798	smiling	042	sub-04	1.0	5.0	042_smiling	1.0	78.85527356785042	
9.0	55.29811815793619	pulse	2.0	t		27.0	male	black	3.5523278949462798	smiling	042	sub-04	1.0	5.0	042_smiling	1.0	79.10523711910264	
9.0	55.998123681845755	pulse	2.0	t		27.0	male	black	3.5523278949462798	smiling	042	sub-04	1.0	5.0	042_smiling	1.0	79.8052426430122	
9.0	56.25635408079597	fix	3.0		444	27.0	male	black	3.5523278949462798	smiling	042	sub-04	1.0	5.0	042_smiling	1.0	80.06347304196242	3.766539053285669
9.0	56.69810777419298	pulse	3.0	t		27.0	male	black	3.5523278949462798	smiling	042	sub-04	1.0	5.0	042_smiling	1.0	80.50522673535943	
9.0	57.39813291854716	pulse	3.0	t		27.0	male	black	3.5523278949462798	smiling	042	sub-04	1.0	5.0	042_smiling	1.0	81.20525187971361	
9.0	58.09808984412575	pulse	3.0	t		27.0	male	black	3.5523278949462798	smiling	042	sub-04	1.0	5.0	042_smiling	1.0	81.9052088052922	
9.0	58.79806125864798	pulse	3.0	t		27.0	male	black	3.5523278949462798	smiling	042	sub-04	1.0	5.0	042_smiling	1.0	82.60518021981443	
9.0	59.49802542869929	pulse	3.0	t		27.0	male	black	3.5523278949462798	smiling	042	sub-04	1.0	5.0	042_smiling	1.0	83.30514438986575	
10.0	60.02289313408164	face	0.0		145	47.0	male	east_asian	2.171110226820533	neutral	024	sub-04	1.0	5.0	024_neutral	0.0	83.8300120952481	1.2333245091649587
10.0	60.198032160020375	pulse	0.0	t		47.0	male	east_asian	2.171110226820533	neutral	024	sub-04	1.0	5.0	024_neutral	0.0	84.00515112118683	
10.0	60.89800297083639	pulse	0.0	t		47.0	male	east_asian	2.171110226820533	neutral	024	sub-04	1.0	5.0	024_neutral	0.0	84.70512193200284	
10.0	61.2562176432466	fix	1.0		445	47.0	male	east_asian	2.171110226820533	neutral	024	sub-04	1.0	5.0	024_neutral	0.0	85.06333660441305	3.758333783596754
10.0	61.59799400580323	pulse	1.0	t		47.0	male	east_asian	2.171110226820533	neutral	024	sub-04	1.0	5.0	024_neutral	0.0	85.40511296696968	
10.0	62.29796330735462	pulse	1.0	t		47.0	male	east_asian	2.171110226820533	neutral	024	sub-04	1.0	5.0	024_neutral	0.0	86.10508226852107	
10.0	62.99794287190798	pulse	1.0	t		47.0	male	east_asian	2.171110226820533	neutral	024	sub-04	1.0	5.0	024_neutral	0.0	86.80506183307443	
10.0	63.69795443287694	pulse	1.0	t		47.0	male	east_asian	2.171110226820533	neutral	024	sub-04	1.0	5.0	024_neutral	0.0	87.5050733940434	
10.0	64.39789294542425	pulse	1.0	t		47.0	male	east_asian	2.171110226820533	neutral	024	sub-04	1.0	5.0	024_neutral	0.0	88.2050119065907	
11.0	65.01455142684335	face	0.0		146	23.0	male	white	2.6275368085953046	smiling	141	sub-04	1.0	5.0	141_smiling	1.0	88.8216703880098	1.2415189121466028
11.0	65.09788820633185	pulse	0.0	t		23.0	male	white	2.6275368085953046	smiling	141	sub-04	1.0	5.0	141_smiling	1.0	88.9050071674983	
11.0	65.79785690417702	pulse	0.0	t		23.0	male	white	2.6275368085953046	smiling	141	sub-04	1.0	5.0	141_smiling	1.0	89.60497586534348	
11.0	66.25607033898996	fix	1.0		237	23.0	male	white	2.6275368085953046	smiling	141	sub-04	1.0	5.0	141_smiling	1.0	90.06318930015641	1.999950194257508
11.0	66.50618692970511	pulse	1.0	t		23.0	male	white	2.6275368085953046	smiling	141	sub-04	1.0	5.0	141_smiling	1.0	90.31330589087156	
11.0	67.19781542957753	pulse	1.0	t		23.0	male	white	2.6275368085953046	smiling	141	sub-04	1.0	5.0	141_smiling	1.0	91.00493439074398	
11.0	67.89780133304248	pulse	1.0	t		23.0	male	white	2.6275368085953046	smiling	141	sub-04	1.0	5.0	141_smiling	1.0	91.70492029420893	
11.0	68.25602053324747	rating	2.0		235	23.0	male	white	2.6275368085953046	smiling	141	sub-04	1.0	5.0	141_smiling	1.0	92.06313949441392	1.999955023905386
11.0	68.59779206615622	pulse	2.0	t		23.0	male	white	2.6275368085953046	smiling	141	sub-04	1.0	5.0	141_smiling	1.0	92.40491102732267	
11.0	69.10929221210245	response	2.0	e		23.0	male	white	2.6275368085953046	smiling	141	sub-04	1.0	5.0	141_smiling	1.0	92.9164111732689	
11.0	69.29777585665124	pulse	2.0	t		23.0	male	white	2.6275368085953046	smiling	141	sub-04	1.0	5.0	141_smiling	1.0	93.1048948178177	
11.0	69.99774093226097	pulse	2.0	t		23.0	male	white	2.6275368085953046	smiling	141	sub-04	1.0	5.0	141_smiling	1.0	93.80485989342742	
11.0	70.25597555715285	fix	3.0		445	23.0	male	white	2.6275368085953046	smiling	141	sub-04	1.0	5.0	141_smiling	1.0	94.0630945183193	3.7665514292584703
11.0	70.69774555061122	pulse	3.0	t		23.0	male	white	2.6275368085953046	smiling	141	sub-04	1.0	5.0	141_smiling	1.0	94.50486451177767	
11.0	71.39772239848753	pulse	3.0	t		23.0	male	white	2.6275368085953046	smiling	141	sub-04	1.0	5.0	141_smiling	1.0	95.20484135965398	
11.0	72.09770166118687	pulse	3.0	t		23.0	male	white	2.6275368085953046	smiling	141	sub-04	1.0	5.0	141_smiling	1.0	95.90482062235333	
11.0	72.80601357553587	pulse	3.0	t		23.0	male	white	2.6275368085953046	smiling	141	sub-04	1.0	5.0	141_smiling	1.0	96.61313253670232	
11.0	73.49765807361655	pulse	3.0	t		23.0	male	white	2.6275368085953046	smiling	141	sub-04	1.0	5.0	141_smiling	1.0	97.304777034783	
12.0	74.02252698641132	face	0.0		145	24.0	female	east_asian	2.9076800636689217	neutral	034	sub-04	1.0	5.0	034_neutral	0.0	97.82964594757777	1.2333124350452636
12.0	74.19764850487627	pulse	0.0	t		24.0	female	east_asian	2.9076800636689217	neutral	034	sub-04	1.0	5.0	034_neutral	0.0	98.00476746604272	
12.0	74.89762444719418	pulse	0.0	t		24.0	female	east_asian	2.9076800636689217	neutral	034	sub-04	1.0	5.0	034_neutral	0.0	98.70474340836063	
12.0	75.25583942145659	fix	1.0		444	24.0	female	east_asian	2.9076800636689217	neutral	034	sub-04	1.0	5.0	034_neutral	0.0	99.06295838262304	3.7665363366095335
12.0	75.5976022006289	pulse	1.0	t		24.0	female	east_asian	2.9076800636689217	neutral	034	sub-04	1.0	5.0	034_neutral	0.0	99.40472116179535	
12.0	76.30591803906646	pulse	1.0	t		24.0	female	east_asian	2.9076800636689217	neutral	034	sub-04	1.0	5.0	034_neutral	0.0	100.11303700023291	
12.0	77.00588915173557	pulse	1.0	t		24.0	female	east_asian	2.9076800636689217	neutral	034	sub-04	1.0	5.0	034_neutral	0.0	100.81300811290203	
12.0	77.6975306312861	pulse	1.0	t		24.0	female	east_asian	2.9076800636689217	neutral	034	sub-04	1.0	5.0	034_neutral	0.0	101.50464959245255	
12.0	78.39752921257696	pulse	1.0	t		24.0	female	east_asian	2.9076800636689217	neutral	034	sub-04	1.0	5.0	034_neutral	0.0	102.20464817374341	
13.0	79.02237575806612	face	0.0		145	26.0	male	white	2.7966573816155993	smiling	117	sub-04	1.0	5.0	117_smiling	0.0	102.82949471923257	1.2333127368974601
13.0	79.1058441454552	pulse	0.0	t		26.0	male	white	2.7966573816155993	smiling	117	sub-04	1.0	5.0	117_smiling	0.0	102.91296310662165	
13.0	79.79748502130042	pulse	0.0	t		26.0	male	white	2.7966573816155993	smiling	117	sub-04	1.0	5.0	117_smiling	0.0	103.60460398246687	
13.0	80.25568849496358	fix	1.0		444	26.0	male	white	2.7966573816155993	smiling	117	sub-04	1.0	5.0	117_smiling	0.0	104.06280745613003	3.7665619941135446
13.0	80.49748299888506	pulse	1.0	t		26.0	male	white	2.7966573816155993	smiling	117	sub-04	1.0	5.0	117_smiling	0.0	104.30460196005151	
13.0	81.20577800946648	pulse	1.0	t		26.0	male	white	2.7966573816155993	smiling	117	sub-04	1.0	5.0	117_smiling	0.0	105.01289697063294	
13.0	81.90575787587204	pulse	1.0	t		26.0	male	white	2.7966573816155993	smiling	117	sub-04	1.0	5.0	117_smiling	0.0	105.7128768370385	
13.0	82.60574136451396	pulse	1.0	t		26.0	male	white	2.7966573816155993	smiling	117	sub-04	1.0	5.0	117_smiling	0.0	106.41286032568041	
13.0	83.30572274018505	pulse	1.0	t		26.0	male	white	2.7966573816155993	smiling	117	sub-04	1.0	5.0	117_smiling	0.0	107.1128417013515	
14.0	84.02225048907712	face	0.0		146	27.0	female	white	4.181058495821727	neutral	039	sub-04	1.0	5.0	039_neutral	0.0	107.82936945024358	1.2333196795161712
14.0	84.00851738567508	pulse	0.0	t		27.0	female	white	4.181058495821727	neutral	039	sub-04	1.0	5.0	039_neutral	0.0	107.81563634684153	
14.0	84.70570028232305	pulse	0.0	t		27.0	female	white	4.181058495821727	neutral	039	sub-04	1.0	5.0	039_neutral	0.0	108.5128192434895	
14.0	85.2555701685933	fix	1.0		443	27.0	female	white	4.181058495821727	neutral	039	sub-04	1.0	5.0	039_neutral	0.0	109.06268912975975	3.766553844083319
14.0	85.40566807460891	pulse	1.0	t		27.0	female	white	4.181058495821727	neutral	039	sub-04	1.0	5.0	039_neutral	0.0	109.21278703577536	
14.0	86.10564039469045	pulse	1.0	t		27.0	female	white	4.181058495821727	neutral	039	sub-04	1.0	5.0	039_neutral	0.0	109.9127593558569	
14.0	86.80562660000942	pulse	1.0	t		27.0	female	white	4.181058495821727	neutral	039	sub-04	1.0	5.0	039_neutral	0.0	110.61274556117587	
14.0	87.50561733312225	pulse	1.0	t		27.0	female	white	4.181058495821727	neutral	039	sub-04	1.0	5.0	039_neutral	0.0	111.3127362942887	
14.0	88.20558663467364	pulse	1.0	t		27.0	female	white	4.181058495821727	neutral	039	sub-04	1.0	5.0	039_neutral	0.0	112.01270559584009	
14.0	88.90567094221296	pulse	1.0	t		27.0	female	white	4.181058495821727	neutral	039	sub-04	1.0	5.0	039_neutral	0.0	112.71278990337942	
15.0	89.02212401267661	face	0.0		146	31.0	female	west_asian	2.364902506963788	smiling	006	sub-04	1.0	5.0	006_smiling	1.0	112.82924297384307	1.2332937201599634
15.0	89.60562545296762	pulse	0.0	t		31.0	female	west_asian	2.364902506963788	smiling	006	sub-04	1.0	5.0	006_smiling	1.0	113.41274441413407	
15.0	90.25541773283658	fix	1.0		236	31.0	female	west_asian	2.364902506963788	smiling	006	sub-04	1.0	5.0	006_smiling	1.0	114.06253669400303	1.999947779433569
15.0	90.3055377043056	pulse	1.0	t		31.0	female	west_asian	2.364902506963788	smiling	006	sub-04	1.0	5.0	006_smiling	1.0	114.11265666547206	
15.0	91.0055263244476	pulse	1.0	t		31.0	female	west_asian	2.364902506963788	smiling	006	sub-04	1.0	5.0	006_smiling	1.0	114.81264528561405	
15.0	91.70549773896983	pulse	1.0	t		31.0	female	west_asian	2.364902506963788	smiling	006	sub-04	1.0	5.0	006_smiling	1.0	115.51261670013628	
15.0	92.25536551227015	rating	2.0		235	31.0	female	west_asian	2.364902506963788	smiling	006	sub-04	1.0	5.0	006_smiling	1.0	116.0624844734366	1.9999468738742507
15.0	92.40032708789386	pulse	2.0	t		31.0	female	west_asian	2.364902506963788	smiling	006	sub-04	1.0	5.0	006_smiling	1.0	116.20744604906031	
15.0	93.1003875490469	pulse	2.0	t		31.0	female	west_asian	2.364902506963788	smiling	006	sub-04	1.0	5.0	006_smiling	1.0	116.90750651021335	
15.0	93.7887832034512	response	2.0	e		31.0	female	west_asian	2.364902506963788	smiling	006	sub-04	1.0	5.0	006_smiling	1.0	117.59590216461766	
15.0	93.79941476743261	pulse	2.0	t		31.0	female	west_asian	2.364902506963788	smiling	006	sub-04	1.0	5.0	006_smiling	1.0	117.60653372859906	
15.0	94.2553123861444	fix	3.0		444	31.0	female	west_asian	2.364902506963788	smiling	006	sub-04	1.0	5.0	006_smiling	1.0	118.06243134731085	3.766546901464608
15.0	94.50543561762606	pulse	3.0	t		31.0	female	west_asian	2.364902506963788	smiling	006	sub-04	1.0	5.0	006_smiling	1.0	118.31255457879251	
15.0	95.20539858026405	pulse	3.0	t		31.0	female	west_asian	2.364902506963788	smiling	006	sub-04	1.0	5.0	006_smiling	1.0	119.0125175414305	
15.0	95.90537995593513	pulse	3.0	t		31.0	female	west_asian	2.364902506963788	smiling	006	sub-04	1.0	5.0	006_smiling	1.0	119.71249891710158	
15.0	96.60536767051872	pulse	3.0	t		31.0	female	west_asian	2.364902506963788	smiling	006	sub-04	1.0	5.0	006_smiling	1.0	120.41248663168517	
15.0	97.30534180171799	pulse	3.0	t		31.0	female	west_asian	2.364902506963788	smiling	006	sub-04	1.0	5.0	006_smiling	1.0	121.11246076288444	
16.0	98.021859287609	face	0.0		146	24.0	female	east_asian	2.9076800636689217	smiling	034	sub-04	1.0	5.0	034_smiling	0.0	121.82897824877546	1.233334772165108
16.0	98.00833808500192	pulse	0.0	t		24.0	female	east_asian	2.9076800636689217	smiling	034	sub-04	1.0	5.0	034_smiling	0.0	121.81545704616838	
16.0	98.70531179753107	pulse	0.0	t		24.0	female	east_asian	2.9076800636689217	smiling	034	sub-04	1.0	5.0	034_smiling	0.0	122.51243075869752	
16.0	99.25519405977411	fix	1.0		443	24.0	female	east_asian	2.9076800636689217	smiling	034	sub-04	1.0	5.0	034_smiling	0.0	123.06231302094056	3.7582785445010813
16.0	99.40530313435102	pulse	1.0	t		24.0	female	east_asian	2.9076800636689217	smiling	034	sub-04	1.0	5.0	034_smiling	0.0	123.21242209551747	
16.0	100.10526338031286	pulse	1.0	t		24.0	female	east_asian	2.9076800636689217	smiling	034	sub-04	1.0	5.0	034_smiling	0.0	123.91238234147932	
16.0	100.80527765795887	pulse	1.0	t		24.0	female	east_asian	2.9076800636689217	smiling	034	sub-04	1.0	5.0	034_smiling	0.0	124.61239661912532	
16.0	101.50523428168435	pulse	1.0	t		24.0	female	east_asian	2.9076800636689217	smiling	034	sub-04	1.0	5.0	034_smiling	0.0	125.3123532428508	
16.0	102.20521112956067	pulse	1.0	t		24.0	female	east_asian	2.9076800636689217	smiling	034	sub-04	1.0	5.0	034_smiling	0.0	126.01233009072712	
16.0	102.9052082015869	pulse	1.0	t		24.0	female	east_asian	2.9076800636689217	smiling	034	sub-04	1.0	5.0	034_smiling	0.0	126.71232716275335	
17.0	103.0134726042752	face	0.0		147	27.0	female	white	4.181058495821727	smiling	039	sub-04	1.0	5.0	039_smiling	1.0	126.82059156544165	1.2415687178890948
17.0	103.60534080560319	pulse	0.0	t		27.0	female	white	4.181058495821727	smiling	039	sub-04	1.0	5.0	039_smiling	1.0	127.41245976676964	
17.0	104.25504132216429	fix	1.0		236	27.0	female	white	4.181058495821727	smiling	039	sub-04	1.0	5.0	039_smiling	1.0	128.06216028333074	1.9999474775804629
17.0	104.30516340660415	pulse	1.0	t		27.0	female	white	4.181058495821727	smiling	039	sub-04	1.0	5.0	039_smiling	1.0	128.1122823677706	
17.0	105.00515413971698	pulse	1.0	t		27.0	female	white	4.181058495821727	smiling	039	sub-04	1.0	5.0	039_smiling	1.0	128.81227310088343	
17.0	105.70512736535784	pulse	1.0	t		27.0	female	white	4.181058495821727	smiling	039	sub-04	1.0	5.0	039_smiling	1.0	129.5122463265243	
17.0	106.25498879974475	rating	2.0		235	27.0	female	white	4.181058495821727	smiling	039	sub-04	1.0	5.0	039_smiling	1.0	130.0621077609112	1.9999625702303092
17.0	106.39993950866119	pulse	2.0	t		27.0	female	white	4.181058495821727	smiling	039	sub-04	1.0	5.0	039_smiling	1.0	130.20705846982764	
17.0	106.68843006564384	response	2.0	y		27.0	female	white	4.181058495821727	smiling	039	sub-04	1.0	5.0	039_smiling	1.0	130.4955490268103	
17.0	107.1050650629013	pulse	2.0	t		27.0	female	white	4.181058495821727	smiling	039	sub-04	1.0	5.0	039_smiling	1.0	130.91218402406776	
17.0	107.80507088866398	pulse	2.0	t		27.0	female	white	4.181058495821727	smiling	039	sub-04	1.0	5.0	039_smiling	1.0	131.61218984983043	
17.0	108.25495136997506	fix	3.0		444	27.0	female	white	4.181058495821727	smiling	039	sub-04	1.0	5.0	039_smiling	1.0	132.0620703311415	3.7665565607594544
17.0	108.50506222548302	pulse	3.0	t		27.0	female	white	4.181058495821727	smiling	039	sub-04	1.0	5.0	039_smiling	1.0	132.31218118664947	
17.0	109.20502277329797	pulse	3.0	t		27.0	female	white	4.181058495821727	smiling	039	sub-04	1.0	5.0	039_smiling	1.0	133.01214173446442	
17.0	109.90499690449724	pulse	3.0	t		27.0	female	white	4.181058495821727	smiling	039	sub-04	1.0	5.0	039_smiling	1.0	133.7121158656637	
17.0	110.60497797831522	pulse	3.0	t		27.0	female	white	4.181058495821727	smiling	039	sub-04	1.0	5.0	039_smiling	1.0	134.41209693948167	
17.0	111.30496659845812	pulse	3.0	t		27.0	female	white	4.181058495821727	smiling	039	sub-04	1.0	5.0	039_smiling	1.0	135.11208555962457	
18.0	112.02150793073451	face	0.0		146	19.0	female	white	4.298846000795861	neutral	100	sub-04	1.0	5.0	100_neutral	0.0	135.82862689190097	1.233289796070494
18.0	112.00743252604752	pulse	0.0	t		19.0	female	white	4.298846000795861	neutral	100	sub-04	1.0	5.0	100_neutral	0.0	135.81455148721398	
18.0	112.7049299535056	pulse	0.0	t		19.0	female	white	4.298846000795861	neutral	100	sub-04	1.0	5.0	100_neutral	0.0	136.51204891467205	
18.0	113.25479772680501	fix	1.0		443	19.0	female	white	4.298846000795861	neutral	100	sub-04	1.0	5.0	100_neutral	0.0	137.06191668797146	3.7665574663187726
18.0	113.40491495141214	pulse	1.0	t		19.0	female	white	4.298846000795861	neutral	100	sub-04	1.0	5.0	100_neutral	0.0	137.2120339125786	
18.0	114.10490055302489	pulse	1.0	t		19.0	female	white	4.298846000795861	neutral	100	sub-04	1.0	5.0	100_neutral	0.0	137.91201951419134	
18.0	114.80487015642939	pulse	1.0	t		19.0	female	white	4.298846000795861	neutral	100	sub-04	1.0	5.0	100_neutral	0.0	138.61198911759584	
18.0	115.50485424877661	pulse	1.0	t		19.0	female	white	4.298846000795861	neutral	100	sub-04	1.0	5.0	100_neutral	0.0	139.31197320994306	
18.0	116.2048422652133	pulse	1.0	t		19.0	female	white	4.298846000795861	neutral	100	sub-04	1.0	5.0	100_neutral	0.0	140.01196122637975	
18.0	116.90481700011878	pulse	1.0	t		19.0	female	white	4.298846000795861	neutral	100	sub-04	1.0	5.0	100_neutral	0.0	140.71193596128523	
19.0	117.02135519312378	face	0.0		146	28.0	female	white	5.676880222841227	neutral	124	sub-04	1.0	5.0	124_neutral	0.0	140.82847415429023	1.2333248110171553
19.0	117.60479958320138	pulse	0.0	t		28.0	female	white	5.676880222841227	neutral	124	sub-04	1.0	5.0	124_neutral	0.0	141.41191854436784	
19.0	118.25468000414094	fix	1.0		443	28.0	female	white	5.676880222841227	neutral	124	sub-04	1.0	5.0	124_neutral	0.0	142.0617989653074	3.76655142925938
19.0	118.30478759963808	pulse	1.0	t		28.0	female	white	5.676880222841227	neutral	124	sub-04	1.0	5.0	124_neutral	0.0	142.11190656080453	
19.0	119.00477501236855	pulse	1.0	t		28.0	female	white	5.676880222841227	neutral	124	sub-04	1.0	5.0	124_neutral	0.0	142.811893973535	
19.0	119.7047476343023	pulse	1.0	t		28.0	female	white	5.676880222841227	neutral	124	sub-04	1.0	5.0	124_neutral	0.0	143.51186659546875	
19.0	120.40471361547134	pulse	1.0	t		28.0	female	white	5.676880222841227	neutral	124	sub-04	1.0	5.0	124_neutral	0.0	144.2118325766378	
19.0	121.10470495229038	pulse	1.0	t		28.0	female	white	5.676880222841227	neutral	124	sub-04	1.0	5.0	124_neutral	0.0	144.91182391345683	
19.0	121.80468361128442	pulse	1.0	t		28.0	female	white	5.676880222841227	neutral	124	sub-04	1.0	5.0	124_neutral	0.0	145.61180257245087	
20.0	122.02123143340032	face	0.0		145	22.0	female	west_asian	3.8205332272184642	neutral	066	sub-04	1.0	5.0	066_neutral	0.0	145.82835039456677	1.2333157554276113
20.0	122.50468098516376	pulse	0.0	t		22.0	female	west_asian	3.8205332272184642	neutral	066	sub-04	1.0	5.0	066_neutral	0.0	146.3117999463302	
20.0	123.20465541821522	pulse	0.0	t		22.0	female	west_asian	3.8205332272184642	neutral	066	sub-04	1.0	5.0	066_neutral	0.0	147.01177437938168	
20.0	123.25454718882793	fix	1.0		444	22.0	female	west_asian	3.8205332272184642	neutral	066	sub-04	1.0	5.0	066_neutral	0.0	147.06166614999438	3.7665309032554433
20.0	123.90464041612177	pulse	1.0	t		22.0	female	west_asian	3.8205332272184642	neutral	066	sub-04	1.0	5.0	066_neutral	0.0	147.71175937728822	
20.0	124.60460156764293	pulse	1.0	t		22.0	female	west_asian	3.8205332272184642	neutral	066	sub-04	1.0	5.0	066_neutral	0.0	148.41172052880938	
20.0	125.3045886785203	pulse	1.0	t		22.0	female	west_asian	3.8205332272184642	neutral	066	sub-04	1.0	5.0	066_neutral	0.0	149.11170763968676	
20.0	126.00456733751435	pulse	1.0	t		22.0	female	west_asian	3.8205332272184642	neutral	066	sub-04	1.0	5.0	066_neutral	0.0	149.8116862986808	
20.0	126.70456380583437	pulse	1.0	t		22.0	female	west_asian	3.8205332272184642	neutral	066	sub-04	1.0	5.0	066_neutral	0.0	150.51168276700082	
21.0	127.02107809208337	face	0.0		145	20.0	male	black	3.1070433744528456	smiling	082	sub-04	1.0	5.0	082_smiling	0.0	150.82819705324982	1.2333329610482906
21.0	127.40453250368046	pulse	0.0	t		20.0	male	black	3.1070433744528456	smiling	082	sub-04	1.0	5.0	082_smiling	0.0	151.2116514648469	
21.0	128.1045241423526	pulse	0.0	t		20.0	male	black	3.1070433744528456	smiling	082	sub-04	1.0	5.0	082_smiling	0.0	151.91164310351905	
21.0	128.25441105313166	fix	1.0		445	20.0	male	black	3.1070433744528456	smiling	082	sub-04	1.0	5.0	082_smiling	0.0	152.0615300142981	3.7665333180793823
21.0	128.80449616058104	pulse	1.0	t		20.0	male	black	3.1070433744528456	smiling	082	sub-04	1.0	5.0	082_smiling	0.0	152.6116151217475	
21.0	129.50446636769084	pulse	1.0	t		20.0	male	black	3.1070433744528456	smiling	082	sub-04	1.0	5.0	082_smiling	0.0	153.3115853288573	
21.0	130.2044646471295	pulse	1.0	t		20.0	male	black	3.1070433744528456	smiling	082	sub-04	1.0	5.0	082_smiling	0.0	154.01158360829595	
21.0	130.9044411931518	pulse	1.0	t		20.0	male	black	3.1070433744528456	smiling	082	sub-04	1.0	5.0	082_smiling	0.0	154.71156015431825	
21.0	131.60442649291144	pulse	1.0	t		20.0	male	black	3.1070433744528456	smiling	082	sub-04	1.0	5.0	082_smiling	0.0	155.4115454540779	
22.0	132.02094437121104	face	0.0		145	40.0	male	white	1.868682849184242	smiling	172	sub-04	1.0	5.0	172_smiling	1.0	155.8280633323775	1.2333133406045818
22.0	132.30439881299299	pulse	0.0	t		40.0	male	white	1.868682849184242	smiling	172	sub-04	1.0	5.0	172_smiling	1.0	156.11151777415944	
22.0	133.0043756608693	pulse	0.0	t		40.0	male	white	1.868682849184242	smiling	172	sub-04	1.0	5.0	172_smiling	1.0	156.81149462203575	
22.0	133.25425771181563	fix	1.0		236	40.0	male	white	1.868682849184242	smiling	172	sub-04	1.0	5.0	172_smiling	1.0	157.06137667298208	1.9999604572585667
22.0	133.70436850695296	pulse	1.0	t		40.0	male	white	1.868682849184242	smiling	172	sub-04	1.0	5.0	172_smiling	1.0	157.5114874681194	
22.0	134.40436256044995	pulse	1.0	t		40.0	male	white	1.868682849184242	smiling	172	sub-04	1.0	5.0	172_smiling	1.0	158.2114815216164	
22.0	135.10433276755975	pulse	1.0	t		40.0	male	white	1.868682849184242	smiling	172	sub-04	1.0	5.0	172_smiling	1.0	158.9114517287262	
22.0	135.2542181690742	rating	2.0		235	40.0	male	white	1.868682849184242	smiling	172	sub-04	1.0	5.0	172_smiling	1.0	159.06133713024064	1.9999510998168262
22.0	135.76572163540277	response	2.0	n		40.0	male	white	1.868682849184242	smiling	172	sub-04	1.0	5.0	172_smiling	1.0	159.57284059656922	
22.0	135.799029904877	pulse	2.0	t		40.0	male	white	1.868682849184242	smiling	172	sub-04	1.0	5.0	172_smiling	1.0	159.60614886604344	
22.0	136.50428284107602	pulse	2.0	t		40.0	male	white	1.868682849184242	smiling	172	sub-04	1.0	5.0	172_smiling	1.0	160.31140180224247	
22.0	137.20428112051468	pulse	2.0	t		40.0	male	white	1.868682849184242	smiling	172	sub-04	1.0	5.0	172_smiling	1.0	161.01140008168113	
22.0	137.25416926889102	fix	3.0		444	40.0	male	white	1.868682849184242	smiling	172	sub-04	1.0	5.0	172_smiling	1.0	161.06128823005747	3.766548108875213
22.0	137.90425072391827	pulse	3.0	t		40.0	male	white	1.868682849184242	smiling	172	sub-04	1.0	5.0	172_smiling	1.0	161.71136968508472	
22.0	138.60424266444443	pulse	3.0	t		40.0	male	white	1.868682849184242	smiling	172	sub-04	1.0	5.0	172_smiling	1.0	162.41136162561088	
22.0	139.30422675679165	pulse	3.0	t		40.0	male	white	1.868682849184242	smiling	172	sub-04	1.0	5.0	172_smiling	1.0	163.1113457179581	
22.0	140.00420209540243	pulse	3.0	t		40.0	male	white	1.868682849184242	smiling	172	sub-04	1.0	5.0	172_smiling	1.0	163.8113210565689	
22.0	140.704169283983	pulse	3.0	t		40.0	male	white	1.868682849184242	smiling	172	sub-04	1.0	5.0	172_smiling	1.0	164.51128824514944	
23.0	141.02071737776623	face	0.0		145	28.0	male	east_asian	1.5563072025467568	neutral	005	sub-04	1.0	5.0	005_neutral	0.0	164.82783633893268	1.2332973423963267
23.0	141.4041705819509	pulse	0.0	t		28.0	male	east_asian	1.5563072025467568	neutral	005	sub-04	1.0	5.0	005_neutral	0.0	165.21128954311735	
23.0	142.1041471279741	pulse	0.0	t		28.0	male	east_asian	1.5563072025467568	neutral	005	sub-04	1.0	5.0	005_neutral	0.0	165.91126608914055	
23.0	142.25401472016256	fix	1.0		1185	28.0	male	east_asian	1.5563072025467568	neutral	005	sub-04	1.0	5.0	005_neutral	0.0	166.061133681329	10.008065209904089
23.0	142.80410888320148	pulse	1.0	t		28.0	male	east_asian	1.5563072025467568	neutral	005	sub-04	1.0	5.0	005_neutral	0.0	166.61122784436793	
23.0	143.50408935331325	pulse	1.0	t		28.0	male	east_asian	1.5563072025467568	neutral	005	sub-04	1.0	5.0	005_neutral	0.0	167.3112083144797	
23.0	144.2040945753697	pulse	1.0	t		28.0	male	east_asian	1.5563072025467568	neutral	005	sub-04	1.0	5.0	005_neutral	0.0	168.01121353653616	
23.0	144.90409345851367	pulse	1.0	t		28.0	male	east_asian	1.5563072025467568	neutral	005	sub-04	1.0	5.0	005_neutral	0.0	168.71121241968012	
23.0	145.60405430818173	pulse	1.0	t		28.0	male	east_asian	1.5563072025467568	neutral	005	sub-04	1.0	5.0	005_neutral	0.0	169.41117326934818	
23.0	146.3040290430863	pulse	1.0	t		28.0	male	east_asian	1.5563072025467568	neutral	005	sub-04	1.0	5.0	005_neutral	0.0	170.11114800425275	
23.0	147.00401494655216	pulse	1.0	t		28.0	male	east_asian	1.5563072025467568	neutral	005	sub-04	1.0	5.0	005_neutral	0.0	170.8111339077186	
23.0	147.70397821104416	pulse	1.0	t		28.0	male	east_asian	1.5563072025467568	neutral	005	sub-04	1.0	5.0	005_neutral	0.0	171.5110971722106	
23.0	148.40395807744972	pulse	1.0	t		28.0	male	east_asian	1.5563072025467568	neutral	005	sub-04	1.0	5.0	005_neutral	0.0	172.21107703861617	
23.0	149.1039590735645	pulse	1.0	t		28.0	male	east_asian	1.5563072025467568	neutral	005	sub-04	1.0	5.0	005_neutral	0.0	172.91107803473096	
23.0	149.80391418802537	pulse	1.0	t		28.0	male	east_asian	1.5563072025467568	neutral	005	sub-04	1.0	5.0	005_neutral	0.0	173.61103314919183	
23.0	150.503897072962	pulse	1.0	t		28.0	male	east_asian	1.5563072025467568	neutral	005	sub-04	1.0	5.0	005_neutral	0.0	174.31101603412844	
23.0	151.20390893578406	pulse	1.0	t		28.0	male	east_asian	1.5563072025467568	neutral	005	sub-04	1.0	5.0	005_neutral	0.0	175.0110278969505	
23.0	151.9038875947781	pulse	1.0	t		28.0	male	east_asian	1.5563072025467568	neutral	005	sub-04	1.0	5.0	005_neutral	0.0	175.71100655594455	
24.0	152.26207993006665	face	0.0		146	28.0	female	white	5.676880222841227	smiling	124	sub-04	1.0	5.0	124_smiling	0.0	176.0691988912331	1.2416333144274176
24.0	152.60385236853472	pulse	0.0	t		28.0	female	white	5.676880222841227	smiling	124	sub-04	1.0	5.0	124_smiling	0.0	176.41097132970117	
24.0	153.30383072567565	pulse	0.0	t		28.0	female	white	5.676880222841227	smiling	124	sub-04	1.0	5.0	124_smiling	0.0	177.1109496868421	
24.0	153.50371324449407	fix	1.0		444	28.0	female	white	5.676880222841227	smiling	124	sub-04	1.0	5.0	124_smiling	0.0	177.31083220566052	3.7665656163489984
24.0	154.0038290051134	pulse	1.0	t		28.0	female	white	5.676880222841227	smiling	124	sub-04	1.0	5.0	124_smiling	0.0	177.81094796627985	
24.0	154.70384599943645	pulse	1.0	t		28.0	female	white	5.676880222841227	smiling	124	sub-04	1.0	5.0	124_smiling	0.0	178.5109649606029	
24.0	155.403813188017	pulse	1.0	t		28.0	female	white	5.676880222841227	smiling	124	sub-04	1.0	5.0	124_smiling	0.0	179.21093214918346	
24.0	156.10376618950704	pulse	1.0	t		28.0	female	white	5.676880222841227	smiling	124	sub-04	1.0	5.0	124_smiling	0.0	179.9108851506735	
24.0	156.80373790588237	pulse	1.0	t		28.0	female	white	5.676880222841227	smiling	124	sub-04	1.0	5.0	124_smiling	0.0	180.61085686704882	
25.0	157.27027886084306	face	0.0		145	19.0	male	white	3.2522881018702745	neutral	018	sub-04	1.0	5.0	018_neutral	0.0	181.07739782200952	1.2332985498078415
25.0	157.50373195937846	pulse	0.0	t		19.0	male	white	3.2522881018702745	neutral	018	sub-04	1.0	5.0	018_neutral	0.0	181.3108509205449	
25.0	158.20369492201735	pulse	0.0	t		19.0	male	white	3.2522881018702745	neutral	018	sub-04	1.0	5.0	018_neutral	0.0	182.0108138831838	
25.0	158.5035774106509	fix	1.0		444	19.0	male	white	3.2522881018702745	neutral	018	sub-04	1.0	5.0	018_neutral	0.0	182.31069637181736	3.758313257593727
25.0	158.90370104963313	pulse	1.0	t		19.0	male	white	3.2522881018702745	neutral	018	sub-04	1.0	5.0	018_neutral	0.0	182.71082001079958	
25.0	159.60367336971467	pulse	1.0	t		19.0	male	white	3.2522881018702745	neutral	018	sub-04	1.0	5.0	018_neutral	0.0	183.41079233088112	
25.0	160.29557414097872	pulse	1.0	t		19.0	male	white	3.2522881018702745	neutral	018	sub-04	1.0	5.0	018_neutral	0.0	184.10269310214517	
25.0	161.00363823402677	pulse	1.0	t		19.0	male	white	3.2522881018702745	neutral	018	sub-04	1.0	5.0	018_neutral	0.0	184.81075719519322	
25.0	161.7036232319333	pulse	1.0	t		19.0	male	white	3.2522881018702745	neutral	018	sub-04	1.0	5.0	018_neutral	0.0	185.51074219309976	
26.0	162.26189066824463	face	0.0		146	19.0	male	white	3.2522881018702745	smiling	018	sub-04	1.0	5.0	018_smiling	0.0	186.06900962941108	1.2415717364183365
26.0	162.4035919297794	pulse	0.0	t		19.0	male	white	3.2522881018702745	smiling	018	sub-04	1.0	5.0	018_smiling	0.0	186.21071089094585	
26.0	163.1035868888339	pulse	0.0	t		19.0	male	white	3.2522881018702745	smiling	018	sub-04	1.0	5.0	018_smiling	0.0	186.91070585000034	
26.0	163.50346240466297	fix	1.0		444	19.0	male	white	3.2522881018702745	smiling	018	sub-04	1.0	5.0	018_smiling	0.0	187.31058136582942	3.7665456940521835
26.0	163.80355377556225	pulse	1.0	t		19.0	male	white	3.2522881018702745	smiling	018	sub-04	1.0	5.0	018_smiling	0.0	187.6106727367287	
26.0	164.50353786790947	pulse	1.0	t		19.0	male	white	3.2522881018702745	smiling	018	sub-04	1.0	5.0	018_smiling	0.0	188.31065682907592	
26.0	165.203522865816	pulse	1.0	t		19.0	male	white	3.2522881018702745	smiling	018	sub-04	1.0	5.0	018_smiling	0.0	189.01064182698246	
26.0	165.89542846672884	pulse	1.0	t		19.0	male	white	3.2522881018702745	smiling	018	sub-04	1.0	5.0	018_smiling	0.0	189.7025474278953	
26.0	166.59546206296545	pulse	1.0	t		19.0	male	white	3.2522881018702745	smiling	018	sub-04	1.0	5.0	018_smiling	0.0	190.4025810241319	
27.0	167.27000809871515	face	0.0		145	30.0	female	black	2.7345801830481498	neutral	062	sub-04	1.0	5.0	062_neutral	0.0	191.0771270598816	1.2333145480160965
27.0	167.30346759653457	pulse	0.0	t		30.0	female	black	2.7345801830481498	neutral	062	sub-04	1.0	5.0	062_neutral	0.0	191.11058655770103	
27.0	168.0034776482389	pulse	0.0	t		30.0	female	black	2.7345801830481498	neutral	062	sub-04	1.0	5.0	062_neutral	0.0	191.81059660940537	
27.0	168.50332264673125	fix	1.0		443	30.0	female	black	2.7345801830481498	neutral	062	sub-04	1.0	5.0	062_neutral	0.0	192.3104416078977	3.7665511274053642
27.0	168.69539411585902	pulse	1.0	t		30.0	female	black	2.7345801830481498	neutral	062	sub-04	1.0	5.0	062_neutral	0.0	192.50251307702547	
27.0	169.40339934757503	pulse	1.0	t		30.0	female	black	2.7345801830481498	neutral	062	sub-04	1.0	5.0	062_neutral	0.0	193.21051830874148	
27.0	170.10338706215862	pulse	1.0	t		30.0	female	black	2.7345801830481498	neutral	062	sub-04	1.0	5.0	062_neutral	0.0	193.91050602332507	
27.0	170.79530654830796	pulse	1.0	t		30.0	female	black	2.7345801830481498	neutral	062	sub-04	1.0	5.0	062_neutral	0.0	194.60242550947441	
27.0	171.49527524615314	pulse	1.0	t		30.0	female	black	2.7345801830481498	neutral	062	sub-04	1.0	5.0	062_neutral	0.0	195.3023942073196	
27.0	172.20333571696574	pulse	1.0	t		30.0	female	black	2.7345801830481498	neutral	062	sub-04	1.0	5.0	062_neutral	0.0	196.0104546781322	
28.0	172.2698737741366	face	0.0		146	22.0	male	black	2.767608436132113	smiling	044	sub-04	1.0	5.0	044_smiling	0.0	196.07699273530307	1.2333151517223087
28.0	172.89518577692888	pulse	0.0	t		22.0	male	black	2.767608436132113	smiling	044	sub-04	1.0	5.0	044_smiling	0.0	196.70230473809534	
28.0	173.50318892585892	fix	1.0		443	22.0	male	black	2.767608436132113	smiling	044	sub-04	1.0	5.0	044_smiling	0.0	197.31030788702537	3.7665306014032467
28.0	173.5952755178214	pulse	1.0	t		22.0	male	black	2.767608436132113	smiling	044	sub-04	1.0	5.0	044_smiling	0.0	197.40239447898784	
28.0	174.30327591988953	pulse	1.0	t		22.0	male	black	2.767608436132113	smiling	044	sub-04	1.0	5.0	044_smiling	0.0	198.11039488105598	
28.0	174.99519148195031	pulse	1.0	t		22.0	male	black	2.767608436132113	smiling	044	sub-04	1.0	5.0	044_smiling	0.0	198.80231044311677	
28.0	175.69517074464966	pulse	1.0	t		22.0	male	black	2.767608436132113	smiling	044	sub-04	1.0	5.0	044_smiling	0.0	199.5022897058161	
28.0	176.39509657937197	pulse	1.0	t		22.0	male	black	2.767608436132113	smiling	044	sub-04	1.0	5.0	044_smiling	0.0	200.20221554053842	
28.0	177.0951307793148	pulse	1.0	t		22.0	male	black	2.767608436132113	smiling	044	sub-04	1.0	5.0	044_smiling	0.0	200.90224974048124	
29.0	177.26971952726217	face	0.0		146	26.0	female	white	4.854755272582572	smiling	027	sub-04	1.0	5.0	027_smiling	0.0	201.07683848842862	1.2333199813692772
29.0	177.79511939945678	pulse	0.0	t		26.0	female	white	4.854755272582572	smiling	027	sub-04	1.0	5.0	027_smiling	0.0	201.60223836062323	
29.0	178.50303950863145	fix	1.0		444	26.0	female	white	4.854755272582572	smiling	027	sub-04	1.0	5.0	027_smiling	0.0	202.3101584697979	3.7665481088761226
29.0	178.49512552707256	pulse	1.0	t		26.0	female	white	4.854755272582572	smiling	027	sub-04	1.0	5.0	027_smiling	0.0	202.302244488239	
29.0	179.19508788600524	pulse	1.0	t		26.0	female	white	4.854755272582572	smiling	027	sub-04	1.0	5.0	027_smiling	0.0	203.0022068471717	
29.0	179.89498202616414	pulse	1.0	t		26.0	female	white	4.854755272582572	smiling	027	sub-04	1.0	5.0	027_smiling	0.0	203.7021009873306	
29.0	180.59498573895507	pulse	1.0	t		26.0	female	white	4.854755272582572	smiling	027	sub-04	1.0	5.0	027_smiling	0.0	204.40210470012153	
29.0	181.2950519353153	pulse	1.0	t		26.0	female	white	4.854755272582572	smiling	027	sub-04	1.0	5.0	027_smiling	0.0	205.10217089648177	
29.0	181.99497897744823	pulse	1.0	t		26.0	female	white	4.854755272582572	smiling	027	sub-04	1.0	5.0	027_smiling	0.0	205.80209793861468	
30.0	182.26958761750757	face	0.0		145	37.0	male	white	3.898925586947871	smiling	101	sub-04	1.0	5.0	101_smiling	0.0	206.07670657867402	1.2333314517827603
30.0	182.70305484276287	pulse	0.0	t		37.0	male	white	3.898925586947871	smiling	101	sub-04	1.0	5.0	101_smiling	0.0	206.51017380392932	
30.0	183.40302867210903	pulse	0.0	t		37.0	male	white	3.898925586947871	smiling	101	sub-04	1.0	5.0	101_smiling	0.0	207.21014763327548	
30.0	183.50291906929033	fix	1.0		444	37.0	male	white	3.898925586947871	smiling	101	sub-04	1.0	5.0	101_smiling	0.0	207.31003803045678	3.7583361984216026
30.0	184.09494755455307	pulse	1.0	t		37.0	male	white	3.898925586947871	smiling	101	sub-04	1.0	5.0	101_smiling	0.0	207.90206651571953	
30.0	184.7948555799485	pulse	1.0	t		37.0	male	white	3.898925586947871	smiling	101	sub-04	1.0	5.0	101_smiling	0.0	208.60197454111494	
30.0	185.49483514450094	pulse	1.0	t		37.0	male	white	3.898925586947871	smiling	101	sub-04	1.0	5.0	101_smiling	0.0	209.3019541056674	
30.0	186.19489137971232	pulse	1.0	t		37.0	male	white	3.898925586947871	smiling	101	sub-04	1.0	5.0	101_smiling	0.0	210.00201034087877	
30.0	186.89480242363788	pulse	1.0	t		37.0	male	white	3.898925586947871	smiling	101	sub-04	1.0	5.0	101_smiling	0.0	210.70192138480434	
31.0	187.26125526771193	face	0.0		146	27.0	male	black	3.5523278949462798	neutral	042	sub-04	1.0	5.0	042_neutral	0.0	211.06837422887838	1.2415306844122824
31.0	187.60291058722123	pulse	0.0	t		27.0	male	black	3.5523278949462798	neutral	042	sub-04	1.0	5.0	042_neutral	0.0	211.41002954838768	
31.0	188.29469786176378	pulse	0.0	t		27.0	male	black	3.5523278949462798	neutral	042	sub-04	1.0	5.0	042_neutral	0.0	212.10181682293023	
31.0	188.5027859521242	fix	1.0		444	27.0	male	black	3.5523278949462798	neutral	042	sub-04	1.0	5.0	042_neutral	0.0	212.30990491329067	3.7665499199938495
31.0	188.99483438986863	pulse	1.0	t		27.0	male	black	3.5523278949462798	neutral	042	sub-04	1.0	5.0	042_neutral	0.0	212.80195335103508	
31.0	189.69480550253775	pulse	1.0	t		27.0	male	black	3.5523278949462798	neutral	042	sub-04	1.0	5.0	042_neutral	0.0	213.5019244637042	
31.0	190.39467881484052	pulse	1.0	t		27.0	male	black	3.5523278949462798	neutral	042	sub-04	1.0	5.0	042_neutral	0.0	214.20179777600697	
31.0	191.0946846406032	pulse	1.0	t		27.0	male	black	3.5523278949462798	neutral	042	sub-04	1.0	5.0	042_neutral	0.0	214.90180360176964	
31.0	191.7946684310973	pulse	1.0	t		27.0	male	black	3.5523278949462798	neutral	042	sub-04	1.0	5.0	042_neutral	0.0	215.60178739226376	
32.0	192.26933587211806	face	0.0		145	22.0	male	black	2.767608436132113	neutral	044	sub-04	1.0	5.0	044_neutral	0.0	216.07645483328452	1.2333142461629905
32.0	192.49465735309332	pulse	0.0	t		22.0	male	black	2.767608436132113	neutral	044	sub-04	1.0	5.0	044_neutral	0.0	216.30177631425977	
32.0	193.1946393324697	pulse	0.0	t		22.0	male	black	2.767608436132113	neutral	044	sub-04	1.0	5.0	044_neutral	0.0	217.00175829363616	
32.0	193.50265011828105	fix	1.0		444	22.0	male	black	2.767608436132113	neutral	044	sub-04	1.0	5.0	044_neutral	0.0	217.3097690794475	3.7665496181407434
32.0	193.89467323056033	pulse	1.0	t		22.0	male	black	2.767608436132113	neutral	044	sub-04	1.0	5.0	044_neutral	0.0	217.70179219172678	
32.0	194.59464555064187	pulse	1.0	t		22.0	male	black	2.767608436132113	neutral	044	sub-04	1.0	5.0	044_neutral	0.0	218.40176451180832	
32.0	195.29456806498	pulse	1.0	t		22.0	male	black	2.767608436132113	neutral	044	sub-04	1.0	5.0	044_neutral	0.0	219.10168702614646	
32.0	195.99461494274874	pulse	1.0	t		22.0	male	black	2.767608436132113	neutral	044	sub-04	1.0	5.0	044_neutral	0.0	219.8017339039152	
32.0	196.6945256848212	pulse	1.0	t		22.0	male	black	2.767608436132113	neutral	044	sub-04	1.0	5.0	044_neutral	0.0	220.50164464598765	
33.0	197.2691997364218	face	0.0		145	34.0	male	white	2.651014723438122	smiling	121	sub-04	1.0	5.0	121_smiling	0.0	221.07631869758825	1.2333139443098844
33.0	197.39439899712306	pulse	0.0	t		34.0	male	white	2.651014723438122	smiling	121	sub-04	1.0	5.0	121_smiling	0.0	221.20151795828951	
33.0	198.09442414147725	pulse	0.0	t		34.0	male	white	2.651014723438122	smiling	121	sub-04	1.0	5.0	121_smiling	0.0	221.9015431026437	
33.0	198.50251368073168	fix	1.0		444	34.0	male	white	2.651014723438122	smiling	121	sub-04	1.0	5.0	121_smiling	0.0	222.30963264189813	3.7581882904587474
33.0	198.79435450399342	pulse	1.0	t		34.0	male	white	2.651014723438122	smiling	121	sub-04	1.0	5.0	121_smiling	0.0	222.60147346515987	
33.0	199.4943159573677	pulse	1.0	t		34.0	male	white	2.651014723438122	smiling	121	sub-04	1.0	5.0	121_smiling	0.0	223.30143491853414	
33.0	200.1944370909705	pulse	1.0	t		34.0	male	white	2.651014723438122	smiling	121	sub-04	1.0	5.0	121_smiling	0.0	224.00155605213695	
33.0	200.8944075999334	pulse	1.0	t		34.0	male	white	2.651014723438122	smiling	121	sub-04	1.0	5.0	121_smiling	0.0	224.70152656109985	
33.0	201.59439893675244	pulse	1.0	t		34.0	male	white	2.651014723438122	smiling	121	sub-04	1.0	5.0	121_smiling	0.0	225.4015178979189	
34.0	202.26070197119043	face	0.0		146	31.0	female	white	2.1822522881018704	neutral	102	sub-04	1.0	5.0	102_neutral	0.0	226.06782093235688	1.2416846294345305
34.0	202.29432628073937	pulse	0.0	t		31.0	female	white	2.1822522881018704	neutral	102	sub-04	1.0	5.0	102_neutral	0.0	226.10144524190582	
34.0	202.99423672095872	pulse	0.0	t		31.0	female	white	2.1822522881018704	neutral	102	sub-04	1.0	5.0	102_neutral	0.0	226.80135568212518	
34.0	203.50238660062496	fix	1.0		443	31.0	female	white	2.1822522881018704	neutral	102	sub-04	1.0	5.0	102_neutral	0.0	227.3095055617914	3.7583008816218353
34.0	203.69434638414805	pulse	1.0	t		31.0	female	white	2.1822522881018704	neutral	102	sub-04	1.0	5.0	102_neutral	0.0	227.5014653453145	
34.0	204.39418468150416	pulse	1.0	t		31.0	female	white	2.1822522881018704	neutral	102	sub-04	1.0	5.0	102_neutral	0.0	228.2013036426706	
34.0	205.0941645479097	pulse	1.0	t		31.0	female	white	2.1822522881018704	neutral	102	sub-04	1.0	5.0	102_neutral	0.0	228.90128350907617	
34.0	205.79414682914012	pulse	1.0	t		31.0	female	white	2.1822522881018704	neutral	102	sub-04	1.0	5.0	102_neutral	0.0	229.60126579030657	
34.0	206.4941025473072	pulse	1.0	t		31.0	female	white	2.1822522881018704	neutral	102	sub-04	1.0	5.0	102_neutral	0.0	230.30122150847365	
34.0	207.19425084767863	pulse	1.0	t		31.0	female	white	2.1822522881018704	neutral	102	sub-04	1.0	5.0	102_neutral	0.0	231.00136980884508	
35.0	207.2606874822468	face	0.0		147	40.0	female	west_asian	1.5777954635893354	neutral	038	sub-04	1.0	5.0	038_neutral	0.0	231.06780644341325	1.2415397400018264
35.0	207.89417547498851	pulse	0.0	t		40.0	female	west_asian	1.5777954635893354	neutral	038	sub-04	1.0	5.0	038_neutral	0.0	231.70129443615497	
35.0	208.50222722224862	fix	1.0		443	40.0	female	west_asian	1.5777954635893354	neutral	038	sub-04	1.0	5.0	038_neutral	0.0	232.30934618341507	3.7665508255531677
35.0	208.59407776517673	pulse	1.0	t		40.0	female	west_asian	1.5777954635893354	neutral	038	sub-04	1.0	5.0	038_neutral	0.0	232.4011967263432	
35.0	209.2942016154566	pulse	1.0	t		40.0	female	west_asian	1.5777954635893354	neutral	038	sub-04	1.0	5.0	038_neutral	0.0	233.10132057662304	
35.0	209.99417333183192	pulse	1.0	t		40.0	female	west_asian	1.5777954635893354	neutral	038	sub-04	1.0	5.0	038_neutral	0.0	233.80129229299837	
35.0	210.69415259453217	pulse	1.0	t		40.0	female	west_asian	1.5777954635893354	neutral	038	sub-04	1.0	5.0	038_neutral	0.0	234.50127155569862	
35.0	211.39397730850305	pulse	1.0	t		40.0	female	west_asian	1.5777954635893354	neutral	038	sub-04	1.0	5.0	038_neutral	0.0	235.2010962696695	
35.0	212.09395928788035	pulse	1.0	t		40.0	female	west_asian	1.5777954635893354	neutral	038	sub-04	1.0	5.0	038_neutral	0.0	235.9010782490468	
36.0	212.2687780478018	face	0.0		146	34.0	male	white	2.651014723438122	neutral	121	sub-04	1.0	5.0	121_neutral	0.0	236.07589700896824	1.2333332629013967
36.0	212.79393462649114	pulse	0.0	t		34.0	male	white	2.651014723438122	neutral	121	sub-04	1.0	5.0	121_neutral	0.0	236.6010535876576	
36.0	213.50211131070319	fix	1.0		444	34.0	male	white	2.651014723438122	neutral	121	sub-04	1.0	5.0	121_neutral	0.0	237.30923027186964	3.7665318088147615
36.0	213.4941348455759	pulse	1.0	t		34.0	male	white	2.651014723438122	neutral	121	sub-04	1.0	5.0	121_neutral	0.0	237.30125380674235	
36.0	214.19388922780217	pulse	1.0	t		34.0	male	white	2.651014723438122	neutral	121	sub-04	1.0	5.0	121_neutral	0.0	238.00100818896863	
36.0	214.89385279414728	pulse	1.0	t		34.0	male	white	2.651014723438122	neutral	121	sub-04	1.0	5.0	121_neutral	0.0	238.70097175531373	
36.0	215.5938676754995	pulse	1.0	t		34.0	male	white	2.651014723438122	neutral	121	sub-04	1.0	5.0	121_neutral	0.0	239.40098663666595	
36.0	216.2938249029312	pulse	1.0	t		34.0	male	white	2.651014723438122	neutral	121	sub-04	1.0	5.0	121_neutral	0.0	240.10094386409764	
36.0	216.99385880102182	pulse	1.0	t		34.0	male	white	2.651014723438122	neutral	121	sub-04	1.0	5.0	121_neutral	0.0	240.80097776218827	
37.0	217.26864311951795	face	0.0		145	24.0	female	east_asian	4.409868682849185	smiling	030	sub-04	1.0	5.0	030_smiling	0.0	241.0757620806844	1.233332961047381
37.0	217.69384530819298	pulse	0.0	t		24.0	female	east_asian	4.409868682849185	smiling	030	sub-04	1.0	5.0	030_smiling	0.0	241.50096426935943	
37.0	218.393747296529	pulse	0.0	t		24.0	female	east_asian	4.409868682849185	smiling	030	sub-04	1.0	5.0	030_smiling	0.0	242.20086625769545	
37.0	218.50197608056533	fix	1.0		444	24.0	female	east_asian	4.409868682849185	smiling	030	sub-04	1.0	5.0	030_smiling	0.0	242.30909504173178	3.7665315069616554
37.0	219.0937431611428	pulse	1.0	t		24.0	female	east_asian	4.409868682849185	smiling	030	sub-04	1.0	5.0	030_smiling	0.0	242.90086212230926	
37.0	219.79371970716602	pulse	1.0	t		24.0	female	east_asian	4.409868682849185	smiling	030	sub-04	1.0	5.0	030_smiling	0.0	243.60083866833247	
37.0	220.49369081983514	pulse	1.0	t		24.0	female	east_asian	4.409868682849185	smiling	030	sub-04	1.0	5.0	030_smiling	0.0	244.3008097810016	
37.0	221.19366978068228	pulse	1.0	t		24.0	female	east_asian	4.409868682849185	smiling	030	sub-04	1.0	5.0	030_smiling	0.0	245.00078874184874	
37.0	221.89364904338254	pulse	1.0	t		24.0	female	east_asian	4.409868682849185	smiling	030	sub-04	1.0	5.0	030_smiling	0.0	245.700768004549	
38.0	222.26850758752698	face	0.0		145	21.0	male	black	2.969757262236371	neutral	137	sub-04	1.0	5.0	137_neutral	0.0	246.07562654869344	1.2333311499305637
38.0	222.59366392473476	pulse	0.0	t		21.0	male	black	2.969757262236371	neutral	137	sub-04	1.0	5.0	137_neutral	0.0	246.4007828859012	
38.0	223.29362537810812	pulse	0.0	t		21.0	male	black	2.969757262236371	neutral	137	sub-04	1.0	5.0	137_neutral	0.0	247.10074433927457	
38.0	223.50183873745755	fix	1.0		444	21.0	male	black	2.969757262236371	neutral	137	sub-04	1.0	5.0	137_neutral	0.0	247.308957698624	3.7665517311115764
38.0	223.99359769818966	pulse	1.0	t		21.0	male	black	2.969757262236371	neutral	137	sub-04	1.0	5.0	137_neutral	0.0	247.8007166593561	
38.0	224.69358088497847	pulse	1.0	t		21.0	male	black	2.969757262236371	neutral	137	sub-04	1.0	5.0	137_neutral	0.0	248.50069984614493	
38.0	225.39355139394138	pulse	1.0	t		21.0	male	black	2.969757262236371	neutral	137	sub-04	1.0	5.0	137_neutral	0.0	249.20067035510783	
38.0	226.09353156220095	pulse	1.0	t		21.0	male	black	2.969757262236371	neutral	137	sub-04	1.0	5.0	137_neutral	0.0	249.9006505233674	
38.0	226.79354010463976	pulse	1.0	t		21.0	male	black	2.969757262236371	neutral	137	sub-04	1.0	5.0	137_neutral	0.0	250.6006590658062	
39.0	227.26839046856912	face	0.0		145	27.0	female	white	3.504576203740549	smiling	144	sub-04	1.0	5.0	144_smiling	0.0	251.07550942973558	1.2333133406036723
39.0	227.49350095430782	pulse	0.0	t		27.0	female	white	3.504576203740549	smiling	144	sub-04	1.0	5.0	144_smiling	0.0	251.30061991547427	
39.0	228.19349349853928	pulse	0.0	t		27.0	female	white	3.504576203740549	smiling	144	sub-04	1.0	5.0	144_smiling	0.0	252.00061245970574	
39.0	228.5017038091728	fix	1.0		444	27.0	female	white	3.504576203740549	smiling	144	sub-04	1.0	5.0	144_smiling	0.0	252.30882277033925	3.7499015204639363
39.0	228.89346280009067	pulse	1.0	t		27.0	female	white	3.504576203740549	smiling	144	sub-04	1.0	5.0	144_smiling	0.0	252.70058176125713	
39.0	229.593447194291	pulse	1.0	t		27.0	female	white	3.504576203740549	smiling	144	sub-04	1.0	5.0	144_smiling	0.0	253.40056615545745	
39.0	230.29340955322368	pulse	1.0	t		27.0	female	white	3.504576203740549	smiling	144	sub-04	1.0	5.0	144_smiling	0.0	254.10052851439013	
39.0	230.99340270116136	pulse	1.0	t		27.0	female	white	3.504576203740549	smiling	144	sub-04	1.0	5.0	144_smiling	0.0	254.8005216623278	
39.0	231.69339766021676	pulse	1.0	t		27.0	female	white	3.504576203740549	smiling	144	sub-04	1.0	5.0	144_smiling	0.0	255.5005166213832	
40.0	232.25160532963673	fix	0.0		720												256.0587242908032	5.999836999388208
40.0	232.393389600742	pulse	0.0	t													256.20050856190846	
40.0	233.0933905968568	pulse	0.0	t													256.90050955802326	
40.0	233.79334540946456	pulse	0.0	t													257.600464370631	
40.0	234.4933104850743	pulse	0.0	t													258.30042944624074	
40.0	235.19329518112772	pulse	0.0	t													259.0004141422942	
40.0	235.89328923462472	pulse	0.0	t													259.70040819579117	
40.0	236.5932579324699	pulse	0.0	t													260.40037689363635	
40.0	237.29324202481712	pulse	0.0	t													261.10036098598357	
40.0	237.99322008010586	pulse	0.0	t													261.8003390412723	
