trial_nr	onset	event_type	phase	response	nr_frames	face_age	face_sex	face_eth	attractiveness	expression	face_id	sub_id	ses	run	trial_type	catch	onset_abs	duration
-1.0	0.05401146015174163	fix	0.0		714												18.91156522544952	5.965759910361157
-1.0	0.7033548846302438	pulse	0.0	t													19.560908649928024	
-1.0	1.4033314306543616	pulse	0.0	t													20.26088519595214	
-1.0	2.103310995207721	pulse	0.0	t													20.9608647605055	
-1.0	2.803291163465474	pulse	0.0	t													21.660844928763254	
-1.0	3.5032686150480004	pulse	0.0	t													22.36082238034578	
-1.0	4.203265083368024	pulse	0.0	t													23.060818848665804	
-1.0	4.903232875654794	pulse	0.0	t													23.760786640952574	
-1.0	5.603216364295804	pulse	0.0	t													24.460770129593584	
0.0	6.019771370512899	face	0.0		144	24.0	female	east_asian	4.409868682849185	smiling	030	sub-05	1.0	5.0	030_smiling	0.0	24.87732513581068	1.2332888905129948
0.0	6.30321494558666	pulse	0.0	t		24.0	female	east_asian	4.409868682849185	smiling	030	sub-05	1.0	5.0	030_smiling	0.0	25.16076871088444	
0.0	7.003184850844264	pulse	0.0	t		24.0	female	east_asian	4.409868682849185	smiling	030	sub-05	1.0	5.0	030_smiling	0.0	25.860738616142044	
0.0	7.253060261025894	fix	1.0		444	24.0	female	east_asian	4.409868682849185	smiling	030	sub-05	1.0	5.0	030_smiling	0.0	26.110614026323674	3.758217570197303
0.0	7.703178904341257	pulse	1.0	t		24.0	female	east_asian	4.409868682849185	smiling	030	sub-05	1.0	5.0	030_smiling	0.0	26.560732669639037	
0.0	8.403147602186436	pulse	1.0	t		24.0	female	east_asian	4.409868682849185	smiling	030	sub-05	1.0	5.0	030_smiling	0.0	27.260701367484216	
0.0	9.103137429739945	pulse	1.0	t		24.0	female	east_asian	4.409868682849185	smiling	030	sub-05	1.0	5.0	030_smiling	0.0	27.960691195037725	
0.0	9.803104316468307	pulse	1.0	t		24.0	female	east_asian	4.409868682849185	smiling	030	sub-05	1.0	5.0	030_smiling	0.0	28.660658081766087	
0.0	10.503097766259089	pulse	1.0	t		24.0	female	east_asian	4.409868682849185	smiling	030	sub-05	1.0	5.0	030_smiling	0.0	29.36065153155687	
1.0	11.011277831223197	face	0.0		146	36.0	female	white	2.7548746518105847	neutral	011	sub-05	1.0	5.0	011_neutral	1.0	29.868831596520977	1.241648105224158
1.0	11.203058314073132	pulse	0.0	t		36.0	female	white	2.7548746518105847	neutral	011	sub-05	1.0	5.0	011_neutral	1.0	30.060612079370912	
1.0	11.903063536130503	pulse	0.0	t		36.0	female	white	2.7548746518105847	neutral	011	sub-05	1.0	5.0	011_neutral	1.0	30.760617301428283	
1.0	12.252925936447355	fix	1.0		236	36.0	female	white	2.7548746518105847	neutral	011	sub-05	1.0	5.0	011_neutral	1.0	31.110479701745135	2.00832510532382
1.0	12.603038874740378	pulse	1.0	t		36.0	female	white	2.7548746518105847	neutral	011	sub-05	1.0	5.0	011_neutral	1.0	31.460592640038158	
1.0	13.30300727073336	pulse	1.0	t		36.0	female	white	2.7548746518105847	neutral	011	sub-05	1.0	5.0	011_neutral	1.0	32.16056103603114	
1.0	14.00300555017202	pulse	1.0	t		36.0	female	white	2.7548746518105847	neutral	011	sub-05	1.0	5.0	011_neutral	1.0	32.8605593154698	
1.0	14.261251041771175	rating	2.0		234	36.0	female	white	2.7548746518105847	neutral	011	sub-05	1.0	5.0	011_neutral	1.0	33.118804807068955	1.9915909795454354
1.0	14.702991453637878	pulse	2.0	t		36.0	female	white	2.7548746518105847	neutral	011	sub-05	1.0	5.0	011_neutral	1.0	33.56054521893566	
1.0	15.40296769780798	pulse	2.0	t		36.0	female	white	2.7548746518105847	neutral	011	sub-05	1.0	5.0	011_neutral	1.0	34.26052146310576	
1.0	15.514498753498629	response	2.0	e		36.0	female	white	2.7548746518105847	neutral	011	sub-05	1.0	5.0	011_neutral	1.0	34.37205251879641	
1.0	16.102934584534523	pulse	2.0	t		36.0	female	white	2.7548746518105847	neutral	011	sub-05	1.0	5.0	011_neutral	1.0	34.9604883498323	
1.0	16.25284202131661	fix	3.0		444	36.0	female	white	2.7548746518105847	neutral	011	sub-05	1.0	5.0	011_neutral	1.0	35.11039578661439	3.7581907052826864
1.0	16.80293165656076	pulse	3.0	t		36.0	female	white	2.7548746518105847	neutral	011	sub-05	1.0	5.0	011_neutral	1.0	35.66048542185854	
1.0	17.50289854328912	pulse	3.0	t		36.0	female	white	2.7548746518105847	neutral	011	sub-05	1.0	5.0	011_neutral	1.0	36.3604523085869	
1.0	18.202881730077934	pulse	3.0	t		36.0	female	white	2.7548746518105847	neutral	011	sub-05	1.0	5.0	011_neutral	1.0	37.060435495375714	
1.0	18.902871859485458	pulse	3.0	t		36.0	female	white	2.7548746518105847	neutral	011	sub-05	1.0	5.0	011_neutral	1.0	37.76042562478324	
1.0	19.60283723694738	pulse	3.0	t		36.0	female	white	2.7548746518105847	neutral	011	sub-05	1.0	5.0	011_neutral	1.0	38.46039100224516	
2.0	20.011032726599296	face	0.0		146	19.0	female	white	4.298846000795861	neutral	100	sub-05	1.0	5.0	100_neutral	0.0	38.86858649189708	1.2416499163409753
2.0	20.302838836767478	pulse	0.0	t		19.0	female	white	4.298846000795861	neutral	100	sub-05	1.0	5.0	100_neutral	0.0	39.16039260206526	
2.0	21.00279878087713	pulse	0.0	t		19.0	female	white	4.298846000795861	neutral	100	sub-05	1.0	5.0	100_neutral	0.0	39.86035254617491	
2.0	21.25268264294027	fix	1.0		444	19.0	female	white	4.298846000795861	neutral	100	sub-05	1.0	5.0	100_neutral	0.0	40.11023640823805	3.758211231286623
2.0	21.70278679731382	pulse	1.0	t		19.0	female	white	4.298846000795861	neutral	100	sub-05	1.0	5.0	100_neutral	0.0	40.5603405626116	
2.0	22.40275851368824	pulse	1.0	t		19.0	female	white	4.298846000795861	neutral	100	sub-05	1.0	5.0	100_neutral	0.0	41.26031227898602	
2.0	23.102740794918645	pulse	1.0	t		19.0	female	white	4.298846000795861	neutral	100	sub-05	1.0	5.0	100_neutral	0.0	41.960294560216425	
2.0	23.80272639653049	pulse	1.0	t		19.0	female	white	4.298846000795861	neutral	100	sub-05	1.0	5.0	100_neutral	0.0	42.66028016182827	
2.0	24.50270264070059	pulse	1.0	t		19.0	female	white	4.298846000795861	neutral	100	sub-05	1.0	5.0	100_neutral	0.0	43.36025640599837	
3.0	25.010893874226895	face	0.0		146	21.0	male	black	2.969757262236371	neutral	137	sub-05	1.0	5.0	137_neutral	1.0	43.868447639524675	1.241668329374079
3.0	25.202699109020614	pulse	0.0	t		21.0	male	black	2.969757262236371	neutral	137	sub-05	1.0	5.0	137_neutral	1.0	44.060252874318394	
3.0	25.90268139025102	pulse	0.0	t		21.0	male	black	2.969757262236371	neutral	137	sub-05	1.0	5.0	137_neutral	1.0	44.7602351555488	
3.0	26.252562203600974	fix	1.0		237	21.0	male	black	2.969757262236371	neutral	137	sub-05	1.0	5.0	137_neutral	1.0	45.110115968898754	1.9999341960483434
3.0	26.602654917744076	pulse	1.0	t		21.0	male	black	2.969757262236371	neutral	137	sub-05	1.0	5.0	137_neutral	1.0	45.460208683041856	
3.0	27.302634482297435	pulse	1.0	t		21.0	male	black	2.969757262236371	neutral	137	sub-05	1.0	5.0	137_neutral	1.0	46.160188247595215	
3.0	28.002587483788375	pulse	1.0	t		21.0	male	black	2.969757262236371	neutral	137	sub-05	1.0	5.0	137_neutral	1.0	46.860141249086155	
3.0	28.252496399649317	rating	2.0		235	21.0	male	black	2.969757262236371	neutral	137	sub-05	1.0	5.0	137_neutral	1.0	47.1100501649471	1.9999450627565238
3.0	28.702616250377105	pulse	2.0	t		21.0	male	black	2.969757262236371	neutral	137	sub-05	1.0	5.0	137_neutral	1.0	47.560170015674885	
3.0	28.960909132894813	response	2.0	b		21.0	male	black	2.969757262236371	neutral	137	sub-05	1.0	5.0	137_neutral	1.0	47.81846289819259	
3.0	29.40257347780971	pulse	2.0	t		21.0	male	black	2.969757262236371	neutral	137	sub-05	1.0	5.0	137_neutral	1.0	48.26012724310749	
3.0	30.102555759038296	pulse	2.0	t		21.0	male	black	2.969757262236371	neutral	137	sub-05	1.0	5.0	137_neutral	1.0	48.960109524336076	
3.0	30.25244146240584	fix	3.0		444	21.0	male	black	2.969757262236371	neutral	137	sub-05	1.0	5.0	137_neutral	1.0	49.10999522770362	3.7582199850221514
3.0	30.802542568062563	pulse	3.0	t		21.0	male	black	2.969757262236371	neutral	137	sub-05	1.0	5.0	137_neutral	1.0	49.66009633336034	
3.0	31.502516699261832	pulse	3.0	t		21.0	male	black	2.969757262236371	neutral	137	sub-05	1.0	5.0	137_neutral	1.0	50.36007046455961	
3.0	32.202506224963145	pulse	3.0	t		21.0	male	black	2.969757262236371	neutral	137	sub-05	1.0	5.0	137_neutral	1.0	51.060059990260925	
3.0	32.902488808047565	pulse	3.0	t		21.0	male	black	2.969757262236371	neutral	137	sub-05	1.0	5.0	137_neutral	1.0	51.760042573345345	
3.0	33.60247682448244	pulse	3.0	t		21.0	male	black	2.969757262236371	neutral	137	sub-05	1.0	5.0	137_neutral	1.0	52.46003058978022	
4.0	34.01066144742799	face	0.0		146	40.0	male	black	2.408674890569041	neutral	061	sub-05	1.0	5.0	061_neutral	0.0	52.86821521272577	1.2416447848409007
4.0	34.302447031594056	pulse	0.0	t		40.0	male	black	2.408674890569041	neutral	061	sub-05	1.0	5.0	061_neutral	0.0	53.160000796891836	
4.0	35.00243384061832	pulse	0.0	t		40.0	male	black	2.408674890569041	neutral	061	sub-05	1.0	5.0	061_neutral	0.0	53.8599876059161	
4.0	35.25230623226889	fix	1.0		444	40.0	male	black	2.408674890569041	neutral	061	sub-05	1.0	5.0	061_neutral	0.0	54.10985999756667	3.7665659182021045
4.0	35.70240284031752	pulse	1.0	t		40.0	male	black	2.408674890569041	neutral	061	sub-05	1.0	5.0	061_neutral	0.0	54.5599566056153	
4.0	36.4023914604586	pulse	1.0	t		40.0	male	black	2.408674890569041	neutral	061	sub-05	1.0	5.0	061_neutral	0.0	55.25994522575638	
4.0	37.10236559165787	pulse	1.0	t		40.0	male	black	2.408674890569041	neutral	061	sub-05	1.0	5.0	061_neutral	0.0	55.95991935695565	
4.0	37.802348778446685	pulse	1.0	t		40.0	male	black	2.408674890569041	neutral	061	sub-05	1.0	5.0	061_neutral	0.0	56.659902543744465	
4.0	38.50232623002921	pulse	1.0	t		40.0	male	black	2.408674890569041	neutral	061	sub-05	1.0	5.0	061_neutral	0.0	57.35987999532699	
5.0	39.018872150471	face	0.0		145	22.0	female	white	4.614007162753682	neutral	009	sub-05	1.0	5.0	009_neutral	0.0	57.87642591576878	1.2332973423963267
5.0	39.20232481132007	pulse	0.0	t		22.0	female	white	4.614007162753682	neutral	009	sub-05	1.0	5.0	009_neutral	0.0	58.05987857661785	
5.0	39.902300753637974	pulse	0.0	t		22.0	female	white	4.614007162753682	neutral	009	sub-05	1.0	5.0	009_neutral	0.0	58.759854518935754	
5.0	40.252169492867324	fix	1.0		444	22.0	female	white	4.614007162753682	neutral	009	sub-05	1.0	5.0	009_neutral	0.0	59.109723258165104	3.758230851728513
5.0	40.60228062004353	pulse	1.0	t		22.0	female	white	4.614007162753682	neutral	009	sub-05	1.0	5.0	009_neutral	0.0	59.45983438534131	
5.0	41.30224901603469	pulse	1.0	t		22.0	female	white	4.614007162753682	neutral	009	sub-05	1.0	5.0	009_neutral	0.0	60.15980278133247	
5.0	42.00223250467752	pulse	1.0	t		22.0	female	white	4.614007162753682	neutral	009	sub-05	1.0	5.0	009_neutral	0.0	60.8597862699753	
5.0	42.702222030378834	pulse	1.0	t		22.0	female	white	4.614007162753682	neutral	009	sub-05	1.0	5.0	009_neutral	0.0	61.559775795676615	
5.0	43.402195256019695	pulse	1.0	t		22.0	female	white	4.614007162753682	neutral	009	sub-05	1.0	5.0	009_neutral	0.0	62.259749021317475	
6.0	44.01040034459584	face	0.0		146	20.0	female	white	3.9502586549940313	smiling	091	sub-05	1.0	5.0	091_smiling	0.0	62.86795410989362	1.2416333144283271
6.0	44.10229646732478	pulse	0.0	t		20.0	female	white	3.9502586549940313	smiling	091	sub-05	1.0	5.0	091_smiling	0.0	62.95985023262256	
6.0	44.80216706294959	pulse	0.0	t		20.0	female	white	3.9502586549940313	smiling	091	sub-05	1.0	5.0	091_smiling	0.0	63.65972082824737	
6.0	45.252033659024164	fix	1.0		444	20.0	female	white	3.9502586549940313	smiling	091	sub-05	1.0	5.0	091_smiling	0.0	64.10958742432194	3.766564107083468
6.0	45.502150249738406	pulse	1.0	t		20.0	female	white	3.9502586549940313	smiling	091	sub-05	1.0	5.0	091_smiling	0.0	64.35970401503619	
6.0	46.20213404023343	pulse	1.0	t		20.0	female	white	3.9502586549940313	smiling	091	sub-05	1.0	5.0	091_smiling	0.0	65.05968780553121	
6.0	46.90211662331603	pulse	1.0	t		20.0	female	white	3.9502586549940313	smiling	091	sub-05	1.0	5.0	091_smiling	0.0	65.75967038861381	
6.0	47.6021031304881	pulse	1.0	t		20.0	female	white	3.9502586549940313	smiling	091	sub-05	1.0	5.0	091_smiling	0.0	66.45965689578588	
6.0	48.30206398015616	pulse	1.0	t		20.0	female	white	3.9502586549940313	smiling	091	sub-05	1.0	5.0	091_smiling	0.0	67.15961774545394	
7.0	49.01859776610763	face	0.0		146	28.0	male	east_asian	1.5563072025467568	neutral	005	sub-05	1.0	5.0	005_neutral	0.0	67.87615153140541	1.2333172646922321
7.0	49.00476776789765	pulse	0.0	t		28.0	male	east_asian	1.5563072025467568	neutral	005	sub-05	1.0	5.0	005_neutral	0.0	67.86232153319543	
7.0	49.702040013029546	pulse	0.0	t		28.0	male	east_asian	1.5563072025467568	neutral	005	sub-05	1.0	5.0	005_neutral	0.0	68.55959377832733	
7.0	50.251915030799864	fix	1.0		443	28.0	male	east_asian	1.5563072025467568	neutral	005	sub-05	1.0	5.0	005_neutral	0.0	69.10946879609764	3.76653422363961
7.0	50.402020483141314	pulse	1.0	t		28.0	male	east_asian	1.5563072025467568	neutral	005	sub-05	1.0	5.0	005_neutral	0.0	69.2595742484391	
7.0	51.10199702916361	pulse	1.0	t		28.0	male	east_asian	1.5563072025467568	neutral	005	sub-05	1.0	5.0	005_neutral	0.0	69.95955079446139	
7.0	51.80196904739205	pulse	1.0	t		28.0	male	east_asian	1.5563072025467568	neutral	005	sub-05	1.0	5.0	005_neutral	0.0	70.65952281268983	
7.0	52.50195464900389	pulse	1.0	t		28.0	male	east_asian	1.5563072025467568	neutral	005	sub-05	1.0	5.0	005_neutral	0.0	71.35950841430167	
7.0	53.20193179873422	pulse	1.0	t		28.0	male	east_asian	1.5563072025467568	neutral	005	sub-05	1.0	5.0	005_neutral	0.0	72.059485564032	
7.0	53.90191468366902	pulse	1.0	t		28.0	male	east_asian	1.5563072025467568	neutral	005	sub-05	1.0	5.0	005_neutral	0.0	72.7594684489668	
8.0	54.018449254439474	face	0.0		146	40.0	female	west_asian	1.5777954635893354	neutral	038	sub-05	1.0	5.0	038_neutral	0.0	72.87600301973725	1.233327829546397
8.0	54.601896059341016	pulse	0.0	t		40.0	female	west_asian	1.5777954635893354	neutral	038	sub-05	1.0	5.0	038_neutral	0.0	73.4594498246388	
8.0	55.25177708398587	fix	1.0		444	40.0	female	west_asian	1.5777954635893354	neutral	038	sub-05	1.0	5.0	038_neutral	0.0	74.10933084928365	3.7665520329646824
8.0	55.30188256651127	pulse	1.0	t		40.0	female	west_asian	1.5777954635893354	neutral	038	sub-05	1.0	5.0	038_neutral	0.0	74.15943633180905	
8.0	56.00186756441872	pulse	1.0	t		40.0	female	west_asian	1.5777954635893354	neutral	038	sub-05	1.0	5.0	038_neutral	0.0	74.8594213297165	
8.0	56.701841091911774	pulse	1.0	t		40.0	female	west_asian	1.5777954635893354	neutral	038	sub-05	1.0	5.0	038_neutral	0.0	75.55939485720955	
8.0	57.40182669352362	pulse	1.0	t		40.0	female	west_asian	1.5777954635893354	neutral	038	sub-05	1.0	5.0	038_neutral	0.0	76.2593804588214	
8.0	58.10180595622478	pulse	1.0	t		40.0	female	west_asian	1.5777954635893354	neutral	038	sub-05	1.0	5.0	038_neutral	0.0	76.95935972152256	
8.0	58.8017840115117	pulse	1.0	t		40.0	female	west_asian	1.5777954635893354	neutral	038	sub-05	1.0	5.0	038_neutral	0.0	77.65933777680948	
9.0	59.018329116950554	face	0.0		145	20.0	male	black	2.609629924393156	neutral	043	sub-05	1.0	5.0	043_neutral	0.0	77.87588288224833	1.233321490635717
9.0	59.501766292742104	pulse	0.0	t		20.0	male	black	2.609629924393156	neutral	043	sub-05	1.0	5.0	043_neutral	0.0	78.35932005803988	
9.0	60.201830979836814	pulse	0.0	t		20.0	male	black	2.609629924393156	neutral	043	sub-05	1.0	5.0	043_neutral	0.0	79.0593847451346	
9.0	60.25165060758627	fix	1.0		444	20.0	male	black	2.609629924393156	neutral	043	sub-05	1.0	5.0	043_neutral	0.0	79.10920437288405	3.7581891960162466
9.0	60.9017242144364	pulse	1.0	t		20.0	male	black	2.609629924393156	neutral	043	sub-05	1.0	5.0	043_neutral	0.0	79.75927797973418	
9.0	61.601711023460666	pulse	1.0	t		20.0	male	black	2.609629924393156	neutral	043	sub-05	1.0	5.0	043_neutral	0.0	80.45926478875845	
9.0	62.3016830416891	pulse	1.0	t		20.0	male	black	2.609629924393156	neutral	043	sub-05	1.0	5.0	043_neutral	0.0	81.15923680698688	
9.0	63.00167075627178	pulse	1.0	t		20.0	male	black	2.609629924393156	neutral	043	sub-05	1.0	5.0	043_neutral	0.0	81.85922452156956	
9.0	63.70164941526673	pulse	1.0	t		20.0	male	black	2.609629924393156	neutral	043	sub-05	1.0	5.0	043_neutral	0.0	82.55920318056451	
10.0	64.00983980360252	face	0.0		146	22.0	male	black	2.767608436132113	smiling	044	sub-05	1.0	5.0	044_smiling	0.0	82.8673935689003	1.2416704423449119
10.0	64.4016307909369	pulse	0.0	t		22.0	male	black	2.767608436132113	smiling	044	sub-05	1.0	5.0	044_smiling	0.0	83.25918455623469	
10.0	65.10161820366739	pulse	0.0	t		22.0	male	black	2.767608436132113	smiling	044	sub-05	1.0	5.0	044_smiling	0.0	83.95917196896517	
10.0	65.25151024594743	fix	1.0		445	22.0	male	black	2.767608436132113	smiling	044	sub-05	1.0	5.0	044_smiling	0.0	84.10906401124521	3.766548108877032
10.0	65.80159807007294	pulse	1.0	t		22.0	male	black	2.767608436132113	smiling	044	sub-05	1.0	5.0	044_smiling	0.0	84.65915183537072	
10.0	66.50156767347835	pulse	1.0	t		22.0	male	black	2.767608436132113	smiling	044	sub-05	1.0	5.0	044_smiling	0.0	85.35912143877613	
10.0	67.20155961400269	pulse	1.0	t		22.0	male	black	2.767608436132113	smiling	044	sub-05	1.0	5.0	044_smiling	0.0	86.05911337930047	
10.0	67.90154431005612	pulse	1.0	t		22.0	male	black	2.767608436132113	smiling	044	sub-05	1.0	5.0	044_smiling	0.0	86.7590980753539	
10.0	68.60152568572812	pulse	1.0	t		22.0	male	black	2.767608436132113	smiling	044	sub-05	1.0	5.0	044_smiling	0.0	87.4590794510259	
11.0	69.01805835482446	face	0.0		145	19.0	female	white	4.298846000795861	smiling	100	sub-05	1.0	5.0	100_smiling	0.0	87.87561212012224	1.2333163591338234
11.0	69.3015134003108	pulse	0.0	t		19.0	female	white	4.298846000795861	smiling	100	sub-05	1.0	5.0	100_smiling	0.0	88.15906716560858	
11.0	70.00147455183287	pulse	0.0	t		19.0	female	white	4.298846000795861	smiling	100	sub-05	1.0	5.0	100_smiling	0.0	88.85902831713065	
11.0	70.25137471395828	fix	1.0		444	19.0	female	white	4.298846000795861	smiling	100	sub-05	1.0	5.0	100_smiling	0.0	89.10892847925606	3.7665632015250594
11.0	70.70147403868214	pulse	1.0	t		19.0	female	white	4.298846000795861	smiling	100	sub-05	1.0	5.0	100_smiling	0.0	89.55902780397992	
11.0	71.40144062355648	pulse	1.0	t		19.0	female	white	4.298846000795861	smiling	100	sub-05	1.0	5.0	100_smiling	0.0	90.25899438885426	
11.0	72.10142894184537	pulse	1.0	t		19.0	female	white	4.298846000795861	smiling	100	sub-05	1.0	5.0	100_smiling	0.0	90.95898270714315	
11.0	72.80139643227994	pulse	1.0	t		19.0	female	white	4.298846000795861	smiling	100	sub-05	1.0	5.0	100_smiling	0.0	91.65895019757772	
11.0	73.50139199504156	pulse	1.0	t		19.0	female	white	4.298846000795861	smiling	100	sub-05	1.0	5.0	100_smiling	0.0	92.35894576033934	
12.0	74.01793791548334	face	0.0		145	21.0	male	east_asian/white	3.501790688420215	smiling	036	sub-05	1.0	5.0	036_smiling	0.0	92.87549168078112	1.2332855701279186
12.0	74.20136884291605	pulse	0.0	t		21.0	male	east_asian/white	3.501790688420215	smiling	036	sub-05	1.0	5.0	036_smiling	0.0	93.05892260821383	
12.0	74.90137225385479	pulse	0.0	t		21.0	male	east_asian/white	3.501790688420215	smiling	036	sub-05	1.0	5.0	036_smiling	0.0	93.75892601915257	
12.0	75.25122348561126	fix	1.0		444	21.0	male	east_asian/white	3.501790688420215	smiling	036	sub-05	1.0	5.0	036_smiling	0.0	94.10877725090904	3.766549618141653
12.0	75.60134004614156	pulse	1.0	t		21.0	male	east_asian/white	3.501790688420215	smiling	036	sub-05	1.0	5.0	036_smiling	0.0	94.45889381143934	
12.0	76.30130602731151	pulse	1.0	t		21.0	male	east_asian/white	3.501790688420215	smiling	036	sub-05	1.0	5.0	036_smiling	0.0	95.15885979260929	
12.0	77.00127955480457	pulse	1.0	t		21.0	male	east_asian/white	3.501790688420215	smiling	036	sub-05	1.0	5.0	036_smiling	0.0	95.85883332010235	
12.0	77.70127330644755	pulse	1.0	t		21.0	male	east_asian/white	3.501790688420215	smiling	036	sub-05	1.0	5.0	036_smiling	0.0	96.55882707174533	
12.0	78.4012534747053	pulse	1.0	t		21.0	male	east_asian/white	3.501790688420215	smiling	036	sub-05	1.0	5.0	036_smiling	0.0	97.25880724000308	
13.0	79.01777310375292	face	0.0		145	26.0	female	white	4.854755272582572	smiling	027	sub-05	1.0	5.0	027_smiling	0.0	97.8753268690507	1.23331666098602
13.0	79.10122911517101	pulse	0.0	t		26.0	female	white	4.854755272582572	smiling	027	sub-05	1.0	5.0	027_smiling	0.0	97.95878288046879	
13.0	79.80121471678285	pulse	0.0	t		26.0	female	white	4.854755272582572	smiling	027	sub-05	1.0	5.0	027_smiling	0.0	98.65876848208063	
13.0	80.25108976473894	fix	1.0		444	26.0	female	white	4.854755272582572	smiling	027	sub-05	1.0	5.0	027_smiling	0.0	99.10864353003672	3.76656078670203
13.0	80.50120303507174	pulse	1.0	t		26.0	female	white	4.854755272582572	smiling	027	sub-05	1.0	5.0	027_smiling	0.0	99.35875680036952	
13.0	81.20118048665427	pulse	1.0	t		26.0	female	white	4.854755272582572	smiling	027	sub-05	1.0	5.0	027_smiling	0.0	100.05873425195205	
13.0	81.90115642897217	pulse	1.0	t		26.0	female	white	4.854755272582572	smiling	027	sub-05	1.0	5.0	027_smiling	0.0	100.75871019426995	
13.0	82.60113659722992	pulse	1.0	t		26.0	female	white	4.854755272582572	smiling	027	sub-05	1.0	5.0	027_smiling	0.0	101.4586903625277	
13.0	83.30109412651473	pulse	1.0	t		26.0	female	white	4.854755272582572	smiling	027	sub-05	1.0	5.0	027_smiling	0.0	102.1586478918125	
14.0	84.01765055144097	face	0.0		146	22.0	male	black	2.767608436132113	neutral	044	sub-05	1.0	5.0	044_neutral	0.0	102.87520431673875	1.2333211887817015
14.0	84.00384741814742	pulse	0.0	t		22.0	male	black	2.767608436132113	neutral	044	sub-05	1.0	5.0	044_neutral	0.0	102.8614011834452	
14.0	84.70109823171515	pulse	0.0	t		22.0	male	black	2.767608436132113	neutral	044	sub-05	1.0	5.0	044_neutral	0.0	103.55865199701293	
14.0	85.25097174022267	fix	1.0		443	22.0	male	black	2.767608436132113	neutral	044	sub-05	1.0	5.0	044_neutral	0.0	104.10852550552045	3.766547505169001
14.0	85.40106904253298	pulse	1.0	t		22.0	male	black	2.767608436132113	neutral	044	sub-05	1.0	5.0	044_neutral	0.0	104.25862280783076	
14.0	86.10105494599702	pulse	1.0	t		22.0	male	black	2.767608436132113	neutral	044	sub-05	1.0	5.0	044_neutral	0.0	104.9586087112948	
14.0	86.80102183272538	pulse	1.0	t		22.0	male	black	2.767608436132113	neutral	044	sub-05	1.0	5.0	044_neutral	0.0	105.65857559802316	
14.0	87.50100743433723	pulse	1.0	t		22.0	male	black	2.767608436132113	neutral	044	sub-05	1.0	5.0	044_neutral	0.0	106.358561199635	
14.0	88.20099756374475	pulse	1.0	t		22.0	male	black	2.767608436132113	neutral	044	sub-05	1.0	5.0	044_neutral	0.0	107.05855132904253	
14.0	88.90098497647523	pulse	1.0	t		22.0	male	black	2.767608436132113	neutral	044	sub-05	1.0	5.0	044_neutral	0.0	107.75853874177301	
15.0	89.01751924539167	face	0.0		146	54.0	female	white	2.286908077994429	neutral	136	sub-05	1.0	5.0	136_neutral	0.0	107.87507301068945	1.2333003609273874
15.0	89.60096454102859	pulse	0.0	t		54.0	female	white	2.286908077994429	neutral	136	sub-05	1.0	5.0	136_neutral	0.0	108.45851830632637	
15.0	90.25081960631906	fix	1.0		443	54.0	female	white	2.286908077994429	neutral	136	sub-05	1.0	5.0	136_neutral	0.0	109.10837337161684	3.766549014433622
15.0	90.3010168521505	pulse	1.0	t		54.0	female	white	2.286908077994429	neutral	136	sub-05	1.0	5.0	136_neutral	0.0	109.15857061744828	
15.0	91.00090827563326	pulse	1.0	t		54.0	female	white	2.286908077994429	neutral	136	sub-05	1.0	5.0	136_neutral	0.0	109.85846204093104	
15.0	91.7009002161576	pulse	1.0	t		54.0	female	white	2.286908077994429	neutral	136	sub-05	1.0	5.0	136_neutral	0.0	110.55845398145539	
15.0	92.40088008256316	pulse	1.0	t		54.0	female	white	2.286908077994429	neutral	136	sub-05	1.0	5.0	136_neutral	0.0	111.25843384786094	
15.0	93.10085964711652	pulse	1.0	t		54.0	female	white	2.286908077994429	neutral	136	sub-05	1.0	5.0	136_neutral	0.0	111.9584134124143	
15.0	93.80083740055125	pulse	1.0	t		54.0	female	white	2.286908077994429	neutral	136	sub-05	1.0	5.0	136_neutral	0.0	112.65839116584903	
16.0	94.01736862075268	face	0.0		145	25.0	female	black	3.858336649423	neutral	126	sub-05	1.0	5.0	126_neutral	1.0	112.87492238605046	1.2333272258420038
16.0	94.5008287373712	pulse	0.0	t		25.0	female	black	3.858336649423	neutral	126	sub-05	1.0	5.0	126_neutral	1.0	113.35838250266897	
16.0	95.20076815547691	pulse	0.0	t		25.0	female	black	3.858336649423	neutral	126	sub-05	1.0	5.0	126_neutral	1.0	114.05832192077469	
16.0	95.25069584659468	fix	1.0		238	25.0	female	black	3.858336649423	neutral	126	sub-05	1.0	5.0	126_neutral	1.0	114.10824961189246	1.999936610873192
16.0	95.90076492564913	pulse	1.0	t		25.0	female	black	3.858336649423	neutral	126	sub-05	1.0	5.0	126_neutral	1.0	114.75831869094691	
16.0	96.60075837543991	pulse	1.0	t		25.0	female	black	3.858336649423	neutral	126	sub-05	1.0	5.0	126_neutral	1.0	115.45831214073769	
16.0	97.25063245746787	rating	2.0		235	25.0	female	black	3.858336649423	neutral	126	sub-05	1.0	5.0	126_neutral	1.0	116.10818622276565	1.9999604572585667
16.0	97.30075665487857	pulse	2.0	t		25.0	female	black	3.858336649423	neutral	126	sub-05	1.0	5.0	126_neutral	1.0	116.15831042017635	
16.0	98.00073863425496	pulse	2.0	t		25.0	female	black	3.858336649423	neutral	126	sub-05	1.0	5.0	126_neutral	1.0	116.85829239955274	
16.0	98.70072453772082	pulse	2.0	t		25.0	female	black	3.858336649423	neutral	126	sub-05	1.0	5.0	126_neutral	1.0	117.5582783030186	
16.0	98.78717191221767	response	2.0	w		25.0	female	black	3.858336649423	neutral	126	sub-05	1.0	5.0	126_neutral	1.0	117.64472567751545	
16.0	99.25059291472644	fix	3.0		443	25.0	female	black	3.858336649423	neutral	126	sub-05	1.0	5.0	126_neutral	1.0	118.10814668002422	3.758232059140937
16.0	99.40070742265561	pulse	3.0	t		25.0	female	black	3.858336649423	neutral	126	sub-05	1.0	5.0	126_neutral	1.0	118.2582611879534	
16.0	100.1006755167964	pulse	3.0	t		25.0	female	black	3.858336649423	neutral	126	sub-05	1.0	5.0	126_neutral	1.0	118.95822928209418	
16.0	100.80066142026226	pulse	3.0	t		25.0	female	black	3.858336649423	neutral	126	sub-05	1.0	5.0	126_neutral	1.0	119.65821518556004	
16.0	101.50066664231781	pulse	3.0	t		25.0	female	black	3.858336649423	neutral	126	sub-05	1.0	5.0	126_neutral	1.0	120.35822040761559	
16.0	102.20061421045466	pulse	3.0	t		25.0	female	black	3.858336649423	neutral	126	sub-05	1.0	5.0	126_neutral	1.0	121.05816797575244	
16.0	102.9005862286831	pulse	3.0	t		25.0	female	black	3.858336649423	neutral	126	sub-05	1.0	5.0	126_neutral	1.0	121.75813999398088	
17.0	103.00882497386738	face	0.0		147	31.0	female	white	2.1822522881018704	neutral	102	sub-05	1.0	5.0	102_neutral	0.0	121.86637873916516	1.2416152032492391
17.0	103.60057998032607	pulse	0.0	t		31.0	female	white	2.1822522881018704	neutral	102	sub-05	1.0	5.0	102_neutral	0.0	122.45813374562385	
17.0	104.25044017711662	fix	1.0		443	31.0	female	white	2.1822522881018704	neutral	102	sub-05	1.0	5.0	102_neutral	0.0	123.1079939424144	3.7665828219687683
17.0	104.3005577337608	pulse	1.0	t		31.0	female	white	2.1822522881018704	neutral	102	sub-05	1.0	5.0	102_neutral	0.0	123.15811149905858	
17.0	105.00052945013704	pulse	1.0	t		31.0	female	white	2.1822522881018704	neutral	102	sub-05	1.0	5.0	102_neutral	0.0	123.85808321543482	
17.0	105.70052622030926	pulse	1.0	t		31.0	female	white	2.1822522881018704	neutral	102	sub-05	1.0	5.0	102_neutral	0.0	124.55807998560704	
17.0	106.40049944595012	pulse	1.0	t		31.0	female	white	2.1822522881018704	neutral	102	sub-05	1.0	5.0	102_neutral	0.0	125.2580532112479	
17.0	107.10050436615347	pulse	1.0	t		31.0	female	white	2.1822522881018704	neutral	102	sub-05	1.0	5.0	102_neutral	0.0	125.95805813145125	
17.0	107.80045585837797	pulse	1.0	t		31.0	female	white	2.1822522881018704	neutral	102	sub-05	1.0	5.0	102_neutral	0.0	126.65800962367575	
18.0	108.01702299908538	face	0.0		145	27.0	female	white	4.181058495821727	smiling	039	sub-05	1.0	5.0	039_smiling	0.0	126.87457676438316	1.2332840608651168
18.0	108.50044357296247	pulse	0.0	t		27.0	female	white	4.181058495821727	smiling	039	sub-05	1.0	5.0	039_smiling	0.0	127.35799733826025	
18.0	109.2004285708681	pulse	0.0	t		27.0	female	white	4.181058495821727	smiling	039	sub-05	1.0	5.0	039_smiling	0.0	128.05798233616588	
18.0	109.2503070599505	fix	1.0		444	27.0	female	white	4.181058495821727	smiling	039	sub-05	1.0	5.0	039_smiling	0.0	128.10786082524828	3.7665647107896802
18.0	109.9004168891588	pulse	1.0	t		27.0	female	white	4.181058495821727	smiling	039	sub-05	1.0	5.0	039_smiling	0.0	128.75797065445659	
18.0	110.60038377588535	pulse	1.0	t		27.0	female	white	4.181058495821727	smiling	039	sub-05	1.0	5.0	039_smiling	0.0	129.45793754118313	
18.0	111.30036484970333	pulse	1.0	t		27.0	female	white	4.181058495821727	smiling	039	sub-05	1.0	5.0	039_smiling	0.0	130.1579186150011	
18.0	112.000339886461	pulse	1.0	t		27.0	female	white	4.181058495821727	smiling	039	sub-05	1.0	5.0	039_smiling	0.0	130.8578936517588	
18.0	112.70033907145807	pulse	1.0	t		27.0	female	white	4.181058495821727	smiling	039	sub-05	1.0	5.0	039_smiling	0.0	131.55789283675585	
19.0	113.01687177074018	face	0.0		145	19.0	male	white	2.243931555909272	smiling	130	sub-05	1.0	5.0	130_smiling	0.0	131.87442553603796	1.2333175665462477
19.0	113.40031259895113	pulse	0.0	t		19.0	male	white	2.243931555909272	smiling	130	sub-05	1.0	5.0	130_smiling	0.0	132.2578663642489	
19.0	114.10032144324396	pulse	0.0	t		19.0	male	white	2.243931555909272	smiling	130	sub-05	1.0	5.0	130_smiling	0.0	132.95787520854174	
19.0	114.25018933728643	fix	1.0		444	19.0	male	white	2.243931555909272	smiling	130	sub-05	1.0	5.0	130_smiling	0.0	133.1077431025842	3.7665472033168044
19.0	114.80028470773686	pulse	1.0	t		19.0	male	white	2.243931555909272	smiling	130	sub-05	1.0	5.0	130_smiling	0.0	133.65783847303464	
19.0	115.50027061120272	pulse	1.0	t		19.0	male	white	2.243931555909272	smiling	130	sub-05	1.0	5.0	130_smiling	0.0	134.3578243765005	
19.0	116.2002269330751	pulse	1.0	t		19.0	male	white	2.243931555909272	smiling	130	sub-05	1.0	5.0	130_smiling	0.0	135.05778069837288	
19.0	116.90020619577444	pulse	1.0	t		19.0	male	white	2.243931555909272	smiling	130	sub-05	1.0	5.0	130_smiling	0.0	135.75775996107222	
19.0	117.60020206038826	pulse	1.0	t		19.0	male	white	2.243931555909272	smiling	130	sub-05	1.0	5.0	130_smiling	0.0	136.45775582568604	
20.0	118.01673654060323	face	0.0		145	31.0	female	west_asian	2.364902506963788	neutral	006	sub-05	1.0	5.0	006_neutral	0.0	136.874290305901	1.2333154535735957
20.0	118.3001807193832	pulse	0.0	t		31.0	female	west_asian	2.364902506963788	neutral	006	sub-05	1.0	5.0	006_neutral	0.0	137.157734484681	
20.0	119.00017084879073	pulse	0.0	t		31.0	female	west_asian	2.364902506963788	neutral	006	sub-05	1.0	5.0	006_neutral	0.0	137.8577246140885	
20.0	119.25005199417683	fix	1.0		444	31.0	female	west_asian	2.364902506963788	neutral	006	sub-05	1.0	5.0	006_neutral	0.0	138.1076057594746	3.766550825554077
20.0	119.7001516207547	pulse	1.0	t		31.0	female	west_asian	2.364902506963788	neutral	006	sub-05	1.0	5.0	006_neutral	0.0	138.55770538605248	
20.0	120.40011367783518	pulse	1.0	t		31.0	female	west_asian	2.364902506963788	neutral	006	sub-05	1.0	5.0	006_neutral	0.0	139.25766744313296	
20.0	121.10013791663005	pulse	1.0	t		31.0	female	west_asian	2.364902506963788	neutral	006	sub-05	1.0	5.0	006_neutral	0.0	139.95769168192783	
20.0	121.8000791458544	pulse	1.0	t		31.0	female	west_asian	2.364902506963788	neutral	006	sub-05	1.0	5.0	006_neutral	0.0	140.65763291115218	
20.0	122.5000692752601	pulse	1.0	t		31.0	female	west_asian	2.364902506963788	neutral	006	sub-05	1.0	5.0	006_neutral	0.0	141.35762304055788	
21.0	123.0166028197309	face	0.0		145	22.0	female	west_asian	3.8205332272184642	smiling	066	sub-05	1.0	5.0	066_smiling	0.0	141.8741565850287	1.233292210894433
21.0	123.2000446138718	pulse	0.0	t		22.0	female	west_asian	3.8205332272184642	smiling	066	sub-05	1.0	5.0	066_smiling	0.0	142.05759837916958	
21.0	123.90003896922099	pulse	0.0	t		22.0	female	west_asian	3.8205332272184642	smiling	066	sub-05	1.0	5.0	066_smiling	0.0	142.75759273451877	
21.0	124.24989503062534	fix	1.0		444	22.0	female	west_asian	3.8205332272184642	smiling	066	sub-05	1.0	5.0	066_smiling	0.0	143.10744879592312	3.7665553533479397
21.0	124.60002064674518	pulse	1.0	t		22.0	female	west_asian	3.8205332272184642	smiling	066	sub-05	1.0	5.0	066_smiling	0.0	143.45757441204296	
21.0	125.29998360938407	pulse	1.0	t		22.0	female	west_asian	3.8205332272184642	smiling	066	sub-05	1.0	5.0	066_smiling	0.0	144.15753737468185	
21.0	125.99996679617288	pulse	1.0	t		22.0	female	west_asian	3.8205332272184642	smiling	066	sub-05	1.0	5.0	066_smiling	0.0	144.85752056147066	
21.0	126.69995300149094	pulse	1.0	t		22.0	female	west_asian	3.8205332272184642	smiling	066	sub-05	1.0	5.0	066_smiling	0.0	145.55750676678872	
21.0	127.39993105677968	pulse	1.0	t		22.0	female	west_asian	3.8205332272184642	smiling	066	sub-05	1.0	5.0	066_smiling	0.0	146.25748482207746	
22.0	128.01645038397328	face	0.0		145	32.0	male	white	2.389176283326701	neutral	092	sub-05	1.0	5.0	092_neutral	0.0	146.87400414927106	1.233334772165108
22.0	128.09992480842266	pulse	0.0	t		32.0	male	white	2.389176283326701	neutral	092	sub-05	1.0	5.0	092_neutral	0.0	146.95747857372044	
22.0	128.79990859891768	pulse	0.0	t		32.0	male	white	2.389176283326701	neutral	092	sub-05	1.0	5.0	092_neutral	0.0	147.65746236421546	
22.0	129.2497851561384	fix	1.0		444	32.0	male	white	2.389176283326701	neutral	092	sub-05	1.0	5.0	092_neutral	0.0	148.10733892143617	3.7665296958439285
22.0	129.49987729676286	pulse	1.0	t		32.0	male	white	2.389176283326701	neutral	092	sub-05	1.0	5.0	092_neutral	0.0	148.35743106206064	
22.0	130.1998496168435	pulse	1.0	t		32.0	male	white	2.389176283326701	neutral	092	sub-05	1.0	5.0	092_neutral	0.0	149.05740338214127	
22.0	130.89983974625102	pulse	1.0	t		32.0	male	white	2.389176283326701	neutral	092	sub-05	1.0	5.0	092_neutral	0.0	149.7573935115488	
22.0	131.59981206633165	pulse	1.0	t		32.0	male	white	2.389176283326701	neutral	092	sub-05	1.0	5.0	092_neutral	0.0	150.45736583162943	
22.0	132.29978951791418	pulse	1.0	t		32.0	male	white	2.389176283326701	neutral	092	sub-05	1.0	5.0	092_neutral	0.0	151.15734328321196	
23.0	133.01631485198232	face	0.0		146	31.0	male	west_asian	1.9538400318344609	neutral	070	sub-05	1.0	5.0	070_neutral	0.0	151.8738686172801	1.2333175665462477
23.0	133.00271878983585	pulse	0.0	t		31.0	male	west_asian	1.9538400318344609	neutral	070	sub-05	1.0	5.0	070_neutral	0.0	151.86027255513363	
23.0	133.69976524893536	pulse	0.0	t		31.0	male	west_asian	1.9538400318344609	neutral	070	sub-05	1.0	5.0	070_neutral	0.0	152.55731901423314	
23.0	134.24963241852856	fix	1.0		1184	31.0	male	west_asian	1.9538400318344609	neutral	070	sub-05	1.0	5.0	070_neutral	0.0	153.10718618382634	10.008105960056128
23.0	134.39974541719312	pulse	1.0	t		31.0	male	west_asian	1.9538400318344609	neutral	070	sub-05	1.0	5.0	070_neutral	0.0	153.2572991824909	
23.0	135.0997192465402	pulse	1.0	t		31.0	male	west_asian	1.9538400318344609	neutral	070	sub-05	1.0	5.0	070_neutral	0.0	153.95727301183797	
23.0	135.79971148891855	pulse	1.0	t		31.0	male	west_asian	1.9538400318344609	neutral	070	sub-05	1.0	5.0	070_neutral	0.0	154.65726525421633	
23.0	136.4996922608825	pulse	1.0	t		31.0	male	west_asian	1.9538400318344609	neutral	070	sub-05	1.0	5.0	070_neutral	0.0	155.3572460261803	
23.0	137.19967665508375	pulse	1.0	t		31.0	male	west_asian	1.9538400318344609	neutral	070	sub-05	1.0	5.0	070_neutral	0.0	156.05723042038153	
23.0	137.89965984187256	pulse	1.0	t		31.0	male	west_asian	1.9538400318344609	neutral	070	sub-05	1.0	5.0	070_neutral	0.0	156.75721360717034	
23.0	138.59963004898236	pulse	1.0	t		31.0	male	west_asian	1.9538400318344609	neutral	070	sub-05	1.0	5.0	070_neutral	0.0	157.45718381428014	
23.0	139.29960327462322	pulse	1.0	t		31.0	male	west_asian	1.9538400318344609	neutral	070	sub-05	1.0	5.0	070_neutral	0.0	158.157157039921	
23.0	139.99960034664946	pulse	1.0	t		31.0	male	west_asian	1.9538400318344609	neutral	070	sub-05	1.0	5.0	070_neutral	0.0	158.85715411194724	
23.0	140.69957085561146	pulse	1.0	t		31.0	male	west_asian	1.9538400318344609	neutral	070	sub-05	1.0	5.0	070_neutral	0.0	159.55712462090924	
23.0	141.39956370169602	pulse	1.0	t		31.0	male	west_asian	1.9538400318344609	neutral	070	sub-05	1.0	5.0	070_neutral	0.0	160.2571174669938	
23.0	142.09954145513075	pulse	1.0	t		31.0	male	west_asian	1.9538400318344609	neutral	070	sub-05	1.0	5.0	070_neutral	0.0	160.95709522042853	
23.0	142.79950924741752	pulse	1.0	t		31.0	male	west_asian	1.9538400318344609	neutral	070	sub-05	1.0	5.0	070_neutral	0.0	161.6570630127153	
23.0	143.49950511203133	pulse	1.0	t		31.0	male	west_asian	1.9538400318344609	neutral	070	sub-05	1.0	5.0	070_neutral	0.0	162.3570588773291	
23.0	144.19947652655355	pulse	1.0	t		31.0	male	west_asian	1.9538400318344609	neutral	070	sub-05	1.0	5.0	070_neutral	0.0	163.05703029185133	
24.0	144.2577383785847	face	0.0		147	40.0	male	white	1.868682849184242	smiling	172	sub-05	1.0	5.0	172_smiling	0.0	163.11529214388247	1.2416088643367402
24.0	144.89947510784623	pulse	0.0	t		40.0	male	white	1.868682849184242	smiling	172	sub-05	1.0	5.0	172_smiling	0.0	163.757028873144	
24.0	145.49934724292143	fix	1.0		443	40.0	male	white	1.868682849184242	smiling	172	sub-05	1.0	5.0	172_smiling	0.0	164.3569010082192	3.766528790283701
24.0	145.59945195572072	pulse	1.0	t		40.0	male	white	1.868682849184242	smiling	172	sub-05	1.0	5.0	172_smiling	0.0	164.4570057210185	
24.0	146.29941914430128	pulse	1.0	t		40.0	male	white	1.868682849184242	smiling	172	sub-05	1.0	5.0	172_smiling	0.0	165.15697290959906	
24.0	146.99940534962116	pulse	1.0	t		40.0	male	white	1.868682849184242	smiling	172	sub-05	1.0	5.0	172_smiling	0.0	165.85695911491894	
24.0	147.69939608273307	pulse	1.0	t		40.0	male	white	1.868682849184242	smiling	172	sub-05	1.0	5.0	172_smiling	0.0	166.55694984803085	
24.0	148.39936840281553	pulse	1.0	t		40.0	male	white	1.868682849184242	smiling	172	sub-05	1.0	5.0	172_smiling	0.0	167.2569221681133	
24.0	149.09935460813358	pulse	1.0	t		40.0	male	white	1.868682849184242	smiling	172	sub-05	1.0	5.0	172_smiling	0.0	167.95690837343136	
25.0	149.26587603320513	face	0.0		146	34.0	male	white	2.651014723438122	smiling	121	sub-05	1.0	5.0	121_smiling	0.0	168.1234297985029	1.2333226980481413
25.0	149.79938458213473	pulse	0.0	t		34.0	male	white	2.651014723438122	smiling	121	sub-05	1.0	5.0	121_smiling	0.0	168.65693834743252	
25.0	150.49919873125327	fix	1.0		445	34.0	male	white	2.651014723438122	smiling	121	sub-05	1.0	5.0	121_smiling	0.0	169.35675249655105	3.7748937402029696
25.0	150.50671637984124	pulse	1.0	t		34.0	male	white	2.651014723438122	smiling	121	sub-05	1.0	5.0	121_smiling	0.0	169.36427014513902	
25.0	151.1993029610876	pulse	1.0	t		34.0	male	white	2.651014723438122	smiling	121	sub-05	1.0	5.0	121_smiling	0.0	170.05685672638538	
25.0	151.89927497931603	pulse	1.0	t		34.0	male	white	2.651014723438122	smiling	121	sub-05	1.0	5.0	121_smiling	0.0	170.7568287446138	
25.0	152.59925635498803	pulse	1.0	t		34.0	male	white	2.651014723438122	smiling	121	sub-05	1.0	5.0	121_smiling	0.0	171.4568101202858	
25.0	153.29923652324578	pulse	1.0	t		34.0	male	white	2.651014723438122	smiling	121	sub-05	1.0	5.0	121_smiling	0.0	172.15679028854356	
25.0	153.9992263508011	pulse	1.0	t		34.0	male	white	2.651014723438122	smiling	121	sub-05	1.0	5.0	121_smiling	0.0	172.8567801160989	
26.0	154.27409247145624	face	0.0		145	32.0	male	white	2.389176283326701	smiling	092	sub-05	1.0	5.0	092_smiling	0.0	173.13164623675402	1.2333175665444287
26.0	154.69920712276507	pulse	0.0	t		32.0	male	white	2.389176283326701	smiling	092	sub-05	1.0	5.0	092_smiling	0.0	173.55676088806285	
26.0	155.39918940399548	pulse	0.0	t		32.0	male	white	2.389176283326701	smiling	092	sub-05	1.0	5.0	092_smiling	0.0	174.25674316929326	
26.0	155.50741003800067	fix	1.0		444	32.0	male	white	2.389176283326701	smiling	092	sub-05	1.0	5.0	092_smiling	0.0	174.36496380329845	3.7665465996105922
26.0	156.09915779998846	pulse	1.0	t		32.0	male	white	2.389176283326701	smiling	092	sub-05	1.0	5.0	092_smiling	0.0	174.95671156528624	
26.0	156.7991307237753	pulse	1.0	t		32.0	male	white	2.389176283326701	smiling	092	sub-05	1.0	5.0	092_smiling	0.0	175.6566844890731	
26.0	157.49911813650579	pulse	1.0	t		32.0	male	white	2.389176283326701	smiling	092	sub-05	1.0	5.0	092_smiling	0.0	176.35667190180357	
26.0	158.19910917147172	pulse	1.0	t		32.0	male	white	2.389176283326701	smiling	092	sub-05	1.0	5.0	092_smiling	0.0	177.0566629367695	
26.0	158.8990902452897	pulse	1.0	t		32.0	male	white	2.389176283326701	smiling	092	sub-05	1.0	5.0	092_smiling	0.0	177.75664401058748	
27.0	159.27395663761126	face	0.0		145	28.0	male	white	3.9076800636689217	smiling	033	sub-05	1.0	5.0	033_smiling	0.0	178.13151040290904	1.233302775750417
27.0	159.59907554504935	pulse	0.0	t		28.0	male	white	3.9076800636689217	smiling	033	sub-05	1.0	5.0	033_smiling	0.0	178.45662931034713	
27.0	160.29903911139445	pulse	0.0	t		28.0	male	white	3.9076800636689217	smiling	033	sub-05	1.0	5.0	033_smiling	0.0	179.15659287669223	
27.0	160.50725941336168	fix	1.0		444	28.0	male	white	3.9076800636689217	smiling	033	sub-05	1.0	5.0	033_smiling	0.0	179.36481317865946	3.766555051493924
27.0	160.99902320374167	pulse	1.0	t		28.0	male	white	3.9076800636689217	smiling	033	sub-05	1.0	5.0	033_smiling	0.0	179.85657696903945	
27.0	161.69899914605958	pulse	1.0	t		28.0	male	white	3.9076800636689217	smiling	033	sub-05	1.0	5.0	033_smiling	0.0	180.55655291135736	
27.0	162.3989772013465	pulse	1.0	t		28.0	male	white	3.9076800636689217	smiling	033	sub-05	1.0	5.0	033_smiling	0.0	181.25653096664428	
27.0	163.09897004743107	pulse	1.0	t		28.0	male	white	3.9076800636689217	smiling	033	sub-05	1.0	5.0	033_smiling	0.0	181.95652381272885	
27.0	163.79895746016155	pulse	1.0	t		28.0	male	white	3.9076800636689217	smiling	033	sub-05	1.0	5.0	033_smiling	0.0	182.65651122545933	
28.0	164.2738144648556	face	0.0		145	27.0	male	black	3.5523278949462798	neutral	042	sub-05	1.0	5.0	042_neutral	0.0	183.13136823015338	1.2333112276337488
28.0	164.49894638215665	pulse	0.0	t		27.0	male	black	3.5523278949462798	neutral	042	sub-05	1.0	5.0	042_neutral	0.0	183.35650014745443	
28.0	165.19891719297266	pulse	0.0	t		27.0	male	black	3.5523278949462798	neutral	042	sub-05	1.0	5.0	042_neutral	0.0	184.05647095827044	
28.0	165.50712569248935	fix	1.0		444	27.0	male	black	3.5523278949462798	neutral	042	sub-05	1.0	5.0	042_neutral	0.0	184.36467945778713	3.7665632015250594
28.0	165.89889222973216	pulse	1.0	t		27.0	male	black	3.5523278949462798	neutral	042	sub-05	1.0	5.0	042_neutral	0.0	184.75644599502994	
28.0	166.59893880564778	pulse	1.0	t		27.0	male	black	3.5523278949462798	neutral	042	sub-05	1.0	5.0	042_neutral	0.0	185.45649257094556	
28.0	167.29892138873038	pulse	1.0	t		27.0	male	black	3.5523278949462798	neutral	042	sub-05	1.0	5.0	042_neutral	0.0	186.15647515402816	
28.0	167.99883333821344	pulse	1.0	t		27.0	male	black	3.5523278949462798	neutral	042	sub-05	1.0	5.0	042_neutral	0.0	186.85638710351122	
28.0	168.69881682685627	pulse	1.0	t		27.0	male	black	3.5523278949462798	neutral	042	sub-05	1.0	5.0	042_neutral	0.0	187.55637059215405	
29.0	169.2736888940144	face	0.0		145	34.0	male	white	2.651014723438122	neutral	121	sub-05	1.0	5.0	121_neutral	1.0	188.1312426593122	1.2333181702524598
29.0	169.39881782297016	pulse	0.0	t		34.0	male	white	2.651014723438122	neutral	121	sub-05	1.0	5.0	121_neutral	1.0	188.25637158826794	
29.0	170.09879527455269	pulse	0.0	t		34.0	male	white	2.651014723438122	neutral	121	sub-05	1.0	5.0	121_neutral	1.0	188.95634903985047	
29.0	170.50700706426687	fix	1.0		236	34.0	male	white	2.651014723438122	neutral	121	sub-05	1.0	5.0	121_neutral	1.0	189.36456082956465	1.9999290645482688
29.0	170.79876850019355	pulse	1.0	t		34.0	male	white	2.651014723438122	neutral	121	sub-05	1.0	5.0	121_neutral	1.0	189.65632226549133	
29.0	171.4987480647451	pulse	1.0	t		34.0	male	white	2.651014723438122	neutral	121	sub-05	1.0	5.0	121_neutral	1.0	190.35630183004287	
29.0	172.19871706444428	pulse	1.0	t		34.0	male	white	2.651014723438122	neutral	121	sub-05	1.0	5.0	121_neutral	1.0	191.05627082974206	
29.0	172.50693612881514	rating	2.0		235	34.0	male	white	2.651014723438122	neutral	121	sub-05	1.0	5.0	121_neutral	1.0	191.36448989411292	1.9999444590503117
29.0	172.8987192679706	pulse	2.0	t		34.0	male	white	2.651014723438122	neutral	121	sub-05	1.0	5.0	121_neutral	1.0	191.75627303326837	
29.0	173.5987012473488	pulse	2.0	t		34.0	male	white	2.651014723438122	neutral	121	sub-05	1.0	5.0	121_neutral	1.0	192.45625501264658	
29.0	173.626729504409	response	2.0	e		34.0	male	white	2.651014723438122	neutral	121	sub-05	1.0	5.0	121_neutral	1.0	192.4842832697068	
29.0	174.2986660211045	pulse	2.0	t		34.0	male	white	2.651014723438122	neutral	121	sub-05	1.0	5.0	121_neutral	1.0	193.1562197864023	
29.0	174.50688058786545	fix	3.0		444	34.0	male	white	2.651014723438122	neutral	121	sub-05	1.0	5.0	121_neutral	1.0	193.36443435316323	3.766546901464608
29.0	174.99864618936408	pulse	3.0	t		34.0	male	white	2.651014723438122	neutral	121	sub-05	1.0	5.0	121_neutral	1.0	193.85619995466186	
29.0	175.69864145027168	pulse	3.0	t		34.0	male	white	2.651014723438122	neutral	121	sub-05	1.0	5.0	121_neutral	1.0	194.55619521556946	
29.0	176.39861739258959	pulse	3.0	t		34.0	male	white	2.651014723438122	neutral	121	sub-05	1.0	5.0	121_neutral	1.0	195.25617115788737	
29.0	177.09858367560992	pulse	3.0	t		34.0	male	white	2.651014723438122	neutral	121	sub-05	1.0	5.0	121_neutral	1.0	195.9561374409077	
29.0	177.79858044578395	pulse	3.0	t		34.0	male	white	2.651014723438122	neutral	121	sub-05	1.0	5.0	121_neutral	1.0	196.65613421108173	
30.0	178.27342748933006	face	0.0		145	30.0	female	black	2.7345801830481498	smiling	062	sub-05	1.0	5.0	062_smiling	1.0	197.13098125462784	1.2333293388110178
30.0	178.4985588029249	pulse	0.0	t		30.0	female	black	2.7345801830481498	smiling	062	sub-05	1.0	5.0	062_smiling	1.0	197.35611256822267	
30.0	179.1985431971243	pulse	0.0	t		30.0	female	black	2.7345801830481498	smiling	062	sub-05	1.0	5.0	062_smiling	1.0	198.0560969624221	
30.0	179.50675682814108	fix	1.0		236	30.0	female	black	2.7345801830481498	smiling	062	sub-05	1.0	5.0	062_smiling	1.0	198.36431059343886	1.9999538164938713
30.0	179.89852125241305	pulse	1.0	t		30.0	female	black	2.7345801830481498	smiling	062	sub-05	1.0	5.0	062_smiling	1.0	198.75607501771083	
30.0	180.59851138182057	pulse	1.0	t		30.0	female	black	2.7345801830481498	smiling	062	sub-05	1.0	5.0	062_smiling	1.0	199.45606514711835	
30.0	181.29847253334083	pulse	1.0	t		30.0	female	black	2.7345801830481498	smiling	062	sub-05	1.0	5.0	062_smiling	1.0	200.1560262986386	
30.0	181.50671064463495	rating	2.0		235	30.0	female	black	2.7345801830481498	smiling	062	sub-05	1.0	5.0	062_smiling	1.0	200.36426440993273	1.9999269515774358
30.0	181.9984599460713	pulse	2.0	t		30.0	female	black	2.7345801830481498	smiling	062	sub-05	1.0	5.0	062_smiling	1.0	200.8560137113691	
30.0	182.27650035271654	response	2.0	y		30.0	female	black	2.7345801830481498	smiling	062	sub-05	1.0	5.0	062_smiling	1.0	201.13405411801432	
30.0	182.6984419254477	pulse	2.0	t		30.0	female	black	2.7345801830481498	smiling	062	sub-05	1.0	5.0	062_smiling	1.0	201.55599569074548	
30.0	183.3984555993884	pulse	2.0	t		30.0	female	black	2.7345801830481498	smiling	062	sub-05	1.0	5.0	062_smiling	1.0	202.25600936468618	
30.0	183.50663759621239	fix	3.0		444	30.0	female	black	2.7345801830481498	smiling	062	sub-05	1.0	5.0	062_smiling	1.0	202.36419136151017	3.766563503379075
30.0	184.0984185620273	pulse	3.0	t		30.0	female	black	2.7345801830481498	smiling	062	sub-05	1.0	5.0	062_smiling	1.0	202.95597232732507	
30.0	184.79838061910777	pulse	3.0	t		30.0	female	black	2.7345801830481498	smiling	062	sub-05	1.0	5.0	062_smiling	1.0	203.65593438440555	
30.0	185.4983840300465	pulse	3.0	t		30.0	female	black	2.7345801830481498	smiling	062	sub-05	1.0	5.0	062_smiling	1.0	204.3559377953443	
30.0	186.19835121862707	pulse	3.0	t		30.0	female	black	2.7345801830481498	smiling	062	sub-05	1.0	5.0	062_smiling	1.0	205.05590498392485	
30.0	186.89833259429724	pulse	3.0	t		30.0	female	black	2.7345801830481498	smiling	062	sub-05	1.0	5.0	062_smiling	1.0	205.75588635959502	
31.0	187.27320109959146	face	0.0		145	23.0	male	white	2.6275368085953046	smiling	141	sub-05	1.0	5.0	141_smiling	0.0	206.13075486488924	1.2333018701901892
31.0	187.598313064409	pulse	0.0	t		23.0	male	white	2.6275368085953046	smiling	141	sub-05	1.0	5.0	141_smiling	0.0	206.4558668297068	
31.0	188.29829655305184	pulse	0.0	t		23.0	male	white	2.6275368085953046	smiling	141	sub-05	1.0	5.0	141_smiling	0.0	207.15585031834962	
31.0	188.50650296978165	fix	1.0		444	23.0	male	white	2.6275368085953046	smiling	141	sub-05	1.0	5.0	141_smiling	0.0	207.36405673507943	3.7583195965071354
31.0	188.9982827583699	pulse	1.0	t		23.0	male	white	2.6275368085953046	smiling	141	sub-05	1.0	5.0	141_smiling	0.0	207.85583652366768	
31.0	189.69824813583182	pulse	1.0	t		23.0	male	white	2.6275368085953046	smiling	141	sub-05	1.0	5.0	141_smiling	0.0	208.5558019011296	
31.0	190.39823735968093	pulse	1.0	t		23.0	male	white	2.6275368085953046	smiling	141	sub-05	1.0	5.0	141_smiling	0.0	209.2557911249787	
31.0	191.09820303899687	pulse	1.0	t		23.0	male	white	2.6275368085953046	smiling	141	sub-05	1.0	5.0	141_smiling	0.0	209.95575680429465	
31.0	191.79819075357955	pulse	1.0	t		23.0	male	white	2.6275368085953046	smiling	141	sub-05	1.0	5.0	141_smiling	0.0	210.65574451887733	
32.0	192.26482256628879	face	0.0		146	37.0	male	white	3.898925586947871	neutral	101	sub-05	1.0	5.0	101_neutral	0.0	211.12237633158657	1.2415626808287925
32.0	192.49817877001624	pulse	0.0	t		37.0	male	white	3.898925586947871	neutral	101	sub-05	1.0	5.0	101_neutral	0.0	211.35573253531402	
32.0	193.19816105124664	pulse	0.0	t		37.0	male	white	3.898925586947871	neutral	101	sub-05	1.0	5.0	101_neutral	0.0	212.05571481654442	
32.0	193.50638524711758	fix	1.0		444	37.0	male	white	3.898925586947871	neutral	101	sub-05	1.0	5.0	101_neutral	0.0	212.36393901241536	3.7665290921377164
32.0	193.89813850282735	pulse	1.0	t		37.0	male	white	3.898925586947871	neutral	101	sub-05	1.0	5.0	101_neutral	0.0	212.75569226812513	
32.0	194.5981117284682	pulse	1.0	t		37.0	male	white	3.898925586947871	neutral	101	sub-05	1.0	5.0	101_neutral	0.0	213.455665493766	
32.0	195.29809853749248	pulse	1.0	t		37.0	male	white	3.898925586947871	neutral	101	sub-05	1.0	5.0	101_neutral	0.0	214.15565230279026	
32.0	195.99809198728326	pulse	1.0	t		37.0	male	white	3.898925586947871	neutral	101	sub-05	1.0	5.0	101_neutral	0.0	214.85564575258104	
32.0	196.6980582703054	pulse	1.0	t		37.0	male	white	3.898925586947871	neutral	101	sub-05	1.0	5.0	101_neutral	0.0	215.5556120356032	
33.0	197.2729143392553	face	0.0		145	36.0	female	white	2.7548746518105847	smiling	011	sub-05	1.0	5.0	011_smiling	0.0	216.13046810455307	1.2333359795775323
33.0	197.3980471923005	pulse	0.0	t		36.0	female	white	2.7548746518105847	smiling	011	sub-05	1.0	5.0	011_smiling	0.0	216.2556009575983	
33.0	198.0980288698247	pulse	0.0	t		36.0	female	white	2.7548746518105847	smiling	011	sub-05	1.0	5.0	011_smiling	0.0	216.95558263512248	
33.0	198.50625031883283	fix	1.0		444	36.0	female	white	2.7548746518105847	smiling	011	sub-05	1.0	5.0	011_smiling	0.0	217.3638040841306	3.7582239091116207
33.0	198.79800933993647	pulse	1.0	t		36.0	female	white	2.7548746518105847	smiling	011	sub-05	1.0	5.0	011_smiling	0.0	217.65556310523425	
33.0	199.49798316928172	pulse	1.0	t		36.0	female	white	2.7548746518105847	smiling	011	sub-05	1.0	5.0	011_smiling	0.0	218.3555369345795	
33.0	200.19796062086425	pulse	1.0	t		36.0	female	white	2.7548746518105847	smiling	011	sub-05	1.0	5.0	011_smiling	0.0	219.05551438616203	
33.0	200.89794531691768	pulse	1.0	t		36.0	female	white	2.7548746518105847	smiling	011	sub-05	1.0	5.0	011_smiling	0.0	219.75549908221547	
33.0	201.5979279000003	pulse	1.0	t		36.0	female	white	2.7548746518105847	smiling	011	sub-05	1.0	5.0	011_smiling	0.0	220.45548166529807	
34.0	202.26447422794445	face	0.0		146	24.0	male	white	3.1153999204138483	smiling	012	sub-05	1.0	5.0	012_smiling	0.0	221.12202799324223	1.2416127884243906
34.0	202.29792859426198	pulse	0.0	t		24.0	male	white	3.1153999204138483	smiling	012	sub-05	1.0	5.0	012_smiling	0.0	221.15548235955976	
34.0	202.9978930661655	pulse	0.0	t		24.0	male	white	3.1153999204138483	smiling	012	sub-05	1.0	5.0	012_smiling	0.0	221.85544683146327	
34.0	203.50608701636884	fix	1.0		443	24.0	male	white	3.1153999204138483	smiling	012	sub-05	1.0	5.0	012_smiling	0.0	222.36364078166662	3.7583195965071354
34.0	203.6978753473959	pulse	1.0	t		24.0	male	white	3.1153999204138483	smiling	012	sub-05	1.0	5.0	012_smiling	0.0	222.55542911269367	
34.0	204.3978274433266	pulse	1.0	t		24.0	male	white	3.1153999204138483	smiling	012	sub-05	1.0	5.0	012_smiling	0.0	223.25538120862439	
34.0	205.09784262653193	pulse	1.0	t		24.0	male	white	3.1153999204138483	smiling	012	sub-05	1.0	5.0	012_smiling	0.0	223.9553963918297	
34.0	205.797829133704	pulse	1.0	t		24.0	male	white	3.1153999204138483	smiling	012	sub-05	1.0	5.0	012_smiling	0.0	224.65538289900178	
34.0	206.49779149263668	pulse	1.0	t		24.0	male	white	3.1153999204138483	smiling	012	sub-05	1.0	5.0	012_smiling	0.0	225.35534525793446	
34.0	207.19778584798587	pulse	1.0	t		24.0	male	white	3.1153999204138483	smiling	012	sub-05	1.0	5.0	012_smiling	0.0	226.05533961328365	
35.0	207.26440661287597	face	0.0		147	25.0	female	west_asian	2.6756864305610826	smiling	064	sub-05	1.0	5.0	064_smiling	0.0	226.12196037817375	1.2415744530953816
35.0	207.89778624039536	pulse	0.0	t		25.0	female	west_asian	2.6756864305610826	smiling	064	sub-05	1.0	5.0	064_smiling	0.0	226.75534000569314	
35.0	208.50598106597135	fix	1.0		443	25.0	female	west_asian	2.6756864305610826	smiling	064	sub-05	1.0	5.0	064_smiling	0.0	227.36353483126913	3.7665284884315042
35.0	208.59774829747403	pulse	1.0	t		25.0	female	west_asian	2.6756864305610826	smiling	064	sub-05	1.0	5.0	064_smiling	0.0	227.4553020627718	
35.0	209.29773420093989	pulse	1.0	t		25.0	female	west_asian	2.6756864305610826	smiling	064	sub-05	1.0	5.0	064_smiling	0.0	228.15528796623767	
35.0	209.99771255808082	pulse	1.0	t		25.0	female	west_asian	2.6756864305610826	smiling	064	sub-05	1.0	5.0	064_smiling	0.0	228.8552663233786	
35.0	210.6976930281926	pulse	1.0	t		25.0	female	west_asian	2.6756864305610826	smiling	064	sub-05	1.0	5.0	064_smiling	0.0	229.55524679349037	
35.0	211.39766866865648	pulse	1.0	t		25.0	female	west_asian	2.6756864305610826	smiling	064	sub-05	1.0	5.0	064_smiling	0.0	230.25522243395426	
35.0	212.09765577953476	pulse	1.0	t		25.0	female	west_asian	2.6756864305610826	smiling	064	sub-05	1.0	5.0	064_smiling	0.0	230.95520954483254	
36.0	212.27250955440286	face	0.0		146	27.0	female	white	3.504576203740549	neutral	144	sub-05	1.0	5.0	144_neutral	0.0	231.13006331970064	1.2416725553157448
36.0	212.79763745705895	pulse	0.0	t		27.0	female	white	3.504576203740549	neutral	144	sub-05	1.0	5.0	144_neutral	0.0	231.65519122235673	
36.0	213.49760766416875	pulse	0.0	t		27.0	female	white	3.504576203740549	neutral	144	sub-05	1.0	5.0	144_neutral	0.0	232.35516142946653	
36.0	213.5141821097186	fix	1.0		443	27.0	female	white	3.504576203740549	neutral	144	sub-05	1.0	5.0	144_neutral	0.0	232.37173587501638	3.758193120105716
36.0	214.19760111395954	pulse	1.0	t		27.0	female	white	3.504576203740549	neutral	144	sub-05	1.0	5.0	144_neutral	0.0	233.05515487925732	
36.0	214.89755441730267	pulse	1.0	t		27.0	female	white	3.504576203740549	neutral	144	sub-05	1.0	5.0	144_neutral	0.0	233.75510818260045	
36.0	215.59756537456633	pulse	1.0	t		27.0	female	white	3.504576203740549	neutral	144	sub-05	1.0	5.0	144_neutral	0.0	234.4551191398641	
36.0	216.2980686540468	pulse	1.0	t		27.0	female	white	3.504576203740549	neutral	144	sub-05	1.0	5.0	144_neutral	0.0	235.15562241934458	
36.0	216.9975103165816	pulse	1.0	t		27.0	female	white	3.504576203740549	neutral	144	sub-05	1.0	5.0	144_neutral	0.0	235.8550640818794	
37.0	217.27237522982432	face	0.0		145	30.0	female	black	2.7345801830481498	neutral	062	sub-05	1.0	5.0	062_neutral	0.0	236.1299289951221	1.2333365832837444
37.0	217.69750799231406	pulse	0.0	t		30.0	female	black	2.7345801830481498	neutral	062	sub-05	1.0	5.0	062_neutral	0.0	236.55506175761184	
37.0	218.3974875568656	pulse	0.0	t		30.0	female	black	2.7345801830481498	neutral	062	sub-05	1.0	5.0	062_neutral	0.0	237.25504132216338	
37.0	218.50571181310806	fix	1.0		444	30.0	female	black	2.7345801830481498	neutral	062	sub-05	1.0	5.0	062_neutral	0.0	237.36326557840584	3.7583159742716816
37.0	219.09746531030032	pulse	1.0	t		30.0	female	black	2.7345801830481498	neutral	062	sub-05	1.0	5.0	062_neutral	0.0	237.9550190755981	
37.0	219.79743853594118	pulse	1.0	t		30.0	female	black	2.7345801830481498	neutral	062	sub-05	1.0	5.0	062_neutral	0.0	238.65499230123896	
37.0	220.49743681537984	pulse	1.0	t		30.0	female	black	2.7345801830481498	neutral	062	sub-05	1.0	5.0	062_neutral	0.0	239.35499058067762	
37.0	221.1974049095188	pulse	1.0	t		30.0	female	black	2.7345801830481498	neutral	062	sub-05	1.0	5.0	062_neutral	0.0	240.0549586748166	
37.0	221.89739051113065	pulse	1.0	t		30.0	female	black	2.7345801830481498	neutral	062	sub-05	1.0	5.0	062_neutral	0.0	240.75494427642843	
38.0	222.26402778737975	face	0.0		146	28.0	male	east_asian	1.5563072025467568	smiling	005	sub-05	1.0	5.0	005_smiling	0.0	241.12158155267753	1.2415327973831154
38.0	222.59736705715477	pulse	0.0	t		28.0	male	east_asian	1.5563072025467568	smiling	005	sub-05	1.0	5.0	005_smiling	0.0	241.45492082245255	
38.0	223.2973390753832	pulse	0.0	t		28.0	male	east_asian	1.5563072025467568	smiling	005	sub-05	1.0	5.0	005_smiling	0.0	242.154892840681	
38.0	223.50556058476286	fix	1.0		444	28.0	male	east_asian	1.5563072025467568	smiling	005	sub-05	1.0	5.0	005_smiling	0.0	242.36311435006064	3.7582332665533613
38.0	223.9973282992305	pulse	1.0	t		28.0	male	east_asian	1.5563072025467568	smiling	005	sub-05	1.0	5.0	005_smiling	0.0	242.85488206452828	
38.0	224.6973163156672	pulse	1.0	t		28.0	male	east_asian	1.5563072025467568	smiling	005	sub-05	1.0	5.0	005_smiling	0.0	243.55487008096497	
38.0	225.39728320239556	pulse	1.0	t		28.0	male	east_asian	1.5563072025467568	smiling	005	sub-05	1.0	5.0	005_smiling	0.0	244.25483696769334	
38.0	226.0972817836864	pulse	1.0	t		28.0	male	east_asian	1.5563072025467568	smiling	005	sub-05	1.0	5.0	005_smiling	0.0	244.9548355489842	
38.0	226.79726014082735	pulse	1.0	t		28.0	male	east_asian	1.5563072025467568	smiling	005	sub-05	1.0	5.0	005_smiling	0.0	245.65481390612513	
39.0	227.26379385131622	face	0.0		146	54.0	female	white	2.286908077994429	smiling	136	sub-05	1.0	5.0	136_smiling	0.0	246.121347616614	1.241629994043251
39.0	227.4972463461454	pulse	0.0	t		54.0	female	white	2.286908077994429	smiling	136	sub-05	1.0	5.0	136_smiling	0.0	246.35480011144318	
39.0	228.19721202546134	pulse	0.0	t		54.0	female	white	2.286908077994429	smiling	136	sub-05	1.0	5.0	136_smiling	0.0	247.05476579075912	
39.0	228.50542384535947	fix	1.0		444	54.0	female	white	2.286908077994429	smiling	136	sub-05	1.0	5.0	136_smiling	0.0	247.36297761065725	3.749895785258559
39.0	228.8972097011938	pulse	1.0	t		54.0	female	white	2.286908077994429	smiling	136	sub-05	1.0	5.0	136_smiling	0.0	247.75476346649157	
39.0	229.5971741730973	pulse	1.0	t		54.0	female	white	2.286908077994429	smiling	136	sub-05	1.0	5.0	136_smiling	0.0	248.45472793839508	
39.0	230.29715464320907	pulse	1.0	t		54.0	female	white	2.286908077994429	smiling	136	sub-05	1.0	5.0	136_smiling	0.0	249.15470840850685	
39.0	230.99711488917092	pulse	1.0	t		54.0	female	white	2.286908077994429	smiling	136	sub-05	1.0	5.0	136_smiling	0.0	249.8546686544687	
39.0	231.69712463902215	pulse	1.0	t		54.0	female	white	2.286908077994429	smiling	136	sub-05	1.0	5.0	136_smiling	0.0	250.55467840431993	
40.0	232.25531963061803	fix	0.0		720												251.1128733959158	5.9998714106277475
40.0	232.39712593699005	pulse	0.0	t													251.25467970228783	
40.0	233.0970852773935	pulse	0.0	t													251.95463904269127	
40.0	233.797075104947	pulse	0.0	t													252.65462887024478	
40.0	234.49704168982134	pulse	0.0	t													253.35459545511912	
40.0	235.19700042651857	pulse	0.0	t													254.05455419181635	
40.0	235.8970156097239	pulse	0.0	t													254.75456937502167	
40.0	236.5969909483356	pulse	0.0	t													255.45454471363337	
40.0	237.29697383327039	pulse	0.0	t													256.15452759856817	
40.0	237.9969570200592	pulse	0.0	t													256.854510785357	
