trial_nr	onset	event_type	phase	response	nr_frames	face_age	face_sex	face_eth	attractiveness	expression	face_id	sub_id	ses	run	trial_type	catch	rating_type	onset_abs	duration
-1.0	0.05755428040174593	fix	0.0		714													108.8099798061512	5.966251520575497
-1.0	0.7074542167110849	pulse	0.0	t														109.45987974246054	
-1.0	1.4074291630572588	pulse	0.0	t														110.15985468880672	
-1.0	2.1074095427256907	pulse	0.0	t														110.85983506847515	
-1.0	2.8073835835175487	pulse	0.0	t														111.55980910926701	
-1.0	3.5073576243098614	pulse	0.0	t														112.25978315005932	
-1.0	4.20733468361459	pulse	0.0	t														112.95976020936405	
-1.0	4.907305705894487	pulse	0.0	t														113.65973123164395	
-1.0	5.607299668869018	pulse	0.0	t														114.35972519461848	
0.0	6.023805800977243	face	0.0		144	20.0	male	black	3.1070433744528456	smiling	082	sub-07	1.0	1.0	082_smiling	0.0		114.7762313267267	1.23332407656153
0.0	6.307273709661331	pulse	0.0	t		20.0	male	black	3.1070433744528456	smiling	082	sub-07	1.0	1.0	082_smiling	0.0		115.05969923541079	
0.0	7.007248052304931	pulse	0.0	t		20.0	male	black	3.1070433744528456	smiling	082	sub-07	1.0	1.0	082_smiling	0.0		115.75967357805439	
0.0	7.257129877538773	fix	1.0		445	20.0	male	black	3.1070433744528456	smiling	082	sub-07	1.0	1.0	082_smiling	0.0		116.00955540328823	3.758179414348433
0.0	7.707213943112947	pulse	1.0	t		20.0	male	black	3.1070433744528456	smiling	082	sub-07	1.0	1.0	082_smiling	0.0		116.4596394688624	
0.0	8.407198548699398	pulse	1.0	t		20.0	male	black	3.1070433744528456	smiling	082	sub-07	1.0	1.0	082_smiling	0.0		117.15962407444886	
0.0	9.10717892836783	pulse	1.0	t		20.0	male	black	3.1070433744528456	smiling	082	sub-07	1.0	1.0	082_smiling	0.0		117.85960445411729	
0.0	9.807149648795985	pulse	1.0	t		20.0	male	black	3.1070433744528456	smiling	082	sub-07	1.0	1.0	082_smiling	0.0		118.55957517454544	
0.0	10.507116747009604	pulse	1.0	t		20.0	male	black	3.1070433744528456	smiling	082	sub-07	1.0	1.0	082_smiling	0.0		119.25954227275906	
1.0	11.015309291887206	face	0.0		146	28.0	male	white	3.9076800636689217	smiling	033	sub-07	1.0	1.0	033_smiling	0.0		119.76773481763666	1.2416587933798837
1.0	11.207117350711997	pulse	0.0	t		28.0	male	white	3.9076800636689217	smiling	033	sub-07	1.0	1.0	033_smiling	0.0		119.95954287646146	
1.0	11.90707629894132	pulse	0.0	t		28.0	male	white	3.9076800636689217	smiling	033	sub-07	1.0	1.0	033_smiling	0.0		120.65950182469078	
1.0	12.25696808526709	fix	1.0		445	28.0	male	white	3.9076800636689217	smiling	033	sub-07	1.0	1.0	033_smiling	0.0		121.00939361101655	3.7665262052164508
1.0	12.60706513044488	pulse	1.0	t		28.0	male	white	3.9076800636689217	smiling	033	sub-07	1.0	1.0	033_smiling	0.0		121.35949065619434	
1.0	13.307037963832045	pulse	1.0	t		28.0	male	white	3.9076800636689217	smiling	033	sub-07	1.0	1.0	033_smiling	0.0		122.0594634895815	
1.0	14.00700445834309	pulse	1.0	t		28.0	male	white	3.9076800636689217	smiling	033	sub-07	1.0	1.0	033_smiling	0.0		122.75942998409255	
1.0	14.70698393245766	pulse	1.0	t		28.0	male	white	3.9076800636689217	smiling	033	sub-07	1.0	1.0	033_smiling	0.0		123.45940945820712	
1.0	15.406960086208528	pulse	1.0	t		28.0	male	white	3.9076800636689217	smiling	033	sub-07	1.0	1.0	033_smiling	0.0		124.15938561195799	
2.0	16.02349429048354	face	0.0		145	36.0	female	white	2.7548746518105847	smiling	011	sub-07	1.0	1.0	011_smiling	0.0		124.775919816233	1.2333071728912728
2.0	16.10694982326595	pulse	0.0	t		36.0	female	white	2.7548746518105847	smiling	011	sub-07	1.0	1.0	011_smiling	0.0		124.85937534901541	
2.0	16.806928995529688	pulse	0.0	t		36.0	female	white	2.7548746518105847	smiling	011	sub-07	1.0	1.0	011_smiling	0.0		125.55935452127915	
2.0	17.256801463374813	fix	1.0		445	36.0	female	white	2.7548746518105847	smiling	011	sub-07	1.0	1.0	011_smiling	0.0		126.00922698912427	3.758191790249839
2.0	17.50689186782529	pulse	1.0	t		36.0	female	white	2.7548746518105847	smiling	011	sub-07	1.0	1.0	011_smiling	0.0		126.25931739357475	
2.0	18.206884019693007	pulse	1.0	t		36.0	female	white	2.7548746518105847	smiling	011	sub-07	1.0	1.0	011_smiling	0.0		126.95930954544247	
2.0	18.90684296792233	pulse	1.0	t		36.0	female	white	2.7548746518105847	smiling	011	sub-07	1.0	1.0	011_smiling	0.0		127.65926849367179	
2.0	19.60686289010482	pulse	1.0	t		36.0	female	white	2.7548746518105847	smiling	011	sub-07	1.0	1.0	011_smiling	0.0		128.35928841585428	
2.0	20.306814895755906	pulse	1.0	t		36.0	female	white	2.7548746518105847	smiling	011	sub-07	1.0	1.0	011_smiling	0.0		129.05924042150536	
3.0	21.014993253624652	face	0.0		147	54.0	female	white	2.286908077994429	neutral	136	sub-07	1.0	1.0	136_neutral	0.0		129.7674187793741	1.2416476248831714
3.0	21.00880017145164	pulse	0.0	t		54.0	female	white	2.286908077994429	neutral	136	sub-07	1.0	1.0	136_neutral	0.0		129.7612256972011	
3.0	21.70675814771994	pulse	0.0	t		54.0	female	white	2.286908077994429	neutral	136	sub-07	1.0	1.0	136_neutral	0.0		130.4591836734694	
3.0	22.256640878507824	fix	1.0		444	54.0	female	white	2.286908077994429	neutral	136	sub-07	1.0	1.0	136_neutral	0.0		131.00906640425728	3.758315549263898
3.0	22.406742753305934	pulse	1.0	t		54.0	female	white	2.286908077994429	neutral	136	sub-07	1.0	1.0	136_neutral	0.0		131.1591682790554	
3.0	23.106710455222128	pulse	1.0	t		54.0	female	white	2.286908077994429	neutral	136	sub-07	1.0	1.0	136_neutral	0.0		131.8591359809716	
3.0	23.806694758956837	pulse	1.0	t		54.0	female	white	2.286908077994429	neutral	136	sub-07	1.0	1.0	136_neutral	0.0		132.5591202847063	
3.0	24.50666789419529	pulse	1.0	t		54.0	female	white	2.286908077994429	neutral	136	sub-07	1.0	1.0	136_neutral	0.0		133.25909341994475	
3.0	25.20664102943374	pulse	1.0	t		54.0	female	white	2.286908077994429	neutral	136	sub-07	1.0	1.0	136_neutral	0.0		133.9590665551832	
3.0	25.906617183184608	pulse	1.0	t		54.0	female	white	2.286908077994429	neutral	136	sub-07	1.0	1.0	136_neutral	0.0		134.65904270893407	
4.0	26.014956427771722	face	0.0		147	30.0	female	black	2.7345801830481498	neutral	062	sub-07	1.0	1.0	062_neutral	0.0		134.76738195352118	1.2414985103637264
4.0	26.606597864704327	pulse	0.0	t		30.0	female	black	2.7345801830481498	neutral	062	sub-07	1.0	1.0	062_neutral	0.0		135.35902339045379	
4.0	27.256454938135448	fix	1.0		445	30.0	female	black	2.7345801830481498	neutral	062	sub-07	1.0	1.0	062_neutral	0.0		136.0088804638849	3.7582947215273634
4.0	27.30657552771163	pulse	1.0	t		30.0	female	black	2.7345801830481498	neutral	062	sub-07	1.0	1.0	062_neutral	0.0		136.0590010534611	
4.0	28.00656888698404	pulse	1.0	t		30.0	female	black	2.7345801830481498	neutral	062	sub-07	1.0	1.0	062_neutral	0.0		136.7589944127335	
4.0	28.706534777792058	pulse	1.0	t		30.0	female	black	2.7345801830481498	neutral	062	sub-07	1.0	1.0	062_neutral	0.0		137.45896030354152	
4.0	29.406514855609657	pulse	1.0	t		30.0	female	black	2.7345801830481498	neutral	062	sub-07	1.0	1.0	062_neutral	0.0		138.15894038135912	
4.0	30.106479237161693	pulse	1.0	t		30.0	female	black	2.7345801830481498	neutral	062	sub-07	1.0	1.0	062_neutral	0.0		138.85890476291115	
4.0	30.806446637226145	pulse	1.0	t		30.0	female	black	2.7345801830481498	neutral	062	sub-07	1.0	1.0	062_neutral	0.0		139.5588721629756	
5.0	31.01474965966281	face	0.0		146	54.0	female	white	2.286908077994429	smiling	136	sub-07	1.0	1.0	136_smiling	0.0		139.76717518541227	1.2415507306309337
5.0	31.506441505754992	pulse	0.0	t		54.0	female	white	2.286908077994429	smiling	136	sub-07	1.0	1.0	136_smiling	0.0		140.25886703150445	
5.0	32.20641071692717	pulse	0.0	t		54.0	female	white	2.286908077994429	smiling	136	sub-07	1.0	1.0	136_smiling	0.0		140.95883624267663	
5.0	32.256300390293745	fix	1.0		445	54.0	female	white	2.286908077994429	smiling	136	sub-07	1.0	1.0	136_smiling	0.0		141.0087259160432	3.7582563864179974
5.0	32.90639592621528	pulse	1.0	t		54.0	female	white	2.286908077994429	smiling	136	sub-07	1.0	1.0	136_smiling	0.0		141.65882145196474	
5.0	33.606367250346466	pulse	1.0	t		54.0	female	white	2.286908077994429	smiling	136	sub-07	1.0	1.0	136_smiling	0.0		142.35879277609592	
5.0	34.30635396889102	pulse	1.0	t		54.0	female	white	2.286908077994429	smiling	136	sub-07	1.0	1.0	136_smiling	0.0		143.05877949464048	
5.0	35.006408905819626	pulse	1.0	t		54.0	female	white	2.286908077994429	smiling	136	sub-07	1.0	1.0	136_smiling	0.0		143.75883443156908	
5.0	35.70630959675691	pulse	1.0	t		54.0	female	white	2.286908077994429	smiling	136	sub-07	1.0	1.0	136_smiling	0.0		144.45873512250637	
6.0	36.01455677671174	face	0.0		146	24.0	male	white	3.1153999204138483	neutral	012	sub-07	1.0	1.0	012_neutral	0.0		144.7669823024612	1.2415848398222806
6.0	36.40629873011176	pulse	0.0	t		24.0	male	white	3.1153999204138483	neutral	012	sub-07	1.0	1.0	012_neutral	0.0		145.15872425586122	
6.0	37.10628967457433	pulse	0.0	t		24.0	male	white	3.1153999204138483	neutral	012	sub-07	1.0	1.0	012_neutral	0.0		145.8587152003238	
6.0	37.25614161653402	fix	1.0		445	24.0	male	white	3.1153999204138483	neutral	012	sub-07	1.0	1.0	012_neutral	0.0		146.00856714228348	3.758258801228294
6.0	37.80624379318351	pulse	1.0	t		24.0	male	white	3.1153999204138483	neutral	012	sub-07	1.0	1.0	012_neutral	0.0		146.55866931893297	
6.0	38.5062127025044	pulse	1.0	t		24.0	male	white	3.1153999204138483	neutral	012	sub-07	1.0	1.0	012_neutral	0.0		147.25863822825386	
6.0	39.20619308217283	pulse	1.0	t		24.0	male	white	3.1153999204138483	neutral	012	sub-07	1.0	1.0	012_neutral	0.0		147.9586186079223	
6.0	39.906170745180134	pulse	1.0	t		24.0	male	white	3.1153999204138483	neutral	012	sub-07	1.0	1.0	012_neutral	0.0		148.6585962709296	
6.0	40.60613874894716	pulse	1.0	t		24.0	male	white	3.1153999204138483	neutral	012	sub-07	1.0	1.0	012_neutral	0.0		149.35856427469662	
7.0	41.01440041776232	face	0.0		146	24.0	female	east_asian	4.409868682849185	smiling	030	sub-07	1.0	1.0	030_smiling	0.0		149.76682594351178	1.241586650930003
7.0	41.30612244897975	pulse	0.0	t		24.0	female	east_asian	4.409868682849185	smiling	030	sub-07	1.0	1.0	030_smiling	0.0		150.0585479747292	
7.0	42.00610735641703	pulse	0.0	t		24.0	female	east_asian	4.409868682849185	smiling	030	sub-07	1.0	1.0	030_smiling	0.0		150.7585328821665	
7.0	42.25598706869232	fix	1.0		445	24.0	female	east_asian	4.409868682849185	smiling	030	sub-07	1.0	1.0	030_smiling	0.0		151.00841259444178	3.7665171496792027
7.0	42.706082906465326	pulse	1.0	t		24.0	female	east_asian	4.409868682849185	smiling	030	sub-07	1.0	1.0	030_smiling	0.0		151.45850843221478	
7.0	43.40605664540635	pulse	1.0	t		24.0	female	east_asian	4.409868682849185	smiling	030	sub-07	1.0	1.0	030_smiling	0.0		152.1584821711558	
7.0	44.10603038434738	pulse	1.0	t		24.0	female	east_asian	4.409868682849185	smiling	030	sub-07	1.0	1.0	030_smiling	0.0		152.85845591009684	
7.0	44.80601197142096	pulse	1.0	t		24.0	female	east_asian	4.409868682849185	smiling	030	sub-07	1.0	1.0	030_smiling	0.0		153.55843749717042	
7.0	45.505989634427806	pulse	1.0	t		24.0	female	east_asian	4.409868682849185	smiling	030	sub-07	1.0	1.0	030_smiling	0.0		154.25841516017726	
8.0	46.02250421837152	face	0.0		145	21.0	male	east_asian/white	3.501790688420215	neutral	036	sub-07	1.0	1.0	036_neutral	0.0		154.77492974412098	1.233313813618679
8.0	46.20596729743511	pulse	0.0	t		21.0	male	east_asian/white	3.501790688420215	neutral	036	sub-07	1.0	1.0	036_neutral	0.0		154.95839282318457	
8.0	46.90592775492087	pulse	0.0	t		21.0	male	east_asian/white	3.501790688420215	neutral	036	sub-07	1.0	1.0	036_neutral	0.0		155.65835328067033	
8.0	47.2558180319902	fix	1.0		445	21.0	male	east_asian/white	3.501790688420215	neutral	036	sub-07	1.0	1.0	036_neutral	0.0		156.00824355773966	3.758216843903483
8.0	47.60589726794433	pulse	1.0	t		21.0	male	east_asian/white	3.501790688420215	neutral	036	sub-07	1.0	1.0	036_neutral	0.0		156.3583227936938	
8.0	48.305918699383255	pulse	1.0	t		21.0	male	east_asian/white	3.501790688420215	neutral	036	sub-07	1.0	1.0	036_neutral	0.0		157.0583442251327	
8.0	49.005871912439034	pulse	1.0	t		21.0	male	east_asian/white	3.501790688420215	neutral	036	sub-07	1.0	1.0	036_neutral	0.0		157.7582974381885	
8.0	49.7058504810002	pulse	1.0	t		21.0	male	east_asian/white	3.501790688420215	neutral	036	sub-07	1.0	1.0	036_neutral	0.0		158.45827600674966	
8.0	50.40583086066863	pulse	1.0	t		21.0	male	east_asian/white	3.501790688420215	neutral	036	sub-07	1.0	1.0	036_neutral	0.0		159.1582563864181	
9.0	51.014034875893685	face	0.0		146	24.0	female	east_asian	2.9076800636689217	neutral	034	sub-07	1.0	1.0	034_neutral	0.0		159.76646040164314	1.2416274008496657
9.0	51.10581244774221	pulse	0.0	t		24.0	female	east_asian	2.9076800636689217	neutral	034	sub-07	1.0	1.0	034_neutral	0.0		159.85823797349167	
9.0	51.80581335329589	pulse	0.0	t		24.0	female	east_asian	2.9076800636689217	neutral	034	sub-07	1.0	1.0	034_neutral	0.0		160.55823887904535	
9.0	52.25566227674335	fix	1.0		445	24.0	female	east_asian	2.9076800636689217	neutral	034	sub-07	1.0	1.0	034_neutral	0.0		161.0080878024928	3.7665096033974805
9.0	52.505764755243945	pulse	1.0	t		24.0	female	east_asian	2.9076800636689217	neutral	034	sub-07	1.0	1.0	034_neutral	0.0		161.2581902809934	
9.0	53.20572913679598	pulse	1.0	t		24.0	female	east_asian	2.9076800636689217	neutral	034	sub-07	1.0	1.0	034_neutral	0.0		161.95815466254544	
9.0	53.905731551606095	pulse	1.0	t		24.0	female	east_asian	2.9076800636689217	neutral	034	sub-07	1.0	1.0	034_neutral	0.0		162.65815707735555	
9.0	54.60568506651316	pulse	1.0	t		24.0	female	east_asian	2.9076800636689217	neutral	034	sub-07	1.0	1.0	034_neutral	0.0		163.35811059226262	
9.0	55.30567118135514	pulse	1.0	t		24.0	female	east_asian	2.9076800636689217	neutral	034	sub-07	1.0	1.0	034_neutral	0.0		164.0580967071046	
10.0	56.02217188014083	face	0.0		145	22.0	female	west_asian	3.8205332272184642	neutral	066	sub-07	1.0	1.0	066_neutral	1.0	trustworthiness	164.7745974058903	1.2333113988088371
10.0	56.00862177736053	pulse	0.0	t		22.0	female	west_asian	3.8205332272184642	neutral	066	sub-07	1.0	1.0	066_neutral	1.0	trustworthiness	164.76104730311	
10.0	56.70562650736974	pulse	0.0	t		22.0	female	west_asian	3.8205332272184642	neutral	066	sub-07	1.0	1.0	066_neutral	1.0	trustworthiness	165.4580520331192	
10.0	57.25548327894967	fix	1.0		177	22.0	female	west_asian	3.8205332272184642	neutral	066	sub-07	1.0	1.0	066_neutral	1.0	trustworthiness	166.00790880469913	1.5083274723883733
10.0	57.40558515374778	pulse	1.0	t		22.0	female	west_asian	3.8205332272184642	neutral	066	sub-07	1.0	1.0	066_neutral	1.0	trustworthiness	166.15801067949724	
10.0	58.105564627862805	pulse	1.0	t		22.0	female	west_asian	3.8205332272184642	neutral	066	sub-07	1.0	1.0	066_neutral	1.0	trustworthiness	166.85799015361226	
10.0	58.76381075133804	rating	2.0		293	22.0	female	west_asian	3.8205332272184642	neutral	066	sub-07	1.0	1.0	066_neutral	1.0	trustworthiness	167.5162362770875	2.4915424297214486
10.0	58.800359202991785	pulse	2.0	t		22.0	female	west_asian	3.8205332272184642	neutral	066	sub-07	1.0	1.0	066_neutral	1.0	trustworthiness	167.55278472874124	
10.0	59.500303964212435	pulse	2.0	t		22.0	female	west_asian	3.8205332272184642	neutral	066	sub-07	1.0	1.0	066_neutral	1.0	trustworthiness	168.2527294899619	
10.0	60.200299436443856	pulse	2.0	t		22.0	female	west_asian	3.8205332272184642	neutral	066	sub-07	1.0	1.0	066_neutral	1.0	trustworthiness	168.95272496219332	
10.0	60.900274382789576	pulse	2.0	t		22.0	female	west_asian	3.8205332272184642	neutral	066	sub-07	1.0	1.0	066_neutral	1.0	trustworthiness	169.65269990853903	
10.0	61.0971366390072	response	2.0	w		22.0	female	west_asian	3.8205332272184642	neutral	066	sub-07	1.0	1.0	066_neutral	1.0	trustworthiness	169.84956216475666	
10.0	61.25535318105949	fix	3.0		444	22.0	female	west_asian	3.8205332272184642	neutral	066	sub-07	1.0	1.0	066_neutral	1.0	trustworthiness	170.00777870680895	3.7665313366878763
10.0	61.605450829939855	pulse	3.0	t		22.0	female	west_asian	3.8205332272184642	neutral	066	sub-07	1.0	1.0	066_neutral	1.0	trustworthiness	170.3578763556893	
10.0	62.305440868848564	pulse	3.0	t		22.0	female	west_asian	3.8205332272184642	neutral	066	sub-07	1.0	1.0	066_neutral	1.0	trustworthiness	171.05786639459802	
10.0	63.00542034296359	pulse	3.0	t		22.0	female	west_asian	3.8205332272184642	neutral	066	sub-07	1.0	1.0	066_neutral	1.0	trustworthiness	171.75784586871305	
10.0	63.705421550368555	pulse	3.0	t		22.0	female	west_asian	3.8205332272184642	neutral	066	sub-07	1.0	1.0	066_neutral	1.0	trustworthiness	172.45784707611801	
10.0	64.40537506527517	pulse	3.0	t		22.0	female	west_asian	3.8205332272184642	neutral	066	sub-07	1.0	1.0	066_neutral	1.0	trustworthiness	173.15780059102462	
11.0	65.02188451774737	face	0.0		145	24.0	male	white	3.1153999204138483	smiling	012	sub-07	1.0	1.0	012_smiling	0.0		173.77431004349683	1.23329811735357
11.0	65.1053475968115	pulse	0.0	t		24.0	male	white	3.1153999204138483	smiling	012	sub-07	1.0	1.0	012_smiling	0.0		173.85777312256096	
11.0	65.80532948573591	pulse	0.0	t		24.0	male	white	3.1153999204138483	smiling	012	sub-07	1.0	1.0	012_smiling	0.0		174.55775501148537	
11.0	66.25518263510094	fix	1.0		445	24.0	male	white	3.1153999204138483	smiling	012	sub-07	1.0	1.0	012_smiling	0.0		175.0076081608504	3.766551862573124
11.0	66.50530382837951	pulse	1.0	t		24.0	male	white	3.1153999204138483	smiling	012	sub-07	1.0	1.0	012_smiling	0.0		175.25772935412897	
11.0	67.20528632100695	pulse	1.0	t		24.0	male	white	3.1153999204138483	smiling	012	sub-07	1.0	1.0	012_smiling	0.0		175.9577118467564	
11.0	67.90525553217867	pulse	1.0	t		24.0	male	white	3.1153999204138483	smiling	012	sub-07	1.0	1.0	012_smiling	0.0		176.65768105792813	
11.0	68.60523168593	pulse	1.0	t		24.0	male	white	3.1153999204138483	smiling	012	sub-07	1.0	1.0	012_smiling	0.0		177.35765721167945	
11.0	69.30521478225955	pulse	1.0	t		24.0	male	white	3.1153999204138483	smiling	012	sub-07	1.0	1.0	012_smiling	0.0		178.057640308009	
12.0	70.02173449767406	face	0.0		146	24.0	female	east_asian	2.9076800636689217	smiling	034	sub-07	1.0	1.0	034_smiling	0.0		178.77416002342352	1.233292382180025
12.0	70.00791453987313	pulse	0.0	t		24.0	female	east_asian	2.9076800636689217	smiling	034	sub-07	1.0	1.0	034_smiling	0.0		178.7603400656226	
12.0	70.70517342863786	pulse	0.0	t		24.0	female	east_asian	2.9076800636689217	smiling	034	sub-07	1.0	1.0	034_smiling	0.0		179.45759895438732	
12.0	71.25502687985409	fix	1.0		443	24.0	female	east_asian	2.9076800636689217	smiling	034	sub-07	1.0	1.0	034_smiling	0.0		180.00745240560354	3.758188168034849
12.0	71.40515169534774	pulse	1.0	t		24.0	female	east_asian	2.9076800636689217	smiling	034	sub-07	1.0	1.0	034_smiling	0.0		180.1575772210972	
12.0	72.10511396394077	pulse	1.0	t		24.0	female	east_asian	2.9076800636689217	smiling	034	sub-07	1.0	1.0	034_smiling	0.0		180.85753948969023	
12.0	72.80509585286563	pulse	1.0	t		24.0	female	east_asian	2.9076800636689217	smiling	034	sub-07	1.0	1.0	034_smiling	0.0		181.5575213786151	
12.0	73.50507743993921	pulse	1.0	t		24.0	female	east_asian	2.9076800636689217	smiling	034	sub-07	1.0	1.0	034_smiling	0.0		182.25750296568867	
12.0	74.20504212334254	pulse	1.0	t		24.0	female	east_asian	2.9076800636689217	smiling	034	sub-07	1.0	1.0	034_smiling	0.0		182.957467649092	
12.0	74.90502431411869	pulse	1.0	t		24.0	female	east_asian	2.9076800636689217	smiling	034	sub-07	1.0	1.0	034_smiling	0.0		183.65744983986815	
13.0	75.01321504788893	face	0.0		147	37.0	male	white	3.898925586947871	neutral	101	sub-07	1.0	1.0	101_neutral	0.0		183.7656405736384	1.2416639248508545
13.0	75.60499835491055	pulse	0.0	t		37.0	male	white	3.898925586947871	neutral	101	sub-07	1.0	1.0	101_neutral	0.0		184.35742388066	
13.0	76.25487897273979	fix	1.0		444	37.0	male	white	3.898925586947871	neutral	101	sub-07	1.0	1.0	101_neutral	0.0		185.00730449848925	3.758266649360394
13.0	76.30498597900942	pulse	1.0	t		37.0	male	white	3.898925586947871	neutral	101	sub-07	1.0	1.0	101_neutral	0.0		185.05741150475887	
13.0	77.00496454757013	pulse	1.0	t		37.0	male	white	3.898925586947871	neutral	101	sub-07	1.0	1.0	101_neutral	0.0		185.75739007331958	
13.0	77.70493828651115	pulse	1.0	t		37.0	male	white	3.898925586947871	neutral	101	sub-07	1.0	1.0	101_neutral	0.0		186.4573638122606	
13.0	78.40490206436061	pulse	1.0	t		37.0	male	white	3.898925586947871	neutral	101	sub-07	1.0	1.0	101_neutral	0.0		187.15732759011007	
13.0	79.10488365143419	pulse	1.0	t		37.0	male	white	3.898925586947871	neutral	101	sub-07	1.0	1.0	101_neutral	0.0		187.85730917718365	
13.0	79.8048576922265	pulse	1.0	t		37.0	male	white	3.898925586947871	neutral	101	sub-07	1.0	1.0	101_neutral	0.0		188.55728321797596	
14.0	80.01314562210018	face	0.0		146	19.0	male	white	3.2522881018702745	smiling	018	sub-07	1.0	1.0	018_smiling	1.0	dominance	188.76557114784964	1.2415718602187553
14.0	80.50484863668862	pulse	0.0	t		19.0	male	white	3.2522881018702745	smiling	018	sub-07	1.0	1.0	018_smiling	1.0	dominance	189.25727416243808	
14.0	81.20482328118351	pulse	0.0	t		19.0	male	white	3.2522881018702745	smiling	018	sub-07	1.0	1.0	018_smiling	1.0	dominance	189.95724880693297	
14.0	81.25471748231894	fix	1.0		177	19.0	male	white	3.2522881018702745	smiling	018	sub-07	1.0	1.0	018_smiling	1.0	dominance	190.0071430080684	1.499940535303267
14.0	81.90479671827325	pulse	1.0	t		19.0	male	white	3.2522881018702745	smiling	018	sub-07	1.0	1.0	018_smiling	1.0	dominance	190.6572222440227	
14.0	82.60476502389156	pulse	1.0	t		19.0	male	white	3.2522881018702745	smiling	018	sub-07	1.0	1.0	018_smiling	1.0	dominance	191.35719054964102	
14.0	82.7546580176222	rating	2.0		295	19.0	male	white	3.2522881018702745	smiling	018	sub-07	1.0	1.0	018_smiling	1.0	dominance	191.50708354337166	2.499927253847545
14.0	83.2995061713491	pulse	2.0	t		19.0	male	white	3.2522881018702745	smiling	018	sub-07	1.0	1.0	018_smiling	1.0	dominance	192.05193169709855	
14.0	83.99950405839036	pulse	2.0	t		19.0	male	white	3.2522881018702745	smiling	018	sub-07	1.0	1.0	018_smiling	1.0	dominance	192.75192958413982	
14.0	84.69948353250493	pulse	2.0	t		19.0	male	white	3.2522881018702745	smiling	018	sub-07	1.0	1.0	018_smiling	1.0	dominance	193.4519090582544	
14.0	85.14116979434857	response	2.0	w		19.0	male	white	3.2522881018702745	smiling	018	sub-07	1.0	1.0	018_smiling	1.0	dominance	193.89359532009803	
14.0	85.25458527146975	fix	3.0		443	19.0	male	white	3.2522881018702745	smiling	018	sub-07	1.0	1.0	018_smiling	1.0	dominance	194.0070107972192	3.7665301292831828
14.0	85.4046886555243	pulse	3.0	t		19.0	male	white	3.2522881018702745	smiling	018	sub-07	1.0	1.0	018_smiling	1.0	dominance	194.15711418127376	
14.0	86.10465182967118	pulse	3.0	t		19.0	male	white	3.2522881018702745	smiling	018	sub-07	1.0	1.0	018_smiling	1.0	dominance	194.85707735542064	
14.0	86.80463281304264	pulse	3.0	t		19.0	male	white	3.2522881018702745	smiling	018	sub-07	1.0	1.0	018_smiling	1.0	dominance	195.5570583387921	
14.0	87.50462043714106	pulse	3.0	t		19.0	male	white	3.2522881018702745	smiling	018	sub-07	1.0	1.0	018_smiling	1.0	dominance	196.25704596289052	
14.0	88.20458270573408	pulse	3.0	t		19.0	male	white	3.2522881018702745	smiling	018	sub-07	1.0	1.0	018_smiling	1.0	dominance	196.95700823148354	
14.0	88.90456338725426	pulse	3.0	t		19.0	male	white	3.2522881018702745	smiling	018	sub-07	1.0	1.0	018_smiling	1.0	dominance	197.65698891300372	
15.0	89.02111540075293	face	0.0		146	22.0	female	white	4.614007162753682	smiling	009	sub-07	1.0	1.0	009_smiling	0.0		197.7735409265024	1.233308078445134
15.0	89.60455010579881	pulse	0.0	t		22.0	female	white	4.614007162753682	smiling	009	sub-07	1.0	1.0	009_smiling	0.0		198.35697563154827	
15.0	90.25442347919807	fix	1.0		444	22.0	female	white	4.614007162753682	smiling	009	sub-07	1.0	1.0	009_smiling	0.0		199.00684900494753	3.758254575310275
15.0	90.30453078731853	pulse	1.0	t		22.0	female	white	4.614007162753682	smiling	009	sub-07	1.0	1.0	009_smiling	0.0		199.05695631306799	
15.0	91.00451629845838	pulse	1.0	t		22.0	female	white	4.614007162753682	smiling	009	sub-07	1.0	1.0	009_smiling	0.0		199.75694182420784	
15.0	91.70447886890315	pulse	1.0	t		22.0	female	white	4.614007162753682	smiling	009	sub-07	1.0	1.0	009_smiling	0.0		200.4569043946526	
15.0	92.40445109858774	pulse	1.0	t		22.0	female	white	4.614007162753682	smiling	009	sub-07	1.0	1.0	009_smiling	0.0		201.1568766243372	
15.0	93.10444294860372	pulse	1.0	t		22.0	female	white	4.614007162753682	smiling	009	sub-07	1.0	1.0	009_smiling	0.0		201.85686847435318	
15.0	93.80440099127964	pulse	1.0	t		22.0	female	white	4.614007162753682	smiling	009	sub-07	1.0	1.0	009_smiling	0.0		202.5568265170291	
16.0	94.01267805450834	face	0.0		146	19.0	male	white	2.243931555909272	smiling	130	sub-07	1.0	1.0	130_smiling	0.0		202.7651035802578	1.2415615972759042
16.0	94.50439495425462	pulse	0.0	t		19.0	male	white	2.243931555909272	smiling	130	sub-07	1.0	1.0	130_smiling	0.0		203.25682048000408	
16.0	95.20435571359167	pulse	0.0	t		19.0	male	white	2.243931555909272	smiling	130	sub-07	1.0	1.0	130_smiling	0.0		203.95678123934113	
16.0	95.25423965178425	fix	1.0		445	19.0	male	white	2.243931555909272	smiling	130	sub-07	1.0	1.0	130_smiling	0.0		204.0066651775337	3.766549447763282
16.0	95.90434303583879	pulse	1.0	t		19.0	male	white	2.243931555909272	smiling	130	sub-07	1.0	1.0	130_smiling	0.0		204.65676856158825	
16.0	96.60430862479598	pulse	1.0	t		19.0	male	white	2.243931555909272	smiling	130	sub-07	1.0	1.0	130_smiling	0.0		205.35673415054544	
16.0	97.30430349332437	pulse	1.0	t		19.0	male	white	2.243931555909272	smiling	130	sub-07	1.0	1.0	130_smiling	0.0		206.05672901907383	
16.0	98.0042542915703	pulse	1.0	t		19.0	male	white	2.243931555909272	smiling	130	sub-07	1.0	1.0	130_smiling	0.0		206.75667981731976	
16.0	98.70423074717246	pulse	1.0	t		19.0	male	white	2.243931555909272	smiling	130	sub-07	1.0	1.0	130_smiling	0.0		207.45665627292192	
17.0	99.02078909954753	face	0.0		145	31.0	female	west_asian	2.364902506963788	smiling	006	sub-07	1.0	1.0	006_smiling	0.0		207.773214625297	1.233292080328738
17.0	99.40425006565283	pulse	0.0	t		31.0	female	west_asian	2.364902506963788	smiling	006	sub-07	1.0	1.0	006_smiling	0.0		208.1566755914023	
17.0	100.10420599536974	pulse	0.0	t		31.0	female	west_asian	2.364902506963788	smiling	006	sub-07	1.0	1.0	006_smiling	0.0		208.8566315211192	
17.0	100.25408117987627	fix	1.0		444	31.0	female	west_asian	2.364902506963788	smiling	006	sub-07	1.0	1.0	006_smiling	0.0		209.00650670562572	3.7582180513086314
17.0	100.80424765084263	pulse	1.0	t		31.0	female	west_asian	2.364902506963788	smiling	006	sub-07	1.0	1.0	006_smiling	0.0		209.55667317659208	
17.0	101.50415618991292	pulse	1.0	t		31.0	female	west_asian	2.364902506963788	smiling	006	sub-07	1.0	1.0	006_smiling	0.0		210.25658171566238	
17.0	102.20414139920149	pulse	1.0	t		31.0	female	west_asian	2.364902506963788	smiling	006	sub-07	1.0	1.0	006_smiling	0.0		210.95656692495095	
17.0	102.90410668630693	pulse	1.0	t		31.0	female	west_asian	2.364902506963788	smiling	006	sub-07	1.0	1.0	006_smiling	0.0		211.6565322120564	
17.0	103.60409521595966	pulse	1.0	t		31.0	female	west_asian	2.364902506963788	smiling	006	sub-07	1.0	1.0	006_smiling	0.0		212.35652074170912	
18.0	104.0122992311849	face	0.0		146	20.0	male	black	2.609629924393156	smiling	043	sub-07	1.0	1.0	043_smiling	0.0		212.76472475693436	1.2416352489822202
18.0	104.3040662382391	pulse	0.0	t		20.0	male	black	2.609629924393156	smiling	043	sub-07	1.0	1.0	043_smiling	0.0		213.05649176398856	
18.0	105.00405114567639	pulse	0.0	t		20.0	male	black	2.609629924393156	smiling	043	sub-07	1.0	1.0	043_smiling	0.0		213.75647667142584	
18.0	105.25393448016712	fix	1.0		444	20.0	male	black	2.609629924393156	smiling	043	sub-07	1.0	1.0	043_smiling	0.0		214.00636000591658	3.7665156404223126
18.0	105.70401462167456	pulse	1.0	t		20.0	male	black	2.609629924393156	smiling	043	sub-07	1.0	1.0	043_smiling	0.0		214.45644014742402	
18.0	106.40398866246687	pulse	1.0	t		20.0	male	black	2.609629924393156	smiling	043	sub-07	1.0	1.0	043_smiling	0.0		215.15641418821633	
18.0	107.10398353099572	pulse	1.0	t		20.0	male	black	2.609629924393156	smiling	043	sub-07	1.0	1.0	043_smiling	0.0		215.85640905674518	
18.0	107.8039400644152	pulse	1.0	t		20.0	male	black	2.609629924393156	smiling	043	sub-07	1.0	1.0	043_smiling	0.0		216.55636559016466	
18.0	108.50391833112462	pulse	1.0	t		20.0	male	black	2.609629924393156	smiling	043	sub-07	1.0	1.0	043_smiling	0.0		217.25634385687408	
19.0	109.02045012058943	face	0.0		145	26.0	female	white	4.854755272582572	smiling	027	sub-07	1.0	1.0	027_smiling	0.0		217.7728756463389	1.233320756197827
19.0	109.20390625707478	pulse	0.0	t		26.0	female	white	4.854755272582572	smiling	027	sub-07	1.0	1.0	027_smiling	0.0		217.95633178282424	
19.0	109.9038959941322	pulse	0.0	t		26.0	female	white	4.854755272582572	smiling	027	sub-07	1.0	1.0	027_smiling	0.0		218.65632151988166	
19.0	110.25377087678726	fix	1.0		444	26.0	female	white	4.854755272582572	smiling	027	sub-07	1.0	1.0	027_smiling	0.0		219.00619640253672	3.758260914186849
19.0	110.6038712423292	pulse	1.0	t		26.0	female	white	4.854755272582572	smiling	027	sub-07	1.0	1.0	027_smiling	0.0		219.35629676807866	
19.0	111.30384437756766	pulse	1.0	t		26.0	female	white	4.854755272582572	smiling	027	sub-07	1.0	1.0	027_smiling	0.0		220.05626990331712	
19.0	112.00382385168223	pulse	1.0	t		26.0	female	white	4.854755272582572	smiling	027	sub-07	1.0	1.0	027_smiling	0.0		220.7562493774317	
19.0	112.70379276100311	pulse	1.0	t		26.0	female	white	4.854755272582572	smiling	027	sub-07	1.0	1.0	027_smiling	0.0		221.45621828675257	
19.0	113.40376348143172	pulse	1.0	t		26.0	female	white	4.854755272582572	smiling	027	sub-07	1.0	1.0	027_smiling	0.0		222.15618900718118	
20.0	114.0120317909741	face	0.0		146	27.0	female	white	4.181058495821727	neutral	039	sub-07	1.0	1.0	039_neutral	0.0		222.76445731672356	1.2415788027974486
20.0	114.10374778516643	pulse	0.0	t		27.0	female	white	4.181058495821727	neutral	039	sub-07	1.0	1.0	039_neutral	0.0		222.8561733109159	
20.0	114.80372786298358	pulse	0.0	t		27.0	female	white	4.181058495821727	neutral	039	sub-07	1.0	1.0	039_neutral	0.0		223.55615338873304	
20.0	115.25361059377155	fix	1.0		1185	27.0	female	white	4.181058495821727	neutral	039	sub-07	1.0	1.0	039_neutral	0.0		224.006036119521	10.016321700992194
20.0	115.50369737600704	pulse	1.0	t		27.0	female	white	4.181058495821727	neutral	039	sub-07	1.0	1.0	039_neutral	0.0		224.2561229017565	
20.0	116.20367051124549	pulse	1.0	t		27.0	female	white	4.181058495821727	neutral	039	sub-07	1.0	1.0	039_neutral	0.0		224.95609603699495	
20.0	116.90365904089776	pulse	1.0	t		27.0	female	white	4.181058495821727	neutral	039	sub-07	1.0	1.0	039_neutral	0.0		225.65608456664722	
20.0	117.6036382131615	pulse	1.0	t		27.0	female	white	4.181058495821727	neutral	039	sub-07	1.0	1.0	039_neutral	0.0		226.35606373891096	
20.0	118.30359353917584	pulse	1.0	t		27.0	female	white	4.181058495821727	neutral	039	sub-07	1.0	1.0	039_neutral	0.0		227.0560190649253	
20.0	119.00361466876348	pulse	1.0	t		27.0	female	white	4.181058495821727	neutral	039	sub-07	1.0	1.0	039_neutral	0.0		227.75604019451293	
20.0	119.7035724095881	pulse	1.0	t		27.0	female	white	4.181058495821727	neutral	039	sub-07	1.0	1.0	039_neutral	0.0		228.45599793533756	
20.0	120.40354131890899	pulse	1.0	t		27.0	female	white	4.181058495821727	neutral	039	sub-07	1.0	1.0	039_neutral	0.0		229.15596684465845	
20.0	121.10350479490717	pulse	1.0	t		27.0	female	white	4.181058495821727	neutral	039	sub-07	1.0	1.0	039_neutral	0.0		229.85593032065663	
20.0	121.80349845603087	pulse	1.0	t		27.0	female	white	4.181058495821727	neutral	039	sub-07	1.0	1.0	039_neutral	0.0		230.55592398178032	
20.0	122.5034718931206	pulse	1.0	t		27.0	female	white	4.181058495821727	neutral	039	sub-07	1.0	1.0	039_neutral	0.0		231.25589741887006	
20.0	123.20345830981432	pulse	1.0	t		27.0	female	white	4.181058495821727	neutral	039	sub-07	1.0	1.0	039_neutral	0.0		231.95588383556378	
20.0	123.90342721913521	pulse	1.0	t		27.0	female	white	4.181058495821727	neutral	039	sub-07	1.0	1.0	039_neutral	0.0		232.65585274488467	
20.0	124.60338646921582	pulse	1.0	t		27.0	female	white	4.181058495821727	neutral	039	sub-07	1.0	1.0	039_neutral	0.0		233.35581199496528	
21.0	125.26993229476375	face	0.0		145	27.0	female	white	4.181058495821727	smiling	039	sub-07	1.0	1.0	039_smiling	0.0		234.0223578205132	1.233292684031312
21.0	125.30339160068706	pulse	0.0	t		27.0	female	white	4.181058495821727	smiling	039	sub-07	1.0	1.0	039_smiling	0.0		234.05581712643652	
21.0	126.00335718964425	pulse	0.0	t		27.0	female	white	4.181058495821727	smiling	039	sub-07	1.0	1.0	039_smiling	0.0		234.7557827153937	
21.0	126.50322497879506	fix	1.0		443	27.0	female	white	4.181058495821727	smiling	039	sub-07	1.0	1.0	039_smiling	0.0		235.25565050454452	3.758257291971404
21.0	126.70333394709769	pulse	1.0	t		27.0	female	white	4.181058495821727	smiling	039	sub-07	1.0	1.0	039_smiling	0.0		235.45575947284715	
21.0	127.40331553417127	pulse	1.0	t		27.0	female	white	4.181058495821727	smiling	039	sub-07	1.0	1.0	039_smiling	0.0		236.15574105992073	
21.0	128.10327961387202	pulse	1.0	t		27.0	female	white	4.181058495821727	smiling	039	sub-07	1.0	1.0	039_smiling	0.0		236.85570513962148	
21.0	128.8032624083503	pulse	1.0	t		27.0	female	white	4.181058495821727	smiling	039	sub-07	1.0	1.0	039_smiling	0.0		237.55568793409975	
21.0	129.50324520282902	pulse	1.0	t		27.0	female	white	4.181058495821727	smiling	039	sub-07	1.0	1.0	039_smiling	0.0		238.25567072857848	
21.0	130.20341605063868	pulse	1.0	t		27.0	female	white	4.181058495821727	smiling	039	sub-07	1.0	1.0	039_smiling	0.0		238.95584157638814	
22.0	130.26148227076646	face	0.0		147	37.0	male	white	3.898925586947871	smiling	101	sub-07	1.0	1.0	101_smiling	0.0		239.01390779651592	1.2415724639213295
22.0	130.90320626401717	pulse	0.0	t		37.0	male	white	3.898925586947871	smiling	101	sub-07	1.0	1.0	101_smiling	0.0		239.65563178976663	
22.0	131.5030547346878	fix	1.0		443	37.0	male	white	3.898925586947871	smiling	101	sub-07	1.0	1.0	101_smiling	0.0		240.25548026043725	3.7582859678409477
22.0	131.6031866436856	pulse	1.0	t		37.0	male	white	3.898925586947871	smiling	101	sub-07	1.0	1.0	101_smiling	0.0		240.35561216943506	
22.0	132.30314378080766	pulse	1.0	t		37.0	male	white	3.898925586947871	smiling	101	sub-07	1.0	1.0	101_smiling	0.0		241.05556930655712	
22.0	133.00311993455853	pulse	1.0	t		37.0	male	white	3.898925586947871	smiling	101	sub-07	1.0	1.0	101_smiling	0.0		241.75554546030799	
22.0	133.70313653637777	pulse	1.0	t		37.0	male	white	3.898925586947871	smiling	101	sub-07	1.0	1.0	101_smiling	0.0		242.45556206212723	
22.0	134.4030897494331	pulse	1.0	t		37.0	male	white	3.898925586947871	smiling	101	sub-07	1.0	1.0	101_smiling	0.0		243.15551527518255	
22.0	135.10307707168067	pulse	1.0	t		37.0	male	white	3.898925586947871	smiling	101	sub-07	1.0	1.0	101_smiling	0.0		243.85550259743013	
23.0	135.26134070252874	face	0.0		147	32.0	male	white	2.389176283326701	neutral	092	sub-07	1.0	1.0	092_neutral	0.0		244.0137662282782	1.2415588806147753
23.0	135.80303390695144	pulse	0.0	t		32.0	male	white	2.389176283326701	neutral	092	sub-07	1.0	1.0	092_neutral	0.0		244.5554594327009	
23.0	136.50289958314352	fix	1.0		444	32.0	male	white	2.389176283326701	neutral	092	sub-07	1.0	1.0	092_neutral	0.0		245.25532510889298	3.758330641826433
23.0	136.51034232950678	pulse	1.0	t		32.0	male	white	2.389176283326701	neutral	092	sub-07	1.0	1.0	092_neutral	0.0		245.26276785525624	
23.0	137.20299345888316	pulse	1.0	t		32.0	male	white	2.389176283326701	neutral	092	sub-07	1.0	1.0	092_neutral	0.0		245.95541898463262	
23.0	137.9029668959729	pulse	1.0	t		32.0	male	white	2.389176283326701	neutral	092	sub-07	1.0	1.0	092_neutral	0.0		246.65539242172235	
23.0	138.6029469737905	pulse	1.0	t		32.0	male	white	2.389176283326701	neutral	092	sub-07	1.0	1.0	092_neutral	0.0		247.35537249953995	
23.0	139.3029155812601	pulse	1.0	t		32.0	male	white	2.389176283326701	neutral	092	sub-07	1.0	1.0	092_neutral	0.0		248.05534110700955	
23.0	140.00289475352338	pulse	1.0	t		32.0	male	white	2.389176283326701	neutral	092	sub-07	1.0	1.0	092_neutral	0.0		248.75532027927284	
24.0	140.26123022496995	face	0.0		146	20.0	female	white	3.9502586549940313	smiling	091	sub-07	1.0	1.0	091_smiling	0.0		249.0136557507194	1.2415190362489739
24.0	140.70288871649836	pulse	0.0	t		20.0	female	white	3.9502586549940313	smiling	091	sub-07	1.0	1.0	091_smiling	0.0		249.45531424224782	
24.0	141.4028404202977	pulse	0.0	t		20.0	female	white	3.9502586549940313	smiling	091	sub-07	1.0	1.0	091_smiling	0.0		250.15526594604717	
24.0	141.50274926121892	fix	1.0		445	20.0	female	white	3.9502586549940313	smiling	091	sub-07	1.0	1.0	091_smiling	0.0		250.25517478696838	3.7665289218780345
24.0	142.10284766472796	pulse	1.0	t		20.0	female	white	3.9502586549940313	smiling	091	sub-07	1.0	1.0	091_smiling	0.0		250.85527319047742	
24.0	142.80280812221372	pulse	1.0	t		20.0	female	white	3.9502586549940313	smiling	091	sub-07	1.0	1.0	091_smiling	0.0		251.55523364796318	
24.0	143.50277612598074	pulse	1.0	t		20.0	female	white	3.9502586549940313	smiling	091	sub-07	1.0	1.0	091_smiling	0.0		252.2552016517302	
24.0	144.20276707044286	pulse	1.0	t		20.0	female	white	3.9502586549940313	smiling	091	sub-07	1.0	1.0	091_smiling	0.0		252.95519259619232	
24.0	144.90274895936773	pulse	1.0	t		20.0	female	white	3.9502586549940313	smiling	091	sub-07	1.0	1.0	091_smiling	0.0		253.6551744851172	
25.0	145.26927818309696	face	0.0		145	26.0	male	white	2.7966573816155993	neutral	117	sub-07	1.0	1.0	117_neutral	1.0	dominance	254.02170370884642	1.2333071728912728
25.0	145.60271907609376	pulse	0.0	t		26.0	male	white	2.7966573816155993	neutral	117	sub-07	1.0	1.0	117_neutral	1.0	dominance	254.35514460184322	
25.0	146.30269522984463	pulse	0.0	t		26.0	male	white	2.7966573816155993	neutral	117	sub-07	1.0	1.0	117_neutral	1.0	dominance	255.0551207555941	
25.0	146.50258535598823	fix	1.0		177	26.0	male	white	2.7966573816155993	neutral	117	sub-07	1.0	1.0	117_neutral	1.0	dominance	255.2550108817377	1.4999465723280991
25.0	147.00267077989292	pulse	1.0	t		26.0	male	white	2.7966573816155993	neutral	117	sub-07	1.0	1.0	117_neutral	1.0	dominance	255.75509630564238	
25.0	147.70265417807423	pulse	1.0	t		26.0	male	white	2.7966573816155993	neutral	117	sub-07	1.0	1.0	117_neutral	1.0	dominance	256.4550797038237	
25.0	148.00253192831633	rating	2.0		295	26.0	male	white	2.7966573816155993	neutral	117	sub-07	1.0	1.0	117_neutral	1.0	dominance	256.7549574540658	2.4999390260468317
25.0	148.3973793274149	pulse	2.0	t		26.0	male	white	2.7966573816155993	neutral	117	sub-07	1.0	1.0	117_neutral	1.0	dominance	257.14980485316437	
25.0	149.09745448837702	pulse	2.0	t		26.0	male	white	2.7966573816155993	neutral	117	sub-07	1.0	1.0	117_neutral	1.0	dominance	257.8498800141265	
25.0	149.38067216237187	response	2.0	y		26.0	male	white	2.7966573816155993	neutral	117	sub-07	1.0	1.0	117_neutral	1.0	dominance	258.1330976881213	
25.0	149.8025675467643	pulse	2.0	t		26.0	male	white	2.7966573816155993	neutral	117	sub-07	1.0	1.0	117_neutral	1.0	dominance	258.55499307251375	
25.0	150.50247095436316	fix	3.0		443	26.0	male	white	2.7966573816155993	neutral	117	sub-07	1.0	1.0	117_neutral	1.0	dominance	259.2548964801126	3.7582464253264334
25.0	150.5102285315843	pulse	3.0	t		26.0	male	white	2.7966573816155993	neutral	117	sub-07	1.0	1.0	117_neutral	1.0	dominance	259.26265405733375	
25.0	151.20252740054775	pulse	3.0	t		26.0	male	white	2.7966573816155993	neutral	117	sub-07	1.0	1.0	117_neutral	1.0	dominance	259.9549529262972	
25.0	151.90251321353844	pulse	3.0	t		26.0	male	white	2.7966573816155993	neutral	117	sub-07	1.0	1.0	117_neutral	1.0	dominance	260.6549387392879	
25.0	152.6024815191572	pulse	3.0	t		26.0	male	white	2.7966573816155993	neutral	117	sub-07	1.0	1.0	117_neutral	1.0	dominance	261.35490704490667	
25.0	153.30246703029707	pulse	3.0	t		26.0	male	white	2.7966573816155993	neutral	117	sub-07	1.0	1.0	117_neutral	1.0	dominance	262.0548925560465	
25.0	154.00244801366807	pulse	3.0	t		26.0	male	white	2.7966573816155993	neutral	117	sub-07	1.0	1.0	117_neutral	1.0	dominance	262.75487353941753	
26.0	154.2607173796896	face	0.0		146	24.0	female	black	3.0955033824114606	neutral	099	sub-07	1.0	1.0	099_neutral	0.0		263.01314290543905	1.2415733694751907
26.0	154.70243080814635	pulse	0.0	t		24.0	female	black	3.0955033824114606	neutral	099	sub-07	1.0	1.0	099_neutral	0.0		263.4548563338958	
26.0	155.40240152857496	pulse	0.0	t		24.0	female	black	3.0955033824114606	neutral	099	sub-07	1.0	1.0	099_neutral	0.0		264.1548270543244	
26.0	155.50229074916479	fix	1.0		445	24.0	female	black	3.0955033824114606	neutral	099	sub-07	1.0	1.0	099_neutral	0.0		264.25471627491424	3.758191488398097
26.0	156.10238221009467	pulse	1.0	t		24.0	female	black	3.0955033824114606	neutral	099	sub-07	1.0	1.0	099_neutral	0.0		264.85480773584413	
26.0	156.8023592693994	pulse	1.0	t		24.0	female	black	3.0955033824114606	neutral	099	sub-07	1.0	1.0	099_neutral	0.0		265.55478479514886	
26.0	157.50236258976292	pulse	1.0	t		24.0	female	black	3.0955033824114606	neutral	099	sub-07	1.0	1.0	099_neutral	0.0		266.2547881155124	
26.0	158.2022940695283	pulse	1.0	t		24.0	female	black	3.0955033824114606	neutral	099	sub-07	1.0	1.0	099_neutral	0.0		266.95471959527777	
26.0	158.90228893805715	pulse	1.0	t		24.0	female	black	3.0955033824114606	neutral	099	sub-07	1.0	1.0	099_neutral	0.0		267.6547144638066	
27.0	159.26048223756288	face	0.0		146	20.0	male	black	3.1070433744528456	neutral	082	sub-07	1.0	1.0	082_neutral	1.0	attractiveness	268.01290776331234	1.2416491341396068
27.0	159.6022620732956	pulse	0.0	t		20.0	male	black	3.1070433744528456	neutral	082	sub-07	1.0	1.0	082_neutral	1.0	attractiveness	268.35468759904506	
27.0	160.30224184926146	pulse	0.0	t		20.0	male	black	3.1070433744528456	neutral	082	sub-07	1.0	1.0	082_neutral	1.0	attractiveness	269.0546673750109	
27.0	160.5021313717025	fix	1.0		177	20.0	male	black	3.1070433744528456	neutral	082	sub-07	1.0	1.0	082_neutral	1.0	attractiveness	269.25455689745195	1.4999459686259797
27.0	161.00222585114489	pulse	1.0	t		20.0	male	black	3.1070433744528456	neutral	082	sub-07	1.0	1.0	082_neutral	1.0	attractiveness	269.75465137689434	
27.0	161.70219355306108	pulse	1.0	t		20.0	male	black	3.1070433744528456	neutral	082	sub-07	1.0	1.0	082_neutral	1.0	attractiveness	270.45461907881054	
27.0	162.00207734032847	rating	2.0		295	20.0	male	black	3.1070433744528456	neutral	082	sub-07	1.0	1.0	082_neutral	1.0	attractiveness	270.7545028660779	2.49990491685503
27.0	162.39706932617764	pulse	2.0	t		20.0	male	black	3.1070433744528456	neutral	082	sub-07	1.0	1.0	082_neutral	1.0	attractiveness	271.1494948519271	
27.0	163.096935304221	pulse	2.0	t		20.0	male	black	3.1070433744528456	neutral	082	sub-07	1.0	1.0	082_neutral	1.0	attractiveness	271.84936082997046	
27.0	163.62712405180991	response	2.0	g		20.0	male	black	3.1070433744528456	neutral	082	sub-07	1.0	1.0	082_neutral	1.0	attractiveness	272.3795495775594	
27.0	163.79689968577304	pulse	2.0	t		20.0	male	black	3.1070433744528456	neutral	082	sub-07	1.0	1.0	082_neutral	1.0	attractiveness	272.5493252115225	
27.0	164.5019822571835	fix	3.0		444	20.0	male	black	3.1070433744528456	neutral	082	sub-07	1.0	1.0	082_neutral	1.0	attractiveness	273.25440778293296	3.7665446181426887
27.0	164.50984397308684	pulse	3.0	t		20.0	male	black	3.1070433744528456	neutral	082	sub-07	1.0	1.0	082_neutral	1.0	attractiveness	273.2622694988363	
27.0	165.20207583107185	pulse	3.0	t		20.0	male	black	3.1070433744528456	neutral	082	sub-07	1.0	1.0	082_neutral	1.0	attractiveness	273.9545013568213	
27.0	165.9020706996007	pulse	3.0	t		20.0	male	black	3.1070433744528456	neutral	082	sub-07	1.0	1.0	082_neutral	1.0	attractiveness	274.65449622535016	
27.0	166.6020018775148	pulse	3.0	t		20.0	male	black	3.1070433744528456	neutral	082	sub-07	1.0	1.0	082_neutral	1.0	attractiveness	275.35442740326425	
27.0	167.30201304601133	pulse	3.0	t		20.0	male	black	3.1070433744528456	neutral	082	sub-07	1.0	1.0	082_neutral	1.0	attractiveness	276.0544385717608	
27.0	168.00197591830693	pulse	3.0	t		20.0	male	black	3.1070433744528456	neutral	082	sub-07	1.0	1.0	082_neutral	1.0	attractiveness	276.7544014440564	
28.0	168.2685268753262	face	0.0		145	31.0	male	west_asian	1.9538400318344609	neutral	070	sub-07	1.0	1.0	070_neutral	0.0		277.02095240107565	1.233308380296421
28.0	168.70197199424092	pulse	0.0	t		31.0	male	west_asian	1.9538400318344609	neutral	070	sub-07	1.0	1.0	070_neutral	0.0		277.4543975199904	
28.0	169.40194633688407	pulse	0.0	t		31.0	male	west_asian	1.9538400318344609	neutral	070	sub-07	1.0	1.0	070_neutral	0.0		278.1543718626335	
28.0	169.5018352556226	fix	1.0		444	31.0	male	west_asian	1.9538400318344609	neutral	070	sub-07	1.0	1.0	070_neutral	0.0		278.25426078137207	3.7581776032407106
28.0	170.10192732025507	pulse	1.0	t		31.0	male	west_asian	1.9538400318344609	neutral	070	sub-07	1.0	1.0	070_neutral	0.0		278.85435284600453	
28.0	170.80190136104738	pulse	1.0	t		31.0	male	west_asian	1.9538400318344609	neutral	070	sub-07	1.0	1.0	070_neutral	0.0		279.55432688679684	
28.0	171.5018750999884	pulse	1.0	t		31.0	male	west_asian	1.9538400318344609	neutral	070	sub-07	1.0	1.0	070_neutral	0.0		280.25430062573787	
28.0	172.20184551856528	pulse	1.0	t		31.0	male	west_asian	1.9538400318344609	neutral	070	sub-07	1.0	1.0	070_neutral	0.0		280.95427104431474	
28.0	172.90183917968898	pulse	1.0	t		31.0	male	west_asian	1.9538400318344609	neutral	070	sub-07	1.0	1.0	070_neutral	0.0		281.65426470543844	
29.0	173.26001285886332	face	0.0		146	34.0	male	white	2.651014723438122	smiling	121	sub-07	1.0	1.0	121_smiling	0.0		282.0124383846128	1.2416364563869138
29.0	173.60180205198503	pulse	0.0	t		34.0	male	white	2.651014723438122	smiling	121	sub-07	1.0	1.0	121_smiling	0.0		282.3542275777345	
29.0	174.30177880943847	pulse	0.0	t		34.0	male	white	2.651014723438122	smiling	121	sub-07	1.0	1.0	121_smiling	0.0		283.05420433518793	
29.0	174.50164931525023	fix	1.0		444	34.0	male	white	2.651014723438122	smiling	121	sub-07	1.0	1.0	121_smiling	0.0		283.2540748409997	3.7665518625735785
29.0	175.00176039651205	pulse	1.0	t		34.0	male	white	2.651014723438122	smiling	121	sub-07	1.0	1.0	121_smiling	0.0		283.7541859222615	
29.0	175.70173534285777	pulse	1.0	t		34.0	male	white	2.651014723438122	smiling	121	sub-07	1.0	1.0	121_smiling	0.0		284.45416086860723	
29.0	176.4017057614351	pulse	1.0	t		34.0	male	white	2.651014723438122	smiling	121	sub-07	1.0	1.0	121_smiling	0.0		285.15413128718455	
29.0	177.10172598546887	pulse	1.0	t		34.0	male	white	2.651014723438122	smiling	121	sub-07	1.0	1.0	121_smiling	0.0		285.85415151121833	
29.0	177.80166953928438	pulse	1.0	t		34.0	male	white	2.651014723438122	smiling	121	sub-07	1.0	1.0	121_smiling	0.0		286.55409506503383	
30.0	178.2682011778238	face	0.0		145	25.0	female	black	3.858336649423	neutral	126	sub-07	1.0	1.0	126_neutral	0.0		287.02062670357327	1.233304456229689
30.0	178.5016378449027	pulse	0.0	t		25.0	female	black	3.858336649423	neutral	126	sub-07	1.0	1.0	126_neutral	0.0		287.25406337065215	
30.0	179.20163965601023	pulse	0.0	t		25.0	female	black	3.858336649423	neutral	126	sub-07	1.0	1.0	126_neutral	0.0		287.9540651817597	
30.0	179.5015056340535	fix	1.0		444	25.0	female	black	3.858336649423	neutral	126	sub-07	1.0	1.0	126_neutral	0.0		288.25393115980296	3.7581936013571067
30.0	179.9016052449674	pulse	1.0	t		25.0	female	black	3.858336649423	neutral	126	sub-07	1.0	1.0	126_neutral	0.0		288.6540307707169	
30.0	180.60156932466816	pulse	1.0	t		25.0	female	black	3.858336649423	neutral	126	sub-07	1.0	1.0	126_neutral	0.0		289.3539948504176	
30.0	181.3015521191469	pulse	1.0	t		25.0	female	black	3.858336649423	neutral	126	sub-07	1.0	1.0	126_neutral	0.0		290.05397764489635	
30.0	182.00153853584015	pulse	1.0	t		25.0	female	black	3.858336649423	neutral	126	sub-07	1.0	1.0	126_neutral	0.0		290.7539640615896	
30.0	182.70150895441748	pulse	1.0	t		25.0	female	black	3.858336649423	neutral	126	sub-07	1.0	1.0	126_neutral	0.0		291.45393448016694	
31.0	183.2596992354106	face	0.0		146	20.0	female	white	3.9502586549940313	neutral	091	sub-07	1.0	1.0	091_neutral	0.0		292.01212476116007	1.241659698933745
31.0	183.40150321924375	pulse	0.0	t		20.0	female	white	3.9502586549940313	neutral	091	sub-07	1.0	1.0	091_neutral	0.0		292.1539287449932	
31.0	184.10145401748923	pulse	0.0	t		20.0	female	white	3.9502586549940313	neutral	091	sub-07	1.0	1.0	091_neutral	0.0		292.8538795432387	
31.0	184.50135893434435	fix	1.0		444	20.0	female	white	3.9502586549940313	neutral	091	sub-07	1.0	1.0	091_neutral	0.0		293.2537844600938	3.7665162441253415
31.0	184.79367621623442	pulse	1.0	t		20.0	female	white	3.9502586549940313	neutral	091	sub-07	1.0	1.0	091_neutral	0.0		293.5461017419839	
31.0	185.50142232310782	pulse	1.0	t		20.0	female	white	3.9502586549940313	neutral	091	sub-07	1.0	1.0	091_neutral	0.0		294.2538478488573	
31.0	186.20139153428	pulse	1.0	t		20.0	female	white	3.9502586549940313	neutral	091	sub-07	1.0	1.0	091_neutral	0.0		294.95381706002945	
31.0	186.90137402690698	pulse	1.0	t		20.0	female	white	3.9502586549940313	neutral	091	sub-07	1.0	1.0	091_neutral	0.0		295.65379955265644	
31.0	187.601347765848	pulse	1.0	t		20.0	female	white	3.9502586549940313	neutral	091	sub-07	1.0	1.0	091_neutral	0.0		296.35377329159746	
32.0	188.2678751784697	face	0.0		145	22.0	female	white	4.614007162753682	neutral	009	sub-07	1.0	1.0	009_neutral	0.0		297.02030070421915	1.2332917784774509
32.0	188.3013948546436	pulse	0.0	t		22.0	female	white	4.614007162753682	neutral	009	sub-07	1.0	1.0	009_neutral	0.0		297.05382038039306	
32.0	189.00129645113475	pulse	0.0	t		22.0	female	white	4.614007162753682	neutral	009	sub-07	1.0	1.0	009_neutral	0.0		297.7537219768842	
32.0	189.50116695694715	fix	1.0		443	22.0	female	white	4.614007162753682	neutral	009	sub-07	1.0	1.0	009_neutral	0.0		298.2535924826966	3.7582246920360376
32.0	189.70128347153104	pulse	1.0	t		22.0	female	white	4.614007162753682	neutral	009	sub-07	1.0	1.0	009_neutral	0.0		298.4537089972805	
32.0	190.4012439290168	pulse	1.0	t		22.0	female	white	4.614007162753682	neutral	009	sub-07	1.0	1.0	009_neutral	0.0		299.15366945476626	
32.0	191.1012321568178	pulse	1.0	t		22.0	female	white	4.614007162753682	neutral	009	sub-07	1.0	1.0	009_neutral	0.0		299.85365768256725	
32.0	191.80120348094852	pulse	1.0	t		22.0	female	white	4.614007162753682	neutral	009	sub-07	1.0	1.0	009_neutral	0.0		300.553629006698	
32.0	192.50119321800594	pulse	1.0	t		22.0	female	white	4.614007162753682	neutral	009	sub-07	1.0	1.0	009_neutral	0.0		301.2536187437554	
32.0	193.20116786250082	pulse	1.0	t		22.0	female	white	4.614007162753682	neutral	009	sub-07	1.0	1.0	009_neutral	0.0		301.9535933882503	
33.0	193.25939164898318	face	0.0		147	23.0	male	white	2.6275368085953046	smiling	141	sub-07	1.0	1.0	141_smiling	0.0		302.01181717473264	1.2416301175107947
33.0	193.90113888478027	pulse	0.0	t		23.0	male	white	2.6275368085953046	smiling	141	sub-07	1.0	1.0	141_smiling	0.0		302.6535644105297	
33.0	194.50102176649398	fix	1.0		443	23.0	male	white	2.6275368085953046	smiling	141	sub-07	1.0	1.0	141_smiling	0.0		303.25344729224344	3.7581709625128497
33.0	194.601115944085	pulse	1.0	t		23.0	male	white	2.6275368085953046	smiling	141	sub-07	1.0	1.0	141_smiling	0.0		303.35354146983445	
33.0	195.30110417188598	pulse	1.0	t		23.0	male	white	2.6275368085953046	smiling	141	sub-07	1.0	1.0	141_smiling	0.0		304.05352969763544	
33.0	196.00106342196705	pulse	1.0	t		23.0	male	white	2.6275368085953046	smiling	141	sub-07	1.0	1.0	141_smiling	0.0		304.7534889477165	
33.0	196.7010525553219	pulse	1.0	t		23.0	male	white	2.6275368085953046	smiling	141	sub-07	1.0	1.0	141_smiling	0.0		305.45347808107135	
33.0	197.4010275016676	pulse	1.0	t		23.0	male	white	2.6275368085953046	smiling	141	sub-07	1.0	1.0	141_smiling	0.0		306.1534530274171	
33.0	198.10100818318733	pulse	1.0	t		23.0	male	white	2.6275368085953046	smiling	141	sub-07	1.0	1.0	141_smiling	0.0		306.8534337089368	
34.0	198.25919272900683	face	0.0		147	40.0	female	west_asian	1.5777954635893354	neutral	038	sub-07	1.0	1.0	038_neutral	1.0	attractiveness	307.0116182547563	1.2416633211487351
34.0	198.8009831295335	pulse	0.0	t		40.0	female	west_asian	1.5777954635893354	neutral	038	sub-07	1.0	1.0	038_neutral	1.0	attractiveness	307.55340865528296	
34.0	199.50085605015556	fix	1.0		177	40.0	female	west_asian	1.5777954635893354	neutral	038	sub-07	1.0	1.0	038_neutral	1.0	attractiveness	308.253281575905	1.4999541186093666
34.0	199.50873708453946	pulse	1.0	t		40.0	female	west_asian	1.5777954635893354	neutral	038	sub-07	1.0	1.0	038_neutral	1.0	attractiveness	308.2611626102889	
34.0	200.20094660553195	pulse	1.0	t		40.0	female	west_asian	1.5777954635893354	neutral	038	sub-07	1.0	1.0	038_neutral	1.0	attractiveness	308.9533721312814	
34.0	200.90090525191	pulse	1.0	t		40.0	female	west_asian	1.5777954635893354	neutral	038	sub-07	1.0	1.0	038_neutral	1.0	attractiveness	309.65333077765945	
34.0	201.00081016876493	rating	2.0		295	40.0	female	west_asian	1.5777954635893354	neutral	038	sub-07	1.0	1.0	038_neutral	1.0	attractiveness	309.7532356945144	2.499904615003743
34.0	201.59577408244786	pulse	2.0	t		40.0	female	west_asian	1.5777954635893354	neutral	038	sub-07	1.0	1.0	038_neutral	1.0	attractiveness	310.3481996081973	
34.0	202.29562828829194	pulse	2.0	t		40.0	female	west_asian	1.5777954635893354	neutral	038	sub-07	1.0	1.0	038_neutral	1.0	attractiveness	311.0480538140414	
34.0	202.92919354400556	response	2.0	d		40.0	female	west_asian	1.5777954635893354	neutral	038	sub-07	1.0	1.0	038_neutral	1.0	attractiveness	311.681619069755	
34.0	202.99560927166294	pulse	2.0	t		40.0	female	west_asian	1.5777954635893354	neutral	038	sub-07	1.0	1.0	038_neutral	1.0	attractiveness	311.7480347974124	
34.0	203.50071478376867	fix	3.0		443	40.0	female	west_asian	1.5777954635893354	neutral	038	sub-07	1.0	1.0	038_neutral	1.0	attractiveness	312.25314030951813	3.7665201681916187
34.0	203.70084971127926	pulse	3.0	t		40.0	female	west_asian	1.5777954635893354	neutral	038	sub-07	1.0	1.0	038_neutral	1.0	attractiveness	312.4532752370287	
34.0	204.40080292433504	pulse	3.0	t		40.0	female	west_asian	1.5777954635893354	neutral	038	sub-07	1.0	1.0	038_neutral	1.0	attractiveness	313.1532284500845	
34.0	205.10078360585476	pulse	3.0	t		40.0	female	west_asian	1.5777954635893354	neutral	038	sub-07	1.0	1.0	038_neutral	1.0	attractiveness	313.8532091316042	
34.0	205.80075251517565	pulse	3.0	t		40.0	female	west_asian	1.5777954635893354	neutral	038	sub-07	1.0	1.0	038_neutral	1.0	attractiveness	314.5531780409251	
34.0	206.50071508561996	pulse	3.0	t		40.0	female	west_asian	1.5777954635893354	neutral	038	sub-07	1.0	1.0	038_neutral	1.0	attractiveness	315.2531406113694	
34.0	207.2007033134214	pulse	3.0	t		40.0	female	west_asian	1.5777954635893354	neutral	038	sub-07	1.0	1.0	038_neutral	1.0	attractiveness	315.95312883917086	
35.0	207.2672349519603	face	0.0		146	34.0	male	white	2.651014723438122	neutral	121	sub-07	1.0	1.0	121_neutral	0.0		316.01966047770975	1.2333192469413916
35.0	207.90068127827954	pulse	0.0	t		34.0	male	white	2.651014723438122	neutral	121	sub-07	1.0	1.0	121_neutral	0.0		316.653106804029	
35.0	208.50055419890168	fix	1.0		443	34.0	male	white	2.651014723438122	neutral	121	sub-07	1.0	1.0	121_neutral	0.0		317.25297972465114	3.758188771737423
35.0	208.6006538098154	pulse	1.0	t		34.0	male	white	2.651014723438122	neutral	121	sub-07	1.0	1.0	121_neutral	0.0		317.35307933556487	
35.0	209.30064022650913	pulse	1.0	t		34.0	male	white	2.651014723438122	neutral	121	sub-07	1.0	1.0	121_neutral	0.0		318.0530657522586	
35.0	210.0006024951026	pulse	1.0	t		34.0	male	white	2.651014723438122	neutral	121	sub-07	1.0	1.0	121_neutral	0.0		318.75302802085207	
35.0	210.70058438402748	pulse	1.0	t		34.0	male	white	2.651014723438122	neutral	121	sub-07	1.0	1.0	121_neutral	0.0		319.45300990977694	
35.0	211.40057230997718	pulse	1.0	t		34.0	male	white	2.651014723438122	neutral	121	sub-07	1.0	1.0	121_neutral	0.0		320.15299783572664	
35.0	212.09274560881886	pulse	1.0	t		34.0	male	white	2.651014723438122	neutral	121	sub-07	1.0	1.0	121_neutral	0.0		320.8451711345683	
36.0	212.2587429706391	face	0.0		147	40.0	male	black	2.408674890569041	neutral	061	sub-07	1.0	1.0	061_neutral	0.0		321.01116849638856	1.2416554730157259
36.0	212.8005282396939	pulse	0.0	t		40.0	male	black	2.408674890569041	neutral	061	sub-07	1.0	1.0	061_neutral	0.0		321.55295376544336	
36.0	213.50039844365483	fix	1.0		444	40.0	male	black	2.408674890569041	neutral	061	sub-07	1.0	1.0	061_neutral	0.0		322.2528239694043	3.75817971619972
36.0	213.5078185511743	pulse	1.0	t		40.0	male	black	2.408674890569041	neutral	061	sub-07	1.0	1.0	061_neutral	0.0		322.26024407692375	
36.0	214.20046968055067	pulse	1.0	t		40.0	male	black	2.408674890569041	neutral	061	sub-07	1.0	1.0	061_neutral	0.0		322.9528952063001	
36.0	214.9004554935418	pulse	1.0	t		40.0	male	black	2.408674890569041	neutral	061	sub-07	1.0	1.0	061_neutral	0.0		323.65288101929127	
36.0	215.6004400991278	pulse	1.0	t		40.0	male	black	2.408674890569041	neutral	061	sub-07	1.0	1.0	061_neutral	0.0		324.35286562487727	
36.0	216.30040508438242	pulse	1.0	t		40.0	male	black	2.408674890569041	neutral	061	sub-07	1.0	1.0	061_neutral	0.0		325.0528306101319	
36.0	217.00037882332344	pulse	1.0	t		40.0	male	black	2.408674890569041	neutral	061	sub-07	1.0	1.0	061_neutral	0.0		325.7528043490729	
37.0	217.25857815985455	face	0.0		146	40.0	female	west_asian	1.5777954635893354	smiling	038	sub-07	1.0	1.0	038_smiling	0.0		326.011003685604	1.2416669433637253
37.0	217.70035618447946	pulse	0.0	t		40.0	female	west_asian	1.5777954635893354	smiling	038	sub-07	1.0	1.0	038_smiling	0.0		326.4527817102289	
37.0	218.40034441228045	pulse	0.0	t		40.0	female	west_asian	1.5777954635893354	smiling	038	sub-07	1.0	1.0	038_smiling	0.0		327.1527699380299	
37.0	218.50024510321828	fix	1.0		444	40.0	female	west_asian	1.5777954635893354	smiling	038	sub-07	1.0	1.0	038_smiling	0.0		327.25267062896773	3.7582588012278393
37.0	219.1003139253039	pulse	1.0	t		40.0	female	west_asian	1.5777954635893354	smiling	038	sub-07	1.0	1.0	038_smiling	0.0		327.85273945105337	
37.0	219.80029943644377	pulse	1.0	t		40.0	female	west_asian	1.5777954635893354	smiling	038	sub-07	1.0	1.0	038_smiling	0.0		328.5527249621932	
37.0	220.50027166612836	pulse	1.0	t		40.0	female	west_asian	1.5777954635893354	smiling	038	sub-07	1.0	1.0	038_smiling	0.0		329.2526971918778	
37.0	221.20024691432536	pulse	1.0	t		40.0	female	west_asian	1.5777954635893354	smiling	038	sub-07	1.0	1.0	038_smiling	0.0		329.9526724400748	
37.0	221.90023061435795	pulse	1.0	t		40.0	female	west_asian	1.5777954635893354	smiling	038	sub-07	1.0	1.0	038_smiling	0.0		330.6526561401074	
38.0	222.25850390444612	face	0.0		146	28.0	male	east_asian	1.5563072025467568	smiling	005	sub-07	1.0	1.0	005_smiling	0.0		331.0109294301956	1.241567634301191
38.0	222.6002164273491	pulse	0.0	t		28.0	male	east_asian	1.5563072025467568	smiling	005	sub-07	1.0	1.0	005_smiling	0.0		331.35264195309855	
38.0	223.300181714455	pulse	0.0	t		28.0	male	east_asian	1.5563072025467568	smiling	005	sub-07	1.0	1.0	005_smiling	0.0		332.05260724020445	
38.0	223.5000715387473	fix	1.0		444	28.0	male	east_asian	1.5563072025467568	smiling	005	sub-07	1.0	1.0	005_smiling	0.0		332.25249706449677	3.766526808919025
38.0	224.00014851081687	pulse	1.0	t		28.0	male	east_asian	1.5563072025467568	smiling	005	sub-07	1.0	1.0	005_smiling	0.0		332.75257403656633	
38.0	224.7001255701216	pulse	1.0	t		28.0	male	east_asian	1.5563072025467568	smiling	005	sub-07	1.0	1.0	005_smiling	0.0		333.45255109587106	
38.0	225.4001035349802	pulse	1.0	t		28.0	male	east_asian	1.5563072025467568	smiling	005	sub-07	1.0	1.0	005_smiling	0.0		334.15252906072965	
38.0	226.10009025352474	pulse	1.0	t		28.0	male	east_asian	1.5563072025467568	smiling	005	sub-07	1.0	1.0	005_smiling	0.0		334.8525157792742	
38.0	226.8000814998386	pulse	1.0	t		28.0	male	east_asian	1.5563072025467568	smiling	005	sub-07	1.0	1.0	005_smiling	0.0		335.55250702558806	
39.0	227.26659834766633	face	0.0		145	47.0	male	east_asian	2.171110226820533	neutral	024	sub-07	1.0	1.0	024_neutral	0.0		336.0190238734158	1.2333089839989952
39.0	227.50007999058244	pulse	0.0	t		47.0	male	east_asian	2.171110226820533	neutral	024	sub-07	1.0	1.0	024_neutral	0.0		336.2525055163319	
39.0	228.20000754628154	pulse	0.0	t		47.0	male	east_asian	2.171110226820533	neutral	024	sub-07	1.0	1.0	024_neutral	0.0		336.952433072031	
39.0	228.49990733166533	fix	1.0		444	47.0	male	east_asian	2.171110226820533	neutral	024	sub-07	1.0	1.0	024_neutral	0.0		337.2523328574148	3.7498643178614657
39.0	228.89999939629752	pulse	1.0	t		47.0	male	east_asian	2.171110226820533	neutral	024	sub-07	1.0	1.0	024_neutral	0.0		337.652424922047	
39.0	229.59997615375096	pulse	1.0	t		47.0	male	east_asian	2.171110226820533	neutral	024	sub-07	1.0	1.0	024_neutral	0.0		338.3524016795004	
39.0	230.2999529112044	pulse	1.0	t		47.0	male	east_asian	2.171110226820533	neutral	024	sub-07	1.0	1.0	024_neutral	0.0		339.05237843695386	
39.0	230.99993691308782	pulse	1.0	t		47.0	male	east_asian	2.171110226820533	neutral	024	sub-07	1.0	1.0	024_neutral	0.0		339.7523624388373	
39.0	231.69990763351643	pulse	1.0	t		47.0	male	east_asian	2.171110226820533	neutral	024	sub-07	1.0	1.0	024_neutral	0.0		340.4523331592659	
40.0	232.2497716495268	fix	0.0		720													341.00219717527625	5.999815267032318
40.0	232.39989133354857	pulse	0.0	t														341.152316859298	
40.0	233.09985722435704	pulse	0.0	t														341.8522827501065	
40.0	233.79983971698448	pulse	0.0	t														342.55226524273394	
40.0	234.49981768184261	pulse	0.0	t														343.2522432075921	
40.0	235.19978960967637	pulse	0.0	t														343.95221513542583	
40.0	235.89976817823708	pulse	0.0	t														344.65219370398654	
40.0	236.59974644494696	pulse	0.0	t														345.3521719706964	
40.0	237.29167886648838	pulse	0.0	t														346.04410439223784	
40.0	237.99969965800256	pulse	0.0	t														346.752125183752	
