trial_nr	onset	event_type	phase	response	nr_frames	trial_type	stim_name	task_probe	onset_abs	duration
0.0	0.058086222410565824	baseline	0.0		40.0		baseline	0.0	20.02825572294114	0.34136639408188785
0.0	0.39945261649245367	ISI	1.0		11.0		baseline	0.0	20.369622117023027	0.09999483828323719
1.0	0.49944745477569086	baseline	0.0		48.0		baseline	0.0	20.469616955306265	0.3999769382926388
1.0	0.6998995729054514	pulse	0.0	t			baseline	0.0	20.670069073436025	
1.0	0.8994243930683297	ISI	1.0		11.0		baseline	0.0	20.869593893598903	0.0999906123151959
2.0	0.9994150053835256	baseline	0.0		48.0		baseline	0.0	20.9695845059141	0.3999730141804321
2.0	1.3993880195639576	ISI	1.0		11.0		baseline	0.0	21.36955752009453	0.10000389392644138
2.0	1.4039698736823993	pulse	1.0	t			baseline	0.0	21.374139374212973	
3.0	1.499391913490399	baseline	0.0		48.0		baseline	0.0	21.469561414020973	0.399988710631078
3.0	1.899380624121477	ISI	1.0		11.0		baseline	0.0	21.86955012465205	0.09998880118655507
4.0	1.999369425308032	baseline	0.0		48.0		baseline	0.0	21.969538925838606	0.40000138853156386
4.0	2.099771465725098	pulse	0.0	t			baseline	0.0	22.069940966255672	
4.0	2.399370813839596	ISI	1.0		11.0		baseline	0.0	22.36954031437017	0.09999936610529403
5.0	2.49937017994489	baseline	0.0		48.0		baseline	0.0	22.469539680475464	0.3999908236137344
5.0	2.7997519357195415	pulse	0.0	t			baseline	0.0	22.769921436250115	
5.0	2.8993610035586244	ISI	1.0		11.0		baseline	0.0	22.869530504089198	0.10004736101927847
6.0	2.999408364577903	baseline	0.0		48.0		baseline	0.0	22.969577865108477	0.3999452435382409
6.0	3.3993536081161437	ISI	1.0		11.0		baseline	0.0	23.369523108646717	0.09999514013725275
7.0	3.4993487482533965	baseline	0.0		47.0		baseline	0.0	23.46951824878397	0.3999893143400186
7.0	3.5037190021521383	pulse	0.0	t			baseline	0.0	23.473888502682712	
7.0	3.899338062593415	ISI	1.0		11.0		baseline	0.0	23.86950756312399	0.09999876239544392
8.0	3.999336824988859	baseline	0.0		48.0		baseline	0.0	23.969506325519433	0.3999920310325251
8.0	4.199737325946444	pulse	0.0	t			baseline	0.0	24.169906826477018	
8.0	4.399328856021384	ISI	1.0		11.0		baseline	0.0	24.369498356551958	0.09999695126680308
9.0	4.499325807288187	baseline	0.0		48.0		baseline	0.0	24.46949530781876	0.400007425628246
9.0	4.899333232916433	ISI	1.0		11.0		baseline	0.0	24.869502733447007	0.09998487707434833
9.0	4.903889731231175	pulse	1.0	t			baseline	0.0	24.87405923176175	
10.0	4.9993181099907815	baseline	0.0		48.0		baseline	0.0	24.969487610521355	0.39998569208182744
10.0	5.399303802072609	ISI	1.0		11.0		baseline	0.0	25.369473302603183	0.10000661061985738
11.0	5.499310412692466	baseline	0.0		48.0		baseline	0.0	25.46947991322304	0.39998629579258704
11.0	5.607769561624991	pulse	0.0	t			baseline	0.0	25.577939062155565	
11.0	5.899296708485053	ISI	1.0		11.0		baseline	0.0	25.869466209015627	0.09999785683066875
12.0	5.999294565315722	baseline	0.0		48.0		baseline	0.0	25.969464065846296	0.3999914273235845
12.0	6.307734033314773	pulse	0.0	t			baseline	0.0	26.277903533845347	
12.0	6.399285992639307	ISI	1.0		11.0		baseline	0.0	26.36945549316988	0.10000570505508222
13.0	6.499291697694389	baseline	0.0		48.0		baseline	0.0	26.469461198224963	0.40000199224232347
13.0	6.899293689936712	ISI	1.0		11.0		baseline	0.0	26.869463190467286	0.0999809529612321
14.0	6.999274642897944	baseline	0.0		47.0		baseline	0.0	26.969444143428518	0.39998569208273693
14.0	7.003633124460066	pulse	0.0	t			baseline	0.0	26.97380262499064	
14.0	7.399260334980681	ISI	1.0		11.0		baseline	0.0	27.369429835511255	0.10000268650765065
15.0	7.499263021488332	baseline	0.0		48.0		baseline	0.0	27.469432522018906	0.3999902199038843
15.0	7.707723951363732	pulse	0.0	t			baseline	0.0	27.677893451894306	
15.0	7.899253241392216	ISI	1.0		11.0		baseline	0.0	27.86942274192279	0.09999846054051886
16.0	7.999251701932735	baseline	0.0		48.0		baseline	0.0	27.96942120246331	0.39999444587192556
16.0	8.39924614780466	ISI	1.0		11.0		baseline	0.0	28.369415648335234	0.09999574384710286
16.0	8.403936065944436	pulse	1.0	t			baseline	0.0	28.37410556647501	
17.0	8.499241891651764	baseline	0.0		48.0		baseline	0.0	28.469411392182337	0.3999899180489592
17.0	8.899231809700723	ISI	1.0		11.0		baseline	0.0	28.869401310231297	0.10003136271461699
18.0	8.99926317241534	baseline	0.0		48.0		baseline	0.0	28.969432672945914	0.39996365668139333
18.0	9.099679400009336	pulse	0.0	t			baseline	0.0	29.06984890053991	
18.0	9.399226829096733	ISI	1.0		11.0		baseline	0.0	29.369396329627307	0.09999393271846202
19.0	9.499220761815195	baseline	0.0		48.0		baseline	0.0	29.46939026234577	0.3999908236137344
19.0	9.799612478798736	pulse	0.0	t			baseline	0.0	29.76978197932931	
19.0	9.89921158542893	ISI	1.0		11.0		baseline	0.0	29.869381085959503	0.09998970675133023
20.0	9.99920129218026	baseline	0.0		48.0		baseline	0.0	29.969370792710833	0.39999746441935713
20.0	10.399198756599617	ISI	1.0		11.0		baseline	0.0	30.36936825713019	0.1000002716691597
21.0	10.499199028268777	baseline	0.0		47.0		baseline	0.0	30.46936852879935	0.3999920310334346
21.0	10.503544831928593	pulse	0.0	t			baseline	0.0	30.473714332459167	
21.0	10.899191059302211	ISI	1.0		11.0		baseline	0.0	30.869360559832785	0.09999785683066875
22.0	10.99918891613288	baseline	0.0		48.0		baseline	0.0	30.969358416663454	0.3999929365973003
22.0	11.199580059592336	pulse	0.0	t			baseline	0.0	31.16974956012291	
22.0	11.39918185273018	ISI	1.0		11.0		baseline	0.0	31.369351353260754	0.09999634755695297
23.0	11.499178200287133	baseline	0.0		48.0		baseline	0.0	31.469347700817707	0.39999172917850956
23.0	11.899169929465643	ISI	1.0		5.0		baseline	0.0	31.869339429996216	0.12539803329491406
23.0	11.954996466789453	pulse	1.0	t			baseline	0.0	31.925165967320027	
24.0	12.024567962760557	car	0.0		46.0	object	car-94.jpg	0.0	31.99473746329113	0.38287837273674086
24.0	12.407446335497298	ISI	1.0		3.0	object	car-94.jpg	0.0	32.37761583602787	0.10836829063555342
25.0	12.515814626132851	car	0.0		47.0	object	car-105.jpg	0.0	32.485984126663425	0.3916206916646843
25.0	12.607662705023358	pulse	0.0	t		object	car-105.jpg	0.0	32.57783220555393	
25.0	12.907435317797535	ISI	1.0		5.0	object	car-105.jpg	0.0	32.87760481832811	0.1167028037179989
26.0	13.024138121515534	car	0.0		46.0	object	car-82.jpg	0.0	32.99430762204611	0.38330308245076594
26.0	13.307553222284696	pulse	0.0	t		object	car-82.jpg	0.0	33.27772272281527	
26.0	13.4074412039663	ISI	1.0		6.0	object	car-82.jpg	0.0	33.377610704496874	0.11668650355841237
27.0	13.524127707524713	car	0.0		46.0	object	car-120.jpg	0.0	33.494297208055286	0.38328436745268846
27.0	13.907412074977401	ISI	1.0		7.0	object	car-120.jpg	0.0	33.877581575507975	0.11668740912227804
28.0	14.024099484099679	car	0.0		45.0	object	car-10.jpg	0.0	33.99426898463025	0.3833217974488434
28.0	14.013994592572999	pulse	0.0	t		object	car-10.jpg	0.0	33.98416409310357	
28.0	14.407421281548523	ISI	1.0		7.0	object	car-10.jpg	0.0	34.377590782079096	0.11668529613962164
29.0	14.524106577688144	car	0.0		46.0	object	car-53.jpg	0.0	34.49427607821872	0.3832846693076135
29.0	14.707532575415826	pulse	0.0	t		object	car-53.jpg	0.0	34.6777020759464	
29.0	14.907391246995758	ISI	1.0		7.0	object	car-53.jpg	0.0	34.87756074752633	0.11670793524899636
30.0	15.024099182244754	car	0.0		46.0	object	car-131.jpg	0.0	34.99426868277533	0.38328225446912256
30.0	15.407381436713877	ISI	1.0		7.0	object	car-131.jpg	0.0	35.37755093724445	0.1166855979945467
30.0	15.443608541404501	pulse	1.0	t		object	car-131.jpg	0.0	35.413778041935075	
31.0	15.524067034708423	car	0.0		46.0	object	car-57.jpg	0.0	35.494236535239	0.3833199863192931
31.0	15.907387021027716	ISI	1.0		6.0	object	car-57.jpg	0.0	35.87755652155829	0.108355310879233
32.0	16.01574233190695	car	0.0		47.0	object	car-107.jpg	0.0	35.98591183243752	0.39161827682528383
32.0	16.099474138740334	pulse	0.0	t		object	car-107.jpg	0.0	36.06964363927091	
32.0	16.407360608732233	ISI	1.0		7.0	object	car-107.jpg	0.0	36.37753010926281	0.11668529613962164
33.0	16.524045904871855	car	0.0		46.0	object	car-135.jpg	0.0	36.49421540540243	0.38330368615970656
33.0	16.807464929754133	pulse	0.0	t		object	car-135.jpg	0.0	36.77763443028471	
33.0	16.90734959103156	ISI	1.0		7.0	object	car-135.jpg	0.0	36.877519091562135	0.11668288130113069
34.0	17.024032472332692	car	0.0		46.0	object	car-7.jpg	0.0	36.994201972863266	0.3833067047080476
34.0	17.40733917704074	ISI	1.0		7.0	object	car-7.jpg	0.0	37.37750867757131	0.11672574468411767
35.0	17.524064921724857	car	0.0		45.0	object	car-87.jpg	0.0	37.49423442225543	0.3832680672931019
35.0	17.513924411330663	pulse	0.0	t		object	car-87.jpg	0.0	37.48409391186124	
35.0	17.90733298901796	ISI	1.0		7.0	object	car-87.jpg	0.0	37.87750248954853	0.11667714605937363
36.0	18.024010135077333	car	0.0		46.0	object	car-118.jpg	0.0	37.99417963560791	0.38333749389857985
36.0	18.19943939525183	pulse	0.0	t		object	car-118.jpg	0.0	38.1696088957824	
36.0	18.407347628975913	ISI	1.0		7.0	object	car-118.jpg	0.0	38.37751712950649	0.11671035008839681
37.0	18.52405797906431	car	0.0		46.0	object	car-78.jpg	0.0	38.49422747959488	0.38328316003298823
37.0	18.907341139097298	ISI	1.0		5.0	object	car-78.jpg	0.0	38.87751063962787	0.1167049167015648
37.0	18.961969312837027	pulse	1.0	t		object	car-78.jpg	0.0	38.9321388133676	
38.0	19.024046055798863	car	0.0		46.0	object	car-31.jpg	0.0	38.994215556329436	0.38326927471280214
38.0	19.407315330511665	ISI	1.0		6.0	object	car-31.jpg	0.0	39.37748483104224	0.11668650355841237
39.0	19.524001834070077	car	0.0		46.0	object	car-6.jpg	0.0	39.49417133460065	0.3832846693076135
39.0	19.599489382408137	pulse	0.0	t		object	car-6.jpg	0.0	39.56965888293871	
39.0	19.90728650337769	ISI	1.0		7.0	object	car-6.jpg	0.0	39.877456003908264	0.11670461484663974
40.0	20.02399111822433	car	0.0		46.0	object	car-52.jpg	0.0	39.994160618754904	0.38328648043625435
40.0	20.299287230243863	pulse	0.0	t		object	car-52.jpg	0.0	40.269456730774436	
40.0	20.407277598660585	ISI	1.0		7.0	object	car-52.jpg	0.0	40.37744709919116	0.11668831468705321
41.0	20.523965913347638	car	0.0		46.0	object	car-59.jpg	0.0	40.49413541387821	0.383300667612275
41.0	20.907266580959913	ISI	1.0		7.0	object	car-59.jpg	0.0	40.87743608149049	0.11670401113769913
42.0	21.023970592097612	car	0.0		45.0	object	car-27.jpg	0.0	40.994140092628186	0.3833338716403887
42.0	21.014424735672947	pulse	0.0	t		object	car-27.jpg	0.0	40.98459423620352	
42.0	21.407304463738	ISI	1.0		7.0	object	car-27.jpg	0.0	41.377473964268574	0.11667533493073279
43.0	21.523979798668734	car	0.0		46.0	object	car-88.jpg	0.0	41.49414929919931	0.3832647468907453
43.0	21.699260244424295	pulse	0.0	t		object	car-88.jpg	0.0	41.66942974495487	
43.0	21.90724454555948	ISI	1.0		5.0	object	car-88.jpg	0.0	41.87741404609005	0.11670340742693952
44.0	22.02394795298642	car	0.0		46.0	object	car-18.jpg	0.0	41.99411745351699	0.38328859341982024
44.0	22.40723654640624	ISI	1.0		6.0	object	car-18.jpg	0.0	42.37740604693681	0.11670220000905829
44.0	22.451069486674896	pulse	1.0	t		object	car-18.jpg	0.0	42.42123898720547	
45.0	22.523938746415297	car	0.0		46.0	object	car-8.jpg	0.0	42.49410824694587	0.3832855748714792
45.0	22.907224321286776	ISI	1.0		7.0	object	car-8.jpg	0.0	42.87739382181735	0.11668167388143047
46.0	23.023905995168207	car	0.0		46.0	object	car-58.jpg	0.0	42.99407549569878	0.3833024787418253
46.0	23.099307816741202	pulse	0.0	t		object	car-58.jpg	0.0	43.069477317271776	
46.0	23.407208473910032	ISI	1.0		7.0	object	car-58.jpg	0.0	43.377377974440606	0.11669344621896016
47.0	23.523901920128992	car	0.0		46.0	object	car-47.jpg	0.0	43.494071420659566	0.383300667612275
47.0	23.799212823033486	pulse	0.0	t		object	car-47.jpg	0.0	43.76938232356406	
47.0	23.907202587741267	ISI	1.0		11.0	object	car-47.jpg	0.0	43.87737208827184	0.09999966795930959
48.0	24.007202255700577	baseline	0.0		48.0		baseline	0.0	43.97737175623115	0.400007425628246
48.0	24.407209681328823	ISI	1.0		11.0		baseline	0.0	44.377379181859396	0.10004404061601235
49.0	24.507253721944835	baseline	0.0		47.0		baseline	0.0	44.47742322247541	0.3999319619269954
49.0	24.4996819959606	pulse	0.0	t			baseline	0.0	44.469851496491174	
49.0	24.90718568387183	ISI	1.0		11.0		baseline	0.0	44.877355184402404	0.1000099310231235
50.0	25.007195614894954	baseline	0.0		48.0		baseline	0.0	44.97736511542553	0.4000457611882666
50.0	25.199235039547602	pulse	0.0	t			baseline	0.0	45.169404540078176	
50.0	25.40724137608322	ISI	1.0		11.0		baseline	0.0	45.377410876613794	0.0999981586865033
51.0	25.507239534769724	baseline	0.0		48.0		baseline	0.0	45.4774090353003	0.3999902199038843
51.0	25.907229754673608	ISI	1.0		11.0		baseline	0.0	45.87739925520418	0.09999695126680308
51.0	25.89929067138837	pulse	1.0	t			baseline	0.0	45.869460171918945	
52.0	26.00722670594041	baseline	0.0		48.0		baseline	0.0	45.977396206470985	0.39999535143579124
52.0	26.407222057376202	ISI	1.0		11.0		baseline	0.0	46.377391557906776	0.09999634755695297
53.0	26.507218404933155	baseline	0.0		48.0		baseline	0.0	46.47738790546373	0.39999112546865945
53.0	26.599288045251342	pulse	0.0	t			baseline	0.0	46.569457545781916	
53.0	26.907209530401815	ISI	1.0		11.0		baseline	0.0	46.87737903093239	0.09999634755604347
54.0	27.00720587795786	baseline	0.0		48.0		baseline	0.0	46.97737537848843	0.4000047089357395
54.0	27.299264289278653	pulse	0.0	t			baseline	0.0	47.26943378980923	
54.0	27.407210586893598	ISI	1.0		11.0		baseline	0.0	47.37738008742417	0.09999906424945948
55.0	27.507209651143057	baseline	0.0		48.0		baseline	0.0	47.47737915167363	0.39997724014756386
55.0	27.90718689129062	ISI	1.0		11.0		baseline	0.0	47.877356391821195	0.09998970675133023
55.0	27.999219101613562	pulse	1.0	t			baseline	0.0	47.969388602144136	
56.0	28.00717659804195	baseline	0.0		48.0		baseline	0.0	47.977346098572525	0.39999535143579124
56.0	28.407171949477743	ISI	1.0		11.0		baseline	0.0	48.377341450008316	0.10000268650765065
57.0	28.507174635985393	baseline	0.0		48.0		baseline	0.0	48.47734413651597	0.3999908236146439
57.0	28.699238510877876	pulse	0.0	t			baseline	0.0	48.66940801140845	
57.0	28.907165459600037	ISI	1.0		11.0		baseline	0.0	48.87733496013061	0.0999906123151959
58.0	29.007156071915233	baseline	0.0		48.0		baseline	0.0	48.97732557244581	0.40000350151603925
58.0	29.399038471697168	pulse	0.0	t			baseline	0.0	49.36920797222774	
58.0	29.407159573431272	ISI	1.0		11.0		baseline	0.0	49.377329073961846	0.09999302715368685
59.0	29.50715260058496	baseline	0.0		48.0		baseline	0.0	49.47732210111553	0.39999112546865945
59.0	29.90714372605362	ISI	1.0		5.0		baseline	0.0	49.87731322658419	0.1166511865458233
60.0	30.023794912599442	adult	0.0		46.0	face	adult-104.jpg	0.0	49.993964413130016	0.38326987842174276
60.0	30.099084142329048	pulse	0.0	t		face	adult-104.jpg	0.0	50.06925364285962	
60.0	30.407064791021185	ISI	1.0		7.0	face	adult-104.jpg	0.0	50.37723429155176	0.11669374807388522
61.0	30.52375853909507	adult	0.0		46.0	face	adult-27.jpg	0.0	50.493928039625644	0.38329674350006826
61.0	30.799065517887357	pulse	0.0	t		face	adult-27.jpg	0.0	50.76923501841793	
61.0	30.907055282595138	ISI	1.0		5.0	face	adult-27.jpg	0.0	50.87722478312571	0.11668197573635553
62.0	31.023737258331494	adult	0.0		46.0	face	adult-18.jpg	0.0	50.99390675886207	0.3833239104324093
62.0	31.407061168763903	ISI	1.0		6.0	face	adult-18.jpg	0.0	51.37723066929448	0.11668167388143047
63.0	31.523742842645333	adult	0.0		45.0	face	adult-121.jpg	0.0	51.49391234317591	0.38329070640338614
63.0	31.51408680921668	pulse	0.0	t		face	adult-121.jpg	0.0	51.48425630974725	
63.0	31.90703354904872	ISI	1.0		7.0	face	adult-121.jpg	0.0	51.87720304957929	0.11668469242977153
64.0	32.02371824147849	adult	0.0		46.0	face	adult-92.jpg	0.0	51.993887742009065	0.3833048935794068
64.0	32.19904396545462	pulse	0.0	t		face	adult-92.jpg	0.0	52.169213465985194	
64.0	32.4070231350579	ISI	1.0		7.0	face	adult-92.jpg	0.0	52.37719263558847	0.11668348501007131
65.0	32.52370662006797	adult	0.0		46.0	face	adult-54.jpg	0.0	52.49387612059854	0.383311534385939
65.0	32.90701815445391	ISI	1.0		7.0	face	adult-54.jpg	0.0	52.87718765498448	0.11668891839690332
65.0	32.94336056768043	pulse	1.0	t		face	adult-54.jpg	0.0	52.913530068211	
66.0	33.02370707285081	adult	0.0		46.0	face	adult-51.jpg	0.0	52.993876573381385	0.3832991583376497
66.0	33.40700623118846	ISI	1.0		7.0	face	adult-51.jpg	0.0	53.377175731719035	0.11668318315605575
67.0	33.52368941434452	adult	0.0		46.0	face	adult-94.jpg	0.0	53.49385891487509	0.3833184770455773
67.0	33.59900732028109	pulse	0.0	t		face	adult-94.jpg	0.0	53.56917682081166	
67.0	33.907007891390094	ISI	1.0		7.0	face	adult-94.jpg	0.0	53.87717739192067	0.11668982396167848
68.0	34.02369771535177	adult	0.0		46.0	face	adult-40.jpg	0.0	53.99386721588235	0.3832825563231381
68.0	34.29899473293517	pulse	0.0	t		face	adult-40.jpg	0.0	54.269164233465744	
68.0	34.40698027167491	ISI	1.0		4.0	face	adult-40.jpg	0.0	54.377149772205485	0.11668589984947175
69.0	34.52366617152438	adult	0.0		46.0	face	adult-71.jpg	0.0	54.493835672054956	0.3833211937389933
69.0	34.906987365263376	ISI	1.0		7.0	face	adult-71.jpg	0.0	54.87715686579395	0.11666990154390078
70.0	35.02365726680728	adult	0.0		45.0	face	adult-30.jpg	0.0	54.99382676733785	0.38331877890050237
70.0	35.01398342394532	pulse	0.0	t		face	adult-30.jpg	0.0	54.98415292447589	
70.0	35.40697604570778	ISI	1.0		6.0	face	adult-30.jpg	0.0	55.37714554623835	0.11668620170348731
71.0	35.523662247411266	adult	0.0		46.0	face	adult-98.jpg	0.0	55.49383174794184	0.38328648043716385
71.0	35.69896472856726	pulse	0.0	t		face	adult-98.jpg	0.0	55.669134229097835	
71.0	35.90694872784843	ISI	1.0		11.0	face	adult-98.jpg	0.0	55.877118228379004	0.09999966795930959
72.0	36.00694839580774	baseline	0.0		48.0		baseline	0.0	55.977117896338314	0.4000590428004216
72.0	36.40700743860816	ISI	1.0		11.0		baseline	0.0	56.377176939138735	0.1000126477165395
72.0	36.399008286216485	pulse	1.0	t			baseline	0.0	56.36917778674706	
73.0	36.5070200863247	baseline	0.0		48.0		baseline	0.0	56.477189586855275	0.3999923328874502
73.0	36.90701241921215	ISI	1.0		11.0		baseline	0.0	56.877181919742725	0.09999755497665319
74.0	37.007009974188804	baseline	0.0		48.0		baseline	0.0	56.97717947471938	0.3999929365973003
74.0	37.09898151169455	pulse	0.0	t			baseline	0.0	57.06915101222512	
74.0	37.407002910786105	ISI	1.0		11.0		baseline	0.0	57.37717241131668	0.10001928852216224
75.0	37.50702219930827	baseline	0.0		48.0		baseline	0.0	57.47719169983884	0.39996909006731585
75.0	37.79896741507582	pulse	0.0	t			baseline	0.0	57.769136915606396	
75.0	37.90699128937558	ISI	1.0		11.0		baseline	0.0	57.877160789906156	0.09998608449404855
76.0	38.00697737386963	baseline	0.0		48.0		baseline	0.0	57.977146874400205	0.3999902199038843
76.0	38.406967593773516	ISI	1.0		11.0		baseline	0.0	58.37713709430409	0.09999212158982118
76.0	38.49889989015537	pulse	1.0	t			baseline	0.0	58.469069390685945	
77.0	38.50695971536334	baseline	0.0		48.0		baseline	0.0	58.47712921589391	0.3999962569996569
77.0	38.906955972362994	ISI	1.0		11.0		baseline	0.0	58.87712547289357	0.09998940489640518
78.0	39.0069453772594	baseline	0.0		48.0		baseline	0.0	58.97711487778997	0.4000210090944165
78.0	39.19894133482012	pulse	0.0	t			baseline	0.0	59.16911083535069	
78.0	39.406966386353815	ISI	1.0		11.0		baseline	0.0	59.37713588688439	0.0999933290095214
79.0	39.50695971536334	baseline	0.0		48.0		baseline	0.0	59.47712921589391	0.39999112546865945
79.0	39.906950840831996	ISI	1.0		11.0		baseline	0.0	59.87712034136257	0.09999725312081864
79.0	39.898913051024465	pulse	1.0	t			baseline	0.0	59.86908255155504	
80.0	40.006948093952815	baseline	0.0		48.0		baseline	0.0	59.97711759448339	0.39997814571233903
80.0	40.406926239665154	ISI	1.0		11.0		baseline	0.0	60.37709574019573	0.09999332900861191
81.0	40.506919568673766	baseline	0.0		48.0		baseline	0.0	60.47708906920434	0.39999323845222534
81.0	40.59878515514265	pulse	0.0	t			baseline	0.0	60.568954655673224	
81.0	40.90691280712599	ISI	1.0		11.0		baseline	0.0	60.877082307656565	0.09999996981423465
82.0	41.006912776940226	baseline	0.0		48.0		baseline	0.0	60.9770822774708	0.3999893143400186
82.0	41.29875596578313	pulse	0.0	t			baseline	0.0	61.2689254663137	
82.0	41.406902091280244	ISI	1.0		11.0		baseline	0.0	61.37707159181082	0.10000268650765065
83.0	41.506904777787895	baseline	0.0		48.0		baseline	0.0	61.47707427831847	0.39998629579167755
83.0	41.90689107357957	ISI	1.0		11.0		baseline	0.0	61.877060574110146	0.1000002716691597
83.0	41.99874820811419	pulse	1.0	t			baseline	0.0	61.96891770864477	
84.0	42.00689134524873	baseline	0.0		48.0		baseline	0.0	61.977060845779306	0.39998961619494366
84.0	42.406880961443676	ISI	1.0		11.0		baseline	0.0	62.37705046197425	0.09999876239544392
85.0	42.50687972383912	baseline	0.0		48.0		baseline	0.0	62.47704922436969	0.40000833119302115
85.0	42.69888232220546	pulse	0.0	t			baseline	0.0	62.66905182273604	
85.0	42.90688805503214	ISI	1.0		11.0		baseline	0.0	62.877057555562715	0.099983065944798
86.0	43.00687112097694	baseline	0.0		48.0		baseline	0.0	62.97704062150751	0.3999929365973003
86.0	43.39872756124532	pulse	0.0	t			baseline	0.0	63.3688970617759	
86.0	43.40686405757424	ISI	1.0		11.0		baseline	0.0	63.37703355810481	0.10003739981129911
87.0	43.50690145738554	baseline	0.0		48.0		baseline	0.0	63.47707095791611	0.3999609399879773
87.0	43.906862397373516	ISI	1.0		11.0		baseline	0.0	63.87703189790409	0.09997944368751632
88.0	44.00684184106103	baseline	0.0		48.0		baseline	0.0	63.977011341591606	0.3999971625644321
88.0	44.09883571582304	pulse	0.0	t			baseline	0.0	64.06900521635362	
88.0	44.406839003625464	ISI	1.0		11.0		baseline	0.0	64.37700850415604	0.09999815868559381
89.0	44.50683716231106	baseline	0.0		48.0		baseline	0.0	64.47700666284163	0.3999920310334346
89.0	44.79868427526617	pulse	0.0	t			baseline	0.0	64.76885377579674	
89.0	44.90682919334449	ISI	1.0		11.0		baseline	0.0	64.87699869387507	0.09999604570202791
90.0	45.00682523904652	baseline	0.0		48.0		baseline	0.0	64.9769947395771	0.39999535143579124
90.0	45.40682059048231	ISI	1.0		11.0		baseline	0.0	65.37699009101289	0.10000087537900981
91.0	45.50682146586132	baseline	0.0		47.0		baseline	0.0	65.4769909663919	0.3999872013564527
91.0	45.4989029087028	pulse	0.0	t			baseline	0.0	65.46907240923338	
91.0	45.906808667217774	ISI	1.0		11.0		baseline	0.0	65.87697816774835	0.09999121602504601
92.0	46.00679988324282	baseline	0.0		48.0		baseline	0.0	65.9769693837734	0.39999655885458196
92.0	46.19864702638279	pulse	0.0	t			baseline	0.0	66.16881652691336	
92.0	46.4067964420974	ISI	1.0		11.0		baseline	0.0	66.37696594262798	0.09999906425036897
93.0	46.50679550634777	baseline	0.0		48.0		baseline	0.0	66.47696500687834	0.3999881069203184
93.0	46.90678361326809	ISI	1.0		11.0		baseline	0.0	66.87695311379866	0.10002291078035341
93.0	46.8987944220853	pulse	1.0	t			baseline	0.0	66.86896392261588	
94.0	47.00680652404844	baseline	0.0		48.0		baseline	0.0	66.97697602457902	0.39997029748701607
94.0	47.40677682153546	ISI	1.0		11.0		baseline	0.0	67.37694632206603	0.10000479949121654
95.0	47.506781621026676	baseline	0.0		48.0		baseline	0.0	67.47695112155725	0.40000018111277313
95.0	47.59877791062718	pulse	0.0	t			baseline	0.0	67.56894741115775	
95.0	47.90678180213945	ISI	1.0		7.0		baseline	0.0	67.87695130267002	0.11665269582044857
96.0	48.0234344979599	word	0.0		46.0	character	word-58.jpg	0.0	67.99360399849047	0.38328225446912256
96.0	48.298582399268525	pulse	0.0	t		character	word-58.jpg	0.0	68.2687518997991	
96.0	48.40671675242902	ISI	1.0		5.0	character	word-58.jpg	0.0	68.3768862529596	0.11670038887950795
97.0	48.52341714130853	word	0.0		46.0	character	word-12.jpg	0.0	68.4935866418391	0.3833067047080476
97.0	48.906723846016575	ISI	1.0		6.0	character	word-12.jpg	0.0	68.87689334654715	0.11668348501007131
98.0	49.02340733102665	word	0.0		45.0	character	word-19.jpg	0.0	68.99357683155722	0.3832867822911794
98.0	49.013937240159976	pulse	0.0	t		character	word-19.jpg	0.0	68.98410674069055	
98.0	49.406694113317826	ISI	1.0		7.0	character	word-19.jpg	0.0	69.3768636138484	0.11673510218224692
99.0	49.52342921550007	word	0.0		46.0	character	word-80.jpg	0.0	69.49359871603065	0.3832578042301975
99.0	49.698565374657846	pulse	0.0	t		character	word-80.jpg	0.0	69.66873487518842	
99.0	49.90668701973027	ISI	1.0		7.0	character	word-80.jpg	0.0	69.87685652026084	0.11668801283212815
100.0	50.0233750325624	word	0.0		46.0	character	word-17.jpg	0.0	69.99354453309297	0.38330308245076594
100.0	50.398532563040135	pulse	0.0	t		character	word-17.jpg	0.0	70.36870206357071	
100.0	50.406678115013165	ISI	1.0		7.0	character	word-17.jpg	0.0	70.37684761554374	0.11668318315605575
101.0	50.52336129816922	word	0.0		46.0	character	word-90.jpg	0.0	70.4935307986998	0.3832876878550451
101.0	50.906648986024265	ISI	1.0		5.0	character	word-90.jpg	0.0	70.87681848655484	0.11669103138046921
102.0	51.023340017404735	word	0.0		46.0	character	word-9.jpg	0.0	70.99350951793531	0.38328165075927245
102.0	51.09850850521161	pulse	0.0	t		character	word-9.jpg	0.0	71.06867800574219	
102.0	51.40662166816401	ISI	1.0		7.0	character	word-9.jpg	0.0	71.37679116869458	0.11667925904293952
103.0	51.52330092720695	word	0.0		46.0	character	word-84.jpg	0.0	71.49347042773752	0.38330911954744806
103.0	51.79848112698073	pulse	0.0	t		character	word-84.jpg	0.0	71.7686506275113	
103.0	51.906610046754395	ISI	1.0		5.0	character	word-84.jpg	0.0	71.87677954728497	0.11668861654197826
104.0	52.02329866329637	word	0.0		46.0	character	word-34.jpg	0.0	71.99346816382695	0.38330368616061605
104.0	52.40660234945699	ISI	1.0		7.0	character	word-34.jpg	0.0	72.37677184998756	0.11668529613871215
105.0	52.5232876455957	word	0.0		45.0	character	word-34.jpg	1.0	72.49345714612627	0.3833199863202026
105.0	52.51393678737713	pulse	0.0	t		character	word-34.jpg	1.0	72.48410628790771	
105.0	52.906607631915904	ISI	1.0		7.0	character	word-34.jpg	1.0	72.87677713244648	0.11668831468705321
106.0	53.02329594660296	word	0.0		46.0	character	word-50.jpg	0.0	72.99346544713353	0.3832834618888228
106.0	53.198477685836224	pulse	0.0	t		character	word-50.jpg	0.0	73.1686471863668	
106.0	53.223393687189855	response	0.0	b		character	word-50.jpg	0.0	73.19356318772043	
106.0	53.40657940849178	ISI	1.0		6.0	character	word-50.jpg	0.0	73.37674890902235	0.11670340742693952
107.0	53.52328281591872	word	0.0		46.0	character	word-4.jpg	0.0	73.4934523164493	0.38328648043625435
107.0	53.89843249817113	pulse	0.0	t		character	word-4.jpg	0.0	73.8686019987017	
107.0	53.906569296354974	ISI	1.0		11.0	character	word-4.jpg	0.0	73.87673879688555	0.09999906425036897
108.0	54.00656836060534	baseline	0.0		48.0		baseline	0.0	73.97673786113592	0.39999052175880934
108.0	54.40655888236415	ISI	1.0		11.0		baseline	0.0	74.37672838289473	0.10000117723393487
109.0	54.50656005959809	baseline	0.0		48.0		baseline	0.0	74.47672956012866	0.40000350151603925
109.0	54.598572649358175	pulse	0.0	t			baseline	0.0	74.56874214988875	
109.0	54.906563561114126	ISI	1.0		11.0		baseline	0.0	74.8767330616447	0.09999906425036897
110.0	55.006562625364495	baseline	0.0		48.0		baseline	0.0	74.97673212589507	0.3999796549851453
110.0	55.298554628626334	pulse	0.0	t			baseline	0.0	75.26872412915691	
110.0	55.40654228034964	ISI	1.0		11.0		baseline	0.0	75.37671178088021	0.09999483828323719
111.0	55.50653711863288	baseline	0.0		48.0		baseline	0.0	75.47670661916345	0.3999914273235845
111.0	55.90652854595646	ISI	1.0		11.0		baseline	0.0	75.87669804648704	0.0999975549757437
111.0	55.99838477492631	pulse	1.0	t			baseline	0.0	75.96855427545688	
112.0	56.006526100932206	baseline	0.0		48.0		baseline	0.0	75.97669560146278	0.3999908236137344
112.0	56.40651692454594	ISI	1.0		11.0		baseline	0.0	76.37668642507651	0.10004554989063763
113.0	56.50656247443658	baseline	0.0		48.0		baseline	0.0	76.47673197496715	0.40001316087000305
113.0	56.698377319112296	pulse	0.0	t			baseline	0.0	76.66854681964287	
113.0	56.90657563530658	ISI	1.0		11.0		baseline	0.0	76.87674513583715	0.09999393271846202
114.0	57.00656956802504	baseline	0.0		48.0		baseline	0.0	76.97673906855562	0.39999263474237523
114.0	57.39835084644619	pulse	0.0	t			baseline	0.0	77.36852034697677	
114.0	57.40656220276742	ISI	1.0		11.0		baseline	0.0	77.37673170329799	0.09999634755695297
115.0	57.50655855032437	baseline	0.0		48.0		baseline	0.0	77.47672805085494	0.39999444587101607
115.0	57.90655299619539	ISI	1.0		11.0		baseline	0.0	77.87672249672596	0.10000057352408476
116.0	58.00655356971947	baseline	0.0		48.0		baseline	0.0	77.97672307025005	0.39999323845313484
116.0	58.098338259100274	pulse	0.0	t			baseline	0.0	78.06850775963085	
116.0	58.40654680817261	ISI	1.0		11.0		baseline	0.0	78.37671630870318	0.09999483828232769
117.0	58.506541646454934	baseline	0.0		48.0		baseline	0.0	78.47671114698551	0.39999052175880934
117.0	58.79831661611115	pulse	0.0	t			baseline	0.0	78.76848611664172	
117.0	58.906532168213744	ISI	1.0		11.0		baseline	0.0	78.87670166874432	0.10000208279871003
118.0	59.006534251012454	baseline	0.0		48.0		baseline	0.0	78.97670375154303	0.3999914273235845
118.0	59.40652567833604	ISI	1.0		11.0		baseline	0.0	79.37669517886661	0.10001174215176434
118.0	59.49830795287835	pulse	1.0	t			baseline	0.0	79.46847745340892	
119.0	59.5065374204878	baseline	0.0		48.0		baseline	0.0	79.47670692101838	0.3999742215992228
119.0	59.906511642087025	ISI	1.0		5.0		baseline	0.0	79.8766811426176	0.11665933662607131
120.0	60.0231709787131	body	0.0		46.0	body	body-65.jpg	0.0	79.99334047924367	0.383260520922704
120.0	60.198278461662994	pulse	0.0	t		body	body-65.jpg	0.0	80.16844796219357	
120.0	60.4064314996358	ISI	1.0		5.0	body	body-65.jpg	0.0	80.37660100016637	0.11668801283212815
121.0	60.52311951246793	body	0.0		46.0	body	body-24.jpg	0.0	80.4932890129985	0.38331877890141186
121.0	60.90643829136934	ISI	1.0		7.0	body	body-24.jpg	0.0	80.87660779189991	0.11668589984856226
121.0	60.89825802609266	pulse	1.0	t		body	body-24.jpg	0.0	80.86842752662324	
122.0	61.0231241912179	body	0.0		46.0	body	body-24.jpg	1.0	80.99329369174848	0.38328587672640424
122.0	61.40641006794431	ISI	1.0		5.0	body	body-24.jpg	1.0	81.37657956847488	0.11668680541333742
123.0	61.523096873357645	body	0.0		46.0	body	body-94.jpg	0.0	81.49326637388822	0.38332028817512764
123.0	61.598338711883116	pulse	0.0	t		body	body-94.jpg	0.0	81.56850821241369	
123.0	61.8398627043598	response	0.0	b		body	body-94.jpg	0.0	81.81003220489038	
123.0	61.90641716153277	ISI	1.0		7.0	body	body-94.jpg	0.0	81.87658666206335	0.11668529613871215
124.0	62.023102457671484	body	0.0		46.0	body	body-72.jpg	0.0	81.99327195820206	0.3832882915648952
124.0	62.298170971166655	pulse	0.0	t		body	body-72.jpg	0.0	82.26834047169723	
124.0	62.40639074923638	ISI	1.0		6.0	body	body-72.jpg	0.0	82.37656024976695	0.11670582226633996
125.0	62.52309657150272	body	0.0		46.0	body	body-67.jpg	0.0	82.4932660720333	0.383300667612275
125.0	62.906397239114995	ISI	1.0		7.0	body	body-67.jpg	0.0	82.87656673964557	0.11667986275278963
126.0	63.023077101867784	body	0.0		45.0	body	body-29.jpg	0.0	82.99324660239836	0.3832937249517272
126.0	63.013622405595925	pulse	0.0	t		body	body-29.jpg	0.0	82.9837919061265	
126.0	63.40637082681951	ISI	1.0		6.0	body	body-29.jpg	0.0	83.37654032735009	0.1167022000081488
127.0	63.52307302682766	body	0.0		46.0	body	body-88.jpg	0.0	83.49324252735823	0.3832855748723887
127.0	63.698188659857806	pulse	0.0	t		body	body-88.jpg	0.0	83.66835816038838	
127.0	63.90635860170005	ISI	1.0		7.0	body	body-88.jpg	0.0	83.87652810223062	0.11668227759128058
128.0	64.02304087929133	body	0.0		46.0	body	body-126.jpg	0.0	83.9932103798219	0.3833088176916135
128.0	64.39817094098089	pulse	0.0	t		body	body-126.jpg	0.0	84.36834044151146	
128.0	64.40634969698294	ISI	1.0		7.0	body	body-126.jpg	0.0	84.37651919751352	0.11668046646263974
129.0	64.52303016344558	body	0.0		46.0	body	body-110.jpg	0.0	84.49319966397616	0.3833323623666729
129.0	64.90636252581226	ISI	1.0		5.0	body	body-110.jpg	0.0	84.87653202634283	0.11670431299171469
130.0	65.02306683880397	body	0.0		46.0	body	body-58.jpg	0.0	84.99323633933454	0.38326233205225435
130.0	65.09826611580138	pulse	0.0	t		body	body-58.jpg	0.0	85.06843561633195	
130.0	65.40632917085622	ISI	1.0		6.0	body	body-58.jpg	0.0	85.3764986713868	0.11667925904293952
131.0	65.52300842989916	body	0.0		46.0	body	body-111.jpg	0.0	85.49317793042974	0.38330428986955667
131.0	65.7981234290346	pulse	0.0	t		body	body-111.jpg	0.0	85.76829292956518	
131.0	65.90631271976872	ISI	1.0		11.0	body	body-111.jpg	0.0	85.8764822202993	0.10006034077650838
132.0	66.00637306054523	baseline	0.0		48.0		baseline	0.0	85.9765425610758	0.400001992241414
132.0	66.40637505278664	ISI	1.0		11.0		baseline	0.0	86.37654455331722	0.09999876239544392
132.0	66.49815642176509	pulse	1.0	t			baseline	0.0	86.46832592229566	
133.0	66.50637381518209	baseline	0.0		48.0		baseline	0.0	86.47654331571266	0.40000501078975503
133.0	66.90637882597184	ISI	1.0		11.0		baseline	0.0	86.87654832650242	0.09999695126680308
134.0	67.00637577723865	baseline	0.0		48.0		baseline	0.0	86.97654527776922	0.3999914273235845
134.0	67.19817492546463	pulse	0.0	t			baseline	0.0	87.1683444259952	
134.0	67.40636720456223	ISI	1.0		11.0		baseline	0.0	87.3765367050928	0.09999936610438453
135.0	67.50636657066661	baseline	0.0		48.0		baseline	0.0	87.47653607119719	0.3999914273235845
135.0	67.89813668046008	pulse	0.0	t			baseline	0.0	87.86830618099066	
135.0	67.9063579979902	ISI	1.0		11.0		baseline	0.0	87.87652749852077	0.10000178094378498
136.0	68.00635977893398	baseline	0.0		48.0		baseline	0.0	87.97652927946456	0.4000107460306026
136.0	68.40637052496459	ISI	1.0		11.0		baseline	0.0	88.37654002549516	0.09997763255887548
137.0	68.50634815752346	baseline	0.0		48.0		baseline	0.0	88.47651765805404	0.40001255716015294
137.0	68.59820529205808	pulse	0.0	t			baseline	0.0	88.56837479258866	
137.0	68.90636071468361	ISI	1.0		11.0		baseline	0.0	88.87653021521419	0.09998880118655507
138.0	69.00634951587017	baseline	0.0		48.0		baseline	0.0	88.97651901640074	0.3999790512762047
138.0	69.29811090206022	pulse	0.0	t			baseline	0.0	89.26828040259079	
138.0	69.40632856714637	ISI	1.0		11.0		baseline	0.0	89.37649806767695	0.09999996981423465
139.0	69.50632853696061	baseline	0.0		48.0		baseline	0.0	89.47649803749118	0.39998750321137777
139.0	69.90631604017199	ISI	1.0		11.0		baseline	0.0	89.87648554070256	0.09999906425036897
139.0	69.99809167390868	pulse	1.0	t			baseline	0.0	89.96826117443925	
140.0	70.00631510442236	baseline	0.0		48.0		baseline	0.0	89.97648460495293	0.39996848635746574
140.0	70.40628359077982	ISI	1.0		11.0		baseline	0.0	90.3764530913104	0.10000419578227593
141.0	70.5062877865621	baseline	0.0		48.0		baseline	0.0	90.47645728709267	0.39998961619494366
141.0	70.69808572736929	pulse	0.0	t			baseline	0.0	90.66825522789986	
141.0	70.90627740275704	ISI	1.0		11.0		baseline	0.0	90.87644690328761	0.09999695126589359
142.0	71.00627435402293	baseline	0.0		48.0		baseline	0.0	90.97644385455351	0.400007425628246
142.0	71.39806016026705	pulse	0.0	t			baseline	0.0	91.36822966079762	
142.0	71.40628177965118	ISI	1.0		11.0		baseline	0.0	91.37645128018175	0.09998729191283928
143.0	71.50626907156402	baseline	0.0		48.0		baseline	0.0	91.4764385720946	0.39999052175880934
143.0	71.90625959332283	ISI	1.0		7.0		baseline	0.0	91.8764290938534	0.1166732219471669
144.0	72.02293281527	house	0.0		46.0	place	house-94.jpg	0.0	91.99310231580057	0.3832949323705179
144.0	72.09802251897236	pulse	0.0	t		place	house-94.jpg	0.0	92.06819201950293	
144.0	72.40622774764051	ISI	1.0		4.0	place	house-94.jpg	0.0	92.37639724817109	0.11668740912318754
145.0	72.5229151567637	house	0.0		46.0	place	house-16.jpg	0.0	92.49308465729428	0.38330036575734994
145.0	72.79800359267574	pulse	0.0	t		place	house-16.jpg	0.0	92.76817309320631	
145.0	72.90621552252105	ISI	1.0		7.0	place	house-16.jpg	0.0	92.87638502305163	0.11668891839690332
146.0	73.02290444091796	house	0.0		46.0	place	house-144.jpg	0.0	92.99307394144853	0.38328587672731373
146.0	73.40619031764527	ISI	1.0		5.0	place	house-144.jpg	0.0	93.37635981817584	0.12502403518828942
146.0	73.49801243702132	pulse	1.0	t		place	house-144.jpg	0.0	93.46818193755189	
147.0	73.53121435283356	house	0.0		45.0	place	house-106.jpg	0.0	93.50138385336413	0.37497400275515247
147.0	73.90618835558871	ISI	1.0		7.0	place	house-106.jpg	0.0	93.87635785611928	0.11667442936595762
148.0	74.02286278495467	house	0.0		46.0	place	house-19.jpg	0.0	93.99303228548524	0.38328648043625435
148.0	74.19797932354959	pulse	0.0	t		place	house-19.jpg	0.0	94.16814882408016	
148.0	74.40614926539092	ISI	1.0		7.0	place	house-19.jpg	0.0	94.3763187659215	0.11670914266869659
149.0	74.52285840805962	house	0.0		46.0	place	house-19.jpg	1.0	94.4930279085902	0.3832701802766678
149.0	74.89791210048406	pulse	0.0	t		place	house-19.jpg	1.0	94.86808160101464	
149.0	74.90612858833629	ISI	1.0		5.0	place	house-19.jpg	1.0	94.87629808886686	0.11667835347907385
150.0	75.02280694181536	house	0.0		46.0	place	house-142.jpg	0.0	94.99297644234593	0.3833118362399546
150.0	75.07301596117668	response	0.0	b		place	house-142.jpg	0.0	95.04318546170725	
150.0	75.40611877805532	ISI	1.0		7.0	place	house-142.jpg	0.0	95.37628827858589	0.11667925904293952
151.0	75.52279803709826	house	0.0		46.0	place	house-46.jpg	0.0	95.49296753762883	0.3833233067234687
151.0	75.59795052660047	pulse	0.0	t		place	house-46.jpg	0.0	95.56812002713104	
151.0	75.90612134382172	ISI	1.0		7.0	place	house-46.jpg	0.0	95.8762908443523	0.11667684420444857
152.0	76.02279818802617	house	0.0		46.0	place	house-11.jpg	0.0	95.99296768855675	0.383295234225443
152.0	76.29789205732504	pulse	0.0	t		place	house-11.jpg	0.0	96.26806155785562	
152.0	76.40609342225162	ISI	1.0		7.0	place	house-11.jpg	0.0	96.37626292278219	0.11668167388143047
153.0	76.52277509613305	house	0.0		46.0	place	house-37.jpg	0.0	96.49294459666362	0.3833248159971845
153.0	76.90609991213023	ISI	1.0		7.0	place	house-37.jpg	0.0	96.8762694126608	0.1250104517221189
153.0	76.99792927602266	pulse	1.0	t		place	house-37.jpg	0.0	96.96809877655323	
154.0	77.03111036385235	house	0.0		45.0	place	house-48.jpg	0.0	97.00127986438292	0.3749676638044548
154.0	77.4060780276568	ISI	1.0		4.0	place	house-48.jpg	0.0	97.37624752818738	0.11669827589594206
155.0	77.52277630355275	house	0.0		46.0	place	house-28.jpg	0.0	97.49294580408332	0.3833039880146316
155.0	77.69794687415742	pulse	0.0	t		place	house-28.jpg	0.0	97.668116374688	
155.0	77.90608029156738	ISI	1.0		7.0	place	house-28.jpg	0.0	97.87624979209795	0.11670401113769913
156.0	78.02278430270508	body	0.0		46.0	body	body-77.jpg	0.0	97.99295380323565	0.38327199140530865
156.0	78.39785459714312	pulse	0.0	t		body	body-77.jpg	0.0	98.3680240976737	
156.0	78.40605629411039	ISI	1.0		6.0	body	body-77.jpg	0.0	98.37622579464096	0.11668318315514625
157.0	78.52273947726553	body	0.0		46.0	body	body-2.jpg	0.0	98.4929089777961	0.38331817519156175
157.0	78.9060576524571	ISI	1.0		7.0	body	body-2.jpg	0.0	98.87622715298767	0.11668740912318754
158.0	79.02274506158028	body	0.0		46.0	body	body-26.jpg	0.0	98.99291456211085	0.38328587672640424
158.0	79.09788034535813	pulse	0.0	t		body	body-26.jpg	0.0	99.06804984588871	
158.0	79.40603093830669	ISI	1.0		7.0	body	body-26.jpg	0.0	99.37620043883726	0.11668589984856226
159.0	79.52271683815525	body	0.0		46.0	body	body-22.jpg	0.0	99.49288633868582	0.3833199863202026
159.0	79.7978040666485	pulse	0.0	t		body	body-22.jpg	0.0	99.76797356717907	
159.0	79.90603682447545	ISI	1.0		7.0	body	body-22.jpg	0.0	99.87620632500602	0.11668469242977153
160.0	80.02272151690522	body	0.0		46.0	body	body-56.jpg	0.0	99.9928910174358	0.38328587672640424
160.0	80.40600739363163	ISI	1.0		5.0	body	body-56.jpg	0.0	100.3761768941622	0.11689116111756448
160.0	80.49780294978518	pulse	1.0	t		body	body-56.jpg	0.0	100.46797245031576	
161.0	80.52289855474919	body	0.0		46.0	body	body-18.jpg	0.0	100.49306805527976	0.38314732537037344
161.0	80.90604588011956	ISI	1.0		7.0	body	body-18.jpg	0.0	100.87621538065014	0.11667835347816435
162.0	81.02272423359773	body	0.0		46.0	body	body-1.jpg	0.0	100.9928937341283	0.38328165076018195
162.0	81.19777708082893	pulse	0.0	t		body	body-1.jpg	0.0	101.1679465813595	
162.0	81.40600588435791	ISI	1.0		6.0	body	body-1.jpg	0.0	101.37617538488848	0.11668891839690332
163.0	81.52269480275481	body	0.0		46.0	body	body-27.jpg	0.0	101.49286430328539	0.38328587672640424
163.0	81.89780192347916	pulse	0.0	t		body	body-27.jpg	0.0	101.86797142400974	
163.0	81.90598067948122	ISI	1.0		6.0	body	body-27.jpg	0.0	101.87615018001179	0.11667956089786458
164.0	82.02266024037908	body	0.0		46.0	body	body-90.jpg	0.0	101.99282974090966	0.3833067047080476
164.0	82.40596694508713	ISI	1.0		5.0	body	body-90.jpg	0.0	102.3761364456177	0.11668801283303765
165.0	82.52265495792017	body	0.0		46.0	body	body-127.jpg	0.0	102.49282445845074	0.3833018750310657
165.0	82.59788592967197	pulse	0.0	t		body	body-127.jpg	0.0	102.56805543020255	
165.0	82.90595683295123	ISI	1.0		7.0	body	body-127.jpg	0.0	102.8761263334818	0.11668167388143047
166.0	83.02263850683266	body	0.0		46.0	body	body-43.jpg	0.0	102.99280800736324	0.38330730841789773
166.0	83.29775682637137	pulse	0.0	t		body	body-43.jpg	0.0	103.26792632690194	
166.0	83.40594581525056	ISI	1.0		7.0	body	body-43.jpg	0.0	103.37611531578113	0.11668197573635553
167.0	83.52262779098692	body	0.0		46.0	body	body-123.jpg	0.0	103.49279729151749	0.38332451414225943
167.0	83.90595230512918	ISI	1.0		6.0	body	body-123.jpg	0.0	103.87612180565975	0.11671638718416943
167.0	83.99776053918504	pulse	1.0	t		body	body-123.jpg	0.0	103.96793003971561	
168.0	84.02266869231335	car	0.0		46.0	object	car-122.jpg	0.0	103.99283819284392	0.3832587097940632
168.0	84.40592740210741	ISI	1.0		6.0	object	car-122.jpg	0.0	104.37609690263798	0.11668439057484647
169.0	84.52261179268226	car	0.0		46.0	object	car-100.jpg	0.0	104.49278129321283	0.3833193826103525
169.0	84.69775459264565	pulse	0.0	t		object	car-100.jpg	0.0	104.66792409317623	
169.0	84.90593117529261	ISI	1.0		7.0	object	car-100.jpg	0.0	104.87610067582318	0.10844948957856104
170.0	85.01438066487117	car	0.0		47.0	object	car-119.jpg	0.0	104.98455016540174	0.39152651296444674
170.0	85.39771212167398	pulse	0.0	t		object	car-119.jpg	0.0	105.36788162220455	
170.0	85.40590717783562	ISI	1.0		7.0	object	car-119.jpg	0.0	105.37607667836619	0.10835078305626666
171.0	85.51425796089188	car	0.0		47.0	object	car-65.jpg	0.0	105.48442746142246	0.39163548254964553
171.0	85.90589344344153	ISI	1.0		4.0	object	car-65.jpg	0.0	105.8760629439721	0.10835500902430795
172.0	86.01424845246584	car	0.0		47.0	object	car-83.jpg	0.0	105.98441795299641	0.39163457698487036
172.0	86.09780729649447	pulse	0.0	t		object	car-83.jpg	0.0	106.06797679702504	
172.0	86.4058830294507	ISI	1.0		6.0	object	car-83.jpg	0.0	106.37605252998128	0.10835349975059216
173.0	86.5142365292013	car	0.0		47.0	object	car-28.jpg	0.0	106.48440602973187	0.39164091593556805
173.0	86.797701436014	pulse	0.0	t		object	car-28.jpg	0.0	106.76787093654457	
173.0	86.90587744513687	ISI	1.0		6.0	object	car-28.jpg	0.0	106.87604694566744	0.10835712200787384
174.0	87.01423456714474	car	0.0		47.0	object	car-128.jpg	0.0	106.98440406767531	0.39166023464349564
174.0	87.40589480178824	ISI	1.0		6.0	object	car-128.jpg	0.0	107.37606430231881	0.11670672783111513
174.0	87.49771692116519	pulse	1.0	t		object	car-128.jpg	0.0	107.46788642169577	
175.0	87.52260152961935	car	0.0		46.0	object	car-128.jpg	1.0	107.49277103014992	0.3832502578588901
175.0	87.90585178747824	ISI	1.0		6.0	object	car-128.jpg	1.0	107.87602128800881	0.10835319789566711
175.0	87.94773716052987	response	1.0	b		object	car-128.jpg	1.0	107.91790666106044	
176.0	88.01420498537391	car	0.0		47.0	object	car-43.jpg	0.0	107.98437448590448	0.3916357844045706
176.0	88.19761558850678	pulse	0.0	t		object	car-43.jpg	0.0	108.16778508903735	
176.0	88.40584076977848	ISI	1.0		6.0	object	car-43.jpg	0.0	108.37601027030905	0.11668408871992142
177.0	88.5225248584984	car	0.0		46.0	object	car-66.jpg	0.0	108.49269435902897	0.3833130436587453
177.0	88.89764073301194	pulse	0.0	t		object	car-66.jpg	0.0	108.86781023354251	
177.0	88.90583790215715	ISI	1.0		7.0	object	car-66.jpg	0.0	108.87600740268772	0.11669374807388522
178.0	89.02253165023103	car	0.0		46.0	object	car-71.jpg	0.0	108.9927011507616	0.38328919712967036
178.0	89.4058208473607	ISI	1.0		7.0	object	car-71.jpg	0.0	109.37599034789127	0.11667895718801446
179.0	89.52249980454872	car	0.0		46.0	object	car-127.jpg	0.0	109.49266930507929	0.383308817692523
179.0	89.59768549807995	pulse	0.0	t		object	car-127.jpg	0.0	109.56785499861053	
179.0	89.90580862224124	ISI	1.0		7.0	object	car-127.jpg	0.0	109.87597812277181	0.11668197573635553
180.0	90.0224905979776	adult	0.0		46.0	face	adult-131.jpg	0.0	109.99266009850817	0.38330730841789773
180.0	90.29758597655018	pulse	0.0	t		face	adult-131.jpg	0.0	110.26775547708075	
180.0	90.40579790639549	ISI	1.0		6.0	face	adult-131.jpg	0.0	110.37596740692607	0.116692540654185
181.0	90.52249044704968	adult	0.0		46.0	face	adult-34.jpg	0.0	110.49265994758025	0.3832970453549933
181.0	90.90578749240467	ISI	1.0		8.0	face	adult-34.jpg	0.0	110.87595699293524	0.12499777382072352
181.0	90.99756554097985	pulse	1.0	t		face	adult-34.jpg	0.0	110.96773504151042	
182.0	91.0307852662254	adult	0.0		45.0	face	adult-34.jpg	1.0	111.00095476675597	0.37500599936447543
182.0	91.40579126558987	ISI	1.0		8.0	face	adult-34.jpg	1.0	111.37596076612044	0.11668891839690332
183.0	91.52248018398677	adult	0.0		46.0	face	adult-53.jpg	0.0	111.49264968451735	0.3832894989845954
183.0	91.67256662011096	response	0.0	b		face	adult-53.jpg	0.0	111.64273612064153	
183.0	91.69754510540952	pulse	0.0	t		face	adult-53.jpg	0.0	111.66771460594009	
183.0	91.90576968297137	ISI	1.0		5.0	face	adult-53.jpg	0.0	111.87593918350194	0.11668861654197826
184.0	92.02245829951335	adult	0.0		46.0	face	adult-112.jpg	0.0	111.99262780004392	0.3833018750310657
184.0	92.39755394975509	pulse	0.0	t		face	adult-112.jpg	0.0	112.36772345028567	
184.0	92.40576017454441	ISI	1.0		7.0	face	adult-112.jpg	0.0	112.37592967507499	0.11671367049075343
185.0	92.52247384503517	adult	0.0		46.0	face	adult-66.jpg	0.0	112.49264334556574	0.38327259511606826
185.0	92.90574644015123	ISI	1.0		6.0	face	adult-66.jpg	0.0	112.87591594068181	0.11668620170348731
186.0	93.02243264185472	adult	0.0		46.0	face	adult-56.jpg	0.0	112.9926021423853	0.38330157317614066
186.0	93.09753351418476	pulse	0.0	t		face	adult-56.jpg	0.0	113.06770301471533	
186.0	93.40573421503086	ISI	1.0		6.0	face	adult-56.jpg	0.0	113.37590371556144	0.11670853895975597
187.0	93.52244275399062	adult	0.0		46.0	face	adult-23.jpg	0.0	113.49261225452119	0.3833287401093912
187.0	93.79754356595004	pulse	0.0	t		face	adult-23.jpg	0.0	113.76771306648061	
187.0	93.90577149410001	ISI	1.0		8.0	face	adult-23.jpg	0.0	113.87594099463058	0.11667473122088268
188.0	94.02244622532089	adult	0.0		46.0	face	adult-50.jpg	0.0	113.99261572585146	0.3832689728569676
188.0	94.40571519817786	ISI	1.0		7.0	face	adult-50.jpg	0.0	114.37588469870843	0.12501407398031006
188.0	94.49749203933425	pulse	1.0	t		face	adult-50.jpg	0.0	114.46766153986482	
189.0	94.53072927215817	adult	0.0		45.0	face	adult-26.jpg	0.0	114.50089877268874	0.37497339904530236
189.0	94.90570267120347	ISI	1.0		7.0	face	adult-26.jpg	0.0	114.87587217173404	0.11668861654197826
190.0	95.02239128774545	adult	0.0		46.0	face	adult-123.jpg	0.0	114.99256078827602	0.38330519543433184
190.0	95.19748186682682	pulse	0.0	t		face	adult-123.jpg	0.0	115.1676513673574	
190.0	95.40569648317978	ISI	1.0		6.0	face	adult-123.jpg	0.0	115.37586598371036	0.1167000870254924
191.0	95.52239657020527	adult	0.0		46.0	face	adult-86.jpg	0.0	115.49256607073585	0.38328165075927245
191.0	95.89747139246538	pulse	0.0	t		face	adult-86.jpg	0.0	115.86764089299595	
191.0	95.90567822096455	ISI	1.0		7.0	face	adult-86.jpg	0.0	115.87584772149512	0.11670733154005575
192.0	96.0223855525046	body	0.0		46.0	body	body-141.jpg	0.0	115.99255505303518	0.38328497116253857
192.0	96.40567052366714	ISI	1.0		6.0	body	body-141.jpg	0.0	116.37584002419771	0.11669344621896016
193.0	96.5223639698861	body	0.0		46.0	body	body-87.jpg	0.0	116.49253347041667	0.3832970453540838
193.0	96.59745457915233	pulse	0.0	t		body	body-87.jpg	0.0	116.5676240796829	
193.0	96.90566101524018	ISI	1.0		7.0	body	body-87.jpg	0.0	116.87583051577076	0.11671548162030376
194.0	97.02237649686049	body	0.0		46.0	body	body-87.jpg	1.0	116.99254599739106	0.383289800838611
194.0	97.29744893446787	pulse	0.0	t		body	body-87.jpg	1.0	117.26761843499844	
194.0	97.4056662976991	ISI	1.0		7.0	body	body-87.jpg	1.0	117.37583579822967	0.116671108963601
194.0	97.47244563670392	response	1.0	b		body	body-87.jpg	1.0	117.4426151372345	
195.0	97.5223374066627	body	0.0		46.0	body	body-136.jpg	0.0	117.49250690719327	0.3833184770455773
195.0	97.90565588370828	ISI	1.0		7.0	body	body-136.jpg	0.0	117.87582538423885	0.12502312962533324
195.0	97.99763255274684	pulse	1.0	t		body	body-136.jpg	0.0	117.96780205327741	
196.0	98.03067901333361	body	0.0		45.0	body	body-64.jpg	0.0	118.00084851386418	0.37495287291767454
196.0	98.40563188625129	ISI	1.0		5.0	body	body-64.jpg	0.0	118.37580138678186	0.11668529613962164
197.0	98.5223171823909	body	0.0		46.0	body	body-35.jpg	0.0	118.49248668292148	0.3833018750310657
197.0	98.69740836518122	pulse	0.0	t		body	body-35.jpg	0.0	118.66757786571179	
197.0	98.90561905742197	ISI	1.0		6.0	body	body-35.jpg	0.0	118.87578855795255	0.11668439057484647
198.0	99.02230344799682	body	0.0		46.0	body	body-80.jpg	0.0	118.99247294852739	0.38332240115869354
198.0	99.3974196243662	pulse	0.0	t		body	body-80.jpg	0.0	119.36758912489677	
198.0	99.40562584915551	ISI	1.0		6.0	body	body-80.jpg	0.0	119.37579534968609	0.11668620170348731
199.0	99.522312050859	body	0.0		46.0	body	body-78.jpg	0.0	119.49248155138957	0.3832846693076135
199.0	99.90559672016661	ISI	1.0		7.0	body	body-78.jpg	0.0	119.87576622069719	0.10835832942666457
200.0	100.01395504959328	body	0.0		47.0	body	body-49.jpg	0.0	119.98412455012385	0.3916638569016868
200.0	100.09742273347001	pulse	0.0	t		body	body-49.jpg	0.0	120.06759223400059	
200.0	100.40561890649496	ISI	1.0		6.0	body	body-49.jpg	0.0	120.37578840702554	0.11670733154005575
201.0	100.52232623803502	body	0.0		46.0	body	body-57.jpg	0.0	120.4924957385656	0.38328165075927245
201.0	100.79739716636777	pulse	0.0	t		body	body-57.jpg	0.0	120.76756666689835	
201.0	100.9056078887943	ISI	1.0		6.0	body	body-57.jpg	0.0	120.87577738932487	0.11669374807388522
202.0	101.02230163686818	body	0.0		46.0	body	body-5.jpg	0.0	120.99247113739875	0.38331274180472974
202.0	101.40561437867291	ISI	1.0		6.0	body	body-5.jpg	0.0	121.37578387920348	0.11668408871992142
202.0	101.49751588586423	pulse	1.0	t		body	body-5.jpg	0.0	121.4676853863948	
203.0	101.52229846739283	body	0.0		46.0	body	body-55.jpg	0.0	121.4924679679234	0.3832731988250089
203.0	101.90557166621784	ISI	1.0		6.0	body	body-55.jpg	0.0	121.87574116674841	0.10835138676611678
204.0	102.01392305298396	adult	0.0		47.0	face	adult-43.jpg	0.0	121.98409255351453	0.39162099351869983
204.0	102.19734180619616	pulse	0.0	t		face	adult-43.jpg	0.0	122.16751130672674	
204.0	102.40554404650265	ISI	1.0		6.0	face	adult-43.jpg	0.0	122.37571354703323	0.10835561273324856
205.0	102.5138996592359	adult	0.0		47.0	face	adult-135.jpg	0.0	122.48406915976648	0.3916309547275887
205.0	102.89732318175447	pulse	0.0	t		face	adult-135.jpg	0.0	122.86749268228505	
205.0	102.90553061396349	ISI	1.0		6.0	face	adult-135.jpg	0.0	122.87570011449407	0.10848480659115012
206.0	103.01401542055464	adult	0.0		47.0	face	adult-83.jpg	0.0	122.98418492108522	0.3915108165147103
206.0	103.40552623706935	ISI	1.0		7.0	face	adult-83.jpg	0.0	123.37569573759993	0.11668439057393698
207.0	103.52221062764329	adult	0.0		46.0	face	adult-55.jpg	0.0	123.49238012817386	0.38330217688690027
207.0	103.59730968884469	pulse	0.0	t		face	adult-55.jpg	0.0	123.56747918937526	
207.0	103.90551280453019	ISI	1.0		7.0	face	adult-55.jpg	0.0	123.87568230506076	0.11669103138046921
208.0	104.02220383591066	adult	0.0		46.0	face	adult-133.jpg	0.0	123.99237333644123	0.3832991583376497
208.0	104.297291064403	pulse	0.0	t		face	adult-133.jpg	0.0	124.26746056493357	
208.0	104.40550299424831	ISI	1.0		7.0	face	adult-133.jpg	0.0	124.37567249477888	0.11669012581660354
209.0	104.52219312006491	adult	0.0		46.0	face	adult-142.jpg	0.0	124.49236262059549	0.3833145529333706
209.0	104.90550767299828	ISI	1.0		7.0	face	adult-142.jpg	0.0	124.87567717352886	0.12502494075306458
209.0	104.99733250906866	pulse	1.0	t		face	adult-142.jpg	0.0	124.96750200959923	
210.0	105.03053261375135	adult	0.0		45.0	face	adult-87.jpg	0.0	125.00070211428192	0.3749483450965272
210.0	105.40548095884787	ISI	1.0		6.0	face	adult-87.jpg	0.0	125.37565045937845	0.11668861654197826
211.0	105.52216957538985	adult	0.0		46.0	face	adult-107.jpg	0.0	125.49233907592043	0.38331545849814574
211.0	105.69726347487449	pulse	0.0	t		face	adult-107.jpg	0.0	125.66743297540506	
211.0	105.905485033888	ISI	1.0		7.0	face	adult-107.jpg	0.0	125.87565453441857	0.11668861654197826
212.0	106.02217365042998	adult	0.0		46.0	face	adult-52.jpg	0.0	125.99234315096055	0.38331274180472974
212.0	106.39725903760882	pulse	0.0	t		face	adult-52.jpg	0.0	126.3674285381394	
212.0	106.4054863922347	ISI	1.0		8.0	face	adult-52.jpg	0.0	126.37565589276528	0.11668952210584393
213.0	106.52217591434055	adult	0.0		46.0	face	adult-52.jpg	1.0	126.49234541487112	0.3832901026944455
213.0	106.905466017035	ISI	1.0		7.0	face	adult-52.jpg	1.0	126.87563551756557	0.11667925904293952
214.0	107.02214527607794	adult	0.0		45.0	face	adult-79.jpg	0.0	126.99231477660851	0.3832964416451432
214.0	107.01402779660202	response	0.0	b		face	adult-79.jpg	0.0	126.9841972971326	
214.0	107.09723799832864	pulse	0.0	t		face	adult-79.jpg	0.0	127.06740749885921	
214.0	107.40544171772308	ISI	1.0		6.0	face	adult-79.jpg	0.0	127.37561121825365	0.11669948331473279
215.0	107.52214120103781	adult	0.0		46.0	face	adult-77.jpg	0.0	127.49231070156839	0.38331123253101396
215.0	107.79725982243053	pulse	0.0	t		face	adult-77.jpg	0.0	127.7674293229611	
215.0	107.90545243356883	ISI	1.0		4.0	face	adult-77.jpg	0.0	127.8756219340994	0.11671216121703765
216.0	108.02216459478586	car	0.0		46.0	object	car-16.jpg	0.0	127.99233409531644	0.3832964416442337
216.0	108.4054610364301	ISI	1.0		6.0	object	car-16.jpg	0.0	128.37563053696067	0.12502645002768986
216.0	108.49728406137183	pulse	1.0	t		object	car-16.jpg	0.0	128.4674535619024	
217.0	108.53048748645779	car	0.0		45.0	object	car-84.jpg	0.0	128.50065698698836	0.3749670600946047
217.0	108.90545454655239	ISI	1.0		7.0	object	car-84.jpg	0.0	128.87562404708297	0.1166732219462574
218.0	109.02212776849865	car	0.0		46.0	object	car-22.jpg	0.0	128.99229726902922	0.38330428987046616
218.0	109.19721774387108	pulse	0.0	t		object	car-22.jpg	0.0	129.16738724440165	
218.0	109.40543205836912	ISI	1.0		7.0	object	car-22.jpg	0.0	129.3756015588997	0.1166904276706191
219.0	109.52212248603973	car	0.0		46.0	object	car-46.jpg	0.0	129.4922919865703	0.383311534385939
219.0	109.89721602329791	pulse	0.0	t		object	car-46.jpg	0.0	129.8673855238285	
219.0	109.90543402042567	ISI	1.0		7.0	object	car-46.jpg	0.0	129.87560352095625	0.11669163508940983
220.0	110.02212565551508	car	0.0		46.0	object	car-14.jpg	0.0	129.99229515604566	0.38325327640814066
220.0	110.40537893192322	ISI	1.0		7.0	object	car-14.jpg	0.0	130.3755484324538	0.11669948331473279
221.0	110.52207841523796	car	0.0		46.0	object	car-44.jpg	0.0	130.49224791576853	0.38330247874091583
221.0	110.59716751523047	pulse	0.0	t		object	car-44.jpg	0.0	130.56733701576104	
221.0	110.90538089397887	ISI	1.0		7.0	object	car-44.jpg	0.0	130.87555039450945	0.11667080710867594
222.0	111.02205170108755	car	0.0		46.0	object	car-40.jpg	0.0	130.99222120161812	0.38330157317705016
222.0	111.29714345740285	pulse	0.0	t		object	car-40.jpg	0.0	131.26731295793343	
222.0	111.4053532742646	ISI	1.0		7.0	object	car-40.jpg	0.0	131.37552277479517	0.11668620170348731
223.0	111.52203947596809	car	0.0		46.0	object	car-86.jpg	0.0	131.49220897649866	0.3833205900291432
223.0	111.90536006599723	ISI	1.0		7.0	object	car-86.jpg	0.0	131.8755295665278	0.11668891839690332
223.0	111.99713992570105	pulse	1.0	t		object	car-86.jpg	0.0	131.96730942623162	
224.0	112.02204898439413	car	0.0		46.0	object	car-9.jpg	0.0	131.9922184849247	0.38328436745268846
224.0	112.40533335184682	ISI	1.0		5.0	object	car-9.jpg	0.0	132.3755028523774	0.11668680541333742
225.0	112.52202015726016	car	0.0		46.0	object	car-25.jpg	0.0	132.49218965779073	0.3833054972892569
225.0	112.6971116419063	pulse	0.0	t		object	car-25.jpg	0.0	132.66728114243688	
225.0	112.90532565454942	ISI	1.0		7.0	object	car-25.jpg	0.0	132.87549515508	0.11669857775086712
226.0	113.02202423230028	car	0.0		46.0	object	car-42.jpg	0.0	132.99219373283086	0.383292517532027
226.0	113.39711233617163	pulse	0.0	t		object	car-42.jpg	0.0	133.3672818367022	
226.0	113.40531674983231	ISI	1.0		7.0	object	car-42.jpg	0.0	133.37548625036288	0.11669767218700144
227.0	113.52201442201931	car	0.0		46.0	object	car-26.jpg	0.0	133.49218392254988	0.3833027805958409
227.0	113.90531720261515	ISI	1.0		5.0	object	car-26.jpg	0.0	133.87548670314573	0.1166711089626915
228.0	114.02198831157784	word	0.0		46.0	character	word-59.jpg	0.0	133.99215781210842	0.383308817692523
228.0	114.09708224124734	pulse	0.0	t		character	word-59.jpg	0.0	134.0672517417779	
228.0	114.40529712927037	ISI	1.0		7.0	character	word-59.jpg	0.0	134.37546662980094	0.11669767218609195
229.0	114.52199480145646	word	0.0		46.0	character	word-52.jpg	0.0	134.49216430198703	0.38330247874091583
229.0	114.79707720027272	pulse	0.0	t		character	word-52.jpg	0.0	134.7672467008033	
229.0	114.90529728019737	ISI	1.0		6.0	character	word-52.jpg	0.0	134.87546678072795	0.11668529613962164
230.0	115.021982576337	word	0.0		46.0	character	word-20.jpg	0.0	134.99215207686757	0.3833039880146316
230.0	115.40528656435163	ISI	1.0		6.0	character	word-20.jpg	0.0	135.3754560648822	0.11668861654197826
230.0	115.49706521663666	pulse	1.0	t		character	word-20.jpg	0.0	135.46723471716723	
231.0	115.5219751808936	word	0.0		46.0	character	word-129.jpg	0.0	135.49214468142418	0.3833024787418253
231.0	115.90527765963543	ISI	1.0		4.0	character	word-129.jpg	0.0	135.875447160166	0.11668922025182837
232.0	116.02196687988726	word	0.0		46.0	character	word-106.jpg	0.0	135.99213638041783	0.3833145529333706
232.0	116.19708311662635	pulse	0.0	t		character	word-106.jpg	0.0	136.16725261715692	
232.0	116.40528143282063	ISI	1.0		7.0	character	word-106.jpg	0.0	136.3754509333512	0.11670370928186458
233.0	116.5219851421025	word	0.0		46.0	character	word-10.jpg	0.0	136.49215464263307	0.38330096946720005
233.0	116.8970650958945	pulse	0.0	t		character	word-10.jpg	0.0	136.86723459642508	
233.0	116.9052861115697	ISI	1.0		5.0	character	word-10.jpg	0.0	136.87545561210027	0.11669163509031932
234.0	117.02197774666001	word	0.0		46.0	character	word-95.jpg	0.0	136.9921472471906	0.3832433151983423
234.0	117.40522106185836	ISI	1.0		6.0	character	word-95.jpg	0.0	137.37539056238893	0.11670914266960608
235.0	117.52193020452796	word	0.0		46.0	character	word-88.jpg	0.0	137.49209970505854	0.3833021768859908
235.0	117.59701688968198	pulse	0.0	t		character	word-88.jpg	0.0	137.56718639021256	
235.0	117.90523238141395	ISI	1.0		6.0	character	word-88.jpg	0.0	137.87540188194453	0.11666959968897572
236.0	118.02190198110293	word	0.0		46.0	character	word-144.jpg	0.0	137.9920714816335	0.3833039880155411
236.0	118.29699403927316	pulse	0.0	t		character	word-144.jpg	0.0	138.26716353980373	
236.0	118.40520596911847	ISI	1.0		7.0	character	word-144.jpg	0.0	138.37537546964904	0.11668982396167848
237.0	118.52189579308015	word	0.0		46.0	character	word-117.jpg	0.0	138.49206529361072	0.38331606220708636
237.0	118.90521185528723	ISI	1.0		7.0	character	word-117.jpg	0.0	138.8753813558178	0.11667503307580773
237.0	118.99699895950653	pulse	1.0	t		character	word-117.jpg	0.0	138.9671684600371	
238.0	119.02188688836304	word	0.0		46.0	character	word-134.jpg	0.0	138.99205638889362	0.383324815996275
238.0	119.40521170435932	ISI	1.0		7.0	character	word-134.jpg	0.0	139.3753812048899	0.11667261823731678
239.0	119.52188432259663	word	0.0		46.0	character	word-78.jpg	0.0	139.4920538231272	0.3832916119681613
239.0	119.69697158127565	pulse	0.0	t		character	word-78.jpg	0.0	139.66714108180622	
239.0	119.9051759345648	ISI	1.0		5.0	character	word-78.jpg	0.0	139.87534543509537	0.11671487791045365
240.0	120.02189081247525	car	0.0		46.0	object	car-91.jpg	0.0	139.99206031300582	0.38328980083952047
240.0	120.3969586920748	pulse	0.0	t		object	car-91.jpg	0.0	140.36712819260538	
240.0	120.40518061331477	ISI	1.0		7.0	object	car-91.jpg	0.0	140.37535011384534	0.11668469242977153
241.0	120.52186530574454	car	0.0		46.0	object	car-23.jpg	0.0	140.49203480627511	0.38330519543433184
241.0	120.90517050117887	ISI	1.0		7.0	object	car-23.jpg	0.0	140.87534000170945	0.11668499428378709
242.0	121.02185549546266	car	0.0		46.0	object	car-76.jpg	0.0	140.99202499599323	0.3833027805958409
242.0	121.09694640658472	pulse	0.0	t		object	car-76.jpg	0.0	141.0671159071153	
242.0	121.4051582760585	ISI	1.0		6.0	object	car-76.jpg	0.0	141.37532777658907	0.11668771097811259
243.0	121.52184598703661	car	0.0		46.0	object	car-113.jpg	0.0	141.4920154875672	0.38330157317705016
243.0	121.79693110254539	pulse	0.0	t		object	car-113.jpg	0.0	141.76710060307596	
243.0	121.90514756021366	ISI	1.0		6.0	object	car-113.jpg	0.0	141.87531706074424	0.11668710726735299
244.0	122.02183466748102	car	0.0		46.0	object	car-137.jpg	0.0	141.9920041680116	0.38328980083952047
244.0	122.40512446832054	ISI	1.0		5.0	object	car-137.jpg	0.0	142.3752939688511	0.11669404992881027
244.0	122.49691398737832	pulse	1.0	t		object	car-137.jpg	0.0	142.4670834879089	
245.0	122.52181851824935	car	0.0		46.0	object	car-134.jpg	0.0	142.49198801877992	0.3833088176916135
245.0	122.90512733594096	ISI	1.0		7.0	object	car-134.jpg	0.0	142.87529683647153	0.11668831468705321
246.0	123.02181565062801	car	0.0		46.0	object	car-95.jpg	0.0	142.9919851511586	0.38333477720607334
246.0	123.19693883002856	pulse	0.0	t		object	car-95.jpg	0.0	143.16710833055913	
246.0	123.40515042783409	ISI	1.0		7.0	object	car-95.jpg	0.0	143.37531992836466	0.11668710726826248
247.0	123.52183753510235	car	0.0		46.0	object	car-41.jpg	0.0	143.49200703563292	0.38328859341982024
247.0	123.89691899816808	pulse	0.0	t		object	car-41.jpg	0.0	143.86708849869865	
247.0	123.90512612852217	ISI	1.0		7.0	object	car-41.jpg	0.0	143.87529562905274	0.11670129444337363
248.0	124.02182742296554	car	0.0		46.0	object	car-41.jpg	1.0	143.99199692349612	0.3833018750319752
248.0	124.40512929799752	ISI	1.0		6.0	object	car-41.jpg	1.0	144.3752987985281	0.11668710726826248
249.0	124.52181640526578	car	0.0		45.0	object	car-133.jpg	0.0	144.49198590579635	0.3832973472090089
249.0	124.52639675011051	response	0.0	b		object	car-133.jpg	0.0	144.49656625064108	
249.0	124.59689886445267	pulse	0.0	t		object	car-133.jpg	0.0	144.56706836498324	
249.0	124.90511375247479	ISI	1.0		7.0	object	car-133.jpg	0.0	144.87528325300536	0.11669887960579217
250.0	125.02181263208058	car	0.0		46.0	object	car-99.jpg	0.0	144.99198213261116	0.38329010269353603
250.0	125.2969197829907	pulse	0.0	t		object	car-99.jpg	0.0	145.26708928352127	
250.0	125.40510273477412	ISI	1.0		6.0	object	car-99.jpg	0.0	145.3752722353047	0.11672031129728566
251.0	125.5218230460714	car	0.0		46.0	object	car-80.jpg	0.0	145.49199254660198	0.38327199140530865
251.0	125.90509503747671	ISI	1.0		6.0	object	car-80.jpg	0.0	145.8752645380073	0.12502645002768986
251.0	125.99691051604805	pulse	1.0	t		object	car-80.jpg	0.0	145.96708001657862	
252.0	126.0301214875044	house	0.0		45.0	place	house-128.jpg	0.0	146.00029098803498	0.3749429117096952
252.0	126.4050643992141	ISI	1.0		7.0	place	house-128.jpg	0.0	146.37523389974467	0.11671125565226248
253.0	126.52177565486636	house	0.0		46.0	place	house-121.jpg	0.0	146.49194515539693	0.3832511634236653
253.0	126.69683967072433	pulse	0.0	t		place	house-121.jpg	0.0	146.6670091712549	
253.0	126.90502681829003	ISI	1.0		5.0	place	house-121.jpg	0.0	146.8751963188206	0.1167344984733063
254.0	127.02176131676333	house	0.0		46.0	place	house-90.jpg	0.0	146.9919308172939	0.38325478568094695
254.0	127.39680836838124	pulse	0.0	t		place	house-90.jpg	0.0	147.36697786891182	
254.0	127.40501610244428	ISI	1.0		7.0	place	house-90.jpg	0.0	147.37518560297485	0.11668620170439681
255.0	127.52170230414868	house	0.0		46.0	place	house-57.jpg	0.0	147.49187180467925	0.3833021768859908
255.0	127.90500448103467	ISI	1.0		5.0	place	house-57.jpg	0.0	147.87517398156524	0.11668680541333742
256.0	128.021691286448	house	0.0		46.0	place	house-40.jpg	0.0	147.99186078697858	0.38330308245076594
256.0	128.096787630956	pulse	0.0	t		place	house-40.jpg	0.0	148.06695713148656	
256.0	128.40499436889877	ISI	1.0		7.0	place	house-40.jpg	0.0	148.37516386942934	0.1166904276706191
257.0	128.5216847965694	house	0.0		46.0	place	house-120.jpg	0.0	148.49185429709996	0.3833000639024249
257.0	128.79676930836922	pulse	0.0	t		place	house-120.jpg	0.0	148.7669388088998	
257.0	128.9049848604718	ISI	1.0		7.0	place	house-120.jpg	0.0	148.8751543610024	0.11668861654197826
258.0	129.0216734770138	house	0.0		46.0	place	house-95.jpg	0.0	148.99184297754437	0.3833024787418253
258.0	129.40497595575562	ISI	1.0		7.0	place	house-95.jpg	0.0	149.3751454562862	0.11668348501007131
258.0	129.4967552117496	pulse	1.0	t		place	house-95.jpg	0.0	149.46692471228016	
259.0	129.5216594407657	house	0.0		46.0	place	house-125.jpg	0.0	149.49182894129626	0.38331877890050237
259.0	129.9049782196662	ISI	1.0		7.0	place	house-125.jpg	0.0	149.87514772019676	0.11667442936595762
260.0	130.02165264903215	house	0.0		46.0	place	house-96.jpg	0.0	149.99182214956272	0.38329825277378404
260.0	130.1967429262586	pulse	0.0	t		place	house-96.jpg	0.0	150.16691242678917	
260.0	130.40495090180593	ISI	1.0		7.0	place	house-96.jpg	0.0	150.3751204023365	0.11668891839690332
261.0	130.52163982020284	house	0.0		46.0	place	house-109.jpg	0.0	150.4918093207334	0.3833024787418253
261.0	130.8967230943981	pulse	0.0	t		place	house-109.jpg	0.0	150.8668925949287	
261.0	130.90494229894466	ISI	1.0		6.0	place	house-109.jpg	0.0	150.87511179947523	0.11668982396076899
262.0	131.02163212290543	house	0.0		46.0	place	house-32.jpg	0.0	150.991801623436	0.38330217688690027
262.0	131.40493429979233	ISI	1.0		7.0	place	house-32.jpg	0.0	151.3751038003229	0.11670642597528058
263.0	131.5216407257676	house	0.0		46.0	place	house-64.jpg	0.0	151.49181022629818	0.38329553608036804
263.0	131.5967219775357	pulse	0.0	t		place	house-64.jpg	0.0	151.56689147806628	
263.0	131.90493626184798	ISI	1.0		5.0	place	house-64.jpg	0.0	151.87510576237855	0.1166904276715286
264.0	132.0216266895195	car	0.0		46.0	object	car-55.jpg	0.0	151.99179619005008	0.38328316003298823
264.0	132.29669399559498	pulse	0.0	t		object	car-55.jpg	0.0	152.26686349612555	
264.0	132.4049098495525	ISI	1.0		7.0	object	car-55.jpg	0.0	152.37507935008307	0.11668861654197826
265.0	132.52159846609447	car	0.0		46.0	object	car-54.jpg	0.0	152.49176796662505	0.38333689018963923
265.0	132.9049353562841	ISI	1.0		7.0	object	car-54.jpg	0.0	152.8751048568147	0.1250358075258191
265.0	132.9967604942085	pulse	1.0	t		object	car-54.jpg	0.0	152.96692999473908	
266.0	133.02997116380993	car	0.0		45.0	object	car-90.jpg	0.0	153.0001406643405	0.3749426098547701
266.0	133.4049137736647	ISI	1.0		5.0	object	car-90.jpg	0.0	153.37508327419528	0.11670914266960608
267.0	133.5216229163343	car	0.0		46.0	object	car-143.jpg	0.0	153.49179241686488	0.3833021768859908
267.0	133.69671047686734	pulse	0.0	t		object	car-143.jpg	0.0	153.6668799773979	
267.0	133.9049250932203	ISI	1.0		7.0	object	car-143.jpg	0.0	153.87509459375087	0.11667503307580773
268.0	134.0216001262961	car	0.0		46.0	object	car-68.jpg	0.0	153.99176962682668	0.3832970453540838
268.0	134.39669094686087	pulse	0.0	t		object	car-68.jpg	0.0	154.36686044739145	
268.0	134.4048971716502	ISI	1.0		7.0	object	car-68.jpg	0.0	154.37506667218076	0.11670642597619008
269.0	134.52160359762638	car	0.0		46.0	object	car-81.jpg	0.0	154.49177309815695	0.38328436745268846
269.0	134.90488796507907	ISI	1.0		7.0	object	car-81.jpg	0.0	154.87505746560964	0.11668740912318754
270.0	135.02157537420226	car	0.0		46.0	object	car-63.jpg	0.0	154.99174487473283	0.38329885648272466
270.0	135.09668590588626	pulse	0.0	t		object	car-63.jpg	0.0	155.06685540641683	
270.0	135.40487423068498	ISI	1.0		7.0	object	car-63.jpg	0.0	155.37504373121556	0.1167076333949808
271.0	135.52158186407996	car	0.0		46.0	object	car-32.jpg	0.0	155.49175136461054	0.3832855748723887
271.0	135.7966687907183	pulse	0.0	t		object	car-32.jpg	0.0	155.76683829124886	
271.0	135.90486743895235	ISI	1.0		7.0	object	car-32.jpg	0.0	155.87503693948292	0.11668982396076899
272.0	136.02155726291312	car	0.0		46.0	object	car-5.jpg	0.0	155.9917267634437	0.3832846693076135
272.0	136.40484193222073	ISI	1.0		5.0	object	car-5.jpg	0.0	156.3750114327513	0.11667805162414879
272.0	136.49661786781235	pulse	1.0	t		object	car-5.jpg	0.0	156.46678736834292	
273.0	136.52151998384488	car	0.0		46.0	object	car-125.jpg	0.0	156.49168948437546	0.3832937249517272
273.0	136.9048137087966	ISI	1.0		6.0	object	car-125.jpg	0.0	156.87498320932718	0.11669193694433488
274.0	137.02150564574094	car	0.0		46.0	object	car-34.jpg	0.0	156.99167514627152	0.3832970453549933
274.0	137.19659501740352	pulse	0.0	t		object	car-34.jpg	0.0	157.1667645179341	
274.0	137.40480269109594	ISI	1.0		7.0	object	car-34.jpg	0.0	157.3749721916265	0.11668922025182837
275.0	137.52149191134777	car	0.0		46.0	object	car-110.jpg	0.0	157.49166141187834	0.38330247874091583
275.0	137.8965760911069	pulse	0.0	t		object	car-110.jpg	0.0	157.86674559163748	
275.0	137.90479439008868	ISI	1.0		7.0	object	car-110.jpg	0.0	157.87496389061926	0.11668408871992142
276.0	138.0214784788086	body	0.0		46.0	body	body-46.jpg	0.0	157.99164797933918	0.38332149559391837
276.0	138.40479997440252	ISI	1.0		7.0	body	body-46.jpg	0.0	158.3749694749331	0.11669767218609195
277.0	138.5214976465886	body	0.0		46.0	body	body-9.jpg	0.0	158.4916671471192	0.38329070640429563
277.0	138.59660365045056	pulse	0.0	t		body	body-9.jpg	0.0	158.56677315098113	
277.0	138.9047883529929	ISI	1.0		5.0	body	body-9.jpg	0.0	158.87495785352348	0.11668680541333742
278.0	139.02147515840625	body	0.0		46.0	body	body-50.jpg	0.0	158.99164465893682	0.3832904045484611
278.0	139.29659015754078	pulse	0.0	t		body	body-50.jpg	0.0	159.26675965807135	
278.0	139.4047655629547	ISI	1.0		7.0	body	body-50.jpg	0.0	159.37493506348528	0.11667744791429868
279.0	139.521443010869	body	0.0		46.0	body	body-50.jpg	1.0	159.49161251139958	0.3833260234159752
279.0	139.90476903428498	ISI	1.0		5.0	body	body-50.jpg	1.0	159.87493853481556	0.11668408871992142
279.0	139.9965425550381	pulse	1.0	t		body	body-50.jpg	1.0	159.96671205556868	
280.0	140.0214531230049	body	0.0		46.0	body	body-120.jpg	0.0	159.99162262353548	0.3832876878559546
280.0	140.12986337145867	response	0.0	b		body	body-120.jpg	0.0	160.10003287198924	
280.0	140.40474081086086	ISI	1.0		7.0	body	body-120.jpg	0.0	160.37491031139143	0.11668952210584393
281.0	140.5214303329667	body	0.0		46.0	body	body-39.jpg	0.0	160.49159983349728	0.3833145529333706
281.0	140.69653087325696	pulse	0.0	t		body	body-39.jpg	0.0	160.66670037378753	
281.0	140.90474488590007	ISI	1.0		7.0	body	body-39.jpg	0.0	160.87491438643065	0.1166904276715286
282.0	141.0214353135716	body	0.0		46.0	body	body-6.jpg	0.0	160.99160481410217	0.38328648043625435
282.0	141.39650228760638	pulse	0.0	t		body	body-6.jpg	0.0	161.36667178813696	
282.0	141.40472179400786	ISI	1.0		6.0	body	body-6.jpg	0.0	161.37489129453843	0.11668257944529614
283.0	141.52140437345315	body	0.0		46.0	body	body-66.jpg	0.0	161.49157387398373	0.38329885648363415
283.0	141.90470322993679	ISI	1.0		7.0	body	body-66.jpg	0.0	161.87487273046736	0.11671035008839681
284.0	142.02141358002518	body	0.0		46.0	body	body-69.jpg	0.0	161.99158308055576	0.38331274180472974
284.0	142.09653165807958	pulse	0.0	t		body	body-69.jpg	0.0	162.06670115861016	
284.0	142.4047263218299	ISI	1.0		5.0	body	body-69.jpg	0.0	162.3748958223605	0.11668922025182837
285.0	142.52141554208174	body	0.0		46.0	body	body-28.jpg	0.0	162.49158504261231	0.3833018750310657
285.0	142.79650337428393	pulse	0.0	t		body	body-28.jpg	0.0	162.7666728748145	
285.0	142.9047174171128	ISI	1.0		6.0	body	body-28.jpg	0.0	162.87488691764338	0.11669072952554416
286.0	143.02140814663835	body	0.0		46.0	body	body-48.jpg	0.0	162.99157764716892	0.3833039880155411
286.0	143.4047121346539	ISI	1.0		7.0	body	body-48.jpg	0.0	163.37488163518447	0.12503550567180355
286.0	143.49653666886934	pulse	1.0	t		body	body-48.jpg	0.0	163.4667061693999	
287.0	143.5297476403257	body	0.0		45.0	body	body-137.jpg	0.0	163.49991714085627	0.3749667582387701
287.0	143.90471439856447	ISI	1.0		5.0	body	body-137.jpg	0.0	163.87488389909504	0.11668891839690332
288.0	144.02140331696137	word	0.0		46.0	character	word-104.jpg	0.0	163.99157281749194	0.38330217688690027
288.0	144.19648544410848	pulse	0.0	t		character	word-104.jpg	0.0	164.16665494463905	
288.0	144.40470549384827	ISI	1.0		7.0	character	word-104.jpg	0.0	164.37487499437884	0.11668710726735299
289.0	144.52139260111562	word	0.0		46.0	character	word-38.jpg	0.0	164.4915621016462	0.3832861785822388
289.0	144.8964631974095	pulse	0.0	t		character	word-38.jpg	0.0	164.86663269794008	
289.0	144.90467877969786	ISI	1.0		7.0	character	word-38.jpg	0.0	164.87484828022843	0.11668378686499636
290.0	145.02136256656286	word	0.0		46.0	character	word-26.jpg	0.0	164.99153206709343	0.3833012713221251
290.0	145.40466383788498	ISI	1.0		7.0	character	word-26.jpg	0.0	165.37483333841556	0.11670823710392142
291.0	145.5213720749889	word	0.0		46.0	character	word-26.jpg	1.0	165.49154157551948	0.3832550875367815
291.0	145.59642887651717	pulse	0.0	t		character	word-26.jpg	1.0	165.56659837704774	
291.0	145.90462716252568	ISI	1.0		5.0	character	word-26.jpg	1.0	165.87479666305626	0.11668197573635553
292.0	146.02130913826204	word	0.0		46.0	character	word-70.jpg	0.0	165.99147863879261	0.38329825277378404
292.0	146.0880712715425	response	0.0	b		character	word-70.jpg	0.0	166.05824077207308	
292.0	146.29637070909575	pulse	0.0	t		character	word-70.jpg	0.0	166.26654020962633	
292.0	146.40460739103582	ISI	1.0		7.0	character	word-70.jpg	0.0	166.3747768915664	0.11669133323539427
293.0	146.52129872427122	word	0.0		46.0	character	word-35.jpg	0.0	166.4914682248018	0.383327532689691
293.0	146.9046262569609	ISI	1.0		7.0	character	word-35.jpg	0.0	166.87479575749148	0.11668257944620564
293.0	146.99639343876333	pulse	1.0	t		character	word-35.jpg	0.0	166.9665629392939	
294.0	147.02130883640712	word	0.0		46.0	character	word-135.jpg	0.0	166.9914783369377	0.3832876878559546
294.0	147.40459652426307	ISI	1.0		7.0	character	word-135.jpg	0.0	167.37476602479364	0.1166828813002212
295.0	147.5212794055633	word	0.0		46.0	character	word-89.jpg	0.0	167.49144890609386	0.3833172696267866
295.0	147.69639111448123	pulse	0.0	t		character	word-89.jpg	0.0	167.6665606150118	
295.0	147.90459667519008	ISI	1.0		5.0	character	word-89.jpg	0.0	167.87476617572065	0.11667624049459846
296.0	148.02127291568468	word	0.0		46.0	character	word-5.jpg	0.0	167.99144241621525	0.3832928193878615
296.0	148.39635981213723	pulse	0.0	t		character	word-5.jpg	0.0	168.3665293126678	
296.0	148.40456573507254	ISI	1.0		6.0	character	word-5.jpg	0.0	168.3747352356031	0.11669103138046921
297.0	148.521256766453	word	0.0		46.0	character	word-67.jpg	0.0	168.49142626698358	0.38330247874091583
297.0	148.90455924519392	ISI	1.0		6.0	character	word-67.jpg	0.0	168.8747287457245	0.11670582226633996
298.0	149.02126506746026	word	0.0		46.0	character	word-56.jpg	0.0	168.99143456799084	0.3832861785813293
298.0	149.09634963963072	pulse	0.0	t		character	word-56.jpg	0.0	169.0665191401613	
298.0	149.4045512460416	ISI	1.0		7.0	character	word-56.jpg	0.0	169.37472074657217	0.1167000870245829
299.0	149.52125133306617	word	0.0		46.0	character	word-130.jpg	0.0	169.49142083359675	0.3832867822911794
299.0	149.79632799664068	pulse	0.0	t		character	word-130.jpg	0.0	169.76649749717126	
299.0	149.90453811535735	ISI	1.0		7.0	character	word-130.jpg	0.0	169.87470761588793	0.11668891839690332
300.0	150.02122703375426	house	0.0		46.0	place	house-65.jpg	0.0	169.99139653428483	0.38330157317705016
300.0	150.4045286069313	ISI	1.0		7.0	place	house-65.jpg	0.0	170.37469810746188	0.11669887960488268
300.0	150.49630846663513	pulse	1.0	t		place	house-65.jpg	0.0	170.4664779671657	
301.0	150.5212274865362	house	0.0		46.0	place	house-132.jpg	0.0	170.49139698706676	0.3832894989845954
301.0	150.9045169855208	ISI	1.0		7.0	place	house-132.jpg	0.0	170.87468648605136	0.1166855979945467
302.0	151.02120258351533	house	0.0		46.0	place	house-132.jpg	1.0	170.9913720840459	0.3833151566423112
302.0	151.19630161453097	pulse	0.0	t		place	house-132.jpg	1.0	171.16647111506154	
302.0	151.40451774015764	ISI	1.0		7.0	place	house-132.jpg	1.0	171.37468724068822	0.11667563678565784
303.0	151.5211933769433	house	0.0		46.0	place	house-143.jpg	0.0	171.49136287747388	0.38335258663937566
303.0	151.66299570973752	response	0.0	b		place	house-143.jpg	0.0	171.6331652102681	
303.0	151.89630593105448	pulse	0.0	t		place	house-143.jpg	0.0	171.86647543158506	
303.0	151.90454596358268	ISI	1.0		6.0	place	house-143.jpg	0.0	171.87471546411325	0.11668801283212815
304.0	152.0212339764148	house	0.0		46.0	place	house-92.jpg	0.0	171.99140347694538	0.38328376374283835
304.0	152.40451774015764	ISI	1.0		7.0	place	house-92.jpg	0.0	172.37468724068822	0.11668891839690332
305.0	152.52120665855455	house	0.0		46.0	place	house-60.jpg	0.0	172.49137615908512	0.3833000639033344
305.0	152.59640321885854	pulse	0.0	t		place	house-60.jpg	0.0	172.56657271938911	
305.0	152.90450672245788	ISI	1.0		7.0	place	house-60.jpg	0.0	172.87467622298846	0.11668922025091888
306.0	153.0211959427088	house	0.0		46.0	place	house-123.jpg	0.0	172.99136544323937	0.3833073084188072
306.0	153.2962991695067	pulse	0.0	t		place	house-123.jpg	0.0	173.26646867003728	
306.0	153.4045032511276	ISI	1.0		7.0	place	house-123.jpg	0.0	173.37467275165818	0.11668982396076899
307.0	153.52119307508838	house	0.0		46.0	place	house-98.jpg	0.0	173.49136257561895	0.3832922156780114
307.0	153.9044852907664	ISI	1.0		7.0	place	house-98.jpg	0.0	173.87465479129696	0.1250427501872764
307.0	153.9963182769161	pulse	1.0	t		place	house-98.jpg	0.0	173.96648777744667	
308.0	154.02952804095366	house	0.0		45.0	place	house-38.jpg	0.0	173.99969754148424	0.37495558961109055
308.0	154.40448363056476	ISI	1.0		7.0	place	house-38.jpg	0.0	174.37465313109533	0.116695257347601
309.0	154.52117888791236	house	0.0		46.0	place	house-74.jpg	0.0	174.49134838844293	0.3832852730174636
309.0	154.6962628261881	pulse	0.0	t		place	house-74.jpg	0.0	174.66643232671868	
309.0	154.90446416092982	ISI	1.0		7.0	place	house-74.jpg	0.0	174.8746336614604	0.11669163509031932
310.0	155.02115579602014	house	0.0		46.0	place	house-66.jpg	0.0	174.9913252965507	0.383265954309536
310.0	155.39631091165847	pulse	0.0	t		place	house-66.jpg	0.0	175.36648041218905	
310.0	155.40442175032967	ISI	1.0		5.0	place	house-66.jpg	0.0	175.37459125086025	0.11668499428378709
311.0	155.52110674461346	house	0.0		46.0	place	house-31.jpg	0.0	175.49127624514404	0.3833000639024249
311.0	155.9044068085159	ISI	1.0		7.0	place	house-31.jpg	0.0	175.87457630904646	0.11669586105745111
312.0	156.02110266957334	word	0.0		46.0	character	word-18.jpg	0.0	175.9912721701039	0.3832976490648434
312.0	156.0963191522951	pulse	0.0	t		character	word-18.jpg	0.0	176.06648865282568	
312.0	156.40440031863818	ISI	1.0		7.0	character	word-18.jpg	0.0	176.37456981916876	0.116692540654185
313.0	156.52109285929237	word	0.0		46.0	character	word-31.jpg	0.0	176.49126235982294	0.38331394922352047
313.0	156.79618552117154	pulse	0.0	t		character	word-31.jpg	0.0	176.7663550217021	
313.0	156.9044068085159	ISI	1.0		5.0	character	word-31.jpg	0.0	176.87457630904646	0.11668710726826248
314.0	157.02109391578415	word	0.0		46.0	character	word-13.jpg	0.0	176.99126341631472	0.3832901026944455
314.0	157.4043840184786	ISI	1.0		7.0	character	word-13.jpg	0.0	177.37455351900917	0.11668348501007131
314.0	157.49616025592422	pulse	1.0	t		character	word-13.jpg	0.0	177.4663297564548	
315.0	157.52106750348867	word	0.0		46.0	character	word-77.jpg	0.0	177.49123700401924	0.3833178733366367
315.0	157.9043853768253	ISI	1.0		7.0	character	word-77.jpg	0.0	177.87455487735588	0.11668680541333742
316.0	158.02107218223864	word	0.0		46.0	character	word-7.jpg	0.0	177.9912416827692	0.383289800838611
316.0	158.1961615539003	pulse	0.0	t		character	word-7.jpg	0.0	178.16633105443088	
316.0	158.40436198307725	ISI	1.0		7.0	character	word-7.jpg	0.0	178.37453148360783	0.11667774976922374
317.0	158.52103973284648	word	0.0		46.0	character	word-7.jpg	1.0	178.49120923337705	0.3833269289807504
317.0	158.8961453442971	pulse	0.0	t		character	word-7.jpg	1.0	178.86631484482768	
317.0	158.90436666182723	ISI	1.0		5.0	character	word-7.jpg	1.0	178.8745361623578	0.11668378686499636
317.0	158.95983278451058	response	1.0	b		character	word-7.jpg	1.0	178.93000228504116	
318.0	159.02105044869222	word	0.0		46.0	character	word-49.jpg	0.0	178.9912199492228	0.38329764906393393
318.0	159.40434809775616	ISI	1.0		6.0	character	word-49.jpg	0.0	179.37451759828673	0.11669223880016943
319.0	159.52104033655633	word	0.0		46.0	character	word-71.jpg	0.0	179.4912098370869	0.383303384305691
319.0	159.5961593201746	pulse	0.0	t		character	word-71.jpg	0.0	179.56632882070517	
319.0	159.90434372086202	ISI	1.0		7.0	character	word-71.jpg	0.0	179.8745132213926	0.11668650355841237
320.0	160.02103022442043	word	0.0		46.0	character	word-123.jpg	0.0	179.991199724951	0.3832867822902699
320.0	160.2961053787203	pulse	0.0	t		character	word-123.jpg	0.0	180.2662748792509	
320.0	160.4043170067107	ISI	1.0		7.0	character	word-123.jpg	0.0	180.37448650724127	0.1166883146879627
321.0	160.52100532139866	word	0.0		46.0	character	word-62.jpg	0.0	180.49117482192923	0.3833172696267866
321.0	160.90432259102545	ISI	1.0		7.0	character	word-62.jpg	0.0	180.87449209155602	0.11668801283212815
321.0	160.99609822476123	pulse	1.0	t		character	word-62.jpg	0.0	180.9662677252918	
322.0	161.02101060385758	word	0.0		46.0	character	word-132.jpg	0.0	180.99118010438815	0.38331606220708636
322.0	161.40432666606466	ISI	1.0		7.0	character	word-132.jpg	0.0	181.37449616659524	0.11669223880016943
323.0	161.52101890486483	word	0.0		46.0	character	word-27.jpg	0.0	181.4911884053954	0.3832964416451432
323.0	161.69610646539786	pulse	0.0	t		character	word-27.jpg	0.0	181.66627596592843	
323.0	161.90431534650997	ISI	1.0		7.0	character	word-27.jpg	0.0	181.87448484704055	0.11668680541333742
324.0	162.0210021519233	word	0.0		46.0	character	word-79.jpg	0.0	181.9911716524539	0.38330730841789773
324.0	162.3961035374059	pulse	0.0	t		character	word-79.jpg	0.0	182.36627303793648	
324.0	162.4043094603412	ISI	1.0		7.0	character	word-79.jpg	0.0	182.37447896087178	0.11668408871992142
325.0	162.52099354906113	word	0.0		46.0	character	word-79.jpg	1.0	182.4911630495917	0.38330640285312256
325.0	162.90429995191425	ISI	1.0		7.0	character	word-79.jpg	1.0	182.87446945244483	0.11668046646263974
326.0	163.0209804183769	word	0.0		46.0	character	word-15.jpg	0.0	182.99114991890747	0.38330428986955667
326.0	163.04608568269487	response	0.0	b		character	word-15.jpg	0.0	183.01625518322544	
326.0	163.09608038514216	pulse	0.0	t		character	word-15.jpg	0.0	183.06624988567273	
326.0	163.40428470824645	ISI	1.0		7.0	character	word-15.jpg	0.0	183.37445420877702	0.11673600774702209
327.0	163.52102071599347	word	0.0		46.0	character	word-111.jpg	0.0	183.49119021652405	0.38326867100295203
327.0	163.79607262747413	pulse	0.0	t		character	word-111.jpg	0.0	183.7662421280047	
327.0	163.90428938699642	ISI	1.0		5.0	character	word-111.jpg	0.0	183.874458887527	0.1166877109772031
328.0	164.02097709797363	word	0.0		46.0	character	word-113.jpg	0.0	183.9911465985042	0.3832916119681613
328.0	164.4042687099418	ISI	1.0		7.0	character	word-113.jpg	0.0	184.37443821047236	0.12501829994744185
328.0	164.49615904850543	pulse	1.0	t		character	word-113.jpg	0.0	184.466328549036	
329.0	164.52928700988923	word	0.0		45.0	character	word-68.jpg	0.0	184.4994565104198	0.3749649471110388
329.0	164.90425195700027	ISI	1.0		7.0	character	word-68.jpg	0.0	184.87442145753084	0.116692540654185
330.0	165.02094449765445	word	0.0		46.0	character	word-41.jpg	0.0	184.99111399818503	0.3832976490648434
330.0	165.19604171754145	pulse	0.0	t		character	word-41.jpg	0.0	185.16621121807202	
330.0	165.4042421467193	ISI	1.0		7.0	character	word-41.jpg	0.0	185.37441164724987	0.1166877109772031
331.0	165.5209298576965	word	0.0		46.0	character	word-142.jpg	0.0	185.49109935822707	0.38330368616061605
331.0	165.89601373560072	pulse	0.0	t		character	word-142.jpg	0.0	185.8661832361313	
331.0	165.90423354385712	ISI	1.0		7.0	character	word-142.jpg	0.0	185.8744030443877	0.11668952210584393
332.0	166.02092306596296	word	0.0		46.0	character	word-2.jpg	0.0	185.99109256649353	0.3832979509197685
332.0	166.40422101688273	ISI	1.0		7.0	character	word-2.jpg	0.0	186.3743905174133	0.1166828813002212
333.0	166.52090389818295	word	0.0		46.0	character	word-3.jpg	0.0	186.49107339871352	0.3833233067234687
333.0	166.59601805212515	pulse	0.0	t		character	word-3.jpg	0.0	186.56618755265572	
333.0	166.90422720490642	ISI	1.0		7.0	character	word-3.jpg	0.0	186.874396705437	0.11671095379733742
334.0	167.02093815870376	word	0.0		46.0	character	word-105.jpg	0.0	186.99110765923433	0.3832559931006472
334.0	167.29598705163608	pulse	0.0	t		character	word-105.jpg	0.0	187.26615655216665	
334.0	167.4041941518044	ISI	1.0		5.0	character	word-105.jpg	0.0	187.37436365233498	0.1167124630719627
335.0	167.52090661487637	word	0.0		46.0	character	word-122.jpg	0.0	187.49107611540694	0.383300667612275
335.0	167.90420728248864	ISI	1.0		3.0	character	word-122.jpg	0.0	187.87437678301922	0.12502011107699218
335.0	167.99612358056584	pulse	1.0	t		character	word-122.jpg	0.0	187.9662930810964	
336.0	168.02922739356563	adult	0.0		45.0	face	adult-12.jpg	0.0	187.9993968940962	0.37496645638384507
336.0	168.40419384994948	ISI	1.0		7.0	face	adult-12.jpg	0.0	188.37436335048005	0.11665903477114625
337.0	168.52085288472063	adult	0.0		46.0	face	adult-80.jpg	0.0	188.4910223852512	0.3833314568028072
337.0	168.69597727154087	pulse	0.0	t		face	adult-80.jpg	0.0	188.66614677207144	
337.0	168.90418434152343	ISI	1.0		7.0	face	adult-80.jpg	0.0	188.874353842054	0.11669465363775089
338.0	169.02087899516118	adult	0.0		46.0	face	adult-80.jpg	1.0	188.99104849569176	0.3832819526141975
338.0	169.3959450636321	pulse	0.0	t		face	adult-80.jpg	1.0	189.36611456416267	
338.0	169.40416094777538	ISI	1.0		5.0	face	adult-80.jpg	1.0	189.37433044830595	0.11670521855648985
338.0	169.458469759129	response	1.0	b		face	adult-80.jpg	1.0	189.42863925965958	
339.0	169.52086616633187	adult	0.0		46.0	face	adult-3.jpg	0.0	189.49103566686244	0.3832964416451432
339.0	169.904162607977	ISI	1.0		7.0	face	adult-3.jpg	0.0	189.8743321085076	0.11666688299646921
340.0	170.02082949097348	adult	0.0		46.0	face	adult-109.jpg	0.0	189.99099899150406	0.38331062882025435
340.0	170.09593670225422	pulse	0.0	t		face	adult-109.jpg	0.0	190.0661062027848	
340.0	170.40414011979374	ISI	1.0		7.0	face	adult-109.jpg	0.0	190.3743096203243	0.11669978517056734
341.0	170.5208399049643	adult	0.0		46.0	face	adult-25.jpg	0.0	190.49100940549488	0.3832855748714792
341.0	170.79591324813555	pulse	0.0	t		face	adult-25.jpg	0.0	190.76608274866612	
341.0	170.90412547983578	ISI	1.0		7.0	face	adult-25.jpg	0.0	190.87429498036636	0.11669374807388522
342.0	171.02081922790967	adult	0.0		46.0	face	adult-108.jpg	0.0	190.99098872844024	0.38329613979021815
342.0	171.4041153676999	ISI	1.0		7.0	face	adult-108.jpg	0.0	191.37428486823046	0.1250213184957829
342.0	171.49597069110587	pulse	1.0	t		face	adult-108.jpg	0.0	191.46614019163644	
343.0	171.52913668619567	adult	0.0		45.0	face	adult-21.jpg	0.0	191.49930618672624	0.3749836621082068
343.0	171.90412034830388	ISI	1.0		7.0	face	adult-21.jpg	0.0	191.87428984883445	0.1166883146879627
344.0	172.02080866299184	adult	0.0		46.0	face	adult-31.jpg	0.0	191.9909781635224	0.3833012713212156
344.0	172.19588565860613	pulse	0.0	t		face	adult-31.jpg	0.0	192.1660551591367	
344.0	172.40410993431306	ISI	1.0		7.0	face	adult-31.jpg	0.0	192.37427943484363	0.11669103138046921
345.0	172.52080096569352	adult	0.0		46.0	face	adult-125.jpg	0.0	192.4909704662241	0.38326021906868846
345.0	172.89587971206674	pulse	0.0	t		face	adult-125.jpg	0.0	192.86604921259732	
345.0	172.9040611847622	ISI	1.0		7.0	face	adult-125.jpg	0.0	192.8742306852928	0.11675713758268103
346.0	173.0208183223449	adult	0.0		46.0	face	adult-32.jpg	0.0	192.99098782287547	0.3832538801179908
346.0	173.40407220246288	ISI	1.0		6.0	face	adult-32.jpg	0.0	193.37424170299346	0.11668740912227804
347.0	173.52075961158516	adult	0.0		46.0	face	adult-138.jpg	0.0	193.49092911211574	0.38330217688690027
347.0	173.5958580690767	pulse	0.0	t		face	adult-138.jpg	0.0	193.5660275696073	
347.0	173.90406178847206	ISI	1.0		6.0	face	adult-138.jpg	0.0	193.87423128900264	0.11668952210584393
348.0	174.0207513105779	adult	0.0		46.0	face	adult-10.jpg	0.0	193.99092081110848	0.3832695765677272
348.0	174.29580895730032	pulse	0.0	t		face	adult-10.jpg	0.0	194.2659784578309	
348.0	174.40402088714563	ISI	1.0		7.0	face	adult-10.jpg	0.0	194.3741903876762	0.11668922025091888
349.0	174.52071010739655	adult	0.0		46.0	face	adult-37.jpg	0.0	194.49087960792713	0.3833145529333706
349.0	174.90402466032992	ISI	1.0		7.0	face	adult-37.jpg	0.0	194.8741941608605	0.11668740912318754
349.0	174.99580542559852	pulse	1.0	t		face	adult-37.jpg	0.0	194.9659749261291	
350.0	175.0207120694531	adult	0.0		46.0	face	adult-143.jpg	0.0	194.99088156998369	0.38329764906393393
350.0	175.40400971851705	ISI	1.0		7.0	face	adult-143.jpg	0.0	195.37417921904762	0.1166904276715286
351.0	175.52070014618857	adult	0.0		46.0	face	adult-139.jpg	0.0	195.49086964671915	0.383297950918859
351.0	175.69577683994885	pulse	0.0	t		face	adult-139.jpg	0.0	195.66594634047942	
351.0	175.90399809710743	ISI	1.0		7.0	face	adult-139.jpg	0.0	195.874167597638	0.11667563678565784
352.0	176.0206737338931	adult	0.0		46.0	face	adult-103.jpg	0.0	195.99084323442366	0.38332028817421815
352.0	176.39577481752076	pulse	0.0	t		face	adult-103.jpg	0.0	196.36594431805133	
352.0	176.4039940220673	ISI	1.0		6.0	face	adult-103.jpg	0.0	196.37416352259788	0.11668257944620564
353.0	176.52067660151351	adult	0.0		46.0	face	adult-73.jpg	0.0	196.4908461020441	0.3833067047080476
353.0	176.90398330622156	ISI	1.0		7.0	face	adult-73.jpg	0.0	196.87415280675214	0.11666959968897572
354.0	177.02065290591054	adult	0.0		46.0	face	adult-39.jpg	0.0	196.9908224064411	0.3833027805967504
354.0	177.0957462318711	pulse	0.0	t		face	adult-39.jpg	0.0	197.06591573240166	
354.0	177.4039556865073	ISI	1.0		7.0	face	adult-39.jpg	0.0	197.37412518703786	0.1166855979936372
355.0	177.52064128450093	adult	0.0		46.0	face	adult-113.jpg	0.0	197.4908107850315	0.38330308245076594
355.0	177.79573213525146	pulse	0.0	t		face	adult-113.jpg	0.0	197.76590163578203	
355.0	177.9039443669517	ISI	1.0		5.0	face	adult-113.jpg	0.0	197.87411386748227	0.11669223879925994
356.0	178.02063660575095	adult	0.0		46.0	face	adult-90.jpg	0.0	197.99080610628152	0.3832943286615773
356.0	178.40393093441253	ISI	1.0		7.0	face	adult-90.jpg	0.0	198.3741004349431	0.11669072952554416
356.0	178.49573101838905	pulse	1.0	t		face	adult-90.jpg	0.0	198.46590051891963	
357.0	178.52062166393807	adult	0.0		46.0	face	adult-8.jpg	0.0	198.49079116446865	0.383303384305691
357.0	178.90392504824376	ISI	1.0		7.0	face	adult-8.jpg	0.0	198.87409454877434	0.11668801283303765
358.0	179.0206130610768	adult	0.0		46.0	face	adult-62.jpg	0.0	198.99078256160738	0.38330368615970656
358.0	179.19570364015726	pulse	0.0	t		face	adult-62.jpg	0.0	199.16587314068784	
358.0	179.4039167472365	ISI	1.0		7.0	face	adult-62.jpg	0.0	199.37408624776708	0.11668650355841237
359.0	179.52060325079492	adult	0.0		46.0	face	adult-33.jpg	0.0	199.4907727513255	0.3833163640629209
359.0	179.89568109160336	pulse	0.0	t		face	adult-33.jpg	0.0	199.86585059213394	
359.0	179.90391961485784	ISI	1.0		7.0	face	adult-33.jpg	0.0	199.87408911538841	0.11669163508940983
360.0	180.02061124994725	word	0.0		46.0	character	word-87.jpg	0.0	199.99078075047782	0.38330911954744806
360.0	180.4039203694947	ISI	1.0		7.0	character	word-87.jpg	0.0	200.37408987002527	0.11670884081377153
361.0	180.52062921030847	word	0.0		46.0	character	word-140.jpg	0.0	200.49079871083904	0.38328497116253857
361.0	180.59571619731742	pulse	0.0	t		character	word-140.jpg	0.0	200.565885697848	
361.0	180.903914181471	ISI	1.0		5.0	character	word-140.jpg	0.0	200.87408368200158	0.11668710726826248
362.0	181.02060128873927	word	0.0		46.0	character	word-44.jpg	0.0	200.99077078926985	0.3833021768859908
362.0	181.29568942279639	pulse	0.0	t		character	word-44.jpg	0.0	201.26585892332696	
362.0	181.40390346562526	ISI	1.0		6.0	character	word-44.jpg	0.0	201.37407296615584	0.1167028037179989
363.0	181.52060626934326	word	0.0		46.0	character	word-131.jpg	0.0	201.49077576987384	0.3832867822911794
363.0	181.90389305163444	ISI	1.0		6.0	character	word-131.jpg	0.0	201.87406255216501	0.1250276574464806
363.0	181.99573116931606	pulse	1.0	t		character	word-131.jpg	0.0	201.96590066984663	
364.0	182.02892070908092	word	0.0		45.0	character	word-76.jpg	0.0	201.9990902096115	0.3749401950162792
364.0	182.4038609040972	ISI	1.0		7.0	character	word-76.jpg	0.0	202.37403040462777	0.11675743943851558
365.0	182.52061834353572	word	0.0		46.0	character	word-60.jpg	0.0	202.4907878440663	0.38325418197200634
365.0	182.6956636443956	pulse	0.0	t		character	word-60.jpg	0.0	202.66583314492618	
365.0	182.90387252550772	ISI	1.0		7.0	character	word-60.jpg	0.0	202.8740420260383	0.11668620170348731
366.0	183.0205587272112	word	0.0		46.0	character	word-100.jpg	0.0	202.99072822774178	0.3833045917244817
366.0	183.39564501995392	pulse	0.0	t		character	word-100.jpg	0.0	203.3658145204845	
366.0	183.4038633189357	ISI	1.0		7.0	character	word-100.jpg	0.0	203.37403281946627	0.11668620170348731
367.0	183.52054952063918	word	0.0		46.0	character	word-48.jpg	0.0	203.49071902116975	0.3832680672931019
367.0	183.90381758793228	ISI	1.0		7.0	character	word-48.jpg	0.0	203.87398708846285	0.11669012581660354
368.0	184.02050771374888	word	0.0		46.0	character	word-24.jpg	0.0	203.99067721427946	0.3833018750310657
368.0	184.0956106990625	pulse	0.0	t		character	word-24.jpg	0.0	204.06578019959306	
368.0	184.40380958877995	ISI	1.0		7.0	character	word-24.jpg	0.0	204.37397908931052	0.11668288130113069
369.0	184.52049247008108	word	0.0		46.0	character	word-138.jpg	0.0	204.49066197061165	0.38332149559391837
369.0	184.79558301897669	pulse	0.0	t		character	word-138.jpg	0.0	204.76575251950726	
369.0	184.903813965675	ISI	1.0		7.0	character	word-138.jpg	0.0	204.87398346620557	0.11667020339882583
370.0	185.02048416907382	word	0.0		46.0	character	word-107.jpg	0.0	204.9906536696044	0.3833184770455773
370.0	185.4038026461194	ISI	1.0		5.0	character	word-107.jpg	0.0	205.37397214664998	0.11668620170348731
370.0	185.49560393751472	pulse	1.0	t		character	word-107.jpg	0.0	205.4657734380453	
371.0	185.5204888478229	word	0.0		46.0	character	word-93.jpg	0.0	205.49065834835346	0.3832867822911794
371.0	185.90377563011407	ISI	1.0		7.0	character	word-93.jpg	0.0	205.87394513064464	0.11671608533015387
372.0	186.02049171544422	body	0.0		46.0	body	body-124.jpg	0.0	205.9906612159748	0.3832731988240994
372.0	186.19556931476836	pulse	0.0	t		body	body-124.jpg	0.0	206.16573881529894	
372.0	186.40376491426832	ISI	1.0		7.0	body	body-124.jpg	0.0	206.3739344147989	0.11668167388143047
373.0	186.52044658814975	body	0.0		46.0	body	body-40.jpg	0.0	206.49061608868033	0.38332511785210954
373.0	186.8955355975868	pulse	0.0	t		body	body-40.jpg	0.0	206.86570509811736	
373.0	186.90377170600186	ISI	1.0		7.0	body	body-40.jpg	0.0	206.87394120653244	0.11666507186691888
374.0	187.02043677786878	body	0.0		46.0	body	body-104.jpg	0.0	206.99060627839935	0.38332511785210954
374.0	187.4037618957209	ISI	1.0		5.0	body	body-104.jpg	0.0	207.37393139625146	0.11669495549267594
375.0	187.52045685121357	body	0.0		46.0	body	body-61.jpg	0.0	207.49062635174414	0.38329131011323625
375.0	187.5955447437873	pulse	0.0	t		body	body-61.jpg	0.0	207.56571424431786	
375.0	187.9037481613268	ISI	1.0		7.0	body	body-61.jpg	0.0	207.87391766185738	0.11668740912318754
376.0	188.02043557045	body	0.0		46.0	body	body-107.jpg	0.0	207.99060507098056	0.38330519543433184
376.0	188.2955209878137	pulse	0.0	t		body	body-107.jpg	0.0	208.26569048834426	
376.0	188.40374076588432	ISI	1.0		7.0	body	body-107.jpg	0.0	208.3739102664149	0.11668589984856226
377.0	188.52042666573288	body	0.0		46.0	body	body-100.jpg	0.0	208.49059616626346	0.38328497116253857
377.0	188.90371163689542	ISI	1.0		7.0	body	body-100.jpg	0.0	208.873881137426	0.11669072952554416
377.0	188.99551021159732	pulse	1.0	t		body	body-100.jpg	0.0	208.9656797121279	
378.0	189.02040236642097	body	0.0		46.0	body	body-30.jpg	0.0	208.99057186695154	0.38331666591693647
378.0	189.4037190323379	ISI	1.0		5.0	body	body-30.jpg	0.0	209.37388853286848	0.11669163509031932
379.0	189.52041066742822	body	0.0		46.0	body	body-85.jpg	0.0	209.4905801679588	0.3833290419643163
379.0	189.69566424810546	pulse	0.0	t		body	body-85.jpg	0.0	209.66583374863603	
379.0	189.90373970939254	ISI	1.0		7.0	body	body-85.jpg	0.0	209.8739092099231	0.11667050525375089
380.0	190.0204102146463	body	0.0		46.0	body	body-128.jpg	0.0	209.99057971517686	0.38332089188406826
380.0	190.39550767601668	pulse	0.0	t		body	body-128.jpg	0.0	210.36567717654725	
380.0	190.40373110653036	ISI	1.0		5.0	body	body-128.jpg	0.0	210.37390060706093	0.1166877109772031
381.0	190.52041881750756	body	0.0		46.0	body	body-44.jpg	0.0	210.49058831803814	0.3832834618888228
381.0	190.90370227939638	ISI	1.0		7.0	body	body-44.jpg	0.0	210.87387177992696	0.11668740912227804
382.0	191.02038968851866	body	0.0		46.0	body	body-133.jpg	0.0	210.99055918904924	0.38330096946720005
382.0	191.09548482560785	pulse	0.0	t		body	body-133.jpg	0.0	211.06565432613843	
382.0	191.40369065798586	ISI	1.0		5.0	body	body-133.jpg	0.0	211.37386015851644	0.11668680541333742
383.0	191.5203774633992	body	0.0		46.0	body	body-143.jpg	0.0	211.49054696392977	0.38330519543433184
383.0	191.7954692197145	pulse	0.0	t		body	body-143.jpg	0.0	211.76563872024508	
383.0	191.90368265883353	ISI	1.0		6.0	body	body-143.jpg	0.0	211.8738521593641	0.11671004823347175
384.0	192.020392707067	body	0.0		46.0	body	body-103.jpg	0.0	211.99056220759758	0.38326323761612
384.0	192.40365594468312	ISI	1.0		7.0	body	body-103.jpg	0.0	212.3738254452137	0.125016488818801
384.0	192.4954898363976	pulse	1.0	t		body	body-103.jpg	0.0	212.46565933692818	
385.0	192.52867243350192	body	0.0		45.0	body	body-103.jpg	1.0	212.4988419340325	0.3749987548490026
385.0	192.90367118835093	ISI	1.0		7.0	body	body-103.jpg	1.0	212.8738406888815	0.11669495549358544
386.0	193.0203661438445	body	0.0		46.0	body	body-139.jpg	0.0	212.9905356443751	0.3832502578588901
386.0	193.19540540760772	pulse	0.0	t		body	body-139.jpg	0.0	213.1655749081383	
386.0	193.4036164017034	ISI	1.0		5.0	body	body-139.jpg	0.0	213.37378590223398	0.11669103138046921
386.0	193.4546778590402	response	1.0	b		body	body-139.jpg	0.0	213.42484735957078	
387.0	193.52030743308387	body	0.0		46.0	body	body-71.jpg	0.0	213.49047693361445	0.3833000639024249
387.0	193.89537561453835	pulse	0.0	t		body	body-71.jpg	0.0	213.86554511506893	
387.0	193.9036074969863	ISI	1.0		7.0	body	body-71.jpg	0.0	213.87377699751687	0.1167441578272701
388.0	194.02035165481357	body	0.0		46.0	body	body-59.jpg	0.0	213.99052115534414	0.3832635394710451
388.0	194.4036151942846	ISI	1.0		6.0	body	body-59.jpg	0.0	214.37378469481519	0.11668107017158036
389.0	194.5202962644562	body	0.0		46.0	body	body-116.jpg	0.0	214.49046576498677	0.3833045917244817
389.0	194.59538808114212	pulse	0.0	t		body	body-116.jpg	0.0	214.5655575816727	
389.0	194.90360085618067	ISI	1.0		7.0	body	body-116.jpg	0.0	214.87377035671125	0.11668680541333742
390.0	195.020287661594	body	0.0		46.0	body	body-13.jpg	0.0	214.99045716212459	0.38330428987046616
390.0	195.2953742863774	pulse	0.0	t		body	body-13.jpg	0.0	215.26554378690798	
390.0	195.40359195146448	ISI	1.0		7.0	body	body-13.jpg	0.0	215.37376145199505	0.1167194057325105
391.0	195.520311357197	body	0.0		46.0	body	body-108.jpg	0.0	215.49048085772756	0.383252370842456
391.0	195.90356372803944	ISI	1.0		4.0	body	body-108.jpg	0.0	215.87373322857002	0.11668620170348731
391.0	195.99534811556532	pulse	1.0	t		body	body-108.jpg	0.0	215.9655176160959	
