trial_nr	onset	event_type	phase	response	nr_frames	face_age	face_sex	face_eth	attractiveness	expression	face_id	sub_id	ses	run	trial_type	catch	onset_abs	duration
-1.0	0.05796392313641263	fix	0.0		713												19.082645536154814	5.95788818822075
-1.0	0.7077885012731713	pulse	0.0	t													19.732470114291573	
-1.0	1.407760217649411	pulse	0.0	t													20.432441830667813	
-1.0	2.1077421970258	pulse	0.0	t													21.1324238100442	
-1.0	2.8077211578729475	pulse	0.0	t													21.83240277089135	
-1.0	3.507689553864111	pulse	0.0	t													22.532371166882513	
-1.0	4.207676061036182	pulse	0.0	t													23.232357674054583	
-1.0	4.907663473766661	pulse	0.0	t													23.932345086785062	
-1.0	5.607635793849113	pulse	0.0	t													24.632317406867514	
0.0	6.015852111357162	face	0.0		144	27.0	male	black	3.5523278949462798	smiling	042	sub-05	1.0	3.0	042_smiling	0.0	25.040533724375564	1.2333066998380673
0.0	6.307640714052468	pulse	0.0	t		27.0	male	black	3.5523278949462798	smiling	042	sub-05	1.0	3.0	042_smiling	0.0	25.33232232707087	
0.0	7.007612732280904	pulse	0.0	t		27.0	male	black	3.5523278949462798	smiling	042	sub-05	1.0	3.0	042_smiling	0.0	26.032294345299306	
0.0	7.24915881119523	fix	1.0		446	27.0	male	black	3.5523278949462798	smiling	042	sub-05	1.0	3.0	042_smiling	0.0	26.27384042421363	3.7665402606980933
0.0	7.7076113135717605	pulse	1.0	t		27.0	male	black	3.5523278949462798	smiling	042	sub-05	1.0	3.0	042_smiling	0.0	26.732292926590162	
0.0	8.407569748414971	pulse	1.0	t		27.0	male	black	3.5523278949462798	smiling	042	sub-05	1.0	3.0	042_smiling	0.0	27.432251361433373	
0.0	9.107562292647344	pulse	1.0	t		27.0	male	black	3.5523278949462798	smiling	042	sub-05	1.0	3.0	042_smiling	0.0	28.132243905665746	
0.0	9.8075421590529	pulse	1.0	t		27.0	male	black	3.5523278949462798	smiling	042	sub-05	1.0	3.0	042_smiling	0.0	28.832223772071302	
0.0	10.507517195810578	pulse	1.0	t		27.0	male	black	3.5523278949462798	smiling	042	sub-05	1.0	3.0	042_smiling	0.0	29.53219880882898	
1.0	11.015699071893323	face	0.0		146	28.0	female	white	5.676880222841227	smiling	124	sub-05	1.0	3.0	124_smiling	0.0	30.040380684911725	1.241657160813702
1.0	11.207500986305604	pulse	0.0	t		28.0	female	white	5.676880222841227	smiling	124	sub-05	1.0	3.0	124_smiling	0.0	30.232182599324005	
1.0	11.90747541935707	pulse	0.0	t		28.0	female	white	5.676880222841227	smiling	124	sub-05	1.0	3.0	124_smiling	0.0	30.93215703237547	
1.0	12.257356232707025	fix	1.0		444	28.0	female	white	5.676880222841227	smiling	124	sub-05	1.0	3.0	124_smiling	0.0	31.282037845725426	3.7582172683451063
1.0	12.607458907999899	pulse	1.0	t		28.0	female	white	5.676880222841227	smiling	124	sub-05	1.0	3.0	124_smiling	0.0	31.6321405210183	
1.0	13.307452961495073	pulse	1.0	t		28.0	female	white	5.676880222841227	smiling	124	sub-05	1.0	3.0	124_smiling	0.0	32.332134574513475	
1.0	14.007420451929647	pulse	1.0	t		28.0	female	white	5.676880222841227	smiling	124	sub-05	1.0	3.0	124_smiling	0.0	33.03210206494805	
1.0	14.707410883189368	pulse	1.0	t		28.0	female	white	5.676880222841227	smiling	124	sub-05	1.0	3.0	124_smiling	0.0	33.73209249620777	
1.0	15.407396182949014	pulse	1.0	t		28.0	female	white	5.676880222841227	smiling	124	sub-05	1.0	3.0	124_smiling	0.0	34.432077795967416	
2.0	16.01557350105213	face	0.0		146	31.0	female	white	2.1822522881018704	smiling	102	sub-05	1.0	3.0	102_smiling	0.0	35.04025511407053	1.2416505200471875
2.0	16.107360051146316	pulse	0.0	t		31.0	female	white	2.1822522881018704	smiling	102	sub-05	1.0	3.0	102_smiling	0.0	35.13204166416472	
2.0	16.807345652759977	pulse	0.0	t		31.0	female	white	2.1822522881018704	smiling	102	sub-05	1.0	3.0	102_smiling	0.0	35.83202726577838	
2.0	17.25722402109932	fix	1.0		444	31.0	female	white	2.1822522881018704	smiling	102	sub-05	1.0	3.0	102_smiling	0.0	36.28190563411772	3.758211231284804
2.0	17.507347252580075	pulse	1.0	t		31.0	female	white	2.1822522881018704	smiling	102	sub-05	1.0	3.0	102_smiling	0.0	36.53202886559848	
2.0	18.20732259119177	pulse	1.0	t		31.0	female	white	2.1822522881018704	smiling	102	sub-05	1.0	3.0	102_smiling	0.0	37.23200420421017	
2.0	18.907285251976646	pulse	1.0	t		31.0	female	white	2.1822522881018704	smiling	102	sub-05	1.0	3.0	102_smiling	0.0	37.93196686499505	
2.0	19.599240960484167	pulse	1.0	t		31.0	female	white	2.1822522881018704	smiling	102	sub-05	1.0	3.0	102_smiling	0.0	38.62392257350257	
2.0	20.30725102184806	pulse	1.0	t		31.0	female	white	2.1822522881018704	smiling	102	sub-05	1.0	3.0	102_smiling	0.0	39.33193263486646	
3.0	21.015435252384123	face	0.0		147	47.0	male	east_asian	2.171110226820533	neutral	024	sub-05	1.0	3.0	024_neutral	0.0	40.040116865402524	1.2416336162805237
3.0	21.007932092737974	pulse	0.0	t		47.0	male	east_asian	2.171110226820533	neutral	024	sub-05	1.0	3.0	024_neutral	0.0	40.032613705756376	
3.0	21.707220715808944	pulse	0.0	t		47.0	male	east_asian	2.171110226820533	neutral	024	sub-05	1.0	3.0	024_neutral	0.0	40.731902328827346	
3.0	22.257068868664646	fix	1.0		443	47.0	male	east_asian	2.171110226820533	neutral	024	sub-05	1.0	3.0	024_neutral	0.0	41.28175048168305	3.7582380962012394
3.0	22.40719907294988	pulse	1.0	t		47.0	male	east_asian	2.171110226820533	neutral	024	sub-05	1.0	3.0	024_neutral	0.0	41.43188068596828	
3.0	23.1071831652971	pulse	1.0	t		47.0	male	east_asian	2.171110226820533	neutral	024	sub-05	1.0	3.0	024_neutral	0.0	42.1318647783155	
3.0	23.807189594766896	pulse	1.0	t		47.0	male	east_asian	2.171110226820533	neutral	024	sub-05	1.0	3.0	024_neutral	0.0	42.8318712077853	
3.0	24.50713233325405	pulse	1.0	t		47.0	male	east_asian	2.171110226820533	neutral	024	sub-05	1.0	3.0	024_neutral	0.0	43.53181394627245	
3.0	25.207118538573923	pulse	1.0	t		47.0	male	east_asian	2.171110226820533	neutral	024	sub-05	1.0	3.0	024_neutral	0.0	44.231800151592324	
3.0	25.907101121656524	pulse	1.0	t		47.0	male	east_asian	2.171110226820533	neutral	024	sub-05	1.0	3.0	024_neutral	0.0	44.931782734674925	
4.0	26.015306964865886	face	0.0		147	30.0	female	black	2.7345801830481498	smiling	062	sub-05	1.0	3.0	062_smiling	0.0	45.03998857788429	1.241645992253325
4.0	26.607101815918213	pulse	0.0	t		30.0	female	black	2.7345801830481498	smiling	062	sub-05	1.0	3.0	062_smiling	0.0	45.631783428936615	
4.0	27.25695295711921	fix	1.0		443	30.0	female	black	2.7345801830481498	smiling	062	sub-05	1.0	3.0	062_smiling	0.0	46.28163457013761	3.758220286874348
4.0	27.307066287821726	pulse	1.0	t		30.0	female	black	2.7345801830481498	smiling	062	sub-05	1.0	3.0	062_smiling	0.0	46.33174790084013	
4.0	28.00704555052107	pulse	1.0	t		30.0	female	black	2.7345801830481498	smiling	062	sub-05	1.0	3.0	062_smiling	0.0	47.03172716353947	
4.0	28.698899232720578	pulse	1.0	t		30.0	female	black	2.7345801830481498	smiling	062	sub-05	1.0	3.0	062_smiling	0.0	47.72358084573898	
4.0	29.39885978053462	pulse	1.0	t		30.0	female	black	2.7345801830481498	smiling	062	sub-05	1.0	3.0	062_smiling	0.0	48.42354139355302	
4.0	30.09884025064821	pulse	1.0	t		30.0	female	black	2.7345801830481498	smiling	062	sub-05	1.0	3.0	062_smiling	0.0	49.12352186366661	
4.0	30.798823135583007	pulse	1.0	t		30.0	female	black	2.7345801830481498	smiling	062	sub-05	1.0	3.0	062_smiling	0.0	49.82350474860141	
5.0	31.01517324399356	face	0.0		146	28.0	male	white	3.9076800636689217	neutral	033	sub-05	1.0	3.0	033_neutral	0.0	50.03985485701196	1.2416414644576435
5.0	31.50695182516938	pulse	0.0	t		28.0	male	white	3.9076800636689217	neutral	033	sub-05	1.0	3.0	033_neutral	0.0	50.53163343818778	
5.0	32.20693138972274	pulse	0.0	t		28.0	male	white	3.9076800636689217	neutral	033	sub-05	1.0	3.0	033_neutral	0.0	51.23161300274114	
5.0	32.2568147084512	fix	1.0		445	28.0	male	white	3.9076800636689217	neutral	033	sub-05	1.0	3.0	033_neutral	0.0	51.281496321469604	3.758219683169955
5.0	32.8987512643871	pulse	1.0	t		28.0	male	white	3.9076800636689217	neutral	033	sub-05	1.0	3.0	033_neutral	0.0	51.9234328774055	
5.0	33.598730527086445	pulse	1.0	t		28.0	male	white	3.9076800636689217	neutral	033	sub-05	1.0	3.0	033_neutral	0.0	52.62341214010485	
5.0	34.29875476588131	pulse	1.0	t		28.0	male	white	3.9076800636689217	neutral	033	sub-05	1.0	3.0	033_neutral	0.0	53.323436378899714	
5.0	34.99872678410975	pulse	1.0	t		28.0	male	white	3.9076800636689217	neutral	033	sub-05	1.0	3.0	033_neutral	0.0	54.02340839712815	
5.0	35.698695783808944	pulse	1.0	t		28.0	male	white	3.9076800636689217	neutral	033	sub-05	1.0	3.0	033_neutral	0.0	54.723377396827345	
6.0	36.01503439162116	face	0.0		146	23.0	male	white	2.6275368085953046	smiling	141	sub-05	1.0	3.0	141_smiling	0.0	55.03971600463956	1.2416478033701424
6.0	36.40681934189524	pulse	0.0	t		23.0	male	white	2.6275368085953046	smiling	141	sub-05	1.0	3.0	141_smiling	0.0	55.431500954913645	
6.0	37.10679437865292	pulse	0.0	t		23.0	male	white	2.6275368085953046	smiling	141	sub-05	1.0	3.0	141_smiling	0.0	56.13147599167132	
6.0	37.2566821949913	fix	1.0		444	23.0	male	white	2.6275368085953046	smiling	141	sub-05	1.0	3.0	141_smiling	0.0	56.2813638080097	3.766552334816879
6.0	37.798639910821294	pulse	1.0	t		23.0	male	white	2.6275368085953046	smiling	141	sub-05	1.0	3.0	141_smiling	0.0	56.823321523839695	
6.0	38.49862068278526	pulse	1.0	t		23.0	male	white	2.6275368085953046	smiling	141	sub-05	1.0	3.0	141_smiling	0.0	57.52330229580366	
6.0	39.19859541769074	pulse	1.0	t		23.0	male	white	2.6275368085953046	smiling	141	sub-05	1.0	3.0	141_smiling	0.0	58.22327703070914	
6.0	39.89859279157099	pulse	1.0	t		23.0	male	white	2.6275368085953046	smiling	141	sub-05	1.0	3.0	141_smiling	0.0	58.92327440458939	
6.0	40.598558772739125	pulse	1.0	t		23.0	male	white	2.6275368085953046	smiling	141	sub-05	1.0	3.0	141_smiling	0.0	59.623240385757526	
7.0	41.02323452980818	face	0.0		145	24.0	female	black	3.0955033824114606	smiling	099	sub-05	1.0	3.0	099_smiling	0.0	60.04791614282658	1.2333142461629905
7.0	41.298453214749316	pulse	0.0	t		24.0	female	black	3.0955033824114606	smiling	099	sub-05	1.0	3.0	099_smiling	0.0	60.32313482776772	
7.0	41.99846598313161	pulse	0.0	t		24.0	female	black	3.0955033824114606	smiling	099	sub-05	1.0	3.0	099_smiling	0.0	61.02314759615001	
7.0	42.25654877597117	fix	1.0		444	24.0	female	black	3.0955033824114606	smiling	099	sub-05	1.0	3.0	099_smiling	0.0	61.28123038898957	3.7665493162876373
7.0	42.69850893681178	pulse	1.0	t		24.0	female	black	3.0955033824114606	smiling	099	sub-05	1.0	3.0	099_smiling	0.0	61.72319054983018	
7.0	43.398483973569455	pulse	1.0	t		24.0	female	black	3.0955033824114606	smiling	099	sub-05	1.0	3.0	099_smiling	0.0	62.42316558658786	
7.0	44.09846565109365	pulse	1.0	t		24.0	female	black	3.0955033824114606	smiling	099	sub-05	1.0	3.0	099_smiling	0.0	63.12314726411205	
7.0	44.79856112719244	pulse	1.0	t		24.0	female	black	3.0955033824114606	smiling	099	sub-05	1.0	3.0	099_smiling	0.0	63.823242740210844	
7.0	45.49844108026082	pulse	1.0	t		24.0	female	black	3.0955033824114606	smiling	099	sub-05	1.0	3.0	099_smiling	0.0	64.52312269327922	
8.0	46.023098092258806	face	0.0		145	31.0	male	west_asian	1.9538400318344609	smiling	070	sub-05	1.0	3.0	070_smiling	1.0	65.04777970527721	1.2333163591338234
8.0	46.198378687247896	pulse	0.0	t		31.0	male	west_asian	1.9538400318344609	smiling	070	sub-05	1.0	3.0	070_smiling	1.0	65.2230603002663	
8.0	46.89837213703868	pulse	0.0	t		31.0	male	west_asian	1.9538400318344609	smiling	070	sub-05	1.0	3.0	070_smiling	1.0	65.92305375005708	
8.0	47.25641445139263	fix	1.0		236	31.0	male	west_asian	1.9538400318344609	smiling	070	sub-05	1.0	3.0	070_smiling	1.0	66.28109606441103	2.008312427498822
8.0	47.59837584982961	pulse	1.0	t		31.0	male	west_asian	1.9538400318344609	smiling	070	sub-05	1.0	3.0	070_smiling	1.0	66.62305746284801	
8.0	48.298354206970544	pulse	1.0	t		31.0	male	west_asian	1.9538400318344609	smiling	070	sub-05	1.0	3.0	070_smiling	1.0	67.32303581998895	
8.0	48.998329847434434	pulse	1.0	t		31.0	male	west_asian	1.9538400318344609	smiling	070	sub-05	1.0	3.0	070_smiling	1.0	68.02301146045284	
8.0	49.26472687889145	rating	2.0		234	31.0	male	west_asian	1.9538400318344609	smiling	070	sub-05	1.0	3.0	070_smiling	1.0	68.28940849190985	1.991577999868241
8.0	49.70120418211263	pulse	2.0	t		31.0	male	west_asian	1.9538400318344609	smiling	070	sub-05	1.0	3.0	070_smiling	1.0	68.72588579513103	
8.0	50.40118223740137	pulse	2.0	t		31.0	male	west_asian	1.9538400318344609	smiling	070	sub-05	1.0	3.0	070_smiling	1.0	69.42586385041977	
8.0	50.72307856237239	response	2.0	e		31.0	male	west_asian	1.9538400318344609	smiling	070	sub-05	1.0	3.0	070_smiling	1.0	69.7477601753908	
8.0	51.098274578152996	pulse	2.0	t		31.0	male	west_asian	1.9538400318344609	smiling	070	sub-05	1.0	3.0	070_smiling	1.0	70.1229561911714	
8.0	51.25630487875969	fix	3.0		445	31.0	male	west_asian	1.9538400318344609	smiling	070	sub-05	1.0	3.0	070_smiling	1.0	70.2809864917781	3.7665514292584703
8.0	51.7982628964437	pulse	3.0	t		31.0	male	west_asian	1.9538400318344609	smiling	070	sub-05	1.0	3.0	070_smiling	1.0	70.8229445094621	
8.0	52.498248498055545	pulse	3.0	t		31.0	male	west_asian	1.9538400318344609	smiling	070	sub-05	1.0	3.0	070_smiling	1.0	71.52293011107395	
8.0	53.198586362101196	pulse	3.0	t		31.0	male	west_asian	1.9538400318344609	smiling	070	sub-05	1.0	3.0	070_smiling	1.0	72.2232679751196	
8.0	53.89820792901446	pulse	3.0	t		31.0	male	west_asian	1.9538400318344609	smiling	070	sub-05	1.0	3.0	070_smiling	1.0	72.92288954203286	
8.0	54.598189606538654	pulse	3.0	t		31.0	male	west_asian	1.9538400318344609	smiling	070	sub-05	1.0	3.0	070_smiling	1.0	73.62287121955706	
9.0	55.02285630801816	face	0.0		145	21.0	male	east_asian/white	3.501790688420215	neutral	036	sub-05	1.0	3.0	036_neutral	0.0	74.04753792103656	1.233298549808751
9.0	55.29811544125914	pulse	0.0	t		21.0	male	east_asian/white	3.501790688420215	neutral	036	sub-05	1.0	3.0	036_neutral	0.0	74.32279705427754	
9.0	55.99809108172485	pulse	0.0	t		21.0	male	east_asian/white	3.501790688420215	neutral	036	sub-05	1.0	3.0	036_neutral	0.0	75.02277269474325	
9.0	56.256154857826914	fix	1.0		444	21.0	male	east_asian/white	3.501790688420215	neutral	036	sub-05	1.0	3.0	036_neutral	0.0	75.28083647084532	3.7665674274667253
9.0	56.69811894275517	pulse	1.0	t		21.0	male	east_asian/white	3.501790688420215	neutral	036	sub-05	1.0	3.0	036_neutral	0.0	75.72280055577357	
9.0	57.3981027332502	pulse	1.0	t		21.0	male	east_asian/white	3.501790688420215	neutral	036	sub-05	1.0	3.0	036_neutral	0.0	76.4227843462686	
9.0	58.098090447832874	pulse	1.0	t		21.0	male	east_asian/white	3.501790688420215	neutral	036	sub-05	1.0	3.0	036_neutral	0.0	77.12277206085128	
9.0	58.79807514388631	pulse	1.0	t		21.0	male	east_asian/white	3.501790688420215	neutral	036	sub-05	1.0	3.0	036_neutral	0.0	77.82275675690471	
9.0	59.49804927508558	pulse	1.0	t		21.0	male	east_asian/white	3.501790688420215	neutral	036	sub-05	1.0	3.0	036_neutral	0.0	78.52273088810398	
10.0	60.02272228529364	face	0.0		145	28.0	female	white	5.676880222841227	neutral	124	sub-05	1.0	3.0	124_neutral	0.0	79.04740389831204	1.2333172646922321
10.0	60.19798416539743	pulse	0.0	t		28.0	female	white	5.676880222841227	neutral	124	sub-05	1.0	3.0	124_neutral	0.0	79.22266577841583	
10.0	60.89796131512594	pulse	0.0	t		28.0	female	white	5.676880222841227	neutral	124	sub-05	1.0	3.0	124_neutral	0.0	79.92264292814434	
10.0	61.25603954998587	fix	1.0		444	28.0	female	white	5.676880222841227	neutral	124	sub-05	1.0	3.0	124_neutral	0.0	80.28072116300427	3.7665465996105922
10.0	61.59800155212906	pulse	1.0	t		28.0	female	white	5.676880222841227	neutral	124	sub-05	1.0	3.0	124_neutral	0.0	80.62268316514746	
10.0	62.297975381474316	pulse	1.0	t		28.0	female	white	5.676880222841227	neutral	124	sub-05	1.0	3.0	124_neutral	0.0	81.32265699449272	
10.0	62.99795464417548	pulse	1.0	t		28.0	female	white	5.676880222841227	neutral	124	sub-05	1.0	3.0	124_neutral	0.0	82.02263625719388	
10.0	63.69793964208111	pulse	1.0	t		28.0	female	white	5.676880222841227	neutral	124	sub-05	1.0	3.0	124_neutral	0.0	82.72262125509951	
10.0	64.39791739551583	pulse	1.0	t		28.0	female	white	5.676880222841227	neutral	124	sub-05	1.0	3.0	124_neutral	0.0	83.42259900853423	
11.0	65.02258614959646	face	0.0		145	40.0	male	black	2.408674890569041	smiling	061	sub-05	1.0	3.0	061_smiling	1.0	84.04726776261487	1.233318773958672
11.0	65.09785077656306	pulse	0.0	t		40.0	male	black	2.408674890569041	smiling	061	sub-05	1.0	3.0	061_smiling	1.0	84.12253238958147	
11.0	65.79774280375022	pulse	0.0	t		40.0	male	black	2.408674890569041	smiling	061	sub-05	1.0	3.0	061_smiling	1.0	84.82242441676863	
11.0	66.25590492355514	fix	1.0		236	40.0	male	black	2.408674890569041	smiling	061	sub-05	1.0	3.0	061_smiling	1.0	85.28058653657354	1.9999447609043273
11.0	66.49771240715381	pulse	1.0	t		40.0	male	black	2.408674890569041	smiling	061	sub-05	1.0	3.0	061_smiling	1.0	85.52239402017221	
11.0	67.19767295496968	pulse	1.0	t		40.0	male	black	2.408674890569041	smiling	061	sub-05	1.0	3.0	061_smiling	1.0	86.22235456798808	
11.0	67.89766036770015	pulse	1.0	t		40.0	male	black	2.408674890569041	smiling	061	sub-05	1.0	3.0	061_smiling	1.0	86.92234198071856	
11.0	68.25584968445946	rating	2.0		235	40.0	male	black	2.408674890569041	smiling	061	sub-05	1.0	3.0	061_smiling	1.0	87.28053129747786	1.999945666462736
11.0	68.59768460649502	pulse	2.0	t		40.0	male	black	2.408674890569041	smiling	061	sub-05	1.0	3.0	061_smiling	1.0	87.62236621951342	
11.0	69.29760742268627	pulse	2.0	t		40.0	male	black	2.408674890569041	smiling	061	sub-05	1.0	3.0	061_smiling	1.0	88.32228903570467	
11.0	69.41424764200019	response	2.0	b		40.0	male	black	2.408674890569041	smiling	061	sub-05	1.0	3.0	061_smiling	1.0	88.43892925501859	
11.0	69.997572498296	pulse	2.0	t		40.0	male	black	2.408674890569041	smiling	061	sub-05	1.0	3.0	061_smiling	1.0	89.0222541113144	
11.0	70.2557953509222	fix	3.0		444	40.0	male	black	2.408674890569041	smiling	061	sub-05	1.0	3.0	061_smiling	1.0	89.2804769639406	3.758216664638894
11.0	70.69757228699928	pulse	3.0	t		40.0	male	black	2.408674890569041	smiling	061	sub-05	1.0	3.0	061_smiling	1.0	89.72225390001768	
11.0	71.39753706075498	pulse	3.0	t		40.0	male	black	2.408674890569041	smiling	061	sub-05	1.0	3.0	061_smiling	1.0	90.42221867377339	
11.0	72.09750847527721	pulse	3.0	t		40.0	male	black	2.408674890569041	smiling	061	sub-05	1.0	3.0	061_smiling	1.0	91.12219008829561	
11.0	72.79749709542011	pulse	3.0	t		40.0	male	black	2.408674890569041	smiling	061	sub-05	1.0	3.0	061_smiling	1.0	91.82217870843851	
11.0	73.49748209332756	pulse	3.0	t		40.0	male	black	2.408674890569041	smiling	061	sub-05	1.0	3.0	061_smiling	1.0	92.52216370634596	
12.0	74.0140120155611	face	0.0		146	24.0	female	east_asian	2.9076800636689217	neutral	034	sub-05	1.0	3.0	034_neutral	0.0	93.0386936285795	1.2416468978117337
12.0	74.197466789381	pulse	0.0	t		24.0	female	east_asian	2.9076800636689217	neutral	034	sub-05	1.0	3.0	034_neutral	0.0	93.2221484023994	
12.0	74.89744635393436	pulse	0.0	t		24.0	female	east_asian	2.9076800636689217	neutral	034	sub-05	1.0	3.0	034_neutral	0.0	93.92212796695276	
12.0	75.25565891337283	fix	1.0		444	24.0	female	east_asian	2.9076800636689217	neutral	034	sub-05	1.0	3.0	034_neutral	0.0	94.28034052639123	3.766550221846046
12.0	75.59742742775234	pulse	1.0	t		24.0	female	east_asian	2.9076800636689217	neutral	034	sub-05	1.0	3.0	034_neutral	0.0	94.62210904077074	
12.0	76.29740669045168	pulse	1.0	t		24.0	female	east_asian	2.9076800636689217	neutral	034	sub-05	1.0	3.0	034_neutral	0.0	95.32208830347008	
12.0	76.9973898772405	pulse	1.0	t		24.0	female	east_asian	2.9076800636689217	neutral	034	sub-05	1.0	3.0	034_neutral	0.0	96.0220714902589	
12.0	77.6973784973834	pulse	1.0	t		24.0	female	east_asian	2.9076800636689217	neutral	034	sub-05	1.0	3.0	034_neutral	0.0	96.7220601104018	
12.0	78.3973487044932	pulse	1.0	t		24.0	female	east_asian	2.9076800636689217	neutral	034	sub-05	1.0	3.0	034_neutral	0.0	97.4220303175116	
13.0	79.02220913521887	face	0.0		145	28.0	male	east_asian	1.5563072025467568	neutral	005	sub-05	1.0	3.0	005_neutral	1.0	98.04689074823727	1.233316660987839
13.0	79.09743995465033	pulse	0.0	t		28.0	male	east_asian	1.5563072025467568	neutral	005	sub-05	1.0	3.0	005_neutral	1.0	98.12212156766873	
13.0	79.79731628548325	pulse	0.0	t		28.0	male	east_asian	1.5563072025467568	neutral	005	sub-05	1.0	3.0	005_neutral	1.0	98.82199789850165	
13.0	80.25552579620671	fix	1.0		236	28.0	male	east_asian	1.5563072025467568	neutral	005	sub-05	1.0	3.0	005_neutral	1.0	99.28020740922511	1.9999462701671291
13.0	80.49730037783047	pulse	1.0	t		28.0	male	east_asian	1.5563072025467568	neutral	005	sub-05	1.0	3.0	005_neutral	1.0	99.52198199084887	
13.0	81.197277829413	pulse	1.0	t		28.0	male	east_asian	1.5563072025467568	neutral	005	sub-05	1.0	3.0	005_neutral	1.0	100.2219594424314	
13.0	81.89726463843726	pulse	1.0	t		28.0	male	east_asian	1.5563072025467568	neutral	005	sub-05	1.0	3.0	005_neutral	1.0	100.92194625145567	
13.0	82.25547206637384	rating	2.0		236	28.0	male	east_asian	1.5563072025467568	neutral	005	sub-05	1.0	3.0	005_neutral	1.0	101.28015367939224	2.0082786199654947
13.0	82.5972502400491	pulse	2.0	t		28.0	male	east_asian	1.5563072025467568	neutral	005	sub-05	1.0	3.0	005_neutral	1.0	101.62193185306751	
13.0	83.29722648421921	pulse	2.0	t		28.0	male	east_asian	1.5563072025467568	neutral	005	sub-05	1.0	3.0	005_neutral	1.0	102.32190809723761	
13.0	83.9971954839184	pulse	2.0	t		28.0	male	east_asian	1.5563072025467568	neutral	005	sub-05	1.0	3.0	005_neutral	1.0	103.0218770969368	
13.0	84.24715299811032	response	2.0	n		28.0	male	east_asian	1.5563072025467568	neutral	005	sub-05	1.0	3.0	005_neutral	1.0	103.27183461112872	
13.0	84.26375068633934	fix	3.0		444	28.0	male	east_asian	1.5563072025467568	neutral	005	sub-05	1.0	3.0	005_neutral	1.0	103.28843229935774	3.7582178720513184
13.0	84.69717655773638	pulse	3.0	t		28.0	male	east_asian	1.5563072025467568	neutral	005	sub-05	1.0	3.0	005_neutral	1.0	103.72185817075479	
13.0	85.39716578158368	pulse	3.0	t		28.0	male	east_asian	1.5563072025467568	neutral	005	sub-05	1.0	3.0	005_neutral	1.0	104.42184739460208	
13.0	86.09714836466628	pulse	3.0	t		28.0	male	east_asian	1.5563072025467568	neutral	005	sub-05	1.0	3.0	005_neutral	1.0	105.12182997768468	
13.0	86.79713306071972	pulse	3.0	t		28.0	male	east_asian	1.5563072025467568	neutral	005	sub-05	1.0	3.0	005_neutral	1.0	105.82181467373812	
13.0	87.49710809747921	pulse	3.0	t		28.0	male	east_asian	1.5563072025467568	neutral	005	sub-05	1.0	3.0	005_neutral	1.0	106.52178971049761	
14.0	88.02196855839065	face	0.0		145	19.0	male	white	3.2522881018702745	smiling	018	sub-05	1.0	3.0	018_smiling	0.0	107.04665017140906	1.2332997572193563
14.0	88.19723828667156	pulse	0.0	t		19.0	male	white	3.2522881018702745	smiling	018	sub-05	1.0	3.0	018_smiling	0.0	107.22191989968996	
14.0	88.89706843399654	pulse	0.0	t		19.0	male	white	3.2522881018702745	smiling	018	sub-05	1.0	3.0	018_smiling	0.0	107.92175004701494	
14.0	89.25526831561001	fix	1.0		444	19.0	male	white	3.2522881018702745	smiling	018	sub-05	1.0	3.0	018_smiling	0.0	108.27994992862841	3.7665638052312715
14.0	89.59705101707914	pulse	1.0	t		19.0	male	white	3.2522881018702745	smiling	018	sub-05	1.0	3.0	018_smiling	0.0	108.62173263009754	
14.0	90.29702394086598	pulse	1.0	t		19.0	male	white	3.2522881018702745	smiling	018	sub-05	1.0	3.0	018_smiling	0.0	109.32170555388439	
14.0	90.99699505353601	pulse	1.0	t		19.0	male	white	3.2522881018702745	smiling	018	sub-05	1.0	3.0	018_smiling	0.0	110.02167666655441	
14.0	91.69697914588323	pulse	1.0	t		19.0	male	white	3.2522881018702745	smiling	018	sub-05	1.0	3.0	018_smiling	0.0	110.72166075890163	
14.0	92.39696233267205	pulse	1.0	t		19.0	male	white	3.2522881018702745	smiling	018	sub-05	1.0	3.0	018_smiling	0.0	111.42164394569045	
15.0	93.02183212084128	face	0.0		145	20.0	male	black	3.1070433744528456	neutral	082	sub-05	1.0	3.0	082_neutral	0.0	112.04651373385968	1.2333160572798079
15.0	93.09694461390245	pulse	0.0	t		20.0	male	black	3.1070433744528456	neutral	082	sub-05	1.0	3.0	082_neutral	0.0	112.12162622692085	
15.0	93.79692629142664	pulse	0.0	t		20.0	male	black	3.1070433744528456	neutral	082	sub-05	1.0	3.0	082_neutral	0.0	112.82160790444505	
15.0	94.25514817812109	fix	1.0		444	20.0	male	black	3.1070433744528456	neutral	082	sub-05	1.0	3.0	082_neutral	0.0	113.27982979113949	3.7665514292602893
15.0	94.49690464856758	pulse	1.0	t		20.0	male	black	3.1070433744528456	neutral	082	sub-05	1.0	3.0	082_neutral	0.0	113.52158626158598	
15.0	95.19688028903147	pulse	1.0	t		20.0	male	black	3.1070433744528456	neutral	082	sub-05	1.0	3.0	082_neutral	0.0	114.22156190204987	
15.0	95.89690513153073	pulse	1.0	t		20.0	male	black	3.1070433744528456	neutral	082	sub-05	1.0	3.0	082_neutral	0.0	114.92158674454913	
15.0	96.59689375167363	pulse	1.0	t		20.0	male	black	3.1070433744528456	neutral	082	sub-05	1.0	3.0	082_neutral	0.0	115.62157536469203	
15.0	97.29686637360828	pulse	1.0	t		20.0	male	black	3.1070433744528456	neutral	082	sub-05	1.0	3.0	082_neutral	0.0	116.32154798662668	
15.0	97.99683235477642	pulse	1.0	t		20.0	male	black	3.1070433744528456	neutral	082	sub-05	1.0	3.0	082_neutral	0.0	117.02151396779482	
16.0	98.02169960738138	face	0.0		146	21.0	male	black	2.969757262236371	smiling	137	sub-05	1.0	3.0	137_smiling	0.0	117.04638122039978	1.233314548015187
16.0	98.69682821939023	pulse	0.0	t		21.0	male	black	2.969757262236371	smiling	137	sub-05	1.0	3.0	137_smiling	0.0	117.72150983240863	
16.0	99.25501415539657	fix	1.0		443	21.0	male	black	2.969757262236371	smiling	137	sub-05	1.0	3.0	137_smiling	0.0	118.27969576841497	3.766548712581425
16.0	99.39681774509336	pulse	1.0	t		21.0	male	black	2.969757262236371	smiling	137	sub-05	1.0	3.0	137_smiling	0.0	118.42149935811176	
16.0	100.09679187629081	pulse	1.0	t		21.0	male	black	2.969757262236371	smiling	137	sub-05	1.0	3.0	137_smiling	0.0	119.12147348930921	
16.0	100.79675182040046	pulse	1.0	t		21.0	male	black	2.969757262236371	smiling	137	sub-05	1.0	3.0	137_smiling	0.0	119.82143343341886	
16.0	101.49673259236624	pulse	1.0	t		21.0	male	black	2.969757262236371	smiling	137	sub-05	1.0	3.0	137_smiling	0.0	120.52141420538464	
16.0	102.19669917724059	pulse	1.0	t		21.0	male	black	2.969757262236371	smiling	137	sub-05	1.0	3.0	137_smiling	0.0	121.22138079025899	
16.0	102.89667481770448	pulse	1.0	t		21.0	male	black	2.969757262236371	smiling	137	sub-05	1.0	3.0	137_smiling	0.0	121.92135643072288	
17.0	103.02156286797799	face	0.0		146	54.0	female	white	2.286908077994429	smiling	136	sub-05	1.0	3.0	136_smiling	0.0	122.04624448099639	1.2333175665462477
17.0	103.59672078991389	pulse	0.0	t		54.0	female	white	2.286908077994429	smiling	136	sub-05	1.0	3.0	136_smiling	0.0	122.62140240293229	
17.0	104.25488043452424	fix	1.0		443	54.0	female	white	2.286908077994429	smiling	136	sub-05	1.0	3.0	136_smiling	0.0	123.27956204754264	3.766555957054152
17.0	104.29664451166354	pulse	1.0	t		54.0	female	white	2.286908077994429	smiling	136	sub-05	1.0	3.0	136_smiling	0.0	123.32132612468195	
17.0	104.99664097998539	pulse	1.0	t		54.0	female	white	2.286908077994429	smiling	136	sub-05	1.0	3.0	136_smiling	0.0	124.02132259300379	
17.0	105.69662024268473	pulse	1.0	t		54.0	female	white	2.286908077994429	smiling	136	sub-05	1.0	3.0	136_smiling	0.0	124.72130185570313	
17.0	106.39658260161741	pulse	1.0	t		54.0	female	white	2.286908077994429	smiling	136	sub-05	1.0	3.0	136_smiling	0.0	125.42126421463581	
17.0	107.09656095875835	pulse	1.0	t		54.0	female	white	2.286908077994429	smiling	136	sub-05	1.0	3.0	136_smiling	0.0	126.12124257177675	
17.0	107.79655742707837	pulse	1.0	t		54.0	female	white	2.286908077994429	smiling	136	sub-05	1.0	3.0	136_smiling	0.0	126.82123904009677	
18.0	108.02143639157839	face	0.0		145	54.0	female	white	2.286908077994429	neutral	136	sub-05	1.0	3.0	136_neutral	0.0	127.04611800459679	1.2333073035442794
18.0	108.49654302869021	pulse	0.0	t		54.0	female	white	2.286908077994429	neutral	136	sub-05	1.0	3.0	136_neutral	0.0	127.52122464170861	
18.0	109.1965174617435	pulse	0.0	t		54.0	female	white	2.286908077994429	neutral	136	sub-05	1.0	3.0	136_neutral	0.0	128.2211990747619	
18.0	109.25474369512267	fix	1.0		444	54.0	female	white	2.286908077994429	neutral	136	sub-05	1.0	3.0	136_neutral	0.0	128.27942530814107	3.766549618139834
18.0	109.89650487447398	pulse	1.0	t		54.0	female	white	2.286908077994429	neutral	136	sub-05	1.0	3.0	136_neutral	0.0	128.92118648749238	
18.0	110.59648142049627	pulse	1.0	t		54.0	female	white	2.286908077994429	neutral	136	sub-05	1.0	3.0	136_neutral	0.0	129.62116303351468	
18.0	111.29646219246206	pulse	1.0	t		54.0	female	white	2.286908077994429	neutral	136	sub-05	1.0	3.0	136_neutral	0.0	130.32114380548046	
18.0	111.99643873848436	pulse	1.0	t		54.0	female	white	2.286908077994429	neutral	136	sub-05	1.0	3.0	136_neutral	0.0	131.02112035150276	
18.0	112.69642675492105	pulse	1.0	t		54.0	female	white	2.286908077994429	neutral	136	sub-05	1.0	3.0	136_neutral	0.0	131.72110836793945	
19.0	113.0212933132625	face	0.0		145	36.0	female	white	2.7548746518105847	smiling	011	sub-05	1.0	3.0	011_smiling	0.0	132.0459749262809	1.2333169628400356
19.0	113.39641416765153	pulse	0.0	t		36.0	female	white	2.7548746518105847	smiling	011	sub-05	1.0	3.0	011_smiling	0.0	132.42109578066993	
19.0	114.0963882988508	pulse	0.0	t		36.0	female	white	2.7548746518105847	smiling	011	sub-05	1.0	3.0	011_smiling	0.0	133.1210699118692	
19.0	114.25461027610254	fix	1.0		444	36.0	female	white	2.7548746518105847	smiling	011	sub-05	1.0	3.0	011_smiling	0.0	133.27929188912094	3.766540562552109
19.0	114.79638718199567	pulse	1.0	t		36.0	female	white	2.7548746518105847	smiling	011	sub-05	1.0	3.0	011_smiling	0.0	133.82106879501407	
19.0	115.4963468242513	pulse	1.0	t		36.0	female	white	2.7548746518105847	smiling	011	sub-05	1.0	3.0	011_smiling	0.0	134.5210284372697	
19.0	116.19633061474633	pulse	1.0	t		36.0	female	white	2.7548746518105847	smiling	011	sub-05	1.0	3.0	011_smiling	0.0	135.22101222776473	
19.0	116.89632768677075	pulse	1.0	t		36.0	female	white	2.7548746518105847	smiling	011	sub-05	1.0	3.0	011_smiling	0.0	135.92100929978915	
19.0	117.5963199291491	pulse	1.0	t		36.0	female	white	2.7548746518105847	smiling	011	sub-05	1.0	3.0	011_smiling	0.0	136.6210015421675	
20.0	118.02115083865465	face	0.0		145	22.0	male	black	2.767608436132113	neutral	044	sub-05	1.0	3.0	044_neutral	1.0	137.04583245167305	1.2333251128693519
20.0	118.29625059351929	pulse	0.0	t		22.0	male	black	2.767608436132113	neutral	044	sub-05	1.0	3.0	044_neutral	1.0	137.3209322065377	
20.0	118.99624193033924	pulse	0.0	t		22.0	male	black	2.767608436132113	neutral	044	sub-05	1.0	3.0	044_neutral	1.0	138.02092354335764	
20.0	119.254475951524	fix	1.0		236	22.0	male	black	2.767608436132113	neutral	044	sub-05	1.0	3.0	044_neutral	1.0	138.2791575645424	1.9999444590503117
20.0	119.69625469871971	pulse	1.0	t		22.0	male	black	2.767608436132113	neutral	044	sub-05	1.0	3.0	044_neutral	1.0	138.72093631173811	
20.0	120.39622792436057	pulse	1.0	t		22.0	male	black	2.767608436132113	neutral	044	sub-05	1.0	3.0	044_neutral	1.0	139.42090953737898	
20.0	121.09619722591196	pulse	1.0	t		22.0	male	black	2.767608436132113	neutral	044	sub-05	1.0	3.0	044_neutral	1.0	140.12087883893037	
20.0	121.25442041057431	rating	2.0		235	22.0	male	black	2.767608436132113	neutral	044	sub-05	1.0	3.0	044_neutral	1.0	140.2791020235927	1.999945666462736
20.0	121.7961885627301	pulse	2.0	t		22.0	male	black	2.767608436132113	neutral	044	sub-05	1.0	3.0	044_neutral	1.0	140.8208701757485	
20.0	122.49617476804997	pulse	2.0	t		22.0	male	black	2.767608436132113	neutral	044	sub-05	1.0	3.0	044_neutral	1.0	141.52085638106837	
20.0	122.60757723437018	response	2.0	e		22.0	male	black	2.767608436132113	neutral	044	sub-05	1.0	3.0	044_neutral	1.0	141.63225884738858	
20.0	123.19613229733477	pulse	2.0	t		22.0	male	black	2.767608436132113	neutral	044	sub-05	1.0	3.0	044_neutral	1.0	142.22081391035317	
20.0	123.25436607703705	fix	3.0		444	22.0	male	black	2.767608436132113	neutral	044	sub-05	1.0	3.0	044_neutral	1.0	142.27904769005545	3.758225720230257
20.0	123.89612816194858	pulse	3.0	t		22.0	male	black	2.767608436132113	neutral	044	sub-05	1.0	3.0	044_neutral	1.0	142.92080977496698	
20.0	124.59612010247292	pulse	3.0	t		22.0	male	black	2.767608436132113	neutral	044	sub-05	1.0	3.0	044_neutral	1.0	143.62080171549133	
20.0	125.2960875929075	pulse	3.0	t		22.0	male	black	2.767608436132113	neutral	044	sub-05	1.0	3.0	044_neutral	1.0	144.3207692059259	
20.0	125.99606051669434	pulse	3.0	t		22.0	male	black	2.767608436132113	neutral	044	sub-05	1.0	3.0	044_neutral	1.0	145.02074212971274	
20.0	126.69604521274778	pulse	3.0	t		22.0	male	black	2.767608436132113	neutral	044	sub-05	1.0	3.0	044_neutral	1.0	145.72072682576618	
21.0	127.0125917972673	face	0.0		146	27.0	male	black	3.5523278949462798	neutral	042	sub-05	1.0	3.0	042_neutral	0.0	146.0372734102857	1.2416414644576435
21.0	127.39603413474288	pulse	0.0	t		27.0	male	black	3.5523278949462798	neutral	042	sub-05	1.0	3.0	042_neutral	0.0	146.42071574776128	
21.0	128.09607467360001	pulse	0.0	t		27.0	male	black	3.5523278949462798	neutral	042	sub-05	1.0	3.0	042_neutral	0.0	147.12075628661842	
21.0	128.25423326172495	fix	1.0		444	27.0	male	black	3.5523278949462798	neutral	042	sub-05	1.0	3.0	042_neutral	0.0	147.27891487474335	3.7582142498140456
21.0	128.79599779164346	pulse	1.0	t		27.0	male	black	3.5523278949462798	neutral	042	sub-05	1.0	3.0	042_neutral	0.0	147.82067940466186	
21.0	129.49598399696333	pulse	1.0	t		27.0	male	black	3.5523278949462798	neutral	042	sub-05	1.0	3.0	042_neutral	0.0	148.52066560998173	
21.0	130.19595390222094	pulse	1.0	t		27.0	male	black	3.5523278949462798	neutral	042	sub-05	1.0	3.0	042_neutral	0.0	149.22063551523934	
21.0	130.89593648530354	pulse	1.0	t		27.0	male	black	3.5523278949462798	neutral	042	sub-05	1.0	3.0	042_neutral	0.0	149.92061809832194	
21.0	131.59591544615068	pulse	1.0	t		27.0	male	black	3.5523278949462798	neutral	042	sub-05	1.0	3.0	042_neutral	0.0	150.62059705916909	
22.0	132.012447511539	face	0.0		146	25.0	female	west_asian	2.6756864305610826	neutral	064	sub-05	1.0	3.0	064_neutral	0.0	151.0371291245574	1.241650821901203
22.0	132.29590134961472	pulse	0.0	t		25.0	female	west_asian	2.6756864305610826	neutral	064	sub-05	1.0	3.0	064_neutral	0.0	151.32058296263313	
22.0	132.9958887623452	pulse	0.0	t		25.0	female	west_asian	2.6756864305610826	neutral	064	sub-05	1.0	3.0	064_neutral	0.0	152.0205703753636	
22.0	133.2540983334402	fix	1.0		444	25.0	female	west_asian	2.6756864305610826	neutral	064	sub-05	1.0	3.0	064_neutral	0.0	152.2787799464586	3.7665345254918066
22.0	133.69585715833819	pulse	1.0	t		25.0	female	west_asian	2.6756864305610826	neutral	064	sub-05	1.0	3.0	064_neutral	0.0	152.7205387713566	
22.0	134.39584155253942	pulse	1.0	t		25.0	female	west_asian	2.6756864305610826	neutral	064	sub-05	1.0	3.0	064_neutral	0.0	153.42052316555782	
22.0	135.0958235319158	pulse	1.0	t		25.0	female	west_asian	2.6756864305610826	neutral	064	sub-05	1.0	3.0	064_neutral	0.0	154.1205051449342	
22.0	135.79579585199644	pulse	1.0	t		25.0	female	west_asian	2.6756864305610826	neutral	064	sub-05	1.0	3.0	064_neutral	0.0	154.82047746501485	
22.0	136.4957871888164	pulse	1.0	t		25.0	female	west_asian	2.6756864305610826	neutral	064	sub-05	1.0	3.0	064_neutral	0.0	155.5204688018348	
23.0	137.020632858932	face	0.0		145	31.0	female	west_asian	2.364902506963788	smiling	006	sub-05	1.0	3.0	006_smiling	1.0	156.0453144719504	1.2333293388128368
23.0	137.195769771899	pulse	0.0	t		31.0	female	west_asian	2.364902506963788	smiling	006	sub-05	1.0	3.0	006_smiling	1.0	156.2204513849174	
23.0	137.8957583920419	pulse	0.0	t		31.0	female	west_asian	2.364902506963788	smiling	006	sub-05	1.0	3.0	006_smiling	1.0	156.9204400050603	
23.0	138.25396219774484	fix	1.0		236	31.0	female	west_asian	2.364902506963788	smiling	006	sub-05	1.0	3.0	006_smiling	1.0	157.27864381076324	1.9999492886981898
23.0	138.5962755567616	pulse	1.0	t		31.0	female	west_asian	2.364902506963788	smiling	006	sub-05	1.0	3.0	006_smiling	1.0	157.62095716978	
23.0	139.29570695629263	pulse	1.0	t		31.0	female	west_asian	2.364902506963788	smiling	006	sub-05	1.0	3.0	006_smiling	1.0	158.32038856931104	
23.0	139.99569135049387	pulse	1.0	t		31.0	female	west_asian	2.364902506963788	smiling	006	sub-05	1.0	3.0	006_smiling	1.0	159.02037296351227	
23.0	140.25391148644303	rating	2.0		235	31.0	female	west_asian	2.364902506963788	smiling	006	sub-05	1.0	3.0	006_smiling	1.0	159.27859309946143	1.999945666462736
23.0	140.69569113919715	pulse	2.0	t		31.0	female	west_asian	2.364902506963788	smiling	006	sub-05	1.0	3.0	006_smiling	1.0	159.72037275221555	
23.0	141.26232473283744	response	2.0	b		31.0	female	west_asian	2.364902506963788	smiling	006	sub-05	1.0	3.0	006_smiling	1.0	160.28700634585584	
23.0	141.3956900223402	pulse	2.0	t		31.0	female	west_asian	2.364902506963788	smiling	006	sub-05	1.0	3.0	006_smiling	1.0	160.4203716353586	
23.0	142.09563577936024	pulse	2.0	t		31.0	female	west_asian	2.364902506963788	smiling	006	sub-05	1.0	3.0	006_smiling	1.0	161.12031739237864	
23.0	142.25385715290577	fix	3.0		1185	31.0	female	west_asian	2.364902506963788	smiling	006	sub-05	1.0	3.0	006_smiling	1.0	161.27853876592417	10.01635741325299
23.0	142.79563254953246	pulse	3.0	t		31.0	female	west_asian	2.364902506963788	smiling	006	sub-05	1.0	3.0	006_smiling	1.0	161.82031416255086	
23.0	143.4956112085256	pulse	3.0	t		31.0	female	west_asian	2.364902506963788	smiling	006	sub-05	1.0	3.0	006_smiling	1.0	162.520292821544	
23.0	144.19557598228312	pulse	3.0	t		31.0	female	west_asian	2.364902506963788	smiling	006	sub-05	1.0	3.0	006_smiling	1.0	163.22025759530152	
23.0	144.89556098019057	pulse	3.0	t		31.0	female	west_asian	2.364902506963788	smiling	006	sub-05	1.0	3.0	006_smiling	1.0	163.92024259320897	
23.0	145.59553722436067	pulse	3.0	t		31.0	female	west_asian	2.364902506963788	smiling	006	sub-05	1.0	3.0	006_smiling	1.0	164.62021883737907	
23.0	146.29553610750372	pulse	3.0	t		31.0	female	west_asian	2.364902506963788	smiling	006	sub-05	1.0	3.0	006_smiling	1.0	165.32021772052212	
23.0	146.99550208867186	pulse	3.0	t		31.0	female	west_asian	2.364902506963788	smiling	006	sub-05	1.0	3.0	006_smiling	1.0	166.02018370169026	
23.0	147.69549523661044	pulse	3.0	t		31.0	female	west_asian	2.364902506963788	smiling	006	sub-05	1.0	3.0	006_smiling	1.0	166.72017684962884	
23.0	148.3954693678097	pulse	3.0	t		31.0	female	west_asian	2.364902506963788	smiling	006	sub-05	1.0	3.0	006_smiling	1.0	167.4201509808281	
23.0	149.09544138603633	pulse	3.0	t		31.0	female	west_asian	2.364902506963788	smiling	006	sub-05	1.0	3.0	006_smiling	1.0	168.12012299905473	
23.0	149.79543121359166	pulse	3.0	t		31.0	female	west_asian	2.364902506963788	smiling	006	sub-05	1.0	3.0	006_smiling	1.0	168.82011282661006	
23.0	150.49558072137552	pulse	3.0	t		31.0	female	west_asian	2.364902506963788	smiling	006	sub-05	1.0	3.0	006_smiling	1.0	169.52026233439392	
23.0	151.19537675931315	pulse	3.0	t		31.0	female	west_asian	2.364902506963788	smiling	006	sub-05	1.0	3.0	006_smiling	1.0	170.22005837233155	
23.0	151.89536719057287	pulse	3.0	t		31.0	female	west_asian	2.364902506963788	smiling	006	sub-05	1.0	3.0	006_smiling	1.0	170.92004880359127	
24.0	152.27021456615876	face	0.0		145	28.0	male	east_asian	1.5563072025467568	smiling	005	sub-05	1.0	3.0	005_smiling	0.0	171.29489617917716	1.2333362814297288
24.0	152.59534132177214	pulse	0.0	t		28.0	male	east_asian	1.5563072025467568	smiling	005	sub-05	1.0	3.0	005_smiling	0.0	171.62002293479054	
24.0	153.29534352530027	pulse	0.0	t		28.0	male	east_asian	1.5563072025467568	smiling	005	sub-05	1.0	3.0	005_smiling	0.0	172.32002513831867	
24.0	153.50355084758849	fix	1.0		444	28.0	male	east_asian	1.5563072025467568	smiling	005	sub-05	1.0	3.0	005_smiling	0.0	172.5282324606069	3.7665526366708946
24.0	153.99531976947037	pulse	1.0	t		28.0	male	east_asian	1.5563072025467568	smiling	005	sub-05	1.0	3.0	005_smiling	0.0	173.02000138248877	
24.0	154.69529963587593	pulse	1.0	t		28.0	male	east_asian	1.5563072025467568	smiling	005	sub-05	1.0	3.0	005_smiling	0.0	173.71998124889433	
24.0	155.3952749744858	pulse	1.0	t		28.0	male	east_asian	1.5563072025467568	smiling	005	sub-05	1.0	3.0	005_smiling	0.0	174.4199565875042	
24.0	156.09525846312863	pulse	1.0	t		28.0	male	east_asian	1.5563072025467568	smiling	005	sub-05	1.0	3.0	005_smiling	0.0	175.11994007614703	
24.0	156.79524104621123	pulse	1.0	t		28.0	male	east_asian	1.5563072025467568	smiling	005	sub-05	1.0	3.0	005_smiling	0.0	175.81992265922963	
25.0	157.27010348425938	face	0.0		145	40.0	male	black	2.408674890569041	neutral	061	sub-05	1.0	3.0	061_neutral	0.0	176.29478509727778	1.2333024738964014
25.0	157.49523751453125	pulse	0.0	t		40.0	male	black	2.408674890569041	neutral	061	sub-05	1.0	3.0	061_neutral	0.0	176.51991912754966	
25.0	158.1951983641993	pulse	0.0	t		40.0	male	black	2.408674890569041	neutral	061	sub-05	1.0	3.0	061_neutral	0.0	177.21987997721772	
25.0	158.50340595815578	fix	1.0		444	40.0	male	black	2.408674890569041	neutral	061	sub-05	1.0	3.0	061_neutral	0.0	177.52808757117418	3.766559881141802
25.0	158.89518366395896	pulse	1.0	t		40.0	male	black	2.408674890569041	neutral	061	sub-05	1.0	3.0	061_neutral	0.0	177.91986527697736	
25.0	159.59516654889376	pulse	1.0	t		40.0	male	black	2.408674890569041	neutral	061	sub-05	1.0	3.0	061_neutral	0.0	178.61984816191216	
25.0	160.2951436986241	pulse	1.0	t		40.0	male	black	2.408674890569041	neutral	061	sub-05	1.0	3.0	061_neutral	0.0	179.3198253116425	
25.0	160.9951274891173	pulse	1.0	t		40.0	male	black	2.408674890569041	neutral	061	sub-05	1.0	3.0	061_neutral	0.0	180.0198091021357	
25.0	161.69510765737687	pulse	1.0	t		40.0	male	black	2.408674890569041	neutral	061	sub-05	1.0	3.0	061_neutral	0.0	180.71978927039527	
26.0	162.26996583929758	face	0.0		145	25.0	female	black	3.858336649423	neutral	126	sub-05	1.0	3.0	126_neutral	0.0	181.29464745231598	1.2333163591338234
26.0	162.39509507010735	pulse	0.0	t		25.0	female	black	3.858336649423	neutral	126	sub-05	1.0	3.0	126_neutral	0.0	181.41977668312575	
26.0	163.0950942551044	pulse	0.0	t		25.0	female	black	3.858336649423	neutral	126	sub-05	1.0	3.0	126_neutral	0.0	182.11977586812282	
26.0	163.5032821984314	fix	1.0		444	25.0	female	black	3.858336649423	neutral	126	sub-05	1.0	3.0	126_neutral	0.0	182.5279638114498	3.7665547496417275
26.0	163.79505299180164	pulse	1.0	t		25.0	female	black	3.858336649423	neutral	126	sub-05	1.0	3.0	126_neutral	0.0	182.81973460482004	
26.0	164.4950274248531	pulse	1.0	t		25.0	female	black	3.858336649423	neutral	126	sub-05	1.0	3.0	126_neutral	0.0	183.5197090378715	
26.0	165.19501030978972	pulse	1.0	t		25.0	female	black	3.858336649423	neutral	126	sub-05	1.0	3.0	126_neutral	0.0	184.21969192280812	
26.0	165.89497146130998	pulse	1.0	t		25.0	female	black	3.858336649423	neutral	126	sub-05	1.0	3.0	126_neutral	0.0	184.91965307432838	
26.0	166.59497698521955	pulse	1.0	t		25.0	female	black	3.858336649423	neutral	126	sub-05	1.0	3.0	126_neutral	0.0	185.61965859823795	
27.0	167.26983694807313	face	0.0		145	27.0	female	white	3.504576203740549	smiling	144	sub-05	1.0	3.0	144_smiling	0.0	186.29451856109154	1.2333106239275367
27.0	167.29496500165624	pulse	0.0	t		27.0	female	white	3.504576203740549	smiling	144	sub-05	1.0	3.0	144_smiling	0.0	186.31964661467464	
27.0	167.99493701988467	pulse	0.0	t		27.0	female	white	3.504576203740549	smiling	144	sub-05	1.0	3.0	144_smiling	0.0	187.01961863290308	
27.0	168.50314757200067	fix	1.0		443	27.0	female	white	3.504576203740549	smiling	144	sub-05	1.0	3.0	144_smiling	0.0	187.52782918501907	3.7665505237000616
27.0	168.69492896041083	pulse	1.0	t		27.0	female	white	3.504576203740549	smiling	144	sub-05	1.0	3.0	144_smiling	0.0	187.71961057342924	
27.0	169.39486837851655	pulse	1.0	t		27.0	female	white	3.504576203740549	smiling	144	sub-05	1.0	3.0	144_smiling	0.0	188.41954999153495	
27.0	170.09487480798452	pulse	1.0	t		27.0	female	white	3.504576203740549	smiling	144	sub-05	1.0	3.0	144_smiling	0.0	189.11955642100293	
27.0	170.794862220715	pulse	1.0	t		27.0	female	white	3.504576203740549	smiling	144	sub-05	1.0	3.0	144_smiling	0.0	189.8195438337334	
27.0	171.49485325568094	pulse	1.0	t		27.0	female	white	3.504576203740549	smiling	144	sub-05	1.0	3.0	144_smiling	0.0	190.51953486869934	
27.0	172.19481893499687	pulse	1.0	t		27.0	female	white	3.504576203740549	smiling	144	sub-05	1.0	3.0	144_smiling	0.0	191.21950054801528	
28.0	172.26969809570073	face	0.0		146	30.0	female	black	2.7345801830481498	neutral	062	sub-05	1.0	3.0	062_neutral	0.0	191.29437970871913	1.233310322073521
28.0	172.89482566631887	pulse	0.0	t		30.0	female	black	2.7345801830481498	neutral	062	sub-05	1.0	3.0	062_neutral	0.0	191.91950727933727	
28.0	173.50300841777425	fix	1.0		443	30.0	female	black	2.7345801830481498	neutral	062	sub-05	1.0	3.0	062_neutral	0.0	192.52769003079266	3.7665562589063484
28.0	173.59479285489942	pulse	1.0	t		30.0	female	black	2.7345801830481498	neutral	062	sub-05	1.0	3.0	062_neutral	0.0	192.61947446791783	
28.0	174.2947736268634	pulse	1.0	t		30.0	female	black	2.7345801830481498	neutral	062	sub-05	1.0	3.0	062_neutral	0.0	193.3194552398818	
28.0	174.99474564509183	pulse	1.0	t		30.0	female	black	2.7345801830481498	neutral	062	sub-05	1.0	3.0	062_neutral	0.0	194.01942725811023	
28.0	175.694714342937	pulse	1.0	t		30.0	female	black	2.7345801830481498	neutral	062	sub-05	1.0	3.0	062_neutral	0.0	194.7193959559554	
28.0	176.3947090001402	pulse	1.0	t		30.0	female	black	2.7345801830481498	neutral	062	sub-05	1.0	3.0	062_neutral	0.0	195.4193906131586	
28.0	177.09468947025198	pulse	1.0	t		30.0	female	black	2.7345801830481498	neutral	062	sub-05	1.0	3.0	062_neutral	0.0	196.11937108327038	
29.0	177.2695646766806	face	0.0		146	20.0	female	white	3.9502586549940313	neutral	091	sub-05	1.0	3.0	091_neutral	0.0	196.294246289699	1.2416468978117337
29.0	177.79467809039488	pulse	0.0	t		20.0	female	white	3.9502586549940313	neutral	091	sub-05	1.0	3.0	091_neutral	0.0	196.81935970341328	
29.0	178.49465252344635	pulse	0.0	t		20.0	female	white	3.9502586549940313	neutral	091	sub-05	1.0	3.0	091_neutral	0.0	197.51933413646475	
29.0	178.51121157449234	fix	1.0		443	20.0	female	white	3.9502586549940313	neutral	091	sub-05	1.0	3.0	091_neutral	0.0	197.53589318751074	3.758216060934501
29.0	179.19464023802902	pulse	1.0	t		20.0	female	white	3.9502586549940313	neutral	091	sub-05	1.0	3.0	091_neutral	0.0	198.21932185104743	
29.0	179.89462312296564	pulse	1.0	t		20.0	female	white	3.9502586549940313	neutral	091	sub-05	1.0	3.0	091_neutral	0.0	198.91930473598404	
29.0	180.59459242451703	pulse	1.0	t		20.0	female	white	3.9502586549940313	neutral	091	sub-05	1.0	3.0	091_neutral	0.0	199.61927403753543	
29.0	181.29457651686425	pulse	1.0	t		20.0	female	white	3.9502586549940313	neutral	091	sub-05	1.0	3.0	091_neutral	0.0	200.31925812988266	
29.0	181.99455577956542	pulse	1.0	t		20.0	female	white	3.9502586549940313	neutral	091	sub-05	1.0	3.0	091_neutral	0.0	201.01923739258382	
30.0	182.26942763542684	face	0.0		145	40.0	male	white	1.868682849184242	neutral	172	sub-05	1.0	3.0	172_neutral	0.0	201.29410924844524	1.2333160572798079
30.0	182.69454228673567	pulse	0.0	t		40.0	male	white	1.868682849184242	neutral	172	sub-05	1.0	3.0	172_neutral	0.0	201.71922389975407	
30.0	183.39451671978895	pulse	0.0	t		40.0	male	white	1.868682849184242	neutral	172	sub-05	1.0	3.0	172_neutral	0.0	202.41919833280735	
30.0	183.50274369270664	fix	1.0		444	40.0	male	white	1.868682849184242	neutral	172	sub-05	1.0	3.0	172_neutral	0.0	202.52742530572505	3.766550825554077
30.0	184.0945086603133	pulse	1.0	t		40.0	male	white	1.868682849184242	neutral	172	sub-05	1.0	3.0	172_neutral	0.0	203.1191902733317	
30.0	184.79448671560203	pulse	1.0	t		40.0	male	white	1.868682849184242	neutral	172	sub-05	1.0	3.0	172_neutral	0.0	203.81916832862044	
30.0	185.49446326162433	pulse	1.0	t		40.0	male	white	1.868682849184242	neutral	172	sub-05	1.0	3.0	172_neutral	0.0	204.51914487464273	
30.0	186.1944500706486	pulse	1.0	t		40.0	male	white	1.868682849184242	neutral	172	sub-05	1.0	3.0	172_neutral	0.0	205.219131683667	
30.0	186.89442027776022	pulse	1.0	t		40.0	male	white	1.868682849184242	neutral	172	sub-05	1.0	3.0	172_neutral	0.0	205.91910189077862	
31.0	187.26929451826072	face	0.0		145	25.0	female	black	3.858336649423	smiling	126	sub-05	1.0	3.0	126_smiling	0.0	206.29397613127912	1.2333015683361737
31.0	187.59441040716774	pulse	0.0	t		25.0	female	black	3.858336649423	smiling	126	sub-05	1.0	3.0	126_smiling	0.0	206.61909202018614	
31.0	188.29439299025034	pulse	0.0	t		25.0	female	black	3.858336649423	smiling	126	sub-05	1.0	3.0	126_smiling	0.0	207.31907460326875	
31.0	188.5025960865969	fix	1.0		444	25.0	female	black	3.858336649423	smiling	126	sub-05	1.0	3.0	126_smiling	0.0	207.5272776996153	3.76656078670203
31.0	188.99437164924348	pulse	1.0	t		25.0	female	black	3.858336649423	smiling	126	sub-05	1.0	3.0	126_smiling	0.0	208.01905326226188	
31.0	189.69436057123858	pulse	1.0	t		25.0	female	black	3.858336649423	smiling	126	sub-05	1.0	3.0	126_smiling	0.0	208.71904218425698	
31.0	190.3943307783502	pulse	1.0	t		25.0	female	black	3.858336649423	smiling	126	sub-05	1.0	3.0	126_smiling	0.0	209.4190123913686	
31.0	191.0943151725496	pulse	1.0	t		25.0	female	black	3.858336649423	smiling	126	sub-05	1.0	3.0	126_smiling	0.0	210.11899678556802	
31.0	191.79428296483638	pulse	1.0	t		25.0	female	black	3.858336649423	smiling	126	sub-05	1.0	3.0	126_smiling	0.0	210.81896457785479	
32.0	192.26915687329893	face	0.0		145	40.0	female	west_asian	1.5777954635893354	neutral	038	sub-05	1.0	3.0	038_neutral	0.0	211.29383848631733	1.2333178683984443
32.0	192.49428365909807	pulse	0.0	t		40.0	female	west_asian	1.5777954635893354	neutral	038	sub-05	1.0	3.0	038_neutral	0.0	211.51896527211647	
32.0	193.1942541680619	pulse	0.0	t		40.0	female	west_asian	1.5777954635893354	neutral	038	sub-05	1.0	3.0	038_neutral	0.0	212.2189357810803	
32.0	193.50247474169737	fix	1.0		444	40.0	female	west_asian	1.5777954635893354	neutral	038	sub-05	1.0	3.0	038_neutral	0.0	212.52715635471577	3.758245944378359
32.0	193.89424761785267	pulse	1.0	t		40.0	female	west_asian	1.5777954635893354	neutral	038	sub-05	1.0	3.0	038_neutral	0.0	212.91892923087107	
32.0	194.59423623799557	pulse	1.0	t		40.0	female	west_asian	1.5777954635893354	neutral	038	sub-05	1.0	3.0	038_neutral	0.0	213.61891785101398	
32.0	195.29420101175128	pulse	1.0	t		40.0	female	west_asian	1.5777954635893354	neutral	038	sub-05	1.0	3.0	038_neutral	0.0	214.31888262476969	
32.0	195.99419838562972	pulse	1.0	t		40.0	female	west_asian	1.5777954635893354	neutral	038	sub-05	1.0	3.0	038_neutral	0.0	215.01887999864812	
32.0	196.6941486704436	pulse	1.0	t		40.0	female	west_asian	1.5777954635893354	neutral	038	sub-05	1.0	3.0	038_neutral	0.0	215.718830283462	
33.0	197.26072068607573	face	0.0		146	19.0	male	white	3.2522881018702745	neutral	018	sub-05	1.0	3.0	018_neutral	0.0	216.28540229909413	1.2416182217784808
33.0	197.3941499684115	pulse	0.0	t		19.0	male	white	3.2522881018702745	neutral	018	sub-05	1.0	3.0	018_neutral	0.0	216.4188315814299	
33.0	198.09411745884609	pulse	0.0	t		19.0	male	white	3.2522881018702745	neutral	018	sub-05	1.0	3.0	018_neutral	0.0	217.1187990718645	
33.0	198.5023389078542	fix	1.0		444	19.0	male	white	3.2522881018702745	neutral	018	sub-05	1.0	3.0	018_neutral	0.0	217.5270205208726	3.7665520329646824
33.0	198.79411090863505	pulse	1.0	t		19.0	male	white	3.2522881018702745	neutral	018	sub-05	1.0	3.0	018_neutral	0.0	217.81879252165345	
33.0	199.49408564354053	pulse	1.0	t		19.0	male	white	3.2522881018702745	neutral	018	sub-05	1.0	3.0	018_neutral	0.0	218.51876725655893	
33.0	200.19407184885858	pulse	1.0	t		19.0	male	white	3.2522881018702745	neutral	018	sub-05	1.0	3.0	018_neutral	0.0	219.218753461877	
33.0	200.89405171526596	pulse	1.0	t		19.0	male	white	3.2522881018702745	neutral	018	sub-05	1.0	3.0	018_neutral	0.0	219.91873332828436	
33.0	201.5940303742591	pulse	1.0	t		19.0	male	white	3.2522881018702745	neutral	018	sub-05	1.0	3.0	018_neutral	0.0	220.6187119872775	
34.0	202.2688909408189	face	0.0		145	20.0	male	black	2.609629924393156	smiling	043	sub-05	1.0	3.0	043_smiling	0.0	221.2935725538373	1.2333163591338234
34.0	202.2940198999604	pulse	0.0	t		20.0	male	black	2.609629924393156	smiling	043	sub-05	1.0	3.0	043_smiling	0.0	221.3187015129788	
34.0	202.9939952385721	pulse	0.0	t		20.0	male	black	2.609629924393156	smiling	043	sub-05	1.0	3.0	043_smiling	0.0	222.0186768515905	
34.0	203.50220729995272	fix	1.0		443	20.0	male	black	2.609629924393156	smiling	043	sub-05	1.0	3.0	043_smiling	0.0	222.52688891297112	3.7665456940521835
34.0	203.69397570868387	pulse	1.0	t		20.0	male	black	2.609629924393156	smiling	043	sub-05	1.0	3.0	043_smiling	0.0	222.71865732170227	
34.0	204.393954367677	pulse	1.0	t		20.0	male	black	2.609629924393156	smiling	043	sub-05	1.0	3.0	043_smiling	0.0	223.4186359806954	
34.0	205.093935743349	pulse	1.0	t		20.0	male	black	2.609629924393156	smiling	043	sub-05	1.0	3.0	043_smiling	0.0	224.1186173563674	
34.0	205.79391168566508	pulse	1.0	t		20.0	male	black	2.609629924393156	smiling	043	sub-05	1.0	3.0	043_smiling	0.0	224.81859329868348	
34.0	206.4939009095142	pulse	1.0	t		20.0	male	black	2.609629924393156	smiling	043	sub-05	1.0	3.0	043_smiling	0.0	225.5185825225326	
34.0	207.19391941310278	pulse	1.0	t		20.0	male	black	2.609629924393156	smiling	043	sub-05	1.0	3.0	043_smiling	0.0	226.21860102612118	
35.0	207.2687529940049	face	0.0		146	19.0	female	white	4.298846000795861	neutral	100	sub-05	1.0	3.0	100_neutral	0.0	226.2934346070233	1.2333175665462477
35.0	207.89386728309182	pulse	0.0	t		19.0	female	white	4.298846000795861	neutral	100	sub-05	1.0	3.0	100_neutral	0.0	226.91854889611022	
35.0	208.50207056055115	fix	1.0		443	19.0	female	white	4.298846000795861	neutral	100	sub-05	1.0	3.0	100_neutral	0.0	227.52675217356955	3.766549618139834
35.0	208.59397573886963	pulse	1.0	t		19.0	female	white	4.298846000795861	neutral	100	sub-05	1.0	3.0	100_neutral	0.0	227.61865735188803	
35.0	209.29382248810907	pulse	1.0	t		19.0	female	white	4.298846000795861	neutral	100	sub-05	1.0	3.0	100_neutral	0.0	228.31850410112747	
35.0	209.99380446748546	pulse	1.0	t		19.0	female	white	4.298846000795861	neutral	100	sub-05	1.0	3.0	100_neutral	0.0	229.01848608050386	
35.0	210.69379067280352	pulse	1.0	t		19.0	female	white	4.298846000795861	neutral	100	sub-05	1.0	3.0	100_neutral	0.0	229.71847228582192	
35.0	211.39376480400279	pulse	1.0	t		19.0	female	white	4.298846000795861	neutral	100	sub-05	1.0	3.0	100_neutral	0.0	230.4184464170212	
35.0	212.09374919820402	pulse	1.0	t		19.0	female	white	4.298846000795861	neutral	100	sub-05	1.0	3.0	100_neutral	0.0	231.11843081122242	
36.0	212.26862017869098	face	0.0		146	24.0	male	white	3.1153999204138483	smiling	012	sub-05	1.0	3.0	012_smiling	0.0	231.29330179170938	1.2416366348115844
36.0	212.79373298869905	pulse	0.0	t		24.0	male	white	3.1153999204138483	smiling	012	sub-05	1.0	3.0	012_smiling	0.0	231.81841460171745	
36.0	213.49370289395665	pulse	0.0	t		24.0	male	white	3.1153999204138483	smiling	012	sub-05	1.0	3.0	012_smiling	0.0	232.51838450697505	
36.0	213.51025681350256	fix	1.0		443	24.0	male	white	3.1153999204138483	smiling	012	sub-05	1.0	3.0	012_smiling	0.0	232.53493842652097	3.758230851728513
36.0	214.19369634374561	pulse	1.0	t		24.0	male	white	3.1153999204138483	smiling	012	sub-05	1.0	3.0	012_smiling	0.0	233.21837795676402	
36.0	214.89367621015117	pulse	1.0	t		24.0	male	white	3.1153999204138483	smiling	012	sub-05	1.0	3.0	012_smiling	0.0	233.91835782316957	
36.0	215.5936600006462	pulse	1.0	t		24.0	male	white	3.1153999204138483	smiling	012	sub-05	1.0	3.0	012_smiling	0.0	234.6183416136646	
36.0	216.2936350374057	pulse	1.0	t		24.0	male	white	3.1153999204138483	smiling	012	sub-05	1.0	3.0	012_smiling	0.0	235.3183166504241	
36.0	216.99361550751746	pulse	1.0	t		24.0	male	white	3.1153999204138483	smiling	012	sub-05	1.0	3.0	012_smiling	0.0	236.01829712053586	
37.0	217.26848766523108	face	0.0		145	40.0	male	white	1.868682849184242	smiling	172	sub-05	1.0	3.0	172_smiling	0.0	236.29316927824948	1.2333163591338234
37.0	217.6936071461896	pulse	0.0	t		40.0	male	white	1.868682849184242	smiling	172	sub-05	1.0	3.0	172_smiling	0.0	236.718288759208	
37.0	218.39357403291615	pulse	0.0	t		40.0	male	white	1.868682849184242	smiling	172	sub-05	1.0	3.0	172_smiling	0.0	237.41825564593455	
37.0	218.5018040243649	fix	1.0		444	40.0	male	white	1.868682849184242	smiling	172	sub-05	1.0	3.0	172_smiling	0.0	237.5264856373833	3.76653271437317
37.0	219.0935659734423	pulse	1.0	t		40.0	male	white	1.868682849184242	smiling	172	sub-05	1.0	3.0	172_smiling	0.0	238.1182475864607	
37.0	219.79353859537696	pulse	1.0	t		40.0	male	white	1.868682849184242	smiling	172	sub-05	1.0	3.0	172_smiling	0.0	238.81822020839536	
37.0	220.4935625323178	pulse	1.0	t		40.0	male	white	1.868682849184242	smiling	172	sub-05	1.0	3.0	172_smiling	0.0	239.5182441453362	
37.0	221.19370509748296	pulse	1.0	t		40.0	male	white	1.868682849184242	smiling	172	sub-05	1.0	3.0	172_smiling	0.0	240.21838671050136	
37.0	221.89348453350613	pulse	1.0	t		40.0	male	white	1.868682849184242	smiling	172	sub-05	1.0	3.0	172_smiling	0.0	240.91816614652453	
38.0	222.26833673873807	face	0.0		145	27.0	female	white	4.181058495821727	neutral	039	sub-05	1.0	3.0	039_neutral	0.0	241.29301835175647	1.2333302443712455
38.0	222.59347043697198	pulse	0.0	t		27.0	female	white	4.181058495821727	neutral	039	sub-05	1.0	3.0	039_neutral	0.0	241.61815204999039	
38.0	223.2934418514942	pulse	0.0	t		27.0	female	white	4.181058495821727	neutral	039	sub-05	1.0	3.0	039_neutral	0.0	242.3181234645126	
38.0	223.50166698310932	fix	1.0		444	27.0	female	white	4.181058495821727	neutral	039	sub-05	1.0	3.0	039_neutral	0.0	242.52634859612772	3.7665499199938495
38.0	223.9936248649592	pulse	1.0	t		27.0	female	white	4.181058495821727	neutral	039	sub-05	1.0	3.0	039_neutral	0.0	243.0183064779776	
38.0	224.69341426213214	pulse	1.0	t		27.0	female	white	4.181058495821727	neutral	039	sub-05	1.0	3.0	039_neutral	0.0	243.71809587515054	
38.0	225.39338356368353	pulse	1.0	t		27.0	female	white	4.181058495821727	neutral	039	sub-05	1.0	3.0	039_neutral	0.0	244.41806517670193	
38.0	226.09337188197242	pulse	1.0	t		27.0	female	white	4.181058495821727	neutral	039	sub-05	1.0	3.0	039_neutral	0.0	245.11805349499082	
38.0	226.7933589928507	pulse	1.0	t		27.0	female	white	4.181058495821727	neutral	039	sub-05	1.0	3.0	039_neutral	0.0	245.8180406058691	
39.0	227.26821690310317	face	0.0		145	31.0	female	east_asian	3.395941106247513	smiling	087	sub-05	1.0	3.0	087_smiling	0.0	246.29289851612157	1.2333178683984443
39.0	227.49334067037307	pulse	0.0	t		31.0	female	east_asian	3.395941106247513	smiling	087	sub-05	1.0	3.0	087_smiling	0.0	246.51802228339147	
39.0	228.19330997192446	pulse	0.0	t		31.0	female	east_asian	3.395941106247513	smiling	087	sub-05	1.0	3.0	087_smiling	0.0	247.21799158494287	
39.0	228.5015347715016	fix	1.0		444	31.0	female	east_asian	3.395941106247513	smiling	087	sub-05	1.0	3.0	087_smiling	0.0	247.52621638452	3.7498969926691643
39.0	228.89330161059843	pulse	1.0	t		31.0	female	east_asian	3.395941106247513	smiling	087	sub-05	1.0	3.0	087_smiling	0.0	247.91798322361683	
39.0	229.59347556847206	pulse	1.0	t		31.0	female	east_asian	3.395941106247513	smiling	087	sub-05	1.0	3.0	087_smiling	0.0	248.61815718149046	
39.0	230.29344969967133	pulse	1.0	t		31.0	female	east_asian	3.395941106247513	smiling	087	sub-05	1.0	3.0	087_smiling	0.0	249.31813131268973	
39.0	230.99325298208169	pulse	1.0	t		31.0	female	east_asian	3.395941106247513	smiling	087	sub-05	1.0	3.0	087_smiling	0.0	250.0179345951001	
39.0	231.69342271401547	pulse	1.0	t		31.0	female	east_asian	3.395941106247513	smiling	087	sub-05	1.0	3.0	087_smiling	0.0	250.71810432703387	
40.0	232.25143176417077	fix	0.0		720												251.27611337718918	5.9998373012422235
40.0	232.39339865633156	pulse	0.0	t													251.41808026934996	
40.0	233.09337067456	pulse	0.0	t													252.1180522875784	
40.0	233.79335778543827	pulse	0.0	t													252.81803939845668	
40.0	234.493335840727	pulse	0.0	t													253.51801745374541	
40.0	235.19331691454317	pulse	0.0	t													254.21799852756158	
40.0	235.893300403186	pulse	0.0	t													254.9179820162044	
40.0	236.59328570294565	pulse	0.0	t													255.61796731596405	
40.0	237.29322844143462	pulse	0.0	t													256.317910054453	
40.0	237.99323034310873	pulse	0.0	t													257.01791195612714	
