trial_nr	onset	event_type	phase	response	nr_frames	face_age	face_sex	face_eth	attractiveness	expression	face_id	sub_id	ses	run	trial_type	catch	onset_abs	duration
-1.0	0.06092359165268135	fix	0.0		713												17.343303738660325	5.957889999339386
-1.0	0.7024052551405475	pulse	0.0	t													17.98478540214819	
-1.0	1.4023676140732277	pulse	0.0	t													18.68474776108087	
-1.0	2.102353517539086	pulse	0.0	t													19.38473366454673	
-1.0	2.8023270450321434	pulse	0.0	t													20.084707192039787	
-1.0	3.502311439231562	pulse	0.0	t													20.784691586239205	
-1.0	4.202306096434768	pulse	0.0	t													21.48468624344241	
-1.0	4.90226905907366	pulse	0.0	t													22.184649206081303	
-1.0	5.602250736597853	pulse	0.0	t													22.884630883605496	
0.0	6.0188135909920675	face	0.0		144	24.0	male	white	3.1153999204138483	neutral	012	sub-05	1.0	4.0	012_neutral	0.0	23.30119373799971	1.2332677608028462
0.0	6.302242677122194	pulse	0.0	t		24.0	male	white	3.1153999204138483	neutral	012	sub-05	1.0	4.0	012_neutral	0.0	23.584622824129838	
0.0	7.002231297265098	pulse	0.0	t		24.0	male	white	3.1153999204138483	neutral	012	sub-05	1.0	4.0	012_neutral	0.0	24.28461144427274	
0.0	7.252081351794914	fix	1.0		445	24.0	male	white	3.1153999204138483	neutral	012	sub-05	1.0	4.0	012_neutral	0.0	24.534461498802557	3.758246849936768
0.0	7.702216295170729	pulse	1.0	t		24.0	male	white	3.1153999204138483	neutral	012	sub-05	1.0	4.0	012_neutral	0.0	24.984596442178372	
0.0	8.4022028023428	pulse	1.0	t		24.0	male	white	3.1153999204138483	neutral	012	sub-05	1.0	4.0	012_neutral	0.0	25.684582949350443	
0.0	9.102164859423283	pulse	1.0	t		24.0	male	white	3.1153999204138483	neutral	012	sub-05	1.0	4.0	012_neutral	0.0	26.384545006430926	
0.0	9.802151064741338	pulse	1.0	t		24.0	male	white	3.1153999204138483	neutral	012	sub-05	1.0	4.0	012_neutral	0.0	27.08453121174898	
0.0	10.502132138559318	pulse	1.0	t		24.0	male	white	3.1153999204138483	neutral	012	sub-05	1.0	4.0	012_neutral	0.0	27.78451228556696	
1.0	11.010328201731681	face	0.0		146	32.0	male	white	2.389176283326701	smiling	092	sub-05	1.0	4.0	092_smiling	0.0	28.292708348739325	1.2416514256074151
1.0	11.202111099406466	pulse	0.0	t		32.0	male	white	2.389176283326701	smiling	092	sub-05	1.0	4.0	092_smiling	0.0	28.48449124641411	
1.0	11.902093682489067	pulse	0.0	t		32.0	male	white	2.389176283326701	smiling	092	sub-05	1.0	4.0	092_smiling	0.0	29.18447382949671	
1.0	12.251979627339097	fix	1.0		444	32.0	male	white	2.389176283326701	smiling	092	sub-05	1.0	4.0	092_smiling	0.0	29.53435977434674	3.758197346047382
1.0	12.602083208190379	pulse	1.0	t		32.0	male	white	2.389176283326701	smiling	092	sub-05	1.0	4.0	092_smiling	0.0	29.884463355198022	
1.0	13.30205250974177	pulse	1.0	t		32.0	male	white	2.389176283326701	smiling	092	sub-05	1.0	4.0	092_smiling	0.0	30.584432656749414	
1.0	14.00203992247225	pulse	1.0	t		32.0	male	white	2.389176283326701	smiling	092	sub-05	1.0	4.0	092_smiling	0.0	31.284420069479893	
1.0	14.702017374054776	pulse	1.0	t		32.0	male	white	2.389176283326701	smiling	092	sub-05	1.0	4.0	092_smiling	0.0	31.98439752106242	
1.0	15.401986071899955	pulse	1.0	t		32.0	male	white	2.389176283326701	smiling	092	sub-05	1.0	4.0	092_smiling	0.0	32.6843662189076	
2.0	16.01017697338648	face	0.0		146	22.0	female	white	4.614007162753682	smiling	009	sub-05	1.0	4.0	009_smiling	0.0	33.29255712039412	1.2416677256678668
2.0	16.101977408719904	pulse	0.0	t		22.0	female	white	4.614007162753682	smiling	009	sub-05	1.0	4.0	009_smiling	0.0	33.38435755572755	
2.0	16.80194550285887	pulse	0.0	t		22.0	female	white	4.614007162753682	smiling	009	sub-05	1.0	4.0	009_smiling	0.0	34.084325649866514	
2.0	17.251844699054345	fix	1.0		444	22.0	female	white	4.614007162753682	smiling	009	sub-05	1.0	4.0	009_smiling	0.0	34.53422484606199	3.75819432751814
2.0	17.50195012121003	pulse	1.0	t		22.0	female	white	4.614007162753682	smiling	009	sub-05	1.0	4.0	009_smiling	0.0	34.78433026821767	
2.0	18.201923950555283	pulse	1.0	t		22.0	female	white	4.614007162753682	smiling	009	sub-05	1.0	4.0	009_smiling	0.0	35.48430409756293	
2.0	18.901938530054395	pulse	1.0	t		22.0	female	white	4.614007162753682	smiling	009	sub-05	1.0	4.0	009_smiling	0.0	36.18431867706204	
2.0	19.60188247595579	pulse	1.0	t		22.0	female	white	4.614007162753682	smiling	009	sub-05	1.0	4.0	009_smiling	0.0	36.88426262296343	
2.0	20.301858418271877	pulse	1.0	t		22.0	female	white	4.614007162753682	smiling	009	sub-05	1.0	4.0	009_smiling	0.0	37.58423856527952	
3.0	21.010039026572485	face	0.0		147	26.0	female	white	4.854755272582572	neutral	027	sub-05	1.0	4.0	027_neutral	1.0	38.29241917358013	1.2416677256678668
3.0	21.00284949217712	pulse	0.0	t		26.0	female	white	4.854755272582572	neutral	027	sub-05	1.0	4.0	027_neutral	1.0	38.28522963918476	
3.0	21.701833847439048	pulse	0.0	t		26.0	female	white	4.854755272582572	neutral	027	sub-05	1.0	4.0	027_neutral	1.0	38.98421399444669	
3.0	22.251706752240352	fix	1.0		236	26.0	female	white	4.854755272582572	neutral	027	sub-05	1.0	4.0	027_neutral	1.0	39.534086899247995	2.008289486671856
3.0	22.401806469373696	pulse	1.0	t		26.0	female	white	4.854755272582572	neutral	027	sub-05	1.0	4.0	027_neutral	1.0	39.68418661638134	
3.0	23.101788448750085	pulse	1.0	t		26.0	female	white	4.854755272582572	neutral	027	sub-05	1.0	4.0	027_neutral	1.0	40.38416859575773	
3.0	23.801768918861853	pulse	1.0	t		26.0	female	white	4.854755272582572	neutral	027	sub-05	1.0	4.0	027_neutral	1.0	41.0841490658695	
3.0	24.25999623891221	rating	2.0		234	26.0	female	white	4.854755272582572	neutral	027	sub-05	1.0	4.0	027_neutral	1.0	41.54237638591985	1.9916012425474037
3.0	24.501761463094226	pulse	2.0	t		26.0	female	white	4.854755272582572	neutral	027	sub-05	1.0	4.0	027_neutral	1.0	41.78414161010187	
3.0	25.076729519501896	response	2.0	e		26.0	female	white	4.854755272582572	neutral	027	sub-05	1.0	4.0	027_neutral	1.0	42.35910966650954	
3.0	25.201737405410313	pulse	2.0	t		26.0	female	white	4.854755272582572	neutral	027	sub-05	1.0	4.0	027_neutral	1.0	42.484117552417956	
3.0	25.901711838463598	pulse	2.0	t		26.0	female	white	4.854755272582572	neutral	027	sub-05	1.0	4.0	027_neutral	1.0	43.18409198547124	
3.0	26.251597481459612	fix	3.0		444	26.0	female	white	4.854755272582572	neutral	027	sub-05	1.0	4.0	027_neutral	1.0	43.533977628467255	3.758206401638745
3.0	26.601785279293836	pulse	3.0	t		26.0	female	white	4.854755272582572	neutral	027	sub-05	1.0	4.0	027_neutral	1.0	43.88416542630148	
3.0	27.30167157127471	pulse	3.0	t		26.0	female	white	4.854755272582572	neutral	027	sub-05	1.0	4.0	027_neutral	1.0	44.58405171828235	
3.0	28.00168856559867	pulse	3.0	t		26.0	female	white	4.854755272582572	neutral	027	sub-05	1.0	4.0	027_neutral	1.0	45.28406871260631	
3.0	28.701639755970973	pulse	3.0	t		26.0	female	white	4.854755272582572	neutral	027	sub-05	1.0	4.0	027_neutral	1.0	45.984019902978616	
3.0	29.401609661228576	pulse	3.0	t		26.0	female	white	4.854755272582572	neutral	027	sub-05	1.0	4.0	027_neutral	1.0	46.68398980823622	
4.0	30.009803883098357	face	0.0		146	26.0	female	white	4.854755272582572	smiling	027	sub-05	1.0	4.0	027_smiling	0.0	47.292184030106	1.241657764518095
4.0	30.101599790634282	pulse	0.0	t		26.0	female	white	4.854755272582572	smiling	027	sub-05	1.0	4.0	027_smiling	0.0	47.383979937641925	
4.0	30.80156607365643	pulse	0.0	t		26.0	female	white	4.854755272582572	smiling	027	sub-05	1.0	4.0	027_smiling	0.0	48.083946220664075	
4.0	31.251461647616452	fix	1.0		444	26.0	female	white	4.854755272582572	smiling	027	sub-05	1.0	4.0	027_smiling	0.0	48.533841794624095	3.7581988553138217
4.0	31.501588803186678	pulse	1.0	t		26.0	female	white	4.854755272582572	smiling	027	sub-05	1.0	4.0	027_smiling	0.0	48.78396895019432	
4.0	32.2015415028236	pulse	1.0	t		26.0	female	white	4.854755272582572	smiling	027	sub-05	1.0	4.0	027_smiling	0.0	49.483921649831245	
4.0	32.901507483991736	pulse	1.0	t		26.0	female	white	4.854755272582572	smiling	027	sub-05	1.0	4.0	027_smiling	0.0	50.18388763099938	
4.0	33.60150244304714	pulse	1.0	t		26.0	female	white	4.854755272582572	smiling	027	sub-05	1.0	4.0	027_smiling	0.0	50.88388259005478	
4.0	34.30148412057133	pulse	1.0	t		26.0	female	white	4.854755272582572	smiling	027	sub-05	1.0	4.0	027_smiling	0.0	51.583864267578974	
5.0	35.009660502930274	face	0.0		147	37.0	male	white	3.898925586947871	neutral	101	sub-05	1.0	4.0	101_neutral	0.0	52.29204064993792	1.2416749701387744
5.0	35.003281443800006	pulse	0.0	t		37.0	male	white	3.898925586947871	neutral	101	sub-05	1.0	4.0	101_neutral	0.0	52.28566159080765	
5.0	35.70144385338244	pulse	0.0	t		37.0	male	white	3.898925586947871	neutral	101	sub-05	1.0	4.0	101_neutral	0.0	52.983824000390086	
5.0	36.25133547306905	fix	1.0		443	37.0	male	white	3.898925586947871	neutral	101	sub-05	1.0	4.0	101_neutral	0.0	53.53371562007669	3.766541769962714
5.0	36.40142462534823	pulse	1.0	t		37.0	male	white	3.898925586947871	neutral	101	sub-05	1.0	4.0	101_neutral	0.0	53.68380477235587	
5.0	37.10141807513901	pulse	1.0	t		37.0	male	white	3.898925586947871	neutral	101	sub-05	1.0	4.0	101_neutral	0.0	54.38379822214665	
5.0	37.80139039521964	pulse	1.0	t		37.0	male	white	3.898925586947871	neutral	101	sub-05	1.0	4.0	101_neutral	0.0	55.083770542227285	
5.0	38.5013762986855	pulse	1.0	t		37.0	male	white	3.898925586947871	neutral	101	sub-05	1.0	4.0	101_neutral	0.0	55.78375644569314	
5.0	39.201355561384844	pulse	1.0	t		37.0	male	white	3.898925586947871	neutral	101	sub-05	1.0	4.0	101_neutral	0.0	56.48373570839249	
5.0	39.901317014759115	pulse	1.0	t		37.0	male	white	3.898925586947871	neutral	101	sub-05	1.0	4.0	101_neutral	0.0	57.18369716176676	
6.0	40.01787724303176	face	0.0		146	27.0	female	white	4.181058495821727	smiling	039	sub-05	1.0	4.0	039_smiling	0.0	57.300257390039405	1.2332997572193563
6.0	40.60130895528346	pulse	0.0	t		27.0	female	white	4.181058495821727	smiling	039	sub-05	1.0	4.0	039_smiling	0.0	57.8836891022911	
6.0	41.25117700025112	fix	1.0		443	27.0	female	white	4.181058495821727	smiling	039	sub-05	1.0	4.0	039_smiling	0.0	58.53355714725876	3.7582329647011647
6.0	41.30129908469098	pulse	1.0	t		27.0	female	white	4.181058495821727	smiling	039	sub-05	1.0	4.0	039_smiling	0.0	58.583679231698625	
6.0	42.00127381959646	pulse	1.0	t		27.0	female	white	4.181058495821727	smiling	039	sub-05	1.0	4.0	039_smiling	0.0	59.283653966604106	
6.0	42.701292926891256	pulse	1.0	t		27.0	female	white	4.181058495821727	smiling	039	sub-05	1.0	4.0	039_smiling	0.0	59.9836730738989	
6.0	43.40124411726356	pulse	1.0	t		27.0	female	white	4.181058495821727	smiling	039	sub-05	1.0	4.0	039_smiling	0.0	60.6836242642712	
6.0	44.101216135491995	pulse	1.0	t		27.0	female	white	4.181058495821727	smiling	039	sub-05	1.0	4.0	039_smiling	0.0	61.38359628249964	
6.0	44.801219848282926	pulse	1.0	t		27.0	female	white	4.181058495821727	smiling	039	sub-05	1.0	4.0	039_smiling	0.0	62.08359999529057	
7.0	45.00940996495228	face	0.0		146	47.0	male	east_asian	2.171110226820533	smiling	024	sub-05	1.0	4.0	024_smiling	0.0	62.291790111959926	1.241632710722115
7.0	45.501180697950986	pulse	0.0	t		47.0	male	east_asian	2.171110226820533	smiling	024	sub-05	1.0	4.0	024_smiling	0.0	62.78356084495863	
7.0	46.201162677327375	pulse	0.0	t		47.0	male	east_asian	2.171110226820533	smiling	024	sub-05	1.0	4.0	024_smiling	0.0	63.48354282433502	
7.0	46.2510426756744	fix	1.0		445	47.0	male	east_asian	2.171110226820533	smiling	024	sub-05	1.0	4.0	024_smiling	0.0	63.53342282268204	3.766547505169001
7.0	46.90114948635164	pulse	1.0	t		47.0	male	east_asian	2.171110226820533	smiling	024	sub-05	1.0	4.0	024_smiling	0.0	64.18352963335929	
7.0	47.601128749052805	pulse	1.0	t		47.0	male	east_asian	2.171110226820533	smiling	024	sub-05	1.0	4.0	024_smiling	0.0	64.88350889606045	
7.0	48.30109382466253	pulse	1.0	t		47.0	male	east_asian	2.171110226820533	smiling	024	sub-05	1.0	4.0	024_smiling	0.0	65.58347397167017	
7.0	49.001089387422326	pulse	1.0	t		47.0	male	east_asian	2.171110226820533	smiling	024	sub-05	1.0	4.0	024_smiling	0.0	66.28346953442997	
7.0	49.70106140565076	pulse	1.0	t		47.0	male	east_asian	2.171110226820533	smiling	024	sub-05	1.0	4.0	024_smiling	0.0	66.9834415526584	
8.0	50.0175901808434	face	0.0		145	22.0	female	west_asian	3.8205332272184642	smiling	066	sub-05	1.0	4.0	066_smiling	0.0	67.29997032785104	1.2333290369588212
8.0	50.40105576099995	pulse	0.0	t		22.0	female	west_asian	3.8205332272184642	smiling	066	sub-05	1.0	4.0	066_smiling	0.0	67.6834359080076	
8.0	51.10102536440536	pulse	0.0	t		22.0	female	west_asian	3.8205332272184642	smiling	066	sub-05	1.0	4.0	066_smiling	0.0	68.383405511413	
8.0	51.25091921780222	fix	1.0		445	22.0	female	west_asian	3.8205332272184642	smiling	066	sub-05	1.0	4.0	066_smiling	0.0	68.53329936480986	3.766538449581276
8.0	51.80100824934016	pulse	1.0	t		22.0	female	west_asian	3.8205332272184642	smiling	066	sub-05	1.0	4.0	066_smiling	0.0	69.0833883963478	
8.0	52.50099898245389	pulse	1.0	t		22.0	female	west_asian	3.8205332272184642	smiling	066	sub-05	1.0	4.0	066_smiling	0.0	69.78337912946154	
8.0	53.20096949141771	pulse	1.0	t		22.0	female	west_asian	3.8205332272184642	smiling	066	sub-05	1.0	4.0	066_smiling	0.0	70.48334963842535	
8.0	53.90094965967546	pulse	1.0	t		22.0	female	west_asian	3.8205332272184642	smiling	066	sub-05	1.0	4.0	066_smiling	0.0	71.1833298066831	
8.0	54.60093767611215	pulse	1.0	t		22.0	female	west_asian	3.8205332272184642	smiling	066	sub-05	1.0	4.0	066_smiling	0.0	71.8833178231198	
9.0	55.017457667383496	face	0.0		145	19.0	female	white	4.298846000795861	smiling	100	sub-05	1.0	4.0	100_smiling	0.0	72.29983781439114	1.233332659194275
9.0	55.30091271287165	pulse	0.0	t		19.0	female	white	4.298846000795861	smiling	100	sub-05	1.0	4.0	100_smiling	0.0	72.5832928598793	
9.0	56.00089771077728	pulse	0.0	t		19.0	female	white	4.298846000795861	smiling	100	sub-05	1.0	4.0	100_smiling	0.0	73.28327785778492	
9.0	56.25079032657777	fix	1.0		444	19.0	female	white	4.298846000795861	smiling	100	sub-05	1.0	4.0	100_smiling	0.0	73.53317047358541	3.758344348452738
9.0	56.700870030857914	pulse	1.0	t		19.0	female	white	4.298846000795861	smiling	100	sub-05	1.0	4.0	100_smiling	0.0	73.98325017786556	
9.0	57.40086408435491	pulse	1.0	t		19.0	female	white	4.298846000795861	smiling	100	sub-05	1.0	4.0	100_smiling	0.0	74.68324423136255	
9.0	58.10082915996463	pulse	1.0	t		19.0	female	white	4.298846000795861	smiling	100	sub-05	1.0	4.0	100_smiling	0.0	75.38320930697228	
9.0	58.80081747825352	pulse	1.0	t		19.0	female	white	4.298846000795861	smiling	100	sub-05	1.0	4.0	100_smiling	0.0	76.08319762526116	
9.0	59.50080277801317	pulse	1.0	t		19.0	female	white	4.298846000795861	smiling	100	sub-05	1.0	4.0	100_smiling	0.0	76.78318292502081	
10.0	60.00913467503051	face	0.0		146	27.0	female	white	3.504576203740549	neutral	144	sub-05	1.0	4.0	144_neutral	0.0	77.29151482203815	1.2415180065872846
10.0	60.2007935111269	pulse	0.0	t		27.0	female	white	3.504576203740549	neutral	144	sub-05	1.0	4.0	144_neutral	0.0	77.48317365813455	
10.0	60.90075768117822	pulse	0.0	t		27.0	female	white	3.504576203740549	neutral	144	sub-05	1.0	4.0	144_neutral	0.0	78.18313782818586	
10.0	61.250652681617794	fix	1.0		444	27.0	female	white	3.504576203740549	neutral	144	sub-05	1.0	4.0	144_neutral	0.0	78.53303282862544	3.758218777609727
10.0	61.60075354579203	pulse	1.0	t		27.0	female	white	3.504576203740549	neutral	144	sub-05	1.0	4.0	144_neutral	0.0	78.88313369279967	
10.0	62.300735223316224	pulse	1.0	t		27.0	female	white	3.504576203740549	neutral	144	sub-05	1.0	4.0	144_neutral	0.0	79.58311537032387	
10.0	63.00069999707193	pulse	1.0	t		27.0	female	white	3.504576203740549	neutral	144	sub-05	1.0	4.0	144_neutral	0.0	80.28308014407958	
10.0	63.700699182069	pulse	1.0	t		27.0	female	white	3.504576203740549	neutral	144	sub-05	1.0	4.0	144_neutral	0.0	80.98307932907665	
10.0	64.40067361512229	pulse	1.0	t		27.0	female	white	3.504576203740549	neutral	144	sub-05	1.0	4.0	144_neutral	0.0	81.68305376212993	
11.0	65.00887145922752	face	0.0		146	22.0	male	black	2.767608436132113	smiling	044	sub-05	1.0	4.0	044_smiling	0.0	82.29125160623516	1.2416312014556752
11.0	65.10081889696266	pulse	0.0	t		22.0	male	black	2.767608436132113	smiling	044	sub-05	1.0	4.0	044_smiling	0.0	82.38319904397031	
11.0	65.80063908313969	pulse	0.0	t		22.0	male	black	2.767608436132113	smiling	044	sub-05	1.0	4.0	044_smiling	0.0	83.08301923014733	
11.0	66.2505026606832	fix	1.0		444	22.0	male	black	2.767608436132113	smiling	044	sub-05	1.0	4.0	044_smiling	0.0	83.53288280769084	3.7665713515561947
11.0	66.50062076066388	pulse	1.0	t		22.0	male	black	2.767608436132113	smiling	044	sub-05	1.0	4.0	044_smiling	0.0	83.78300090767152	
11.0	67.2005985140986	pulse	1.0	t		22.0	male	black	2.767608436132113	smiling	044	sub-05	1.0	4.0	044_smiling	0.0	84.48297866110624	
11.0	67.9005687212084	pulse	1.0	t		22.0	male	black	2.767608436132113	smiling	044	sub-05	1.0	4.0	044_smiling	0.0	85.18294886821604	
11.0	68.60055703949911	pulse	1.0	t		22.0	male	black	2.767608436132113	smiling	044	sub-05	1.0	4.0	044_smiling	0.0	85.88293718650675	
11.0	69.30053056699217	pulse	1.0	t		22.0	male	black	2.767608436132113	smiling	044	sub-05	1.0	4.0	044_smiling	0.0	86.58291071399981	
12.0	70.01707401223939	face	0.0		146	21.0	male	east_asian/white	3.501790688420215	smiling	036	sub-05	1.0	4.0	036_smiling	0.0	87.29945415924703	1.233293720159054
12.0	70.00327661415213	pulse	0.0	t		21.0	male	east_asian/white	3.501790688420215	smiling	036	sub-05	1.0	4.0	036_smiling	0.0	87.28565676115977	
12.0	70.70049875168661	pulse	0.0	t		21.0	male	east_asian/white	3.501790688420215	smiling	036	sub-05	1.0	4.0	036_smiling	0.0	87.98287889869425	
12.0	71.25036773239844	fix	1.0		443	21.0	male	east_asian/white	3.501790688420215	smiling	036	sub-05	1.0	4.0	036_smiling	0.0	88.53274787940609	3.766564107085287
12.0	71.40047982550459	pulse	1.0	t		21.0	male	east_asian/white	3.501790688420215	smiling	036	sub-05	1.0	4.0	036_smiling	0.0	88.68285997251223	
12.0	72.1004693512059	pulse	1.0	t		21.0	male	east_asian/white	3.501790688420215	smiling	036	sub-05	1.0	4.0	036_smiling	0.0	89.38284949821355	
12.0	72.80043020087396	pulse	1.0	t		21.0	male	east_asian/white	3.501790688420215	smiling	036	sub-05	1.0	4.0	036_smiling	0.0	90.0828103478816	
12.0	73.50042666919398	pulse	1.0	t		21.0	male	east_asian/white	3.501790688420215	smiling	036	sub-05	1.0	4.0	036_smiling	0.0	90.78280681620163	
12.0	74.20041196895363	pulse	1.0	t		21.0	male	east_asian/white	3.501790688420215	smiling	036	sub-05	1.0	4.0	036_smiling	0.0	91.48279211596127	
12.0	74.90035017964874	pulse	1.0	t		21.0	male	east_asian/white	3.501790688420215	smiling	036	sub-05	1.0	4.0	036_smiling	0.0	92.18273032665638	
13.0	75.01693183948373	face	0.0		146	24.0	female	east_asian	2.9076800636689217	smiling	034	sub-05	1.0	4.0	034_smiling	0.0	92.29931198649138	1.2333060961318552
13.0	75.6003674758249	pulse	0.0	t		24.0	female	east_asian	2.9076800636689217	smiling	034	sub-05	1.0	4.0	034_smiling	0.0	92.88274762283254	
13.0	76.25023793561559	fix	1.0		443	24.0	female	east_asian	2.9076800636689217	smiling	034	sub-05	1.0	4.0	034_smiling	0.0	93.53261808262323	3.766559277437409
13.0	76.30035519040757	pulse	1.0	t		24.0	female	east_asian	2.9076800636689217	smiling	034	sub-05	1.0	4.0	034_smiling	0.0	93.58273533741522	
13.0	77.00032932160684	pulse	1.0	t		24.0	female	east_asian	2.9076800636689217	smiling	034	sub-05	1.0	4.0	034_smiling	0.0	94.28270946861448	
13.0	77.70031673433732	pulse	1.0	t		24.0	female	east_asian	2.9076800636689217	smiling	034	sub-05	1.0	4.0	034_smiling	0.0	94.98269688134496	
13.0	78.4003228619531	pulse	1.0	t		24.0	female	east_asian	2.9076800636689217	smiling	034	sub-05	1.0	4.0	034_smiling	0.0	95.68270300896074	
13.0	79.10027133564836	pulse	1.0	t		24.0	female	east_asian	2.9076800636689217	smiling	034	sub-05	1.0	4.0	034_smiling	0.0	96.382651482656	
13.0	79.80025422058497	pulse	1.0	t		24.0	female	east_asian	2.9076800636689217	smiling	034	sub-05	1.0	4.0	034_smiling	0.0	97.08263436759262	
14.0	80.016797213053	face	0.0		145	21.0	male	black	2.969757262236371	neutral	137	sub-05	1.0	4.0	137_neutral	1.0	97.29917736006064	1.2332816460402682
14.0	80.50023348328432	pulse	0.0	t		21.0	male	black	2.969757262236371	neutral	137	sub-05	1.0	4.0	137_neutral	1.0	97.78261363029196	
14.0	81.2002094256004	pulse	0.0	t		21.0	male	black	2.969757262236371	neutral	137	sub-05	1.0	4.0	137_neutral	1.0	98.48258957260805	
14.0	81.25007885909326	fix	1.0		238	21.0	male	black	2.969757262236371	neutral	137	sub-05	1.0	4.0	137_neutral	1.0	98.53245900610091	1.9999827943793207
14.0	81.90020800689308	pulse	1.0	t		21.0	male	black	2.969757262236371	neutral	137	sub-05	1.0	4.0	137_neutral	1.0	99.18258815390072	
14.0	82.6001857603278	pulse	1.0	t		21.0	male	black	2.969757262236371	neutral	137	sub-05	1.0	4.0	137_neutral	1.0	99.88256590733545	
14.0	83.25006165347259	rating	2.0		235	21.0	male	black	2.969757262236371	neutral	137	sub-05	1.0	4.0	137_neutral	1.0	100.53244180048023	1.9999432516378874
14.0	83.30016743785018	pulse	2.0	t		21.0	male	black	2.969757262236371	neutral	137	sub-05	1.0	4.0	137_neutral	1.0	100.58254758485782	
14.0	84.00015303946384	pulse	2.0	t		21.0	male	black	2.969757262236371	neutral	137	sub-05	1.0	4.0	137_neutral	1.0	101.28253318647148	
14.0	84.12512440116188	response	2.0	e		21.0	male	black	2.969757262236371	neutral	137	sub-05	1.0	4.0	137_neutral	1.0	101.40750454816953	
14.0	84.70011811507356	pulse	2.0	t		21.0	male	black	2.969757262236371	neutral	137	sub-05	1.0	4.0	137_neutral	1.0	101.98249826208121	
14.0	85.25000490511047	fix	3.0		443	21.0	male	black	2.969757262236371	neutral	137	sub-05	1.0	4.0	137_neutral	1.0	102.53238505211812	3.7665309032563528
14.0	85.40008681291874	pulse	3.0	t		21.0	male	black	2.969757262236371	neutral	137	sub-05	1.0	4.0	137_neutral	1.0	102.68246695992639	
14.0	86.10008177197415	pulse	3.0	t		21.0	male	black	2.969757262236371	neutral	137	sub-05	1.0	4.0	137_neutral	1.0	103.38246191898179	
14.0	86.80005348834857	pulse	3.0	t		21.0	male	black	2.969757262236371	neutral	137	sub-05	1.0	4.0	137_neutral	1.0	104.08243363535621	
14.0	87.50004814555177	pulse	3.0	t		21.0	male	black	2.969757262236371	neutral	137	sub-05	1.0	4.0	137_neutral	1.0	104.78242829255942	
14.0	88.20003344531142	pulse	3.0	t		21.0	male	black	2.969757262236371	neutral	137	sub-05	1.0	4.0	137_neutral	1.0	105.48241359231906	
14.0	88.9000024450088	pulse	3.0	t		21.0	male	black	2.969757262236371	neutral	137	sub-05	1.0	4.0	137_neutral	1.0	106.18238259201644	
15.0	89.01653580836683	face	0.0		146	32.0	male	white	2.389176283326701	neutral	092	sub-05	1.0	4.0	092_neutral	0.0	106.29891595537447	1.2333344703129114
15.0	89.59999861147662	pulse	0.0	t		32.0	male	white	2.389176283326701	neutral	092	sub-05	1.0	4.0	092_neutral	0.0	106.88237875848426	
15.0	90.24987027867974	fix	1.0		443	32.0	male	white	2.389176283326701	neutral	092	sub-05	1.0	4.0	092_neutral	0.0	107.53225042568738	3.766546901464608
15.0	90.29997847788218	pulse	1.0	t		32.0	male	white	2.389176283326701	neutral	092	sub-05	1.0	4.0	092_neutral	0.0	107.58235862488982	
15.0	90.99995804243554	pulse	1.0	t		32.0	male	white	2.389176283326701	neutral	092	sub-05	1.0	4.0	092_neutral	0.0	108.28233818944318	
15.0	91.69992583472231	pulse	1.0	t		32.0	male	white	2.389176283326701	neutral	092	sub-05	1.0	4.0	092_neutral	0.0	108.98230598172995	
15.0	92.39991324745279	pulse	1.0	t		32.0	male	white	2.389176283326701	neutral	092	sub-05	1.0	4.0	092_neutral	0.0	109.68229339446043	
15.0	93.09988768050425	pulse	1.0	t		32.0	male	white	2.389176283326701	neutral	092	sub-05	1.0	4.0	092_neutral	0.0	110.3822678275119	
15.0	93.79987992288261	pulse	1.0	t		32.0	male	white	2.389176283326701	neutral	092	sub-05	1.0	4.0	092_neutral	0.0	111.08226006989025	
16.0	94.01641718014434	face	0.0		145	24.0	female	east_asian	4.409868682849185	smiling	030	sub-05	1.0	4.0	030_smiling	0.0	111.29879732715199	1.233320886927686
16.0	94.49986612820067	pulse	0.0	t		24.0	female	east_asian	4.409868682849185	smiling	030	sub-05	1.0	4.0	030_smiling	0.0	111.78224627520831	
16.0	95.1998369390185	pulse	0.0	t		24.0	female	east_asian	4.409868682849185	smiling	030	sub-05	1.0	4.0	030_smiling	0.0	112.48221708602614	
16.0	95.24973806707203	fix	1.0		444	24.0	female	east_asian	4.409868682849185	smiling	030	sub-05	1.0	4.0	030_smiling	0.0	112.53211821407967	3.766527884727111
16.0	95.89982193692413	pulse	1.0	t		24.0	female	east_asian	4.409868682849185	smiling	030	sub-05	1.0	4.0	030_smiling	0.0	113.18220208393177	
16.0	96.59980180332968	pulse	1.0	t		24.0	female	east_asian	4.409868682849185	smiling	030	sub-05	1.0	4.0	030_smiling	0.0	113.88218195033733	
16.0	97.29978106603085	pulse	1.0	t		24.0	female	east_asian	4.409868682849185	smiling	030	sub-05	1.0	4.0	030_smiling	0.0	114.58216121303849	
16.0	97.99975278240527	pulse	1.0	t		24.0	female	east_asian	4.409868682849185	smiling	030	sub-05	1.0	4.0	030_smiling	0.0	115.28213292941291	
16.0	98.69974532663764	pulse	1.0	t		24.0	female	east_asian	4.409868682849185	smiling	030	sub-05	1.0	4.0	030_smiling	0.0	115.98212547364528	
17.0	99.01626595179914	face	0.0		145	20.0	female	white	3.9502586549940313	smiling	091	sub-05	1.0	4.0	091_smiling	0.0	116.29864609880678	1.2333175665444287
17.0	99.3997324375141	pulse	0.0	t		20.0	female	white	3.9502586549940313	smiling	091	sub-05	1.0	4.0	091_smiling	0.0	116.68211258452175	
17.0	100.09969690941762	pulse	0.0	t		20.0	female	white	3.9502586549940313	smiling	091	sub-05	1.0	4.0	091_smiling	0.0	117.38207705642526	
17.0	100.24958351834357	fix	1.0		444	20.0	female	white	3.9502586549940313	smiling	091	sub-05	1.0	4.0	091_smiling	0.0	117.53196366535121	3.766548712583244
17.0	100.79968703882514	pulse	1.0	t		20.0	female	white	3.9502586549940313	smiling	091	sub-05	1.0	4.0	091_smiling	0.0	118.08206718583278	
17.0	101.49967233858479	pulse	1.0	t		20.0	female	white	3.9502586549940313	smiling	091	sub-05	1.0	4.0	091_smiling	0.0	118.78205248559243	
17.0	102.1996482809027	pulse	1.0	t		20.0	female	white	3.9502586549940313	smiling	091	sub-05	1.0	4.0	091_smiling	0.0	119.48202842791034	
17.0	102.89961848801249	pulse	1.0	t		20.0	female	white	3.9502586549940313	smiling	091	sub-05	1.0	4.0	091_smiling	0.0	120.18199863502014	
17.0	103.59960046738888	pulse	1.0	t		20.0	female	white	3.9502586549940313	smiling	091	sub-05	1.0	4.0	091_smiling	0.0	120.88198061439653	
18.0	104.01613223092681	face	0.0		145	36.0	female	white	2.7548746518105847	neutral	011	sub-05	1.0	4.0	011_neutral	0.0	121.29851237793446	1.2333163591338234
18.0	104.2995905967964	pulse	0.0	t		36.0	female	white	2.7548746518105847	neutral	011	sub-05	1.0	4.0	011_neutral	0.0	121.58197074380405	
18.0	104.99956502984969	pulse	0.0	t		36.0	female	white	2.7548746518105847	neutral	011	sub-05	1.0	4.0	011_neutral	0.0	122.28194517685733	
18.0	105.24944859006064	fix	1.0		444	36.0	female	white	2.7548746518105847	neutral	011	sub-05	1.0	4.0	011_neutral	0.0	122.53182873706828	3.7665583718771813
18.0	105.69955515925722	pulse	1.0	t		36.0	female	white	2.7548746518105847	neutral	011	sub-05	1.0	4.0	011_neutral	0.0	122.98193530626486	
18.0	106.39952536636702	pulse	1.0	t		36.0	female	white	2.7548746518105847	neutral	011	sub-05	1.0	4.0	011_neutral	0.0	123.68190551337466	
18.0	107.09951549577454	pulse	1.0	t		36.0	female	white	2.7548746518105847	neutral	011	sub-05	1.0	4.0	011_neutral	0.0	124.38189564278218	
18.0	107.79949113623843	pulse	1.0	t		36.0	female	white	2.7548746518105847	neutral	011	sub-05	1.0	4.0	011_neutral	0.0	125.08187128324607	
18.0	108.49947945452732	pulse	1.0	t		36.0	female	white	2.7548746518105847	neutral	011	sub-05	1.0	4.0	011_neutral	0.0	125.78185960153496	
19.0	109.01600696193782	face	0.0		145	24.0	female	east_asian	4.409868682849185	neutral	030	sub-05	1.0	4.0	030_neutral	0.0	126.29838710894546	1.2333233017525345
19.0	109.19944996349113	pulse	0.0	t		24.0	female	east_asian	4.409868682849185	neutral	030	sub-05	1.0	4.0	030_neutral	0.0	126.48183011049878	
19.0	109.89943133916131	pulse	0.0	t		24.0	female	east_asian	4.409868682849185	neutral	030	sub-05	1.0	4.0	030_neutral	0.0	127.18181148616895	
19.0	110.24933026369035	fix	1.0		444	24.0	female	east_asian	4.409868682849185	neutral	030	sub-05	1.0	4.0	030_neutral	0.0	127.531710410698	3.7665505237000616
19.0	110.59942086486262	pulse	1.0	t		24.0	female	east_asian	4.409868682849185	neutral	030	sub-05	1.0	4.0	030_neutral	0.0	127.88180101187027	
19.0	111.29940133497621	pulse	1.0	t		24.0	female	east_asian	4.409868682849185	neutral	030	sub-05	1.0	4.0	030_neutral	0.0	128.58178148198385	
19.0	111.99938754029426	pulse	1.0	t		24.0	female	east_asian	4.409868682849185	neutral	030	sub-05	1.0	4.0	030_neutral	0.0	129.2817676873019	
19.0	112.69940544017663	pulse	1.0	t		24.0	female	east_asian	4.409868682849185	neutral	030	sub-05	1.0	4.0	030_neutral	0.0	129.98178558718428	
19.0	113.39933942492826	pulse	1.0	t		24.0	female	east_asian	4.409868682849185	neutral	030	sub-05	1.0	4.0	030_neutral	0.0	130.6817195719359	
20.0	114.01588078739042	face	0.0		145	28.0	male	white	3.9076800636689217	smiling	033	sub-05	1.0	4.0	033_smiling	0.0	131.29826093439806	1.2333009646317805
20.0	114.09933166730661	pulse	0.0	t		28.0	male	white	3.9076800636689217	smiling	033	sub-05	1.0	4.0	033_smiling	0.0	131.38171181431426	
20.0	114.79930821332891	pulse	0.0	t		28.0	male	white	3.9076800636689217	smiling	033	sub-05	1.0	4.0	033_smiling	0.0	132.08168836033656	
20.0	115.2491817520222	fix	1.0		445	28.0	male	white	3.9076800636689217	smiling	033	sub-05	1.0	4.0	033_smiling	0.0	132.53156189902984	3.774896155025999
20.0	115.49929140011773	pulse	1.0	t		28.0	male	white	3.9076800636689217	smiling	033	sub-05	1.0	4.0	033_smiling	0.0	132.78167154712537	
20.0	116.19929179252722	pulse	1.0	t		28.0	male	white	3.9076800636689217	smiling	033	sub-05	1.0	4.0	033_smiling	0.0	133.48167193953486	
20.0	116.8992544533121	pulse	1.0	t		28.0	male	white	3.9076800636689217	smiling	033	sub-05	1.0	4.0	033_smiling	0.0	134.18163460031974	
20.0	117.59922798080697	pulse	1.0	t		28.0	male	white	3.9076800636689217	smiling	033	sub-05	1.0	4.0	033_smiling	0.0	134.88160812781462	
20.0	118.2992069416523	pulse	1.0	t		28.0	male	white	3.9076800636689217	smiling	033	sub-05	1.0	4.0	033_smiling	0.0	135.58158708865994	
20.0	118.9991892228827	pulse	1.0	t		28.0	male	white	3.9076800636689217	smiling	033	sub-05	1.0	4.0	033_smiling	0.0	136.28156936989035	
21.0	119.0240779070482	face	0.0		146	26.0	male	white	2.7966573816155993	smiling	117	sub-05	1.0	4.0	117_smiling	0.0	136.30645805405584	1.2333051905734465
21.0	119.6991968597631	pulse	0.0	t		26.0	male	white	2.7966573816155993	smiling	117	sub-05	1.0	4.0	117_smiling	0.0	136.98157700677075	
21.0	120.25738309762164	fix	1.0		443	26.0	male	white	2.7966573816155993	smiling	117	sub-05	1.0	4.0	117_smiling	0.0	137.53976324462928	3.766559881141802
21.0	120.39916827428533	pulse	1.0	t		26.0	male	white	2.7966573816155993	smiling	117	sub-05	1.0	4.0	117_smiling	0.0	137.68154842129297	
21.0	121.09914270733861	pulse	1.0	t		26.0	male	white	2.7966573816155993	smiling	117	sub-05	1.0	4.0	117_smiling	0.0	138.38152285434626	
21.0	121.79911955521311	pulse	1.0	t		26.0	male	white	2.7966573816155993	smiling	117	sub-05	1.0	4.0	117_smiling	0.0	139.08149970222075	
21.0	122.49910425126836	pulse	1.0	t		26.0	male	white	2.7966573816155993	smiling	117	sub-05	1.0	4.0	117_smiling	0.0	139.781484398276	
21.0	123.19908713620316	pulse	1.0	t		26.0	male	white	2.7966573816155993	smiling	117	sub-05	1.0	4.0	117_smiling	0.0	140.4814672832108	
21.0	123.89906881372735	pulse	1.0	t		26.0	male	white	2.7966573816155993	smiling	117	sub-05	1.0	4.0	117_smiling	0.0	141.181448960735	
22.0	124.02394297876344	face	0.0		146	31.0	male	west_asian	1.9538400318344609	neutral	070	sub-05	1.0	4.0	070_neutral	0.0	141.3063231257711	1.2333154535754147
22.0	124.59904415233905	pulse	0.0	t		31.0	male	west_asian	1.9538400318344609	neutral	070	sub-05	1.0	4.0	070_neutral	0.0	141.8814242993467	
22.0	125.25725843233886	fix	1.0		443	31.0	male	west_asian	1.9538400318344609	neutral	070	sub-05	1.0	4.0	070_neutral	0.0	142.5396385793465	3.766530601402337
22.0	125.29903247062794	pulse	1.0	t		31.0	male	west_asian	1.9538400318344609	neutral	070	sub-05	1.0	4.0	070_neutral	0.0	142.58141261763558	
22.0	125.99899452770842	pulse	1.0	t		31.0	male	west_asian	1.9538400318344609	neutral	070	sub-05	1.0	4.0	070_neutral	0.0	143.28137467471606	
22.0	126.69899341085147	pulse	1.0	t		31.0	male	west_asian	1.9538400318344609	neutral	070	sub-05	1.0	4.0	070_neutral	0.0	143.98137355785911	
22.0	127.39897689949248	pulse	1.0	t		31.0	male	west_asian	1.9538400318344609	neutral	070	sub-05	1.0	4.0	070_neutral	0.0	144.68135704650012	
22.0	128.09892114724607	pulse	1.0	t		31.0	male	west_asian	1.9538400318344609	neutral	070	sub-05	1.0	4.0	070_neutral	0.0	145.38130129425372	
22.0	128.7989287841283	pulse	1.0	t		31.0	male	west_asian	1.9538400318344609	neutral	070	sub-05	1.0	4.0	070_neutral	0.0	146.08130893113594	
23.0	129.0237890337412	face	0.0		145	34.0	male	white	2.651014723438122	smiling	121	sub-05	1.0	4.0	121_smiling	0.0	146.30616918074884	1.2333341684607149
23.0	129.49892253577127	pulse	0.0	t		34.0	male	white	2.651014723438122	smiling	121	sub-05	1.0	4.0	121_smiling	0.0	146.78130268277891	
23.0	130.19889153546865	pulse	0.0	t		34.0	male	white	2.651014723438122	smiling	121	sub-05	1.0	4.0	121_smiling	0.0	147.4812716824763	
23.0	130.2571232022019	fix	1.0		1186	34.0	male	white	2.651014723438122	smiling	121	sub-05	1.0	4.0	121_smiling	0.0	147.53950334920955	10.01636284660708
23.0	130.89888558896564	pulse	1.0	t		34.0	male	white	2.651014723438122	smiling	121	sub-05	1.0	4.0	121_smiling	0.0	148.18126573597328	
23.0	131.5988533812524	pulse	1.0	t		34.0	male	white	2.651014723438122	smiling	121	sub-05	1.0	4.0	121_smiling	0.0	148.88123352826005	
23.0	132.29883294580395	pulse	1.0	t		34.0	male	white	2.651014723438122	smiling	121	sub-05	1.0	4.0	121_smiling	0.0	149.5812130928116	
23.0	132.99881975483004	pulse	1.0	t		34.0	male	white	2.651014723438122	smiling	121	sub-05	1.0	4.0	121_smiling	0.0	150.28119990183768	
23.0	133.69879841382317	pulse	1.0	t		34.0	male	white	2.651014723438122	smiling	121	sub-05	1.0	4.0	121_smiling	0.0	150.9811785608308	
23.0	134.39877405428706	pulse	1.0	t		34.0	male	white	2.651014723438122	smiling	121	sub-05	1.0	4.0	121_smiling	0.0	151.6811542012947	
23.0	135.09877988005064	pulse	1.0	t		34.0	male	white	2.651014723438122	smiling	121	sub-05	1.0	4.0	121_smiling	0.0	152.38116002705829	
23.0	135.79873680562923	pulse	1.0	t		34.0	male	white	2.651014723438122	smiling	121	sub-05	1.0	4.0	121_smiling	0.0	153.08111695263688	
23.0	136.49871395535774	pulse	1.0	t		34.0	male	white	2.651014723438122	smiling	121	sub-05	1.0	4.0	121_smiling	0.0	153.7810941023654	
23.0	137.1987122347964	pulse	1.0	t		34.0	male	white	2.651014723438122	smiling	121	sub-05	1.0	4.0	121_smiling	0.0	154.48109238180405	
23.0	137.8986770085521	pulse	1.0	t		34.0	male	white	2.651014723438122	smiling	121	sub-05	1.0	4.0	121_smiling	0.0	155.18105715555976	
23.0	138.59866743981365	pulse	1.0	t		34.0	male	white	2.651014723438122	smiling	121	sub-05	1.0	4.0	121_smiling	0.0	155.8810475868213	
23.0	139.29864972104224	pulse	1.0	t		34.0	male	white	2.651014723438122	smiling	121	sub-05	1.0	4.0	121_smiling	0.0	156.58102986804988	
23.0	139.9986289837434	pulse	1.0	t		34.0	male	white	2.651014723438122	smiling	121	sub-05	1.0	4.0	121_smiling	0.0	157.28100913075104	
24.0	140.273486048809	face	0.0		145	22.0	female	white	4.614007162753682	neutral	009	sub-05	1.0	4.0	009_neutral	0.0	157.55586619581663	1.233334772165108
24.0	140.69862001870933	pulse	0.0	t		22.0	female	white	4.614007162753682	neutral	009	sub-05	1.0	4.0	009_neutral	0.0	157.98100016571698	
24.0	141.3985935462024	pulse	0.0	t		22.0	female	white	4.614007162753682	neutral	009	sub-05	1.0	4.0	009_neutral	0.0	158.68097369321003	
24.0	141.5068208209741	fix	1.0		444	22.0	female	white	4.614007162753682	neutral	009	sub-05	1.0	4.0	009_neutral	0.0	158.78920096798174	3.766546901464608
24.0	142.098576129285	pulse	1.0	t		22.0	female	white	4.614007162753682	neutral	009	sub-05	1.0	4.0	009_neutral	0.0	159.38095627629264	
24.0	142.7985327530114	pulse	1.0	t		22.0	female	white	4.614007162753682	neutral	009	sub-05	1.0	4.0	009_neutral	0.0	160.08091290001903	
24.0	143.49852620280217	pulse	1.0	t		22.0	female	white	4.614007162753682	neutral	009	sub-05	1.0	4.0	009_neutral	0.0	160.7809063498098	
24.0	144.19852086000355	pulse	1.0	t		22.0	female	white	4.614007162753682	neutral	009	sub-05	1.0	4.0	009_neutral	0.0	161.4809010070112	
24.0	144.89849499120282	pulse	1.0	t		22.0	female	white	4.614007162753682	neutral	009	sub-05	1.0	4.0	009_neutral	0.0	162.18087513821047	
25.0	145.2733677224387	face	0.0		145	40.0	female	west_asian	1.5777954635893354	smiling	038	sub-05	1.0	4.0	038_smiling	0.0	162.55574786944635	1.2333024738964014
25.0	145.598476366873	pulse	0.0	t		40.0	female	west_asian	1.5777954635893354	smiling	038	sub-05	1.0	4.0	038_smiling	0.0	162.88085651388064	
25.0	146.29845412030954	pulse	0.0	t		40.0	female	west_asian	1.5777954635893354	smiling	038	sub-05	1.0	4.0	038_smiling	0.0	163.5808342673172	
25.0	146.5066701963351	fix	1.0		444	40.0	female	west_asian	1.5777954635893354	smiling	038	sub-05	1.0	4.0	038_smiling	0.0	163.78905034334275	3.7665638052312715
25.0	146.99844002377358	pulse	1.0	t		40.0	female	west_asian	1.5777954635893354	smiling	038	sub-05	1.0	4.0	038_smiling	0.0	164.28082017078123	
25.0	147.69842502168103	pulse	1.0	t		40.0	female	west_asian	1.5777954635893354	smiling	038	sub-05	1.0	4.0	038_smiling	0.0	164.98080516868868	
25.0	148.3984112269991	pulse	1.0	t		40.0	female	west_asian	1.5777954635893354	smiling	038	sub-05	1.0	4.0	038_smiling	0.0	165.68079137400673	
25.0	149.09838384893374	pulse	1.0	t		40.0	female	west_asian	1.5777954635893354	smiling	038	sub-05	1.0	4.0	038_smiling	0.0	166.38076399594138	
25.0	149.79835677272058	pulse	1.0	t		40.0	female	west_asian	1.5777954635893354	smiling	038	sub-05	1.0	4.0	038_smiling	0.0	167.08073691972822	
26.0	150.27323400156638	face	0.0		145	25.0	female	west_asian	2.6756864305610826	smiling	064	sub-05	1.0	4.0	064_smiling	0.0	167.55561414857402	1.2333154535735957
26.0	150.4983469021281	pulse	0.0	t		25.0	female	west_asian	2.6756864305610826	smiling	064	sub-05	1.0	4.0	064_smiling	0.0	167.78072704913575	
26.0	151.1983660094229	pulse	0.0	t		25.0	female	west_asian	2.6756864305610826	smiling	064	sub-05	1.0	4.0	064_smiling	0.0	168.48074615643054	
26.0	151.50654945513998	fix	1.0		444	25.0	female	west_asian	2.6756864305610826	smiling	064	sub-05	1.0	4.0	064_smiling	0.0	168.78892960214762	3.7665511274062737
26.0	151.89832082203066	pulse	1.0	t		25.0	female	west_asian	2.6756864305610826	smiling	064	sub-05	1.0	4.0	064_smiling	0.0	169.1807009690383	
26.0	152.59829616064235	pulse	1.0	t		25.0	female	west_asian	2.6756864305610826	smiling	064	sub-05	1.0	4.0	064_smiling	0.0	169.88067630765	
26.0	153.29827119740003	pulse	1.0	t		25.0	female	west_asian	2.6756864305610826	smiling	064	sub-05	1.0	4.0	064_smiling	0.0	170.58065134440767	
26.0	153.99825951568891	pulse	1.0	t		25.0	female	west_asian	2.6756864305610826	smiling	064	sub-05	1.0	4.0	064_smiling	0.0	171.28063966269656	
26.0	154.69823696727144	pulse	1.0	t		25.0	female	west_asian	2.6756864305610826	smiling	064	sub-05	1.0	4.0	064_smiling	0.0	171.98061711427908	
27.0	155.27310058254625	face	0.0		145	20.0	male	black	3.1070433744528456	smiling	082	sub-05	1.0	4.0	082_smiling	1.0	172.5554807295539	1.2332988516609475
27.0	155.39822468185412	pulse	0.0	t		20.0	male	black	3.1070433744528456	smiling	082	sub-05	1.0	4.0	082_smiling	1.0	172.68060482886176	
27.0	156.09819820934717	pulse	0.0	t		20.0	male	black	3.1070433744528456	smiling	082	sub-05	1.0	4.0	082_smiling	1.0	173.38057835635482	
27.0	156.5063994342072	fix	1.0		236	20.0	male	black	3.1070433744528456	smiling	082	sub-05	1.0	4.0	082_smiling	1.0	173.78877958121484	1.9999523072274314
27.0	156.79817294425266	pulse	1.0	t		20.0	male	black	3.1070433744528456	smiling	082	sub-05	1.0	4.0	082_smiling	1.0	174.0805530912603	
27.0	157.4981642810726	pulse	1.0	t		20.0	male	black	3.1070433744528456	smiling	082	sub-05	1.0	4.0	082_smiling	1.0	174.78054442808025	
27.0	158.19814414747816	pulse	1.0	t		20.0	male	black	3.1070433744528456	smiling	082	sub-05	1.0	4.0	082_smiling	1.0	175.4805242944858	
27.0	158.50635174143463	rating	2.0		235	20.0	male	black	3.1070433744528456	smiling	082	sub-05	1.0	4.0	082_smiling	1.0	175.78873188844227	1.9999538164938713
27.0	158.8981285416794	pulse	2.0	t		20.0	male	black	3.1070433744528456	smiling	082	sub-05	1.0	4.0	082_smiling	1.0	176.18050868868704	
27.0	159.5981047858495	pulse	2.0	t		20.0	male	black	3.1070433744528456	smiling	082	sub-05	1.0	4.0	082_smiling	1.0	176.88048493285714	
27.0	160.04279701805535	response	2.0	b		20.0	male	black	3.1070433744528456	smiling	082	sub-05	1.0	4.0	082_smiling	1.0	177.325177165063	
27.0	160.2980614095759	pulse	2.0	t		20.0	male	black	3.1070433744528456	smiling	082	sub-05	1.0	4.0	082_smiling	1.0	177.58044155658354	
27.0	160.5063055579285	fix	3.0		444	20.0	male	black	3.1070433744528456	smiling	082	sub-05	1.0	4.0	082_smiling	1.0	177.78868570493614	3.7665505237000616
27.0	160.99807176313334	pulse	3.0	t		20.0	male	black	3.1070433744528456	smiling	082	sub-05	1.0	4.0	082_smiling	1.0	178.28045191014098	
27.0	161.69804378136178	pulse	3.0	t		20.0	male	black	3.1070433744528456	smiling	082	sub-05	1.0	4.0	082_smiling	1.0	178.98042392836942	
27.0	162.39803059038604	pulse	3.0	t		20.0	male	black	3.1070433744528456	smiling	082	sub-05	1.0	4.0	082_smiling	1.0	179.6804107373937	
27.0	163.09801317346864	pulse	3.0	t		20.0	male	black	3.1070433744528456	smiling	082	sub-05	1.0	4.0	082_smiling	1.0	180.3803933204763	
27.0	163.79798156946163	pulse	3.0	t		20.0	male	black	3.1070433744528456	smiling	082	sub-05	1.0	4.0	082_smiling	1.0	181.08036171646927	
28.0	164.27285608162856	face	0.0		145	23.0	male	white	2.6275368085953046	neutral	141	sub-05	1.0	4.0	141_neutral	1.0	181.5552362286362	1.2332891923651914
28.0	164.49797954704627	pulse	0.0	t		23.0	male	white	2.6275368085953046	neutral	141	sub-05	1.0	4.0	141_neutral	1.0	181.7803596940539	
28.0	165.19794884859766	pulse	0.0	t		23.0	male	white	2.6275368085953046	neutral	141	sub-05	1.0	4.0	141_neutral	1.0	182.4803289956053	
28.0	165.50614527399375	fix	1.0		236	23.0	male	white	2.6275368085953046	neutral	141	sub-05	1.0	4.0	141_neutral	1.0	182.7885254210014	1.9999577405815216
28.0	165.89793022426784	pulse	1.0	t		23.0	male	white	2.6275368085953046	neutral	141	sub-05	1.0	4.0	141_neutral	1.0	183.18031037127548	
28.0	166.59791371291067	pulse	1.0	t		23.0	male	white	2.6275368085953046	neutral	141	sub-05	1.0	4.0	141_neutral	1.0	183.8802938599183	
28.0	167.29788995708077	pulse	1.0	t		23.0	male	white	2.6275368085953046	neutral	141	sub-05	1.0	4.0	141_neutral	1.0	184.5802701040884	
28.0	167.50610301457527	rating	2.0		235	23.0	male	white	2.6275368085953046	neutral	141	sub-05	1.0	4.0	141_neutral	1.0	184.78848316158292	1.9999474775813724
28.0	167.99787254016337	pulse	2.0	t		23.0	male	white	2.6275368085953046	neutral	141	sub-05	1.0	4.0	141_neutral	1.0	185.28025268717101	
28.0	168.63951297831954	response	2.0	e		23.0	male	white	2.6275368085953046	neutral	141	sub-05	1.0	4.0	141_neutral	1.0	185.9218931253272	
28.0	168.6978515010087	pulse	2.0	t		23.0	male	white	2.6275368085953046	neutral	141	sub-05	1.0	4.0	141_neutral	1.0	185.98023164801634	
28.0	169.39782985815145	pulse	2.0	t		23.0	male	white	2.6275368085953046	neutral	141	sub-05	1.0	4.0	141_neutral	1.0	186.6802100051591	
28.0	169.50605049215665	fix	3.0		444	23.0	male	white	2.6275368085953046	neutral	141	sub-05	1.0	4.0	141_neutral	1.0	186.7884306391643	3.7665638052312715
28.0	170.09781817644034	pulse	3.0	t		23.0	male	white	2.6275368085953046	neutral	141	sub-05	1.0	4.0	141_neutral	1.0	187.38019832344798	
28.0	170.7977914020812	pulse	3.0	t		23.0	male	white	2.6275368085953046	neutral	141	sub-05	1.0	4.0	141_neutral	1.0	188.08017154908885	
28.0	171.4977800222223	pulse	3.0	t		23.0	male	white	2.6275368085953046	neutral	141	sub-05	1.0	4.0	141_neutral	1.0	188.78016016922993	
28.0	172.19776683124655	pulse	3.0	t		23.0	male	white	2.6275368085953046	neutral	141	sub-05	1.0	4.0	141_neutral	1.0	189.4801469782542	
28.0	172.89774066059363	pulse	3.0	t		23.0	male	white	2.6275368085953046	neutral	141	sub-05	1.0	4.0	141_neutral	1.0	190.18012080760127	
29.0	173.27261429738792	face	0.0		145	34.0	male	white	2.651014723438122	neutral	121	sub-05	1.0	4.0	121_neutral	0.0	190.55499444439556	1.23331666098602
29.0	173.5977220362638	pulse	0.0	t		34.0	male	white	2.651014723438122	neutral	121	sub-05	1.0	4.0	121_neutral	0.0	190.88010218327145	
29.0	174.2977097508483	pulse	0.0	t		34.0	male	white	2.651014723438122	neutral	121	sub-05	1.0	4.0	121_neutral	0.0	191.58008989785594	
29.0	174.50593095837394	fix	1.0		444	34.0	male	white	2.651014723438122	neutral	121	sub-05	1.0	4.0	121_neutral	0.0	191.78831110538158	3.7582691870593408
29.0	174.99768358019355	pulse	1.0	t		34.0	male	white	2.651014723438122	neutral	121	sub-05	1.0	4.0	121_neutral	0.0	192.2800637272012	
29.0	175.69767159663024	pulse	1.0	t		34.0	male	white	2.651014723438122	neutral	121	sub-05	1.0	4.0	121_neutral	0.0	192.9800517436379	
29.0	176.397652066742	pulse	1.0	t		34.0	male	white	2.651014723438122	neutral	121	sub-05	1.0	4.0	121_neutral	0.0	193.68003221374966	
29.0	177.09761684049954	pulse	1.0	t		34.0	male	white	2.651014723438122	neutral	121	sub-05	1.0	4.0	121_neutral	0.0	194.37999698750718	
29.0	177.7976220625551	pulse	1.0	t		34.0	male	white	2.651014723438122	neutral	121	sub-05	1.0	4.0	121_neutral	0.0	195.08000220956274	
30.0	178.26420014543328	face	0.0		146	19.0	male	white	2.243931555909272	smiling	130	sub-05	1.0	4.0	130_smiling	0.0	195.54658029244092	1.241578377183032
30.0	178.49760162710845	pulse	0.0	t		19.0	male	white	2.243931555909272	smiling	130	sub-05	1.0	4.0	130_smiling	0.0	195.7799817741161	
30.0	179.19758270092643	pulse	0.0	t		19.0	male	white	2.243931555909272	smiling	130	sub-05	1.0	4.0	130_smiling	0.0	196.47996284793408	
30.0	179.5057785226163	fix	1.0		444	19.0	male	white	2.243931555909272	smiling	130	sub-05	1.0	4.0	130_smiling	0.0	196.78815866962395	3.7583208039195597
30.0	179.89755894509653	pulse	1.0	t		19.0	male	white	2.243931555909272	smiling	130	sub-05	1.0	4.0	130_smiling	0.0	197.17993909210418	
30.0	180.5975264355293	pulse	1.0	t		19.0	male	white	2.243931555909272	smiling	130	sub-05	1.0	4.0	130_smiling	0.0	197.87990658253693	
30.0	181.29751777234924	pulse	1.0	t		19.0	male	white	2.243931555909272	smiling	130	sub-05	1.0	4.0	130_smiling	0.0	198.57989791935688	
30.0	181.9975039776673	pulse	1.0	t		19.0	male	white	2.243931555909272	smiling	130	sub-05	1.0	4.0	130_smiling	0.0	199.27988412467494	
30.0	182.69746361992475	pulse	1.0	t		19.0	male	white	2.243931555909272	smiling	130	sub-05	1.0	4.0	130_smiling	0.0	199.9798437669324	
31.0	183.26409932653587	face	0.0		146	26.0	male	white	2.7966573816155993	neutral	117	sub-05	1.0	4.0	117_neutral	0.0	200.5464794735435	1.2415424566788715
31.0	183.39746008824477	pulse	0.0	t		26.0	male	white	2.7966573816155993	neutral	117	sub-05	1.0	4.0	117_neutral	0.0	200.6798402352524	
31.0	184.09744116206275	pulse	0.0	t		26.0	male	white	2.7966573816155993	neutral	117	sub-05	1.0	4.0	117_neutral	0.0	201.3798213090704	
31.0	184.50564178321474	fix	1.0		444	26.0	male	white	2.7966573816155993	neutral	117	sub-05	1.0	4.0	117_neutral	0.0	201.78802193022238	3.766566823760513
31.0	184.79742012290808	pulse	1.0	t		26.0	male	white	2.7966573816155993	neutral	117	sub-05	1.0	4.0	117_neutral	0.0	202.07980026991572	
31.0	185.49738851890106	pulse	1.0	t		26.0	male	white	2.7966573816155993	neutral	117	sub-05	1.0	4.0	117_neutral	0.0	202.7797686659087	
31.0	186.19737804460237	pulse	1.0	t		26.0	male	white	2.7966573816155993	neutral	117	sub-05	1.0	4.0	117_neutral	0.0	203.47975819161002	
31.0	186.89739654819095	pulse	1.0	t		26.0	male	white	2.7966573816155993	neutral	117	sub-05	1.0	4.0	117_neutral	0.0	204.1797766951986	
31.0	187.59735226635712	pulse	1.0	t		26.0	male	white	2.7966573816155993	neutral	117	sub-05	1.0	4.0	117_neutral	0.0	204.87973241336476	
32.0	188.27220860697525	face	0.0		145	20.0	male	black	2.609629924393156	neutral	043	sub-05	1.0	4.0	043_neutral	0.0	205.5545887539829	1.233300662779584
32.0	188.29734299947086	pulse	0.0	t		20.0	male	black	2.609629924393156	neutral	043	sub-05	1.0	4.0	043_neutral	0.0	205.5797231464785	
32.0	188.99731894178876	pulse	0.0	t		20.0	male	black	2.609629924393156	neutral	043	sub-05	1.0	4.0	043_neutral	0.0	206.2796990887964	
32.0	189.50550926975484	fix	1.0		443	20.0	male	black	2.609629924393156	neutral	043	sub-05	1.0	4.0	043_neutral	0.0	206.78788941676248	3.7665511274062737
32.0	189.69729850634212	pulse	1.0	t		20.0	male	black	2.609629924393156	neutral	043	sub-05	1.0	4.0	043_neutral	0.0	206.97967865334977	
32.0	190.39725845044995	pulse	1.0	t		20.0	male	black	2.609629924393156	neutral	043	sub-05	1.0	4.0	043_neutral	0.0	207.6796385974576	
32.0	191.09724827800528	pulse	1.0	t		20.0	male	black	2.609629924393156	neutral	043	sub-05	1.0	4.0	043_neutral	0.0	208.37962842501292	
32.0	191.79722240920455	pulse	1.0	t		20.0	male	black	2.609629924393156	neutral	043	sub-05	1.0	4.0	043_neutral	0.0	209.0796025562122	
32.0	192.49720529413935	pulse	1.0	t		20.0	male	black	2.609629924393156	neutral	043	sub-05	1.0	4.0	043_neutral	0.0	209.779585441147	
32.0	193.19718274572188	pulse	1.0	t		20.0	male	black	2.609629924393156	neutral	043	sub-05	1.0	4.0	043_neutral	0.0	210.47956289272952	
33.0	193.2720603971611	face	0.0		146	31.0	female	white	2.1822522881018704	neutral	102	sub-05	1.0	4.0	102_neutral	0.0	210.55444054416876	1.233330546223442
33.0	193.8971611028628	pulse	0.0	t		31.0	female	white	2.1822522881018704	neutral	102	sub-05	1.0	4.0	102_neutral	0.0	211.17954124987045	
33.0	194.50539094338455	fix	1.0		443	31.0	female	white	2.1822522881018704	neutral	102	sub-05	1.0	4.0	102_neutral	0.0	211.7877710903922	3.7665484107292286
33.0	194.59713915814973	pulse	1.0	t		31.0	female	white	2.1822522881018704	neutral	102	sub-05	1.0	4.0	102_neutral	0.0	211.87951930515737	
33.0	195.29712687273422	pulse	1.0	t		31.0	female	white	2.1822522881018704	neutral	102	sub-05	1.0	4.0	102_neutral	0.0	212.57950701974187	
33.0	195.99711247434607	pulse	1.0	t		31.0	female	white	2.1822522881018704	neutral	102	sub-05	1.0	4.0	102_neutral	0.0	213.2794926213537	
33.0	196.6971023019014	pulse	1.0	t		31.0	female	white	2.1822522881018704	neutral	102	sub-05	1.0	4.0	102_neutral	0.0	213.97948244890904	
33.0	197.39707552754044	pulse	1.0	t		31.0	female	white	2.1822522881018704	neutral	102	sub-05	1.0	4.0	102_neutral	0.0	214.67945567454808	
33.0	198.09705811062486	pulse	1.0	t		31.0	female	white	2.1822522881018704	neutral	102	sub-05	1.0	4.0	102_neutral	0.0	215.3794382576325	
34.0	198.27193935411378	face	0.0		146	31.0	female	east_asian	3.395941106247513	neutral	087	sub-05	1.0	4.0	087_neutral	0.0	215.55431950112143	1.241657764518095
34.0	198.79704250482428	pulse	0.0	t		31.0	female	east_asian	3.395941106247513	neutral	087	sub-05	1.0	4.0	087_neutral	0.0	216.07942265183192	
34.0	199.49702840829013	pulse	0.0	t		31.0	female	east_asian	3.395941106247513	neutral	087	sub-05	1.0	4.0	087_neutral	0.0	216.77940855529778	
34.0	199.51359711863188	fix	1.0		443	31.0	female	east_asian	3.395941106247513	neutral	087	sub-05	1.0	4.0	087_neutral	0.0	216.79597726563952	3.7581897997242777
34.0	200.1970149154622	pulse	1.0	t		31.0	female	east_asian	3.395941106247513	neutral	087	sub-05	1.0	4.0	087_neutral	0.0	217.47939506246985	
34.0	200.8969784818073	pulse	1.0	t		31.0	female	east_asian	3.395941106247513	neutral	087	sub-05	1.0	4.0	087_neutral	0.0	218.17935862881495	
34.0	201.59695653709423	pulse	1.0	t		31.0	female	east_asian	3.395941106247513	neutral	087	sub-05	1.0	4.0	087_neutral	0.0	218.87933668410187	
34.0	202.2969490813266	pulse	1.0	t		31.0	female	east_asian	3.395941106247513	neutral	087	sub-05	1.0	4.0	087_neutral	0.0	219.57932922833425	
34.0	202.9969195902886	pulse	1.0	t		31.0	female	east_asian	3.395941106247513	neutral	087	sub-05	1.0	4.0	087_neutral	0.0	220.27929973729624	
35.0	203.27178691835616	face	0.0		145	31.0	female	west_asian	2.364902506963788	neutral	006	sub-05	1.0	4.0	006_neutral	0.0	220.5541670653638	1.2333350740191236
35.0	203.6969205864043	pulse	0.0	t		31.0	female	west_asian	2.364902506963788	neutral	006	sub-05	1.0	4.0	006_neutral	0.0	220.97930073341195	
35.0	204.39689471760357	pulse	0.0	t		31.0	female	west_asian	2.364902506963788	neutral	006	sub-05	1.0	4.0	006_neutral	0.0	221.67927486461122	
35.0	204.50512199237528	fix	1.0		444	31.0	female	west_asian	2.364902506963788	neutral	006	sub-05	1.0	4.0	006_neutral	0.0	221.78750213938292	3.7665333180793823
35.0	205.0968727728905	pulse	1.0	t		31.0	female	west_asian	2.364902506963788	neutral	006	sub-05	1.0	4.0	006_neutral	0.0	222.37925291989814	
35.0	205.79684599853135	pulse	1.0	t		31.0	female	west_asian	2.364902506963788	neutral	006	sub-05	1.0	4.0	006_neutral	0.0	223.079226145539	
35.0	206.4968306945848	pulse	1.0	t		31.0	female	west_asian	2.364902506963788	neutral	006	sub-05	1.0	4.0	006_neutral	0.0	223.77921084159243	
35.0	207.19681176840277	pulse	1.0	t		31.0	female	west_asian	2.364902506963788	neutral	006	sub-05	1.0	4.0	006_neutral	0.0	224.4791919154104	
35.0	207.8967898236915	pulse	1.0	t		31.0	female	west_asian	2.364902506963788	neutral	006	sub-05	1.0	4.0	006_neutral	0.0	225.17916997069915	
36.0	208.27165531045466	face	0.0		145	22.0	female	west_asian	3.8205332272184642	neutral	066	sub-05	1.0	4.0	066_neutral	0.0	225.5540354574623	1.2333184721046564
36.0	208.5967911216594	pulse	0.0	t		22.0	female	west_asian	3.8205332272184642	neutral	066	sub-05	1.0	4.0	066_neutral	0.0	225.87917126866705	
36.0	209.29676374359224	pulse	0.0	t		22.0	female	west_asian	3.8205332272184642	neutral	066	sub-05	1.0	4.0	066_neutral	0.0	226.57914389059988	
36.0	209.50497378255932	fix	1.0		444	22.0	female	west_asian	3.8205332272184642	neutral	066	sub-05	1.0	4.0	066_neutral	0.0	226.78735392956696	3.766559881141802
36.0	209.99674632667666	pulse	1.0	t		22.0	female	west_asian	3.8205332272184642	neutral	066	sub-05	1.0	4.0	066_neutral	0.0	227.2791264736843	
36.0	210.6967261930822	pulse	1.0	t		22.0	female	west_asian	3.8205332272184642	neutral	066	sub-05	1.0	4.0	066_neutral	0.0	227.97910634008986	
36.0	211.396696400192	pulse	1.0	t		22.0	female	west_asian	3.8205332272184642	neutral	066	sub-05	1.0	4.0	066_neutral	0.0	228.67907654719966	
36.0	212.09683836165095	pulse	1.0	t		22.0	female	west_asian	3.8205332272184642	neutral	066	sub-05	1.0	4.0	066_neutral	0.0	229.3792185086586	
36.0	212.79666247191744	pulse	1.0	t		22.0	female	west_asian	3.8205332272184642	neutral	066	sub-05	1.0	4.0	066_neutral	0.0	230.0790426189251	
37.0	213.27153366370112	face	0.0		145	24.0	female	black	3.0955033824114606	neutral	099	sub-05	1.0	4.0	099_neutral	0.0	230.55391381070876	1.233301266485796
37.0	213.496655016148	pulse	0.0	t		24.0	female	black	3.0955033824114606	neutral	099	sub-05	1.0	4.0	099_neutral	0.0	230.77903516315564	
37.0	214.19663608996598	pulse	0.0	t		24.0	female	black	3.0955033824114606	neutral	099	sub-05	1.0	4.0	099_neutral	0.0	231.47901623697362	
37.0	214.50483493018692	fix	1.0		444	24.0	female	black	3.0955033824114606	neutral	099	sub-05	1.0	4.0	099_neutral	0.0	231.78721507719456	3.7665478070230165
37.0	214.89662772863812	pulse	1.0	t		24.0	female	black	3.0955033824114606	neutral	099	sub-05	1.0	4.0	099_neutral	0.0	232.17900787564577	
37.0	215.59658706904156	pulse	1.0	t		24.0	female	black	3.0955033824114606	neutral	099	sub-05	1.0	4.0	099_neutral	0.0	232.8789672160492	
37.0	216.2965787077137	pulse	1.0	t		24.0	female	black	3.0955033824114606	neutral	099	sub-05	1.0	4.0	099_neutral	0.0	233.57895885472135	
37.0	216.9965422740588	pulse	1.0	t		24.0	female	black	3.0955033824114606	neutral	099	sub-05	1.0	4.0	099_neutral	0.0	234.27892242106645	
37.0	217.69653512014156	pulse	1.0	t		24.0	female	black	3.0955033824114606	neutral	099	sub-05	1.0	4.0	099_neutral	0.0	234.9789152671492	
38.0	218.27138273720993	face	0.0		145	37.0	male	white	3.898925586947871	smiling	101	sub-05	1.0	4.0	101_smiling	1.0	235.55376288421758	1.2333178683984443
38.0	218.3965137791365	pulse	0.0	t		37.0	male	white	3.898925586947871	smiling	101	sub-05	1.0	4.0	101_smiling	1.0	235.67889392614416	
38.0	219.0964891177482	pulse	0.0	t		37.0	male	white	3.898925586947871	smiling	101	sub-05	1.0	4.0	101_smiling	1.0	236.37886926475585	
38.0	219.50470060560838	fix	1.0		236	37.0	male	white	3.898925586947871	smiling	101	sub-05	1.0	4.0	101_smiling	1.0	236.78708075261602	1.9999601554063702
38.0	219.7964898120099	pulse	1.0	t		37.0	male	white	3.898925586947871	smiling	101	sub-05	1.0	4.0	101_smiling	1.0	237.07886995901754	
38.0	220.4964545857656	pulse	1.0	t		37.0	male	white	3.898925586947871	smiling	101	sub-05	1.0	4.0	101_smiling	1.0	237.77883473277325	
38.0	221.1964362632898	pulse	1.0	t		37.0	male	white	3.898925586947871	smiling	101	sub-05	1.0	4.0	101_smiling	1.0	238.47881641029744	
38.0	221.50466076101475	rating	2.0		235	37.0	male	white	3.898925586947871	smiling	101	sub-05	1.0	4.0	101_smiling	1.0	238.7870409080224	1.9999357053129643
38.0	221.8964001314871	pulse	2.0	t		37.0	male	white	3.898925586947871	smiling	101	sub-05	1.0	4.0	101_smiling	1.0	239.17878027849474	
38.0	222.3964138657975	response	2.0	e		37.0	male	white	3.898925586947871	smiling	101	sub-05	1.0	4.0	101_smiling	1.0	239.67879401280516	
38.0	222.5963890534822	pulse	2.0	t		37.0	male	white	3.898925586947871	smiling	101	sub-05	1.0	4.0	101_smiling	1.0	239.87876920048984	
38.0	223.296372240271	pulse	2.0	t		37.0	male	white	3.898925586947871	smiling	101	sub-05	1.0	4.0	101_smiling	1.0	240.57875238727866	
38.0	223.5045964663277	fix	3.0		444	37.0	male	white	3.898925586947871	smiling	101	sub-05	1.0	4.0	101_smiling	1.0	240.78697661333536	3.7665444866397593
38.0	223.99636418079717	pulse	3.0	t		37.0	male	white	3.898925586947871	smiling	101	sub-05	1.0	4.0	101_smiling	1.0	241.27874432780482	
38.0	224.6963482731444	pulse	3.0	t		37.0	male	white	3.898925586947871	smiling	101	sub-05	1.0	4.0	101_smiling	1.0	241.97872842015204	
38.0	225.3962985579583	pulse	3.0	t		37.0	male	white	3.898925586947871	smiling	101	sub-05	1.0	4.0	101_smiling	1.0	242.67867870496593	
38.0	226.09631193004498	pulse	3.0	t		37.0	male	white	3.898925586947871	smiling	101	sub-05	1.0	4.0	101_smiling	1.0	243.37869207705262	
38.0	226.7962776093609	pulse	3.0	t		37.0	male	white	3.898925586947871	smiling	101	sub-05	1.0	4.0	101_smiling	1.0	244.07865775636856	
39.0	227.27114095296747	face	0.0		145	19.0	male	white	2.243931555909272	neutral	130	sub-05	1.0	4.0	130_neutral	0.0	244.55352109997511	1.233321490635717
39.0	227.4962653239436	pulse	0.0	t		19.0	male	white	2.243931555909272	neutral	130	sub-05	1.0	4.0	130_neutral	0.0	244.77864547095123	
39.0	228.19625183111566	pulse	0.0	t		19.0	male	white	2.243931555909272	neutral	130	sub-05	1.0	4.0	130_neutral	0.0	245.4786319781233	
39.0	228.5044624436032	fix	1.0		444	19.0	male	white	2.243931555909272	neutral	130	sub-05	1.0	4.0	130_neutral	0.0	245.78684259061083	3.749893672285907
39.0	228.89623230122743	pulse	1.0	t		19.0	male	white	2.243931555909272	neutral	130	sub-05	1.0	4.0	130_neutral	0.0	246.17861244823507	
39.0	229.5962006972204	pulse	1.0	t		19.0	male	white	2.243931555909272	neutral	130	sub-05	1.0	4.0	130_neutral	0.0	246.87858084422805	
39.0	230.29618629883225	pulse	1.0	t		19.0	male	white	2.243931555909272	neutral	130	sub-05	1.0	4.0	130_neutral	0.0	247.5785664458399	
39.0	230.99616797635645	pulse	1.0	t		19.0	male	white	2.243931555909272	neutral	130	sub-05	1.0	4.0	130_neutral	0.0	248.2785481233641	
39.0	231.69614814461602	pulse	1.0	t		19.0	male	white	2.243931555909272	neutral	130	sub-05	1.0	4.0	130_neutral	0.0	248.97852829162366	
40.0	232.2543561158891	fix	0.0		720												249.53673626289674	5.999839112359041
40.0	232.39613706661112	pulse	0.0	t													249.67851721361876	
40.0	233.09612266822296	pulse	0.0	t													250.3785028152306	
40.0	233.7961061568658	pulse	0.0	t													251.07848630387343	
40.0	234.49607485471097	pulse	0.0	t													251.7784550017186	
40.0	235.19606377670607	pulse	0.0	t													252.4784439237137	
40.0	235.89603609678852	pulse	0.0	t													253.17841624379616	
40.0	236.59602833916688	pulse	0.0	t													253.87840848617452	
40.0	237.2960124315141	pulse	0.0	t													254.57839257852174	
40.0	237.99599380718428	pulse	0.0	t													255.27837395419192	
