trial_nr	onset	event_type	phase	response	nr_frames	face_age	face_sex	face_eth	attractiveness	expression	face_id	sub_id	ses	run	trial_type	catch	onset_abs	duration
-1.0	0.05487023189289175	fix	0.0		714												29.91170437967594	5.966281814172362
-1.0	0.7047551806272168	pulse	0.0	t													30.561589328410264	
-1.0	1.4047208599431542	pulse	0.0	t													31.2615550077262	
-1.0	2.1047109893506786	pulse	0.0	t													31.961545137133726	
-1.0	2.8046947798447945	pulse	0.0	t													32.66152892762784	
-1.0	3.5046637795430797	pulse	0.0	t													33.36149792732613	
-1.0	4.204651795979771	pulse	0.0	t													34.06148594376282	
-1.0	4.904625625325934	pulse	0.0	t													34.76145977310898	
-1.0	5.604607604703233	pulse	0.0	t													35.46144175248628	
0.0	6.021152046065254	face	0.0		144	22.0	female	white	4.614007162753682	neutral	009	sub-04	1.0	3.0	009_neutral	0.0	35.8779861938483	1.2333039831610222
0.0	6.304607091552498	pulse	0.0	t		22.0	female	white	4.614007162753682	neutral	009	sub-04	1.0	3.0	009_neutral	0.0	36.161441239335545	
0.0	7.004576996810101	pulse	0.0	t		22.0	female	white	4.614007162753682	neutral	009	sub-04	1.0	3.0	009_neutral	0.0	36.86141114459315	
0.0	7.254456029226276	fix	1.0		444	22.0	female	white	4.614007162753682	neutral	009	sub-04	1.0	3.0	009_neutral	0.0	37.11129017700932	3.7582112312857134
0.0	7.704554448392628	pulse	1.0	t		22.0	female	white	4.614007162753682	neutral	009	sub-04	1.0	3.0	009_neutral	0.0	37.561388596175675	
0.0	8.404538842592956	pulse	1.0	t		22.0	female	white	4.614007162753682	neutral	009	sub-04	1.0	3.0	009_neutral	0.0	38.261372990376	
0.0	9.10451569046927	pulse	1.0	t		22.0	female	white	4.614007162753682	neutral	009	sub-04	1.0	3.0	009_neutral	0.0	38.96134983825232	
0.0	9.804503405052856	pulse	1.0	t		22.0	female	white	4.614007162753682	neutral	009	sub-04	1.0	3.0	009_neutral	0.0	39.6613375528359	
0.0	10.504477234399019	pulse	1.0	t		22.0	female	white	4.614007162753682	neutral	009	sub-04	1.0	3.0	009_neutral	0.0	40.361311382182066	
1.0	11.01266726051199	face	0.0		146	23.0	male	white	2.6275368085953046	neutral	141	sub-04	1.0	3.0	141_neutral	0.0	40.86950140829504	1.2416547459897629
1.0	11.204470684188891	pulse	0.0	t		23.0	male	white	2.6275368085953046	neutral	141	sub-04	1.0	3.0	141_neutral	0.0	41.06130483197194	
1.0	11.904445720947479	pulse	0.0	t		23.0	male	white	2.6275368085953046	neutral	141	sub-04	1.0	3.0	141_neutral	0.0	41.761279868730526	
1.0	12.254322006501752	fix	1.0		444	23.0	male	white	2.6275368085953046	neutral	141	sub-04	1.0	3.0	141_neutral	0.0	42.1111561542848	3.7582082127555623
1.0	12.604434642942579	pulse	1.0	t		23.0	male	white	2.6275368085953046	neutral	141	sub-04	1.0	3.0	141_neutral	0.0	42.461268790725626	
1.0	13.304378286989959	pulse	1.0	t		23.0	male	white	2.6275368085953046	neutral	141	sub-04	1.0	3.0	141_neutral	0.0	43.161212434773006	
1.0	14.004388036842101	pulse	1.0	t		23.0	male	white	2.6275368085953046	neutral	141	sub-04	1.0	3.0	141_neutral	0.0	43.86122218462515	
1.0	14.704367601394551	pulse	1.0	t		23.0	male	white	2.6275368085953046	neutral	141	sub-04	1.0	3.0	141_neutral	0.0	44.5612017491776	
1.0	15.404352297447986	pulse	1.0	t		23.0	male	white	2.6275368085953046	neutral	141	sub-04	1.0	3.0	141_neutral	0.0	45.26118644523103	
2.0	16.012530219257314	face	0.0		146	19.0	male	white	2.243931555909272	smiling	130	sub-04	1.0	3.0	130_smiling	0.0	45.86936436704036	1.2416484070763545
2.0	16.104333371265966	pulse	0.0	t		19.0	male	white	2.243931555909272	smiling	130	sub-04	1.0	3.0	130_smiling	0.0	45.96116751904901	
2.0	16.80447171048945	pulse	0.0	t		19.0	male	white	2.243931555909272	smiling	130	sub-04	1.0	3.0	130_smiling	0.0	46.6613058582725	
2.0	17.25417862633367	fix	1.0		444	19.0	male	white	2.243931555909272	smiling	130	sub-04	1.0	3.0	130_smiling	0.0	47.111012774116716	3.7582293424648014
2.0	17.504284048488444	pulse	1.0	t		19.0	male	white	2.243931555909272	smiling	130	sub-04	1.0	3.0	130_smiling	0.0	47.36111819627149	
2.0	18.20427327233665	pulse	1.0	t		19.0	male	white	2.243931555909272	smiling	130	sub-04	1.0	3.0	130_smiling	0.0	48.0611074201197	
2.0	18.904253742448418	pulse	1.0	t		19.0	male	white	2.243931555909272	smiling	130	sub-04	1.0	3.0	130_smiling	0.0	48.761087890231465	
2.0	19.604236627384125	pulse	1.0	t		19.0	male	white	2.243931555909272	smiling	130	sub-04	1.0	3.0	130_smiling	0.0	49.46107077516717	
2.0	20.304210758583395	pulse	1.0	t		19.0	male	white	2.243931555909272	smiling	130	sub-04	1.0	3.0	130_smiling	0.0	50.16104490636644	
3.0	21.01240796879847	face	0.0		147	37.0	male	white	3.898925586947871	neutral	101	sub-04	1.0	3.0	101_neutral	0.0	50.86924211658152	1.2416369366628714
3.0	21.00481364955067	pulse	0.0	t		37.0	male	white	3.898925586947871	neutral	101	sub-04	1.0	3.0	101_neutral	0.0	50.86164779733372	
3.0	21.70418437663284	pulse	0.0	t		37.0	male	white	3.898925586947871	neutral	101	sub-04	1.0	3.0	101_neutral	0.0	51.561018524415886	
3.0	22.254044905461342	fix	1.0		443	37.0	male	white	3.898925586947871	neutral	101	sub-04	1.0	3.0	101_neutral	0.0	52.11087905324439	3.7582103257263952
3.0	22.40416001709673	pulse	1.0	t		37.0	male	white	3.898925586947871	neutral	101	sub-04	1.0	3.0	101_neutral	0.0	52.260994164879776	
3.0	23.104172785478113	pulse	1.0	t		37.0	male	white	3.898925586947871	neutral	101	sub-04	1.0	3.0	101_neutral	0.0	52.96100693326116	
3.0	23.80411974990875	pulse	1.0	t		37.0	male	white	3.898925586947871	neutral	101	sub-04	1.0	3.0	101_neutral	0.0	53.6609538976918	
3.0	24.50410716263923	pulse	1.0	t		37.0	male	white	3.898925586947871	neutral	101	sub-04	1.0	3.0	101_neutral	0.0	54.36094131042228	
3.0	25.204074653072894	pulse	1.0	t		37.0	male	white	3.898925586947871	neutral	101	sub-04	1.0	3.0	101_neutral	0.0	55.06090880085594	
3.0	25.90407081953981	pulse	1.0	t		37.0	male	white	3.898925586947871	neutral	101	sub-04	1.0	3.0	101_neutral	0.0	55.76090496732286	
4.0	26.012255231187737	face	0.0		147	28.0	male	east_asian	1.5563072025467568	smiling	005	sub-04	1.0	3.0	005_smiling	0.0	55.869089378970784	1.2416710460502145
4.0	26.604052497064004	pulse	0.0	t		28.0	male	east_asian	1.5563072025467568	smiling	005	sub-04	1.0	3.0	005_smiling	0.0	56.46088664484705	
4.0	27.25392627723795	fix	1.0		444	28.0	male	east_asian	1.5563072025467568	smiling	005	sub-04	1.0	3.0	005_smiling	0.0	57.110760425021	3.7582000627253365
4.0	27.304034476440393	pulse	1.0	t		28.0	male	east_asian	1.5563072025467568	smiling	005	sub-04	1.0	3.0	005_smiling	0.0	57.16086862422344	
4.0	28.00400407984489	pulse	1.0	t		28.0	male	east_asian	1.5563072025467568	smiling	005	sub-04	1.0	3.0	005_smiling	0.0	57.86083822762794	
4.0	28.7039806258681	pulse	1.0	t		28.0	male	east_asian	1.5563072025467568	smiling	005	sub-04	1.0	3.0	005_smiling	0.0	58.560814773651146	
4.0	29.40396079412676	pulse	1.0	t		28.0	male	east_asian	1.5563072025467568	smiling	005	sub-04	1.0	3.0	005_smiling	0.0	59.26079494190981	
4.0	30.10393492532603	pulse	1.0	t		28.0	male	east_asian	1.5563072025467568	smiling	005	sub-04	1.0	3.0	005_smiling	0.0	59.96076907310908	
4.0	30.80393018623454	pulse	1.0	t		28.0	male	east_asian	1.5563072025467568	smiling	005	sub-04	1.0	3.0	005_smiling	0.0	60.660764334017585	
5.0	31.012126339963288	face	0.0		146	25.0	female	west_asian	2.6756864305610826	smiling	064	sub-04	1.0	3.0	064_smiling	0.0	60.868960487746335	1.2416499163409753
5.0	31.5039230323182	pulse	0.0	t		25.0	female	west_asian	2.6756864305610826	smiling	064	sub-04	1.0	3.0	064_smiling	0.0	61.360757180101245	
5.0	32.20389957834141	pulse	0.0	t		25.0	female	west_asian	2.6756864305610826	smiling	064	sub-04	1.0	3.0	064_smiling	0.0	62.060733726124454	
5.0	32.25377625630426	fix	1.0		444	25.0	female	west_asian	2.6756864305610826	smiling	064	sub-04	1.0	3.0	064_smiling	0.0	62.11061040408731	3.7583546114537967
5.0	32.90388367068954	pulse	1.0	t		25.0	female	west_asian	2.6756864305610826	smiling	064	sub-04	1.0	3.0	064_smiling	0.0	62.760717818472585	
5.0	33.603849350004566	pulse	1.0	t		25.0	female	west_asian	2.6756864305610826	smiling	064	sub-04	1.0	3.0	064_smiling	0.0	63.46068349778761	
5.0	34.303843101648454	pulse	1.0	t		25.0	female	west_asian	2.6756864305610826	smiling	064	sub-04	1.0	3.0	064_smiling	0.0	64.1606772494315	
5.0	35.00380425316871	pulse	1.0	t		25.0	female	west_asian	2.6756864305610826	smiling	064	sub-04	1.0	3.0	064_smiling	0.0	64.86063840095176	
5.0	35.70380796596055	pulse	1.0	t		25.0	female	west_asian	2.6756864305610826	smiling	064	sub-04	1.0	3.0	064_smiling	0.0	65.5606421137436	
6.0	36.01213086775806	face	0.0		146	40.0	male	black	2.408674890569041	neutral	061	sub-04	1.0	3.0	061_neutral	0.0	65.86896501554111	1.2415098565561493
6.0	36.40378149345361	pulse	0.0	t		40.0	male	black	2.408674890569041	neutral	061	sub-04	1.0	3.0	061_neutral	0.0	66.26061564123665	
6.0	37.103754115388256	pulse	0.0	t		40.0	male	black	2.408674890569041	neutral	061	sub-04	1.0	3.0	061_neutral	0.0	66.9605882631713	
6.0	37.25364072431421	fix	1.0		444	40.0	male	black	2.408674890569041	neutral	061	sub-04	1.0	3.0	061_neutral	0.0	67.11047487209726	3.7665574663187726
6.0	37.80371677617404	pulse	1.0	t		40.0	male	black	2.408674890569041	neutral	061	sub-04	1.0	3.0	061_neutral	0.0	67.66055092395709	
6.0	38.503703887051415	pulse	1.0	t		40.0	male	black	2.408674890569041	neutral	061	sub-04	1.0	3.0	061_neutral	0.0	68.36053803483446	
6.0	39.20369190348811	pulse	1.0	t		40.0	male	black	2.408674890569041	neutral	061	sub-04	1.0	3.0	061_neutral	0.0	69.06052605127115	
6.0	39.90367509027692	pulse	1.0	t		40.0	male	black	2.408674890569041	neutral	061	sub-04	1.0	3.0	061_neutral	0.0	69.76050923805997	
6.0	40.60367095489073	pulse	1.0	t		40.0	male	black	2.408674890569041	neutral	061	sub-04	1.0	3.0	061_neutral	0.0	70.46050510267378	
7.0	41.02019819063298	face	0.0		145	40.0	male	white	1.868682849184242	neutral	172	sub-04	1.0	3.0	172_neutral	0.0	70.87703233841603	1.2333190758108685
7.0	41.30365534909106	pulse	0.0	t		40.0	male	white	1.868682849184242	neutral	172	sub-04	1.0	3.0	172_neutral	0.0	71.1604894968741	
7.0	42.003620424700784	pulse	0.0	t		40.0	male	white	1.868682849184242	neutral	172	sub-04	1.0	3.0	172_neutral	0.0	71.86045457248383	
7.0	42.25351726644385	fix	1.0		444	40.0	male	white	1.868682849184242	neutral	172	sub-04	1.0	3.0	172_neutral	0.0	72.1103514142269	3.758308729798955
7.0	42.703606931872855	pulse	1.0	t		40.0	male	white	1.868682849184242	neutral	172	sub-04	1.0	3.0	172_neutral	0.0	72.5604410796559	
7.0	43.403584987160684	pulse	1.0	t		40.0	male	white	1.868682849184242	neutral	172	sub-04	1.0	3.0	172_neutral	0.0	73.26041913494373	
7.0	44.103566060978665	pulse	1.0	t		40.0	male	white	1.868682849184242	neutral	172	sub-04	1.0	3.0	172_neutral	0.0	73.96040020876171	
7.0	44.803544116266494	pulse	1.0	t		40.0	male	white	1.868682849184242	neutral	172	sub-04	1.0	3.0	172_neutral	0.0	74.66037826404954	
7.0	45.50355537538326	pulse	1.0	t		40.0	male	white	1.868682849184242	neutral	172	sub-04	1.0	3.0	172_neutral	0.0	75.3603895231663	
8.0	46.011825996242806	face	0.0		146	31.0	female	west_asian	2.364902506963788	smiling	006	sub-04	1.0	3.0	006_smiling	0.0	75.86866014402585	1.2415327973840249
8.0	46.203514715785786	pulse	0.0	t		31.0	female	west_asian	2.364902506963788	smiling	006	sub-04	1.0	3.0	006_smiling	0.0	76.06034886356883	
8.0	46.90350876928187	pulse	0.0	t		31.0	female	west_asian	2.364902506963788	smiling	006	sub-04	1.0	3.0	006_smiling	0.0	76.76034291706492	
8.0	47.25335879362683	fix	1.0		444	31.0	female	west_asian	2.364902506963788	smiling	006	sub-04	1.0	3.0	006_smiling	0.0	77.11019294140988	3.7665562589063484
8.0	47.60347807083326	pulse	1.0	t		31.0	female	west_asian	2.364902506963788	smiling	006	sub-04	1.0	3.0	006_smiling	0.0	77.46031221861631	
8.0	48.30345793723973	pulse	1.0	t		31.0	female	west_asian	2.364902506963788	smiling	006	sub-04	1.0	3.0	006_smiling	0.0	78.16029208502277	
8.0	49.00343176658589	pulse	1.0	t		31.0	female	west_asian	2.364902506963788	smiling	006	sub-04	1.0	3.0	006_smiling	0.0	78.86026591436894	
8.0	49.70342491452266	pulse	1.0	t		31.0	female	west_asian	2.364902506963788	smiling	006	sub-04	1.0	3.0	006_smiling	0.0	79.5602590623057	
8.0	50.40339421607405	pulse	1.0	t		31.0	female	west_asian	2.364902506963788	smiling	006	sub-04	1.0	3.0	006_smiling	0.0	80.2602283638571	
9.0	51.01991505253318	face	0.0		145	27.0	female	white	3.504576203740549	smiling	144	sub-04	1.0	3.0	144_smiling	0.0	80.87674920031623	1.2333160572807174
9.0	51.10337891212748	pulse	0.0	t		27.0	female	white	3.504576203740549	smiling	144	sub-04	1.0	3.0	144_smiling	0.0	80.96021305991053	
9.0	51.80337356932978	pulse	0.0	t		27.0	female	white	3.504576203740549	smiling	144	sub-04	1.0	3.0	144_smiling	0.0	81.66020771711283	
9.0	52.253231109813896	fix	1.0		444	27.0	female	white	3.504576203740549	smiling	144	sub-04	1.0	3.0	144_smiling	0.0	82.11006525759694	3.7665444866397593
9.0	52.50334136161655	pulse	1.0	t		27.0	female	white	3.504576203740549	smiling	144	sub-04	1.0	3.0	144_smiling	0.0	82.3601755093996	
9.0	53.20331519096271	pulse	1.0	t		27.0	female	white	3.504576203740549	smiling	144	sub-04	1.0	3.0	144_smiling	0.0	83.06014933874576	
9.0	53.90330169813478	pulse	1.0	t		27.0	female	white	3.504576203740549	smiling	144	sub-04	1.0	3.0	144_smiling	0.0	83.76013584591783	
9.0	54.603292129394504	pulse	1.0	t		27.0	female	white	3.504576203740549	smiling	144	sub-04	1.0	3.0	144_smiling	0.0	84.46012627717755	
9.0	55.303306708893615	pulse	1.0	t		27.0	female	white	3.504576203740549	smiling	144	sub-04	1.0	3.0	144_smiling	0.0	85.16014085667666	
10.0	56.019775596453655	face	0.0		146	22.0	female	white	4.614007162753682	smiling	009	sub-04	1.0	3.0	009_smiling	0.0	85.8766097442367	1.2333386962545774
10.0	56.00592597779996	pulse	0.0	t		22.0	female	white	4.614007162753682	smiling	009	sub-04	1.0	3.0	009_smiling	0.0	85.86276012558301	
10.0	56.70324108605473	pulse	0.0	t		22.0	female	white	4.614007162753682	smiling	009	sub-04	1.0	3.0	009_smiling	0.0	86.56007523383778	
10.0	57.25311429270823	fix	1.0		443	22.0	female	white	4.614007162753682	smiling	009	sub-04	1.0	3.0	009_smiling	0.0	87.10994844049128	3.7582311535825283
10.0	57.403222763578924	pulse	1.0	t		22.0	female	white	4.614007162753682	smiling	009	sub-04	1.0	3.0	009_smiling	0.0	87.26005691136197	
10.0	58.10319508366047	pulse	1.0	t		22.0	female	white	4.614007162753682	smiling	009	sub-04	1.0	3.0	009_smiling	0.0	87.96002923144351	
10.0	58.80317283709519	pulse	1.0	t		22.0	female	white	4.614007162753682	smiling	009	sub-04	1.0	3.0	009_smiling	0.0	88.66000698487824	
10.0	59.503155118324685	pulse	1.0	t		22.0	female	white	4.614007162753682	smiling	009	sub-04	1.0	3.0	009_smiling	0.0	89.35998926610773	
10.0	60.20313649399577	pulse	1.0	t		22.0	female	white	4.614007162753682	smiling	009	sub-04	1.0	3.0	009_smiling	0.0	90.05997064177882	
10.0	60.90311213445966	pulse	1.0	t		22.0	female	white	4.614007162753682	smiling	009	sub-04	1.0	3.0	009_smiling	0.0	90.75994628224271	
11.0	61.01134544629076	face	0.0		147	36.0	female	white	2.7548746518105847	smiling	011	sub-04	1.0	3.0	011_smiling	0.0	90.86817959407381	1.241632710722115
11.0	61.60310890463279	pulse	0.0	t		36.0	female	white	2.7548746518105847	smiling	011	sub-04	1.0	3.0	011_smiling	0.0	91.45994305241584	
11.0	62.252978157012876	fix	1.0		443	36.0	female	white	2.7548746518105847	smiling	011	sub-04	1.0	3.0	011_smiling	0.0	92.10981230479592	3.7665315069616554
11.0	62.30309390253933	pulse	1.0	t		36.0	female	white	2.7548746518105847	smiling	011	sub-04	1.0	3.0	011_smiling	0.0	92.15992805032238	
11.0	63.00305233738345	pulse	1.0	t		36.0	female	white	2.7548746518105847	smiling	011	sub-04	1.0	3.0	011_smiling	0.0	92.8598864851665	
11.0	63.703043372350294	pulse	1.0	t		36.0	female	white	2.7548746518105847	smiling	011	sub-04	1.0	3.0	011_smiling	0.0	93.55987752013334	
11.0	64.40301448501941	pulse	1.0	t		36.0	female	white	2.7548746518105847	smiling	011	sub-04	1.0	3.0	011_smiling	0.0	94.25984863280246	
11.0	65.10301819781125	pulse	1.0	t		36.0	female	white	2.7548746518105847	smiling	011	sub-04	1.0	3.0	011_smiling	0.0	94.9598523455943	
11.0	65.80299051789189	pulse	1.0	t		36.0	female	white	2.7548746518105847	smiling	011	sub-04	1.0	3.0	011_smiling	0.0	95.65982466567493	
12.0	66.01950966397453	face	0.0		145	32.0	male	white	2.389176283326701	smiling	092	sub-04	1.0	3.0	092_smiling	0.0	95.87634381175758	1.2333359795775323
12.0	66.50296434723805	pulse	0.0	t		32.0	male	white	2.389176283326701	smiling	092	sub-04	1.0	3.0	092_smiling	0.0	96.3597984950211	
12.0	67.20295055255701	pulse	0.0	t		32.0	male	white	2.389176283326701	smiling	092	sub-04	1.0	3.0	092_smiling	0.0	97.05978470034006	
12.0	67.25284564355206	fix	1.0		444	32.0	male	white	2.389176283326701	smiling	092	sub-04	1.0	3.0	092_smiling	0.0	97.10967979133511	3.7665438829344566
12.0	67.90292679672712	pulse	1.0	t		32.0	male	white	2.389176283326701	smiling	092	sub-04	1.0	3.0	092_smiling	0.0	97.75976094451016	
12.0	68.60291270019297	pulse	1.0	t		32.0	male	white	2.389176283326701	smiling	092	sub-04	1.0	3.0	092_smiling	0.0	98.45974684797602	
12.0	69.30288109618505	pulse	1.0	t		32.0	male	white	2.389176283326701	smiling	092	sub-04	1.0	3.0	092_smiling	0.0	99.1597152439681	
12.0	70.00286156629681	pulse	1.0	t		32.0	male	white	2.389176283326701	smiling	092	sub-04	1.0	3.0	092_smiling	0.0	99.85969571407986	
12.0	70.70285833646994	pulse	1.0	t		32.0	male	white	2.389176283326701	smiling	092	sub-04	1.0	3.0	092_smiling	0.0	100.55969248425299	
13.0	71.01938952648652	face	0.0		145	27.0	female	white	4.181058495821727	neutral	039	sub-04	1.0	3.0	039_neutral	0.0	100.87622367426957	1.233301266483977
13.0	71.40283095840459	pulse	0.0	t		27.0	female	white	4.181058495821727	neutral	039	sub-04	1.0	3.0	039_neutral	0.0	101.25966510618764	
13.0	72.10280931554553	pulse	0.0	t		27.0	female	white	4.181058495821727	neutral	039	sub-04	1.0	3.0	039_neutral	0.0	101.95964346332858	
13.0	72.2526907929705	fix	1.0		444	27.0	female	white	4.181058495821727	neutral	039	sub-04	1.0	3.0	039_neutral	0.0	102.10952494075354	3.7582308517294223
13.0	72.80278918195108	pulse	1.0	t		27.0	female	white	4.181058495821727	neutral	039	sub-04	1.0	3.0	039_neutral	0.0	102.65962332973413	
13.0	73.50277508541694	pulse	1.0	t		27.0	female	white	4.181058495821727	neutral	039	sub-04	1.0	3.0	039_neutral	0.0	103.35960923319999	
13.0	74.20274861291	pulse	1.0	t		27.0	female	white	4.181058495821727	neutral	039	sub-04	1.0	3.0	039_neutral	0.0	104.05958276069305	
13.0	74.90273029043419	pulse	1.0	t		27.0	female	white	4.181058495821727	neutral	039	sub-04	1.0	3.0	039_neutral	0.0	104.75956443821724	
13.0	75.60272796616573	pulse	1.0	t		27.0	female	white	4.181058495821727	neutral	039	sub-04	1.0	3.0	039_neutral	0.0	105.45956211394878	
14.0	76.01092164469992	face	0.0		146	20.0	female	white	3.9502586549940313	smiling	091	sub-04	1.0	3.0	091_smiling	0.0	105.86775579248297	1.2416284847795396
14.0	76.3027017955119	pulse	0.0	t		20.0	female	white	3.9502586549940313	smiling	091	sub-04	1.0	3.0	091_smiling	0.0	106.15953594329494	
14.0	77.00267411559344	pulse	0.0	t		20.0	female	white	3.9502586549940313	smiling	091	sub-04	1.0	3.0	091_smiling	0.0	106.85950826337648	
14.0	77.25255012947946	fix	1.0		444	20.0	female	white	3.9502586549940313	smiling	091	sub-04	1.0	3.0	091_smiling	0.0	107.1093842772625	3.7665683330260435
14.0	77.7026733005905	pulse	1.0	t		20.0	female	white	3.9502586549940313	smiling	091	sub-04	1.0	3.0	091_smiling	0.0	107.55950744837355	
14.0	78.40264230028879	pulse	1.0	t		20.0	female	white	3.9502586549940313	smiling	091	sub-04	1.0	3.0	091_smiling	0.0	108.25947644807184	
14.0	79.10261039442867	pulse	1.0	t		20.0	female	white	3.9502586549940313	smiling	091	sub-04	1.0	3.0	091_smiling	0.0	108.95944454221171	
14.0	79.80261742760285	pulse	1.0	t		20.0	female	white	3.9502586549940313	smiling	091	sub-04	1.0	3.0	091_smiling	0.0	109.6594515753859	
14.0	80.50257495688766	pulse	1.0	t		20.0	female	white	3.9502586549940313	smiling	091	sub-04	1.0	3.0	091_smiling	0.0	110.3594091046707	
15.0	81.0191184625055	face	0.0		145	20.0	female	white	3.9502586549940313	neutral	091	sub-04	1.0	3.0	091_neutral	0.0	110.87595261028855	1.2332997572202657
15.0	81.20255512514632	pulse	0.0	t		20.0	female	white	3.9502586549940313	neutral	091	sub-04	1.0	3.0	091_neutral	0.0	111.05938927292937	
15.0	81.90255823423286	pulse	0.0	t		20.0	female	white	3.9502586549940313	neutral	091	sub-04	1.0	3.0	091_neutral	0.0	111.7593923820159	
15.0	82.25241821972577	fix	1.0		444	20.0	female	white	3.9502586549940313	neutral	091	sub-04	1.0	3.0	091_neutral	0.0	112.10925236750882	3.766566220054301
15.0	82.60253930804993	pulse	1.0	t		20.0	female	white	3.9502586549940313	neutral	091	sub-04	1.0	3.0	091_neutral	0.0	112.45937345583297	
15.0	83.30249955401177	pulse	1.0	t		20.0	female	white	3.9502586549940313	neutral	091	sub-04	1.0	3.0	091_neutral	0.0	113.15933370179482	
15.0	84.00249934271505	pulse	1.0	t		20.0	female	white	3.9502586549940313	neutral	091	sub-04	1.0	3.0	091_neutral	0.0	113.8593334904981	
15.0	84.70247075723728	pulse	1.0	t		20.0	female	white	3.9502586549940313	neutral	091	sub-04	1.0	3.0	091_neutral	0.0	114.55930490502033	
15.0	85.40246028293859	pulse	1.0	t		20.0	female	white	3.9502586549940313	neutral	091	sub-04	1.0	3.0	091_neutral	0.0	115.25929443072164	
16.0	86.01898443978007	face	0.0		145	22.0	female	west_asian	3.8205332272184642	neutral	066	sub-04	1.0	3.0	066_neutral	1.0	115.87581858756312	1.2333193776639746
16.0	86.10244045119816	pulse	0.0	t		22.0	female	west_asian	3.8205332272184642	neutral	066	sub-04	1.0	3.0	066_neutral	1.0	115.95927459898121	
16.0	86.80241518610273	pulse	0.0	t		22.0	female	west_asian	3.8205332272184642	neutral	066	sub-04	1.0	3.0	066_neutral	1.0	116.65924933388578	
16.0	87.25230381744404	fix	1.0		236	22.0	female	west_asian	3.8205332272184642	neutral	066	sub-04	1.0	3.0	066_neutral	1.0	117.10913796522709	2.0082903922311743
16.0	87.50240622106958	pulse	1.0	t		22.0	female	west_asian	3.8205332272184642	neutral	066	sub-04	1.0	3.0	066_neutral	1.0	117.35924036885262	
16.0	88.2023649577659	pulse	1.0	t		22.0	female	west_asian	3.8205332272184642	neutral	066	sub-04	1.0	3.0	066_neutral	1.0	118.05919910554894	
16.0	88.90234965382024	pulse	1.0	t		22.0	female	west_asian	3.8205332272184642	neutral	066	sub-04	1.0	3.0	066_neutral	1.0	118.75918380160329	
16.0	89.26059420967522	rating	2.0		234	22.0	female	west_asian	3.8205332272184642	neutral	066	sub-04	1.0	3.0	066_neutral	1.0	119.11742835745827	1.9915819239558914
16.0	89.60233797210913	pulse	2.0	t		22.0	female	west_asian	3.8205332272184642	neutral	066	sub-04	1.0	3.0	066_neutral	1.0	119.45917211989217	
16.0	90.30231723480938	pulse	2.0	t		22.0	female	west_asian	3.8205332272184642	neutral	066	sub-04	1.0	3.0	066_neutral	1.0	120.15915138259243	
16.0	90.42730942436356	response	2.0	e		22.0	female	west_asian	3.8205332272184642	neutral	066	sub-04	1.0	3.0	066_neutral	1.0	120.2841435721466	
16.0	91.00229257342016	pulse	2.0	t		22.0	female	west_asian	3.8205332272184642	neutral	066	sub-04	1.0	3.0	066_neutral	1.0	120.85912672120321	
16.0	91.25217613363111	fix	3.0		444	22.0	female	west_asian	3.8205332272184642	neutral	066	sub-04	1.0	3.0	066_neutral	1.0	121.10901028141416	3.766565012643696
16.0	91.70228119356307	pulse	3.0	t		22.0	female	west_asian	3.8205332272184642	neutral	066	sub-04	1.0	3.0	066_neutral	1.0	121.55911534134611	
16.0	92.40227977485392	pulse	3.0	t		22.0	female	west_asian	3.8205332272184642	neutral	066	sub-04	1.0	3.0	066_neutral	1.0	122.25911392263697	
16.0	93.10224243563971	pulse	3.0	t		22.0	female	west_asian	3.8205332272184642	neutral	066	sub-04	1.0	3.0	066_neutral	1.0	122.95907658342276	
16.0	93.80222833910557	pulse	3.0	t		22.0	female	west_asian	3.8205332272184642	neutral	066	sub-04	1.0	3.0	066_neutral	1.0	123.65906248688862	
16.0	94.50221001662885	pulse	3.0	t		22.0	female	west_asian	3.8205332272184642	neutral	066	sub-04	1.0	3.0	066_neutral	1.0	124.3590441644119	
17.0	95.0187411462748	face	0.0		145	27.0	male	black	3.5523278949462798	smiling	042	sub-04	1.0	3.0	042_smiling	1.0	124.87557529405785	1.2333003609255684
17.0	95.20218565709274	pulse	0.0	t		27.0	male	black	3.5523278949462798	smiling	042	sub-04	1.0	3.0	042_smiling	1.0	125.05901980487579	
17.0	95.90217940873663	pulse	0.0	t		27.0	male	black	3.5523278949462798	smiling	042	sub-04	1.0	3.0	042_smiling	1.0	125.75901355651968	
17.0	96.25204150720037	fix	1.0		236	27.0	male	black	3.5523278949462798	smiling	042	sub-04	1.0	3.0	042_smiling	1.0	126.10887565498342	1.9999489868450837
17.0	96.6021468991703	pulse	1.0	t		27.0	male	black	3.5523278949462798	smiling	042	sub-04	1.0	3.0	042_smiling	1.0	126.45898104695334	
17.0	97.3021237470457	pulse	1.0	t		27.0	male	black	3.5523278949462798	smiling	042	sub-04	1.0	3.0	042_smiling	1.0	127.15895789482875	
17.0	98.00209848195118	pulse	1.0	t		27.0	male	black	3.5523278949462798	smiling	042	sub-04	1.0	3.0	042_smiling	1.0	127.85893262973423	
17.0	98.25199049404546	rating	2.0		235	27.0	male	black	3.5523278949462798	smiling	042	sub-04	1.0	3.0	042_smiling	1.0	128.1088246418285	1.999943251638797
17.0	98.70209102618264	pulse	2.0	t		27.0	male	black	3.5523278949462798	smiling	042	sub-04	1.0	3.0	042_smiling	1.0	128.5589251739657	
17.0	99.40207028888199	pulse	2.0	t		27.0	male	black	3.5523278949462798	smiling	042	sub-04	1.0	3.0	042_smiling	1.0	129.25890443666503	
17.0	99.83538960617534	response	2.0	b		27.0	male	black	3.5523278949462798	smiling	042	sub-04	1.0	3.0	042_smiling	1.0	129.6922237539584	
17.0	100.10202932743232	pulse	2.0	t		27.0	male	black	3.5523278949462798	smiling	042	sub-04	1.0	3.0	042_smiling	1.0	129.95886347521537	
17.0	100.25193374568425	fix	3.0		444	27.0	male	black	3.5523278949462798	smiling	042	sub-04	1.0	3.0	042_smiling	1.0	130.1087678934673	3.7665635033781655
17.0	100.80203636060651	pulse	3.0	t		27.0	male	black	3.5523278949462798	smiling	042	sub-04	1.0	3.0	042_smiling	1.0	130.65887050838955	
17.0	101.50201864183691	pulse	3.0	t		27.0	male	black	3.5523278949462798	smiling	042	sub-04	1.0	3.0	042_smiling	1.0	131.35885278961996	
17.0	102.20200756383201	pulse	3.0	t		27.0	male	black	3.5523278949462798	smiling	042	sub-04	1.0	3.0	042_smiling	1.0	132.05884171161506	
17.0	102.90197535611878	pulse	3.0	t		27.0	male	black	3.5523278949462798	smiling	042	sub-04	1.0	3.0	042_smiling	1.0	132.75880950390183	
17.0	103.60196850405555	pulse	3.0	t		27.0	male	black	3.5523278949462798	smiling	042	sub-04	1.0	3.0	042_smiling	1.0	133.4588026518386	
18.0	104.01849724906242	face	0.0		145	19.0	male	white	2.243931555909272	neutral	130	sub-04	1.0	3.0	130_neutral	0.0	133.87533139684547	1.2332985498078415
18.0	104.30194565378497	pulse	0.0	t		19.0	male	white	2.243931555909272	neutral	130	sub-04	1.0	3.0	130_neutral	0.0	134.15877980156802	
18.0	105.00191948313113	pulse	0.0	t		19.0	male	white	2.243931555909272	neutral	130	sub-04	1.0	3.0	130_neutral	0.0	134.85875363091418	
18.0	105.25179579887026	fix	1.0		444	19.0	male	white	2.243931555909272	neutral	130	sub-04	1.0	3.0	130_neutral	0.0	135.1086299466533	3.7665550514948336
18.0	105.70191142365638	pulse	1.0	t		19.0	male	white	2.243931555909272	neutral	130	sub-04	1.0	3.0	130_neutral	0.0	135.55874557143943	
18.0	106.4018882715327	pulse	1.0	t		19.0	male	white	2.243931555909272	neutral	130	sub-04	1.0	3.0	130_neutral	0.0	136.25872241931575	
18.0	107.10185304528932	pulse	1.0	t		19.0	male	white	2.243931555909272	neutral	130	sub-04	1.0	3.0	130_neutral	0.0	136.95868719307236	
18.0	107.80185404140411	pulse	1.0	t		19.0	male	white	2.243931555909272	neutral	130	sub-04	1.0	3.0	130_neutral	0.0	137.65868818918716	
18.0	108.50182756889717	pulse	1.0	t		19.0	male	white	2.243931555909272	neutral	130	sub-04	1.0	3.0	130_neutral	0.0	138.35866171668022	
19.0	109.0183508503651	face	0.0		145	25.0	female	west_asian	2.6756864305610826	neutral	064	sub-04	1.0	3.0	064_neutral	0.0	138.87518499814814	1.2333278295473065
19.0	109.2018059260381	pulse	0.0	t		25.0	female	west_asian	2.6756864305610826	neutral	064	sub-04	1.0	3.0	064_neutral	0.0	139.05864007382115	
19.0	109.90179213135707	pulse	0.0	t		25.0	female	west_asian	2.6756864305610826	neutral	064	sub-04	1.0	3.0	064_neutral	0.0	139.75862627914012	
19.0	110.2516786799124	fix	1.0		444	25.0	female	west_asian	2.6756864305610826	neutral	064	sub-04	1.0	3.0	064_neutral	0.0	140.10851282769545	3.7582205887283635
19.0	110.6017701866449	pulse	1.0	t		25.0	female	west_asian	2.6756864305610826	neutral	064	sub-04	1.0	3.0	064_neutral	0.0	140.45860433442795	
19.0	111.30174794007962	pulse	1.0	t		25.0	female	west_asian	2.6756864305610826	neutral	064	sub-04	1.0	3.0	064_neutral	0.0	141.15858208786267	
19.0	112.00173806948715	pulse	1.0	t		25.0	female	west_asian	2.6756864305610826	neutral	064	sub-04	1.0	3.0	064_neutral	0.0	141.8585722172702	
19.0	112.7017179358927	pulse	1.0	t		25.0	female	west_asian	2.6756864305610826	neutral	064	sub-04	1.0	3.0	064_neutral	0.0	142.55855208367575	
19.0	113.40169689673985	pulse	1.0	t		25.0	female	west_asian	2.6756864305610826	neutral	064	sub-04	1.0	3.0	064_neutral	0.0	143.2585310445229	
20.0	114.00989926864077	face	0.0		146	20.0	male	black	2.609629924393156	neutral	043	sub-04	1.0	3.0	043_neutral	0.0	143.8667334164238	1.2416139958359054
20.0	114.10168702614737	pulse	0.0	t		20.0	male	black	2.609629924393156	neutral	043	sub-04	1.0	3.0	043_neutral	0.0	143.95852117393042	
20.0	114.80165119619778	pulse	0.0	t		20.0	male	black	2.609629924393156	neutral	043	sub-04	1.0	3.0	043_neutral	0.0	144.65848534398083	
20.0	115.25151326447667	fix	1.0		444	20.0	male	black	2.609629924393156	neutral	043	sub-04	1.0	3.0	043_neutral	0.0	145.10834741225972	3.7665619941135446
20.0	115.50164404228235	pulse	1.0	t		20.0	male	black	2.609629924393156	neutral	043	sub-04	1.0	3.0	043_neutral	0.0	145.3584781900654	
20.0	116.201616664217	pulse	1.0	t		20.0	male	black	2.609629924393156	neutral	043	sub-04	1.0	3.0	043_neutral	0.0	146.05845081200005	
20.0	116.90160981215377	pulse	1.0	t		20.0	male	black	2.609629924393156	neutral	043	sub-04	1.0	3.0	043_neutral	0.0	146.7584439599368	
20.0	117.60160628047379	pulse	1.0	t		20.0	male	black	2.609629924393156	neutral	043	sub-04	1.0	3.0	043_neutral	0.0	147.45844042825684	
20.0	118.30155264119821	pulse	1.0	t		20.0	male	black	2.609629924393156	neutral	043	sub-04	1.0	3.0	043_neutral	0.0	148.15838678898126	
21.0	119.01807525859022	face	0.0		146	24.0	female	black	3.0955033824114606	neutral	099	sub-04	1.0	3.0	099_neutral	0.0	148.87490940637326	1.2333392999607895
21.0	119.00425884376455	pulse	0.0	t		24.0	female	black	3.0955033824114606	neutral	099	sub-04	1.0	3.0	099_neutral	0.0	148.8610929915476	
21.0	119.70150512953842	pulse	0.0	t		24.0	female	black	3.0955033824114606	neutral	099	sub-04	1.0	3.0	099_neutral	0.0	149.55833927732147	
21.0	120.251414558551	fix	1.0		443	24.0	female	black	3.0955033824114606	neutral	099	sub-04	1.0	3.0	099_neutral	0.0	150.10824870633405	3.7665293939908224
21.0	120.4015175960667	pulse	1.0	t		24.0	female	black	3.0955033824114606	neutral	099	sub-04	1.0	3.0	099_neutral	0.0	150.25835174384974	
21.0	121.10148538835347	pulse	1.0	t		24.0	female	black	3.0955033824114606	neutral	099	sub-04	1.0	3.0	099_neutral	0.0	150.95831953613651	
21.0	121.80147068811311	pulse	1.0	t		24.0	female	black	3.0955033824114606	neutral	099	sub-04	1.0	3.0	099_neutral	0.0	151.65830483589616	
21.0	122.50145628972587	pulse	1.0	t		24.0	female	black	3.0955033824114606	neutral	099	sub-04	1.0	3.0	099_neutral	0.0	152.3582904375089	
21.0	123.2014159319815	pulse	1.0	t		24.0	female	black	3.0955033824114606	neutral	099	sub-04	1.0	3.0	099_neutral	0.0	153.05825007976455	
21.0	123.90140364656509	pulse	1.0	t		24.0	female	black	3.0955033824114606	neutral	099	sub-04	1.0	3.0	099_neutral	0.0	153.75823779434813	
22.0	124.01794395254183	face	0.0		146	31.0	female	east_asian	3.395941106247513	smiling	087	sub-04	1.0	3.0	087_smiling	0.0	153.87477810032487	1.2333290369588212
22.0	124.60141007603397	pulse	0.0	t		31.0	female	east_asian	3.395941106247513	smiling	087	sub-04	1.0	3.0	087_smiling	0.0	154.45824422381702	
22.0	125.25127298950065	fix	1.0		443	31.0	female	east_asian	3.395941106247513	smiling	087	sub-04	1.0	3.0	087_smiling	0.0	155.1081071372837	3.7582317572887405
22.0	125.30138601835097	pulse	1.0	t		31.0	female	east_asian	3.395941106247513	smiling	087	sub-04	1.0	3.0	087_smiling	0.0	155.15822016613402	
22.0	126.00135531990236	pulse	1.0	t		31.0	female	east_asian	3.395941106247513	smiling	087	sub-04	1.0	3.0	087_smiling	0.0	155.8581894676854	
22.0	126.70133609186723	pulse	1.0	t		31.0	female	east_asian	3.395941106247513	smiling	087	sub-04	1.0	3.0	087_smiling	0.0	156.55817023965028	
22.0	127.40130841194878	pulse	1.0	t		31.0	female	east_asian	3.395941106247513	smiling	087	sub-04	1.0	3.0	087_smiling	0.0	157.25814255973182	
22.0	128.10129552282615	pulse	1.0	t		31.0	female	east_asian	3.395941106247513	smiling	087	sub-04	1.0	3.0	087_smiling	0.0	157.9581296706092	
22.0	128.80126754105459	pulse	1.0	t		31.0	female	east_asian	3.395941106247513	smiling	087	sub-04	1.0	3.0	087_smiling	0.0	158.65810168883763	
23.0	129.0095047467894	face	0.0		146	21.0	male	east_asian/white	3.501790688420215	smiling	036	sub-04	1.0	3.0	036_smiling	0.0	158.86633889457244	1.2416420681638556
23.0	129.50126521678612	pulse	0.0	t		21.0	male	east_asian/white	3.501790688420215	smiling	036	sub-04	1.0	3.0	036_smiling	0.0	159.35809936456917	
23.0	130.20123602760304	pulse	0.0	t		21.0	male	east_asian/white	3.501790688420215	smiling	036	sub-04	1.0	3.0	036_smiling	0.0	160.0580701753861	
23.0	130.25114681495324	fix	1.0		1185	21.0	male	east_asian/white	3.501790688420215	smiling	036	sub-04	1.0	3.0	036_smiling	0.0	160.1079809627363	10.016367978107155
23.0	130.90122011995027	pulse	1.0	t		21.0	male	east_asian/white	3.501790688420215	smiling	036	sub-04	1.0	3.0	036_smiling	0.0	160.7580542677333	
23.0	131.60117644182355	pulse	1.0	t		21.0	male	east_asian/white	3.501790688420215	smiling	036	sub-04	1.0	3.0	036_smiling	0.0	161.4580105896066	
23.0	132.30117864534986	pulse	1.0	t		21.0	male	east_asian/white	3.501790688420215	smiling	036	sub-04	1.0	3.0	036_smiling	0.0	162.1580127931329	
23.0	133.00115579507928	pulse	1.0	t		21.0	male	east_asian/white	3.501790688420215	smiling	036	sub-04	1.0	3.0	036_smiling	0.0	162.85798994286233	
23.0	133.70114894301605	pulse	1.0	t		21.0	male	east_asian/white	3.501790688420215	smiling	036	sub-04	1.0	3.0	036_smiling	0.0	163.5579830907991	
23.0	134.40113062054024	pulse	1.0	t		21.0	male	east_asian/white	3.501790688420215	smiling	036	sub-04	1.0	3.0	036_smiling	0.0	164.2579647683233	
23.0	135.10109599800307	pulse	1.0	t		21.0	male	east_asian/white	3.501790688420215	smiling	036	sub-04	1.0	3.0	036_smiling	0.0	164.95793014578612	
23.0	135.80108763667522	pulse	1.0	t		21.0	male	east_asian/white	3.501790688420215	smiling	036	sub-04	1.0	3.0	036_smiling	0.0	165.65792178445827	
23.0	136.50107112531714	pulse	1.0	t		21.0	male	east_asian/white	3.501790688420215	smiling	036	sub-04	1.0	3.0	036_smiling	0.0	166.3579052731002	
23.0	137.20105370839974	pulse	1.0	t		21.0	male	east_asian/white	3.501790688420215	smiling	036	sub-04	1.0	3.0	036_smiling	0.0	167.0578878561828	
23.0	137.9010335748053	pulse	1.0	t		21.0	male	east_asian/white	3.501790688420215	smiling	036	sub-04	1.0	3.0	036_smiling	0.0	167.75786772258834	
23.0	138.6010028763567	pulse	1.0	t		21.0	male	east_asian/white	3.501790688420215	smiling	036	sub-04	1.0	3.0	036_smiling	0.0	168.45783702413974	
23.0	139.30099692985368	pulse	1.0	t		21.0	male	east_asian/white	3.501790688420215	smiling	036	sub-04	1.0	3.0	036_smiling	0.0	169.15783107763673	
23.0	140.0009680425228	pulse	1.0	t		21.0	male	east_asian/white	3.501790688420215	smiling	036	sub-04	1.0	3.0	036_smiling	0.0	169.85780219030585	
24.0	140.2675147930604	face	0.0		145	27.0	male	black	3.5523278949462798	neutral	042	sub-04	1.0	3.0	042_neutral	0.0	170.12434894084345	1.2333178683984443
24.0	140.70095334228245	pulse	0.0	t		27.0	male	black	3.5523278949462798	neutral	042	sub-04	1.0	3.0	042_neutral	0.0	170.5577874900655	
24.0	141.4009392457483	pulse	0.0	t		27.0	male	black	3.5523278949462798	neutral	042	sub-04	1.0	3.0	042_neutral	0.0	171.25777339353135	
24.0	141.50083266145884	fix	1.0		444	27.0	male	black	3.5523278949462798	neutral	042	sub-04	1.0	3.0	042_neutral	0.0	171.3576668092419	3.7665357329033213
24.0	142.10092665847878	pulse	1.0	t		27.0	male	black	3.5523278949462798	neutral	042	sub-04	1.0	3.0	042_neutral	0.0	171.95776080626183	
24.0	142.80090320450108	pulse	1.0	t		27.0	male	black	3.5523278949462798	neutral	042	sub-04	1.0	3.0	042_neutral	0.0	172.65773735228413	
24.0	143.5008860894368	pulse	1.0	t		27.0	male	black	3.5523278949462798	neutral	042	sub-04	1.0	3.0	042_neutral	0.0	173.35772023721984	
24.0	144.2008553909891	pulse	1.0	t		27.0	male	black	3.5523278949462798	neutral	042	sub-04	1.0	3.0	042_neutral	0.0	174.05768953877214	
24.0	144.90083374813003	pulse	1.0	t		27.0	male	black	3.5523278949462798	neutral	042	sub-04	1.0	3.0	042_neutral	0.0	174.75766789591307	
25.0	145.26736839436217	face	0.0		145	40.0	male	black	2.408674890569041	smiling	061	sub-04	1.0	3.0	061_smiling	1.0	175.1242025421452	1.2333130387514757
25.0	145.6008220664189	pulse	0.0	t		40.0	male	black	2.408674890569041	smiling	061	sub-04	1.0	3.0	061_smiling	1.0	175.45765621420196	
25.0	146.30080766803167	pulse	0.0	t		40.0	male	black	2.408674890569041	smiling	061	sub-04	1.0	3.0	061_smiling	1.0	176.1576418158147	
25.0	146.50068143311364	fix	1.0		236	40.0	male	black	2.408674890569041	smiling	061	sub-04	1.0	3.0	061_smiling	1.0	176.3575155808967	1.9999492886981898
25.0	147.00079447705593	pulse	1.0	t		40.0	male	black	2.408674890569041	smiling	061	sub-04	1.0	3.0	061_smiling	1.0	176.85762862483898	
25.0	147.70075985451876	pulse	1.0	t		40.0	male	black	2.408674890569041	smiling	061	sub-04	1.0	3.0	061_smiling	1.0	177.5575940023018	
25.0	148.4007373061013	pulse	1.0	t		40.0	male	black	2.408674890569041	smiling	061	sub-04	1.0	3.0	061_smiling	1.0	178.25757145388434	
25.0	148.50063072181183	rating	2.0		236	40.0	male	black	2.408674890569041	smiling	061	sub-04	1.0	3.0	061_smiling	1.0	178.35746486959488	1.999943251638797
25.0	149.10071626694753	pulse	2.0	t		40.0	male	black	2.408674890569041	smiling	061	sub-04	1.0	3.0	061_smiling	1.0	178.95755041473058	
25.0	149.66227118411825	response	2.0	w		40.0	male	black	2.408674890569041	smiling	061	sub-04	1.0	3.0	061_smiling	1.0	179.5191053319013	
25.0	149.80070035929566	pulse	2.0	t		40.0	male	black	2.408674890569041	smiling	061	sub-04	1.0	3.0	061_smiling	1.0	179.6575345070787	
25.0	150.50057397345063	fix	3.0		444	40.0	male	black	2.408674890569041	smiling	061	sub-04	1.0	3.0	061_smiling	1.0	180.35740812123368	3.766546901464608
25.0	150.50815078522555	pulse	3.0	t		40.0	male	black	2.408674890569041	smiling	061	sub-04	1.0	3.0	061_smiling	1.0	180.3649849330086	
25.0	151.2006797125514	pulse	3.0	t		40.0	male	black	2.408674890569041	smiling	061	sub-04	1.0	3.0	061_smiling	1.0	181.05751386033444	
25.0	151.9006556548684	pulse	3.0	t		40.0	male	black	2.408674890569041	smiling	061	sub-04	1.0	3.0	061_smiling	1.0	181.75748980265143	
25.0	152.60062797494993	pulse	3.0	t		40.0	male	black	2.408674890569041	smiling	061	sub-04	1.0	3.0	061_smiling	1.0	182.45746212273298	
25.0	153.3006078413555	pulse	3.0	t		40.0	male	black	2.408674890569041	smiling	061	sub-04	1.0	3.0	061_smiling	1.0	183.15744198913853	
25.0	154.00059917817543	pulse	3.0	t		40.0	male	black	2.408674890569041	smiling	061	sub-04	1.0	3.0	061_smiling	1.0	183.85743332595848	
26.0	154.26712087491524	face	0.0		145	21.0	male	east_asian/white	3.501790688420215	neutral	036	sub-04	1.0	3.0	036_neutral	1.0	184.12395502269828	1.233332659194275
26.0	154.70058508164038	pulse	0.0	t		21.0	male	east_asian/white	3.501790688420215	neutral	036	sub-04	1.0	3.0	036_neutral	1.0	184.55741922942343	
26.0	155.40055981654587	pulse	0.0	t		21.0	male	east_asian/white	3.501790688420215	neutral	036	sub-04	1.0	3.0	036_neutral	1.0	185.2573939643289	
26.0	155.5004535341095	fix	1.0		237	21.0	male	east_asian/white	3.501790688420215	neutral	036	sub-04	1.0	3.0	036_neutral	1.0	185.35728768189256	1.9999293664022844
26.0	156.10054572001172	pulse	1.0	t		21.0	male	east_asian/white	3.501790688420215	neutral	036	sub-04	1.0	3.0	036_neutral	1.0	185.95737986779477	
26.0	156.8005132104454	pulse	1.0	t		21.0	male	east_asian/white	3.501790688420215	neutral	036	sub-04	1.0	3.0	036_neutral	1.0	186.65734735822844	
26.0	157.5003829005118	rating	2.0		235	21.0	male	east_asian/white	3.501790688420215	neutral	036	sub-04	1.0	3.0	036_neutral	1.0	187.35721704829484	1.9999468738742507
26.0	157.50817010381616	pulse	2.0	t		21.0	male	east_asian/white	3.501790688420215	neutral	036	sub-04	1.0	3.0	036_neutral	1.0	187.3650042515992	
26.0	158.20047505622733	pulse	2.0	t		21.0	male	east_asian/white	3.501790688420215	neutral	036	sub-04	1.0	3.0	036_neutral	1.0	188.05730920401038	
26.0	158.90045673375153	pulse	2.0	t		21.0	male	east_asian/white	3.501790688420215	neutral	036	sub-04	1.0	3.0	036_neutral	1.0	188.75729088153457	
26.0	159.20878114481366	response	2.0	b		21.0	male	east_asian/white	3.501790688420215	neutral	036	sub-04	1.0	3.0	036_neutral	1.0	189.0656152925967	
26.0	159.50032977438605	fix	3.0		443	21.0	male	east_asian/white	3.501790688420215	neutral	036	sub-04	1.0	3.0	036_neutral	1.0	189.3571639221691	3.7665312051085493
26.0	159.6004435427758	pulse	3.0	t		21.0	male	east_asian/white	3.501790688420215	neutral	036	sub-04	1.0	3.0	036_neutral	1.0	189.45727769055884	
26.0	160.30043155921248	pulse	3.0	t		21.0	male	east_asian/white	3.501790688420215	neutral	036	sub-04	1.0	3.0	036_neutral	1.0	190.15726570699553	
26.0	161.00040569041175	pulse	3.0	t		21.0	male	east_asian/white	3.501790688420215	neutral	036	sub-04	1.0	3.0	036_neutral	1.0	190.8572398381948	
26.0	161.70038978275898	pulse	3.0	t		21.0	male	east_asian/white	3.501790688420215	neutral	036	sub-04	1.0	3.0	036_neutral	1.0	191.55722393054202	
26.0	162.40037870475498	pulse	3.0	t		21.0	male	east_asian/white	3.501790688420215	neutral	036	sub-04	1.0	3.0	036_neutral	1.0	192.25721285253803	
26.0	163.10034589333554	pulse	3.0	t		21.0	male	east_asian/white	3.501790688420215	neutral	036	sub-04	1.0	3.0	036_neutral	1.0	192.9571800411186	
27.0	163.2668609794946	face	0.0		146	31.0	male	west_asian	1.9538400318344609	smiling	070	sub-04	1.0	3.0	070_smiling	0.0	193.12369512727764	1.2333353758722296
27.0	163.80034236165557	pulse	0.0	t		31.0	male	west_asian	1.9538400318344609	smiling	070	sub-04	1.0	3.0	070_smiling	0.0	193.6571765094386	
27.0	164.50019635536682	fix	1.0		444	31.0	male	west_asian	1.9538400318344609	smiling	070	sub-04	1.0	3.0	070_smiling	0.0	194.35703050314987	3.7583549133059933
27.0	164.50780455985114	pulse	1.0	t		31.0	male	west_asian	1.9538400318344609	smiling	070	sub-04	1.0	3.0	070_smiling	0.0	194.36463870763419	
27.0	165.2002969629666	pulse	1.0	t		31.0	male	west_asian	1.9538400318344609	smiling	070	sub-04	1.0	3.0	070_smiling	0.0	195.05713111074965	
27.0	165.90026837748883	pulse	1.0	t		31.0	male	west_asian	1.9538400318344609	smiling	070	sub-04	1.0	3.0	070_smiling	0.0	195.75710252527188	
27.0	166.60025397910158	pulse	1.0	t		31.0	male	west_asian	1.9538400318344609	smiling	070	sub-04	1.0	3.0	070_smiling	0.0	196.45708812688463	
27.0	167.30022901585926	pulse	1.0	t		31.0	male	west_asian	1.9538400318344609	smiling	070	sub-04	1.0	3.0	070_smiling	0.0	197.1570631636423	
27.0	168.00020888226572	pulse	1.0	t		31.0	male	west_asian	1.9538400318344609	smiling	070	sub-04	1.0	3.0	070_smiling	0.0	197.85704303004877	
28.0	168.25855126867282	face	0.0		146	28.0	male	east_asian	1.5563072025467568	neutral	005	sub-04	1.0	3.0	005_neutral	0.0	198.11538541645587	1.2415231380882688
28.0	168.70019206905454	pulse	0.0	t		28.0	male	east_asian	1.5563072025467568	neutral	005	sub-04	1.0	3.0	005_neutral	0.0	198.55702621683758	
28.0	169.40018189660896	pulse	0.0	t		28.0	male	east_asian	1.5563072025467568	neutral	005	sub-04	1.0	3.0	005_neutral	0.0	199.257016044392	
28.0	169.5000744067611	fix	1.0		444	28.0	male	east_asian	1.5563072025467568	neutral	005	sub-04	1.0	3.0	005_neutral	0.0	199.35690855454413	3.76653271437317
28.0	170.10017021489784	pulse	1.0	t		28.0	male	east_asian	1.5563072025467568	neutral	005	sub-04	1.0	3.0	005_neutral	0.0	199.9570043626809	
28.0	170.80014494980333	pulse	1.0	t		28.0	male	east_asian	1.5563072025467568	neutral	005	sub-04	1.0	3.0	005_neutral	0.0	200.65697909758637	
28.0	171.50011576061934	pulse	1.0	t		28.0	male	east_asian	1.5563072025467568	neutral	005	sub-04	1.0	3.0	005_neutral	0.0	201.35694990840238	
28.0	172.20010438076224	pulse	1.0	t		28.0	male	east_asian	1.5563072025467568	neutral	005	sub-04	1.0	3.0	005_neutral	0.0	202.0569385285453	
28.0	172.9000845490209	pulse	1.0	t		28.0	male	east_asian	1.5563072025467568	neutral	005	sub-04	1.0	3.0	005_neutral	0.0	202.75691869680395	
29.0	173.26660712113426	face	0.0		145	24.0	female	east_asian	4.409868682849185	neutral	030	sub-04	1.0	3.0	030_neutral	0.0	203.1234412689173	1.2333124350452636
29.0	173.60006139689722	pulse	0.0	t		24.0	female	east_asian	4.409868682849185	neutral	030	sub-04	1.0	3.0	030_neutral	0.0	203.45689554468026	
29.0	174.30003975403815	pulse	0.0	t		24.0	female	east_asian	4.409868682849185	neutral	030	sub-04	1.0	3.0	030_neutral	0.0	204.1568739018212	
29.0	174.49991955617952	fix	1.0		444	24.0	female	east_asian	4.409868682849185	neutral	030	sub-04	1.0	3.0	030_neutral	0.0	204.35675370396257	3.7665499199938495
29.0	175.00002203526765	pulse	1.0	t		24.0	female	east_asian	4.409868682849185	neutral	030	sub-04	1.0	3.0	030_neutral	0.0	204.8568561830507	
29.0	175.70000371279184	pulse	1.0	t		24.0	female	east_asian	4.409868682849185	neutral	030	sub-04	1.0	3.0	030_neutral	0.0	205.5568378605749	
29.0	176.39999112552232	pulse	1.0	t		24.0	female	east_asian	4.409868682849185	neutral	030	sub-04	1.0	3.0	030_neutral	0.0	206.25682527330537	
29.0	177.09997099192788	pulse	1.0	t		24.0	female	east_asian	4.409868682849185	neutral	030	sub-04	1.0	3.0	030_neutral	0.0	206.95680513971092	
29.0	177.7999427083032	pulse	1.0	t		24.0	female	east_asian	4.409868682849185	neutral	030	sub-04	1.0	3.0	030_neutral	0.0	207.65677685608625	
30.0	178.26646947617337	face	0.0		145	54.0	female	white	2.286908077994429	neutral	136	sub-04	1.0	3.0	136_neutral	0.0	208.12330362395642	1.2333172646931416
30.0	178.4999304228868	pulse	0.0	t		54.0	female	white	2.286908077994429	neutral	136	sub-04	1.0	3.0	136_neutral	0.0	208.35676457066984	
30.0	179.19990696891	pulse	0.0	t		54.0	female	white	2.286908077994429	neutral	136	sub-04	1.0	3.0	136_neutral	0.0	209.05674111669305	
30.0	179.4997867408665	fix	1.0		444	54.0	female	white	2.286908077994429	neutral	136	sub-04	1.0	3.0	136_neutral	0.0	209.35662088864956	3.7665490144345313
30.0	179.89989106125813	pulse	1.0	t		54.0	female	white	2.286908077994429	neutral	136	sub-04	1.0	3.0	136_neutral	0.0	209.75672520904118	
30.0	180.5998648906043	pulse	1.0	t		54.0	female	white	2.286908077994429	neutral	136	sub-04	1.0	3.0	136_neutral	0.0	210.45669903838734	
30.0	181.29985954780568	pulse	1.0	t		54.0	female	white	2.286908077994429	neutral	136	sub-04	1.0	3.0	136_neutral	0.0	211.15669369558873	
30.0	181.9998433383007	pulse	1.0	t		54.0	female	white	2.286908077994429	neutral	136	sub-04	1.0	3.0	136_neutral	0.0	211.85667748608375	
30.0	182.69979181199596	pulse	1.0	t		54.0	female	white	2.286908077994429	neutral	136	sub-04	1.0	3.0	136_neutral	0.0	212.556625959779	
31.0	183.26633575530104	face	0.0		145	40.0	male	white	1.868682849184242	smiling	172	sub-04	1.0	3.0	172_smiling	0.0	213.1231699030841	1.2333166609869295
31.0	183.39981605079083	pulse	0.0	t		40.0	male	white	1.868682849184242	smiling	172	sub-04	1.0	3.0	172_smiling	0.0	213.25665019857388	
31.0	184.09977448563495	pulse	0.0	t		40.0	male	white	1.868682849184242	smiling	172	sub-04	1.0	3.0	172_smiling	0.0	213.956608633418	
31.0	184.49965241628797	fix	1.0		444	40.0	male	white	1.868682849184242	smiling	172	sub-04	1.0	3.0	172_smiling	0.0	214.35648656407102	3.7665456940521835
31.0	184.79975887983528	pulse	1.0	t		40.0	male	white	1.868682849184242	smiling	172	sub-04	1.0	3.0	172_smiling	0.0	214.65659302761833	
31.0	185.49974719812508	pulse	1.0	t		40.0	male	white	1.868682849184242	smiling	172	sub-04	1.0	3.0	172_smiling	0.0	215.35658134590813	
31.0	186.19970804779314	pulse	1.0	t		40.0	male	white	1.868682849184242	smiling	172	sub-04	1.0	3.0	172_smiling	0.0	216.05654219557618	
31.0	186.89970602537778	pulse	1.0	t		40.0	male	white	1.868682849184242	smiling	172	sub-04	1.0	3.0	172_smiling	0.0	216.75654017316083	
31.0	187.59968136398948	pulse	1.0	t		40.0	male	white	1.868682849184242	smiling	172	sub-04	1.0	3.0	172_smiling	0.0	217.45651551177252	
32.0	188.26619811034016	face	0.0		145	54.0	female	white	2.286908077994429	smiling	136	sub-04	1.0	3.0	136_smiling	0.0	218.1230322581232	1.233332961047381
32.0	188.2996723989554	pulse	0.0	t		54.0	female	white	2.286908077994429	smiling	136	sub-04	1.0	3.0	136_smiling	0.0	218.15650654673846	
32.0	188.99964954868483	pulse	0.0	t		54.0	female	white	2.286908077994429	smiling	136	sub-04	1.0	3.0	136_smiling	0.0	218.85648369646788	
32.0	189.49953107138754	fix	1.0		443	54.0	female	white	2.286908077994429	smiling	136	sub-04	1.0	3.0	136_smiling	0.0	219.35636521917058	3.7665327143740797
32.0	189.69963786697372	pulse	1.0	t		54.0	female	white	2.286908077994429	smiling	136	sub-04	1.0	3.0	136_smiling	0.0	219.55647201475676	
32.0	190.39960988520215	pulse	1.0	t		54.0	female	white	2.286908077994429	smiling	136	sub-04	1.0	3.0	136_smiling	0.0	220.2564440329852	
32.0	191.0995891479024	pulse	1.0	t		54.0	female	white	2.286908077994429	smiling	136	sub-04	1.0	3.0	136_smiling	0.0	220.95642329568545	
32.0	191.79956629763092	pulse	1.0	t		54.0	female	white	2.286908077994429	smiling	136	sub-04	1.0	3.0	136_smiling	0.0	221.65640044541396	
32.0	192.49954616403738	pulse	1.0	t		54.0	female	white	2.286908077994429	smiling	136	sub-04	1.0	3.0	136_smiling	0.0	222.35638031182043	
32.0	193.19951908782423	pulse	1.0	t		54.0	female	white	2.286908077994429	smiling	136	sub-04	1.0	3.0	136_smiling	0.0	223.05635323560728	
33.0	193.26606378576162	face	0.0		146	47.0	male	east_asian	2.171110226820533	smiling	024	sub-04	1.0	3.0	024_smiling	0.0	223.12289793354466	1.2333302443712455
33.0	193.8995119339088	pulse	0.0	t		47.0	male	east_asian	2.171110226820533	smiling	024	sub-04	1.0	3.0	024_smiling	0.0	223.75634608169185	
33.0	194.49939403013286	fix	1.0		443	47.0	male	east_asian	2.171110226820533	smiling	024	sub-04	1.0	3.0	024_smiling	0.0	224.3562281779159	3.7582519814386615
33.0	194.59956847097237	pulse	1.0	t		47.0	male	east_asian	2.171110226820533	smiling	024	sub-04	1.0	3.0	024_smiling	0.0	224.45640261875542	
33.0	195.29954199846634	pulse	1.0	t		47.0	male	east_asian	2.171110226820533	smiling	024	sub-04	1.0	3.0	024_smiling	0.0	225.15637614624939	
33.0	195.99945394795031	pulse	1.0	t		47.0	male	east_asian	2.171110226820533	smiling	024	sub-04	1.0	3.0	024_smiling	0.0	225.85628809573336	
33.0	196.6994350217683	pulse	1.0	t		47.0	male	east_asian	2.171110226820533	smiling	024	sub-04	1.0	3.0	024_smiling	0.0	226.55626916955134	
33.0	197.39942001967484	pulse	1.0	t		47.0	male	east_asian	2.171110226820533	smiling	024	sub-04	1.0	3.0	024_smiling	0.0	227.25625416745788	
33.0	198.09940139534592	pulse	1.0	t		47.0	male	east_asian	2.171110226820533	smiling	024	sub-04	1.0	3.0	024_smiling	0.0	227.95623554312897	
34.0	198.25764601157152	face	0.0		147	19.0	female	white	4.298846000795861	neutral	100	sub-04	1.0	3.0	100_neutral	0.0	228.11448015935457	1.2415967902161356
34.0	198.7993891099295	pulse	0.0	t		19.0	female	white	4.298846000795861	neutral	100	sub-04	1.0	3.0	100_neutral	0.0	228.65622325771255	
34.0	199.49924280178766	fix	1.0		444	19.0	female	white	4.298846000795861	neutral	100	sub-04	1.0	3.0	100_neutral	0.0	229.3560769495707	3.7665511274053642
34.0	199.5068721359812	pulse	1.0	t		19.0	female	white	4.298846000795861	neutral	100	sub-04	1.0	3.0	100_neutral	0.0	229.36370628376426	
34.0	200.19934340938744	pulse	1.0	t		19.0	female	white	4.298846000795861	neutral	100	sub-04	1.0	3.0	100_neutral	0.0	230.05617755717049	
34.0	200.8993305202648	pulse	1.0	t		19.0	female	white	4.298846000795861	neutral	100	sub-04	1.0	3.0	100_neutral	0.0	230.75616466804786	
34.0	201.59930797184643	pulse	1.0	t		19.0	female	white	4.298846000795861	neutral	100	sub-04	1.0	3.0	100_neutral	0.0	231.45614211962948	
34.0	202.29927878266335	pulse	1.0	t		19.0	female	white	4.298846000795861	neutral	100	sub-04	1.0	3.0	100_neutral	0.0	232.1561129304464	
34.0	202.99925925277512	pulse	1.0	t		19.0	female	white	4.298846000795861	neutral	100	sub-04	1.0	3.0	100_neutral	0.0	232.85609340055817	
35.0	203.26579392919302	face	0.0		146	24.0	female	east_asian	2.9076800636689217	smiling	034	sub-04	1.0	3.0	034_smiling	0.0	233.12262807697607	1.2416505200471875
35.0	203.69924545809317	pulse	0.0	t		24.0	female	east_asian	2.9076800636689217	smiling	034	sub-04	1.0	3.0	034_smiling	0.0	233.55607960587622	
35.0	204.39922773932358	pulse	0.0	t		24.0	female	east_asian	2.9076800636689217	smiling	034	sub-04	1.0	3.0	034_smiling	0.0	234.25606188710663	
35.0	204.5074444492402	fix	1.0		444	24.0	female	east_asian	2.9076800636689217	smiling	034	sub-04	1.0	3.0	034_smiling	0.0	234.36427859702326	3.7665644089374837
35.0	205.09920820943535	pulse	1.0	t		24.0	female	east_asian	2.9076800636689217	smiling	034	sub-04	1.0	3.0	034_smiling	0.0	234.9560423572184	
35.0	205.79920165922522	pulse	1.0	t		24.0	female	east_asian	2.9076800636689217	smiling	034	sub-04	1.0	3.0	034_smiling	0.0	235.65603580700827	
35.0	206.49916190518707	pulse	1.0	t		24.0	female	east_asian	2.9076800636689217	smiling	034	sub-04	1.0	3.0	034_smiling	0.0	236.3559960529701	
35.0	207.1991580716549	pulse	1.0	t		24.0	female	east_asian	2.9076800636689217	smiling	034	sub-04	1.0	3.0	034_smiling	0.0	237.05599221943794	
35.0	207.89913673064802	pulse	1.0	t		24.0	female	east_asian	2.9076800636689217	smiling	034	sub-04	1.0	3.0	034_smiling	0.0	237.75597087843107	
36.0	208.2740088581777	face	0.0		145	26.0	male	white	2.7966573816155993	neutral	117	sub-04	1.0	3.0	117_neutral	0.0	238.13084300596074	1.2333030776026135
36.0	208.59911629520138	pulse	0.0	t		26.0	male	white	2.7966573816155993	neutral	117	sub-04	1.0	3.0	117_neutral	0.0	238.45595044298443	
36.0	209.29909767087247	pulse	0.0	t		26.0	male	white	2.7966573816155993	neutral	117	sub-04	1.0	3.0	117_neutral	0.0	239.15593181865552	
36.0	209.5073119357803	fix	1.0		444	26.0	male	white	2.7966573816155993	neutral	117	sub-04	1.0	3.0	117_neutral	0.0	239.36414608356336	3.7665499199938495
36.0	209.9990760280134	pulse	1.0	t		26.0	male	white	2.7966573816155993	neutral	117	sub-04	1.0	3.0	117_neutral	0.0	239.85591017579645	
36.0	210.69905498886055	pulse	1.0	t		26.0	male	white	2.7966573816155993	neutral	117	sub-04	1.0	3.0	117_neutral	0.0	240.5558891366436	
36.0	211.39903515711922	pulse	1.0	t		26.0	male	white	2.7966573816155993	neutral	117	sub-04	1.0	3.0	117_neutral	0.0	241.25586930490226	
36.0	212.09901049573	pulse	1.0	t		26.0	male	white	2.7966573816155993	neutral	117	sub-04	1.0	3.0	117_neutral	0.0	241.95584464351305	
36.0	212.79899458807813	pulse	1.0	t		26.0	male	white	2.7966573816155993	neutral	117	sub-04	1.0	3.0	117_neutral	0.0	242.65582873586118	
37.0	213.27386185577416	face	0.0		145	31.0	female	west_asian	2.364902506963788	neutral	006	sub-04	1.0	3.0	006_neutral	0.0	243.1306960035572	1.2333115294859454
37.0	213.4990254676386	pulse	0.0	t		31.0	female	west_asian	2.364902506963788	neutral	006	sub-04	1.0	3.0	006_neutral	0.0	243.35585961542165	
37.0	214.19895975424333	pulse	0.0	t		31.0	female	west_asian	2.364902506963788	neutral	006	sub-04	1.0	3.0	006_neutral	0.0	244.05579390202638	
37.0	214.5071733852601	fix	1.0		444	31.0	female	west_asian	2.364902506963788	neutral	006	sub-04	1.0	3.0	006_neutral	0.0	244.36400753304315	3.7665475051699104
37.0	214.89894173361972	pulse	1.0	t		31.0	female	west_asian	2.364902506963788	neutral	006	sub-04	1.0	3.0	006_neutral	0.0	244.75577588140277	
37.0	215.59892371299702	pulse	1.0	t		31.0	female	west_asian	2.364902506963788	neutral	006	sub-04	1.0	3.0	006_neutral	0.0	245.45575786078007	
37.0	216.29890056087334	pulse	1.0	t		31.0	female	west_asian	2.364902506963788	neutral	006	sub-04	1.0	3.0	006_neutral	0.0	246.15573470865638	
37.0	216.99889491622253	pulse	1.0	t		31.0	female	west_asian	2.364902506963788	neutral	006	sub-04	1.0	3.0	006_neutral	0.0	246.85572906400557	
37.0	217.69887991412907	pulse	1.0	t		31.0	female	west_asian	2.364902506963788	neutral	006	sub-04	1.0	3.0	006_neutral	0.0	247.5557140619121	
38.0	218.27372089043	face	0.0		145	19.0	female	white	4.298846000795861	smiling	100	sub-04	1.0	3.0	100_smiling	1.0	248.13055503821306	1.2333399036670016
38.0	218.39885404532833	pulse	0.0	t		19.0	female	white	4.298846000795861	smiling	100	sub-04	1.0	3.0	100_smiling	1.0	248.25568819311138	
38.0	219.09882063020268	pulse	0.0	t		19.0	female	white	4.298846000795861	smiling	100	sub-04	1.0	3.0	100_smiling	1.0	248.95565477798573	
38.0	219.50706079409701	fix	1.0		236	19.0	female	white	4.298846000795861	smiling	100	sub-04	1.0	3.0	100_smiling	1.0	249.36389494188006	1.9999236311941786
38.0	219.79881498555187	pulse	1.0	t		19.0	female	white	4.298846000795861	smiling	100	sub-04	1.0	3.0	100_smiling	1.0	249.65564913333492	
38.0	220.4987936445459	pulse	1.0	t		19.0	female	white	4.298846000795861	smiling	100	sub-04	1.0	3.0	100_smiling	1.0	250.35562779232896	
38.0	221.19876475721503	pulse	1.0	t		19.0	female	white	4.298846000795861	smiling	100	sub-04	1.0	3.0	100_smiling	1.0	251.05559890499808	
38.0	221.5069844252912	rating	2.0		235	19.0	female	white	4.298846000795861	smiling	100	sub-04	1.0	3.0	100_smiling	1.0	251.36381857307424	1.9999447609043273
38.0	221.89877209224233	pulse	2.0	t		19.0	female	white	4.298846000795861	smiling	100	sub-04	1.0	3.0	100_smiling	1.0	251.75560624002537	
38.0	222.15708278408692	response	2.0	g		19.0	female	white	4.298846000795861	smiling	100	sub-04	1.0	3.0	100_smiling	1.0	252.01391693186997	
38.0	222.59872539558546	pulse	2.0	t		19.0	female	white	4.298846000795861	smiling	100	sub-04	1.0	3.0	100_smiling	1.0	252.4555595433685	
38.0	223.29871250646374	pulse	2.0	t		19.0	female	white	4.298846000795861	smiling	100	sub-04	1.0	3.0	100_smiling	1.0	253.1555466542468	
38.0	223.50692918619552	fix	3.0		444	19.0	female	white	4.298846000795861	smiling	100	sub-04	1.0	3.0	100_smiling	1.0	253.36376333397857	3.7665653144958924
38.0	223.9987116914608	pulse	3.0	t		19.0	female	white	4.298846000795861	smiling	100	sub-04	1.0	3.0	100_smiling	1.0	253.85554583924386	
38.0	224.69867676706963	pulse	3.0	t		19.0	female	white	4.298846000795861	smiling	100	sub-04	1.0	3.0	100_smiling	1.0	254.55551091485268	
38.0	225.39866689647715	pulse	3.0	t		19.0	female	white	4.298846000795861	smiling	100	sub-04	1.0	3.0	100_smiling	1.0	255.2555010442602	
38.0	226.09863197208688	pulse	3.0	t		19.0	female	white	4.298846000795861	smiling	100	sub-04	1.0	3.0	100_smiling	1.0	255.95546611986993	
38.0	226.79862451631834	pulse	3.0	t		19.0	female	white	4.298846000795861	smiling	100	sub-04	1.0	3.0	100_smiling	1.0	256.6554586641014	
39.0	227.2734945006914	face	0.0		145	19.0	male	white	3.2522881018702745	smiling	018	sub-04	1.0	3.0	018_smiling	0.0	257.13032864847446	1.2333015683370832
39.0	227.49861887166753	pulse	0.0	t		19.0	male	white	3.2522881018702745	smiling	018	sub-04	1.0	3.0	018_smiling	0.0	257.3554530194506	
39.0	228.19858334357104	pulse	0.0	t		19.0	male	white	3.2522881018702745	smiling	018	sub-04	1.0	3.0	018_smiling	0.0	258.0554174913541	
39.0	228.5067960690285	fix	1.0		444	19.0	male	white	3.2522881018702745	smiling	018	sub-04	1.0	3.0	018_smiling	0.0	258.36363021681154	3.7499129908774194
39.0	228.8986063749535	pulse	1.0	t		19.0	male	white	3.2522881018702745	smiling	018	sub-04	1.0	3.0	018_smiling	0.0	258.75544052273654	
39.0	229.59855515050276	pulse	1.0	t		19.0	male	white	3.2522881018702745	smiling	018	sub-04	1.0	3.0	018_smiling	0.0	259.4553892982858	
39.0	230.29852264093552	pulse	1.0	t		19.0	male	white	3.2522881018702745	smiling	018	sub-04	1.0	3.0	018_smiling	0.0	260.15535678871856	
39.0	230.99849858325342	pulse	1.0	t		19.0	male	white	3.2522881018702745	smiling	018	sub-04	1.0	3.0	018_smiling	0.0	260.85533273103647	
39.0	231.69848297745375	pulse	1.0	t		19.0	male	white	3.2522881018702745	smiling	018	sub-04	1.0	3.0	018_smiling	0.0	261.5553171252368	
40.0	232.25670905990592	fix	0.0		720												262.11354320768896	5.999819793768438
40.0	232.39847250315506	pulse	0.0	t													262.2553066509381	
40.0	233.09845297326683	pulse	0.0	t													262.9552871210499	
40.0	233.79842197296512	pulse	0.0	t													263.65525612074816	
40.0	234.49843836358286	pulse	0.0	t													264.3552725113659	
40.0	235.19840223178016	pulse	0.0	t													265.0552363795632	
40.0	235.89838330559814	pulse	0.0	t													265.7552174533812	
40.0	236.5983622664453	pulse	0.0	t													266.45519641422834	
40.0	237.29833428467373	pulse	0.0	t													267.1551684324568	
40.0	237.99831233996156	pulse	0.0	t													267.8551464877446	
