trial_nr	onset	event_type	phase	response	nr_frames	face_age	face_sex	face_eth	attractiveness	expression	face_id	sub_id	ses	run	trial_type	catch	onset_abs	duration
-1.0	0.06058444616201086	fix	0.0		713												60.36735589577711	5.95785147666038
-1.0	2.0020172780182293	pulse	0.0	t													62.30878872763333	
-1.0	4.001952983506726	pulse	0.0	t													64.30872443312182	
0.0	6.018435922822391	face	0.0		145	31.0	female	white	2.1822522881018704	neutral	102	sub-01	1.0	2.0	102_neutral	0.0	66.32520737243749	1.233289162300025
0.0	6.008600673734236	pulse	0.0	t		31.0	female	white	2.1822522881018704	neutral	102	sub-01	1.0	2.0	102_neutral	0.0	66.31537212334933	
0.0	7.251725085122416	fix	1.0		447	31.0	female	white	2.1822522881018704	neutral	102	sub-01	1.0	2.0	102_neutral	0.0	67.55849653473751	3.7582164159280183
0.0	8.001850051918609	pulse	1.0	t		31.0	female	white	2.1822522881018704	neutral	102	sub-01	1.0	2.0	102_neutral	0.0	68.30862150153371	
0.0	10.001768249981978	pulse	1.0	t		31.0	female	white	2.1822522881018704	neutral	102	sub-01	1.0	2.0	102_neutral	0.0	70.30853969959708	
1.0	11.009941501050434	face	0.0		147	25.0	female	west_asian	2.6756864305610826	neutral	064	sub-01	1.0	2.0	064_neutral	0.0	71.31671295066553	1.24166737098858
1.0	12.001719651783333	pulse	0.0	t		25.0	female	west_asian	2.6756864305610826	neutral	064	sub-01	1.0	2.0	064_neutral	0.0	72.30849110139843	
1.0	12.251608872039014	fix	1.0		449	25.0	female	west_asian	2.6756864305610826	neutral	064	sub-01	1.0	2.0	064_neutral	0.0	72.55838032165411	3.7582490159620647
1.0	14.00165082948979	pulse	1.0	t		25.0	female	west_asian	2.6756864305610826	neutral	064	sub-01	1.0	2.0	064_neutral	0.0	74.30842227910489	
2.0	16.00985788800108	face	0.0		148	19.0	female	white	4.298846000795861	smiling	100	sub-01	1.0	2.0	100_smiling	0.0	76.31662933761618	1.2415931153554993
2.0	16.004076815338976	pulse	0.0	t		19.0	female	white	4.298846000795861	smiling	100	sub-01	1.0	2.0	100_smiling	0.0	76.31084826495407	
2.0	17.25145100335658	fix	1.0		447	19.0	female	white	4.298846000795861	smiling	100	sub-01	1.0	2.0	100_smiling	0.0	77.55822245297168	3.7582079640678785
2.0	18.001541559006	pulse	1.0	t		19.0	female	white	4.298846000795861	smiling	100	sub-01	1.0	2.0	100_smiling	0.0	78.3083130086211	
2.0	20.001485716355546	pulse	1.0	t		19.0	female	white	4.298846000795861	smiling	100	sub-01	1.0	2.0	100_smiling	0.0	80.30825716597064	
3.0	21.009658967424457	face	0.0		147	24.0	female	white	3.5503382411460405	smiling	002	sub-01	1.0	2.0	002_smiling	0.0	81.31643041703956	1.2416453357800492
3.0	22.001421421844498	pulse	0.0	t		24.0	female	white	3.5503382411460405	smiling	002	sub-01	1.0	2.0	002_smiling	0.0	82.3081928714596	
3.0	22.251304303204506	fix	1.0		449	24.0	female	white	3.5503382411460405	smiling	002	sub-01	1.0	2.0	002_smiling	0.0	82.5580757528196	3.766565344956689
3.0	24.001371012533127	pulse	1.0	t		24.0	female	white	3.5503382411460405	smiling	002	sub-01	1.0	2.0	002_smiling	0.0	84.30814246214823	
4.0	26.017869648161195	face	0.0		147	34.0	male	white	2.329486669319538	smiling	131	sub-01	1.0	2.0	131_smiling	1.0	86.3246410977763	1.2332719567266395
4.0	26.004135978363593	pulse	0.0	t		34.0	male	white	2.329486669319538	smiling	131	sub-01	1.0	2.0	131_smiling	1.0	86.31090742797869	
4.0	27.251141604887835	fix	1.0		238	34.0	male	white	2.329486669319538	smiling	131	sub-01	1.0	2.0	131_smiling	1.0	87.55791305450293	2.008310593803344
4.0	28.001256912414647	pulse	1.0	t		34.0	male	white	2.329486669319538	smiling	131	sub-01	1.0	2.0	131_smiling	1.0	88.30802836202975	
4.0	29.25945219869118	rating	2.0		236	34.0	male	white	2.329486669319538	smiling	131	sub-01	1.0	2.0	131_smiling	1.0	89.56622364830628	1.9915620245828904
4.0	29.967863309265795	response	2.0	e		34.0	male	white	2.329486669319538	smiling	131	sub-01	1.0	2.0	131_smiling	1.0	90.2746347588809	
4.0	30.001155490087513	pulse	2.0	t		34.0	male	white	2.329486669319538	smiling	131	sub-01	1.0	2.0	131_smiling	1.0	90.30792693970261	
4.0	31.25101422327407	fix	3.0		447	34.0	male	white	2.329486669319538	smiling	131	sub-01	1.0	2.0	131_smiling	1.0	91.55778567288917	3.7665650431044924
4.0	32.00112741783596	pulse	3.0	t		34.0	male	white	2.329486669319538	smiling	131	sub-01	1.0	2.0	131_smiling	1.0	92.30789886745106	
4.0	34.00105467146432	pulse	3.0	t		34.0	male	white	2.329486669319538	smiling	131	sub-01	1.0	2.0	131_smiling	1.0	94.30782612107942	
5.0	35.01757926637856	face	0.0		146	29.0	male	white	3.631516116195782	neutral	041	sub-01	1.0	2.0	041_neutral	0.0	95.32435071599366	1.233355267924253
5.0	36.00099490473576	pulse	0.0	t		29.0	male	white	3.631516116195782	neutral	041	sub-01	1.0	2.0	041_neutral	0.0	96.30776635435086	
5.0	36.250934534302814	fix	1.0		448	29.0	male	white	3.631516116195782	neutral	041	sub-01	1.0	2.0	041_neutral	0.0	96.55770598391791	3.7664907874718665
5.0	38.00094630653712	pulse	1.0	t		29.0	male	white	3.631516116195782	neutral	041	sub-01	1.0	2.0	041_neutral	0.0	98.30771775615221	
6.0	40.01742532177468	face	0.0		147	23.0	male	black	2.7584560286510147	neutral	096	sub-01	1.0	2.0	096_neutral	0.0	100.32419677138978	1.2332861437780593
6.0	40.00377767984355	pulse	0.0	t		23.0	male	black	2.7584560286510147	neutral	096	sub-01	1.0	2.0	096_neutral	0.0	100.31054912945865	
6.0	41.25071146555274	fix	1.0		447	23.0	male	black	2.7584560286510147	neutral	096	sub-01	1.0	2.0	096_neutral	0.0	101.55748291516784	3.758275880804831
6.0	42.000818623071154	pulse	1.0	t		23.0	male	black	2.7584560286510147	neutral	096	sub-01	1.0	2.0	096_neutral	0.0	102.30759007268625	
6.0	44.000776061915985	pulse	1.0	t		23.0	male	black	2.7584560286510147	neutral	096	sub-01	1.0	2.0	096_neutral	0.0	104.30754751153108	
7.0	45.00898734635757	face	0.0		147	31.0	male	west_asian	1.9538400318344609	smiling	070	sub-01	1.0	2.0	070_smiling	0.0	105.31575879597267	1.2416039820336664
7.0	46.00071237110933	pulse	0.0	t		31.0	male	west_asian	1.9538400318344609	smiling	070	sub-01	1.0	2.0	070_smiling	0.0	106.30748382072443	
7.0	46.25059132839124	fix	1.0		449	31.0	male	west_asian	1.9538400318344609	smiling	070	sub-01	1.0	2.0	070_smiling	0.0	106.55736277800634	3.766521274540537
7.0	48.00064173770261	pulse	1.0	t		31.0	male	west_asian	1.9538400318344609	smiling	070	sub-01	1.0	2.0	070_smiling	0.0	108.3074131873177	
8.0	50.017112602931775	face	0.0		147	35.0	female	white	2.1440509351372863	neutral	020	sub-01	1.0	2.0	020_neutral	0.0	110.32388405254687	1.2333139141774154
8.0	50.00355008331144	pulse	0.0	t		35.0	female	white	2.1440509351372863	neutral	020	sub-01	1.0	2.0	020_neutral	0.0	110.31032153292654	
8.0	51.25042651710919	fix	1.0		447	35.0	female	white	2.1440509351372863	neutral	020	sub-01	1.0	2.0	020_neutral	0.0	111.55719796672429	3.758201927023947
8.0	52.00055148390538	pulse	1.0	t		35.0	female	white	2.1440509351372863	neutral	020	sub-01	1.0	2.0	020_neutral	0.0	112.30732293352048	
8.0	54.00047451160344	pulse	1.0	t		35.0	female	white	2.1440509351372863	neutral	020	sub-01	1.0	2.0	020_neutral	0.0	114.30724596121854	
9.0	55.00862844413314	face	0.0		147	30.0	male	white	2.7190608834062875	neutral	004	sub-01	1.0	2.0	004_neutral	0.0	115.31539989374824	1.241651070971784
9.0	56.000415046727085	pulse	0.0	t		30.0	male	white	2.7190608834062875	neutral	004	sub-01	1.0	2.0	004_neutral	0.0	116.30718649634218	
9.0	56.25027951510492	fix	1.0		448	30.0	male	white	2.7190608834062875	neutral	004	sub-01	1.0	2.0	004_neutral	0.0	116.55705096472002	3.7665541764263253
9.0	58.000347431841874	pulse	1.0	t		30.0	male	white	2.7190608834062875	neutral	004	sub-01	1.0	2.0	004_neutral	0.0	118.30711888145697	
10.0	60.01683369153125	face	0.0		147	48.0	male	white	1.8929566255471548	smiling	021	sub-01	1.0	2.0	021_smiling	0.0	120.32360514114634	1.2333021419431134
10.0	60.002956038250886	pulse	0.0	t		48.0	male	white	1.8929566255471548	smiling	021	sub-01	1.0	2.0	021_smiling	0.0	120.30972748786598	
10.0	61.25013583347436	fix	1.0		447	48.0	male	white	1.8929566255471548	smiling	021	sub-01	1.0	2.0	021_smiling	0.0	121.55690728308946	3.7583437975417837
10.0	62.0004213856223	pulse	1.0	t		48.0	male	white	1.8929566255471548	smiling	021	sub-01	1.0	2.0	021_smiling	0.0	122.3071928352374	
10.0	64.00017869648173	pulse	1.0	t		48.0	male	white	1.8929566255471548	smiling	021	sub-01	1.0	2.0	021_smiling	0.0	124.30695014609682	
11.0	65.00847963101614	face	0.0		147	26.0	male	west_asian	2.2081177875049742	smiling	142	sub-01	1.0	2.0	142_smiling	0.0	125.31525108063124	1.2415194634277213
11.0	66.00010655381448	pulse	0.0	t		26.0	male	west_asian	2.2081177875049742	smiling	142	sub-01	1.0	2.0	142_smiling	0.0	126.30687800342957	
11.0	66.24999909444387	fix	1.0		449	26.0	male	west_asian	2.2081177875049742	smiling	142	sub-01	1.0	2.0	142_smiling	0.0	126.55677054405896	3.766526406026969
11.0	68.00004708893766	pulse	1.0	t		26.0	male	west_asian	2.2081177875049742	smiling	142	sub-01	1.0	2.0	142_smiling	0.0	128.30681853855276	
12.0	70.01652550047083	face	0.0		147	30.0	male	white	2.7190608834062875	smiling	004	sub-01	1.0	2.0	004_smiling	1.0	130.32329695008593	1.2333232715945996
12.0	70.00263939532988	pulse	0.0	t		30.0	male	white	2.7190608834062875	smiling	004	sub-01	1.0	2.0	004_smiling	1.0	130.30941084494498	
12.0	71.24984877206543	fix	1.0		238	30.0	male	white	2.7190608834062875	smiling	004	sub-01	1.0	2.0	004_smiling	1.0	131.55662022168053	1.9999420443846248
12.0	71.99993872401046	pulse	1.0	t		30.0	male	white	2.7190608834062875	smiling	004	sub-01	1.0	2.0	004_smiling	1.0	132.30671017362556	
12.0	73.24979081645006	rating	2.0		238	30.0	male	white	2.7190608834062875	smiling	004	sub-01	1.0	2.0	004_smiling	1.0	133.55656226606516	1.9999076332373988
12.0	73.99987895728191	pulse	2.0	t		30.0	male	white	2.7190608834062875	smiling	004	sub-01	1.0	2.0	004_smiling	1.0	134.306650406897	
12.0	75.24969844968746	fix	3.0		447	30.0	male	white	2.7190608834062875	smiling	004	sub-01	1.0	2.0	004_smiling	1.0	135.55646989930256	3.75835919200199
12.0	75.99983277390083	pulse	3.0	t		30.0	male	white	2.7190608834062875	smiling	004	sub-01	1.0	2.0	004_smiling	1.0	136.30660422351593	
12.0	77.99975338678132	pulse	3.0	t		30.0	male	white	2.7190608834062875	smiling	004	sub-01	1.0	2.0	004_smiling	1.0	138.30652483639642	
13.0	79.00805764168945	face	0.0		147	25.0	male	white	2.263430163151612	smiling	132	sub-01	1.0	2.0	132_smiling	1.0	139.31482909130455	1.2415134263842447
13.0	79.99969543116595	pulse	0.0	t		25.0	male	white	2.263430163151612	smiling	132	sub-01	1.0	2.0	132_smiling	1.0	140.30646688078104	
13.0	80.24957106807369	fix	1.0		239	25.0	male	white	2.263430163151612	smiling	132	sub-01	1.0	2.0	132_smiling	1.0	140.5563425176888	1.9999420443846248
13.0	81.99963324961982	pulse	1.0	t		25.0	male	white	2.263430163151612	smiling	132	sub-01	1.0	2.0	132_smiling	1.0	142.30640469923492	
13.0	82.24951311245832	rating	2.0		239	25.0	male	white	2.263430163151612	smiling	132	sub-01	1.0	2.0	132_smiling	1.0	142.55628456207342	1.9999351017845584
13.0	83.99957559585619	pulse	2.0	t		25.0	male	white	2.263430163151612	smiling	132	sub-01	1.0	2.0	132_smiling	1.0	144.30634704547128	
13.0	84.24944821424288	fix	3.0		449	25.0	male	white	2.263430163151612	smiling	132	sub-01	1.0	2.0	132_smiling	1.0	144.55621966385797	3.766555081982915
13.0	85.99952760136193	pulse	3.0	t		25.0	male	white	2.263430163151612	smiling	132	sub-01	1.0	2.0	132_smiling	1.0	146.30629905097703	
14.0	88.01600329622579	face	0.0		147	40.0	male	black	2.408674890569041	neutral	061	sub-01	1.0	2.0	061_neutral	0.0	148.3227747458409	1.2333048586124278
14.0	88.00222766897696	pulse	0.0	t		40.0	male	black	2.408674890569041	neutral	061	sub-01	1.0	2.0	061_neutral	0.0	148.30899911859206	
14.0	89.24930815483822	fix	1.0		447	40.0	male	black	2.408674890569041	neutral	061	sub-01	1.0	2.0	061_neutral	0.0	149.55607960445332	3.7665511579048143
14.0	89.99940293641794	pulse	1.0	t		40.0	male	black	2.408674890569041	neutral	061	sub-01	1.0	2.0	061_neutral	0.0	150.30617438603304	
14.0	91.99934045302007	pulse	1.0	t		40.0	male	black	2.408674890569041	neutral	061	sub-01	1.0	2.0	061_neutral	0.0	152.30611190263517	
15.0	93.01585931274303	face	0.0		146	21.0	female	white	4.060485475527258	neutral	134	sub-01	1.0	2.0	134_neutral	0.0	153.32263076235813	1.2332948974913052
15.0	93.99928249740424	pulse	0.0	t		21.0	female	white	4.060485475527258	neutral	134	sub-01	1.0	2.0	134_neutral	0.0	154.30605394701934	
15.0	94.24915421023434	fix	1.0		450	21.0	female	white	4.060485475527258	neutral	134	sub-01	1.0	2.0	134_neutral	0.0	154.55592565984944	3.774890427664104
15.0	95.9992209195625	pulse	1.0	t		21.0	female	white	4.060485475527258	neutral	134	sub-01	1.0	2.0	134_neutral	0.0	156.3059923691776	
15.0	97.99916266209493	pulse	1.0	t		21.0	female	white	4.060485475527258	neutral	134	sub-01	1.0	2.0	134_neutral	0.0	158.30593411171003	
16.0	98.02404463789844	face	0.0		147	25.0	female	west_asian	2.6756864305610826	smiling	064	sub-01	1.0	2.0	064_smiling	0.0	158.33081608751354	1.2333012363865237
16.0	99.25734587428497	fix	1.0		447	25.0	female	west_asian	2.6756864305610826	smiling	064	sub-01	1.0	2.0	064_smiling	0.0	159.56411732390006	3.766552365313146
16.0	99.9991128564875	pulse	1.0	t		25.0	female	west_asian	2.6756864305610826	smiling	064	sub-01	1.0	2.0	064_smiling	0.0	160.3058843061026	
16.0	101.99904463789835	pulse	1.0	t		25.0	female	west_asian	2.6756864305610826	smiling	064	sub-01	1.0	2.0	064_smiling	0.0	162.30581608751345	
17.0	103.02389823959811	face	0.0		146	23.0	female	white	3.7552725825706332	smiling	122	sub-01	1.0	2.0	122_smiling	0.0	163.3306696892132	1.233311197508101
17.0	103.99898517302199	pulse	0.0	t		23.0	female	white	3.7552725825706332	smiling	122	sub-01	1.0	2.0	122_smiling	0.0	164.3057566226371	
17.0	104.25720943710621	fix	1.0		449	23.0	female	white	3.7552725825706332	smiling	122	sub-01	1.0	2.0	122_smiling	0.0	164.5639808867213	3.7665414986354335
17.0	105.99893929149266	pulse	1.0	t		23.0	female	white	3.7552725825706332	smiling	122	sub-01	1.0	2.0	122_smiling	0.0	166.30571074110776	
17.0	107.9988683562342	pulse	1.0	t		23.0	female	white	3.7552725825706332	smiling	122	sub-01	1.0	2.0	122_smiling	0.0	168.3056398058493	
18.0	108.02375093574165	face	0.0		147	54.0	female	white	2.286908077994429	smiling	136	sub-01	1.0	2.0	136_smiling	0.0	168.33052238535674	1.2333084808387866
18.0	109.25705941658043	fix	1.0		447	54.0	female	white	2.286908077994429	smiling	136	sub-01	1.0	2.0	136_smiling	0.0	169.56383086619553	3.758302443794946
18.0	109.99880919320958	pulse	1.0	t		54.0	female	white	2.286908077994429	smiling	136	sub-01	1.0	2.0	136_smiling	0.0	170.30558064282468	
18.0	111.99874520055073	pulse	1.0	t		54.0	female	white	2.286908077994429	smiling	136	sub-01	1.0	2.0	136_smiling	0.0	172.30551665016583	
19.0	113.01536186037538	face	0.0		147	30.0	female	black	2.7345801830481498	smiling	062	sub-01	1.0	2.0	062_smiling	0.0	173.32213330999048	1.2415354615923206
19.0	113.99868935790028	pulse	0.0	t		30.0	female	black	2.7345801830481498	smiling	062	sub-01	1.0	2.0	062_smiling	0.0	174.30546080751537	
19.0	114.2568973219677	fix	1.0		449	30.0	female	black	2.7345801830481498	smiling	062	sub-01	1.0	2.0	062_smiling	0.0	174.5636687715828	3.766557194948291
19.0	115.99863200598884	pulse	1.0	t		30.0	female	black	2.7345801830481498	smiling	062	sub-01	1.0	2.0	062_smiling	0.0	176.30540345560394	
19.0	117.99858250223406	pulse	1.0	t		30.0	female	black	2.7345801830481498	smiling	062	sub-01	1.0	2.0	062_smiling	0.0	178.30535395184916	
20.0	118.02345451691599	face	0.0		147	37.0	male	west_asian	3.1858336649422996	smiling	037	sub-01	1.0	2.0	037_smiling	0.0	178.3302259665311	1.2333102919515113
20.0	119.2567648088675	fix	1.0		447	37.0	male	west_asian	3.1858336649422996	smiling	037	sub-01	1.0	2.0	037_smiling	0.0	179.5635362584826	3.7582828234044428
20.0	119.99851096327075	pulse	1.0	t		37.0	male	west_asian	3.1858336649422996	smiling	037	sub-01	1.0	2.0	037_smiling	0.0	180.30528241288584	
20.0	121.99848409842798	pulse	1.0	t		37.0	male	west_asian	3.1858336649422996	smiling	037	sub-01	1.0	2.0	037_smiling	0.0	182.30525554804308	
21.0	123.01504763227194	face	0.0		147	25.0	male	west_asian	2.054118583366494	neutral	115	sub-01	1.0	2.0	115_neutral	0.0	183.32181908188704	1.2415559875394138
21.0	123.99839475018734	pulse	0.0	t		25.0	male	west_asian	2.054118583366494	neutral	115	sub-01	1.0	2.0	115_neutral	0.0	184.30516619980244	
21.0	124.25660361981136	fix	1.0		449	25.0	male	west_asian	2.054118583366494	neutral	115	sub-01	1.0	2.0	115_neutral	0.0	184.56337506942646	3.766555685687308
21.0	125.99833196493682	pulse	1.0	t		25.0	male	west_asian	2.054118583366494	neutral	115	sub-01	1.0	2.0	115_neutral	0.0	186.30510341455192	
21.0	127.99827340561706	pulse	1.0	t		25.0	male	west_asian	2.054118583366494	neutral	115	sub-01	1.0	2.0	115_neutral	0.0	188.30504485523215	
22.0	128.02315930549867	face	0.0		147	30.0	female	black	2.7345801830481498	neutral	062	sub-01	1.0	2.0	062_neutral	0.0	188.32993075511376	1.2332930863781257
22.0	129.2564523918768	fix	1.0		447	30.0	female	black	2.7345801830481498	neutral	062	sub-01	1.0	2.0	062_neutral	0.0	189.5632238414919	3.766555685687308
22.0	129.99836909275336	pulse	1.0	t		30.0	female	black	2.7345801830481498	neutral	062	sub-01	1.0	2.0	062_neutral	0.0	190.30514054236846	
22.0	131.99816443698546	pulse	1.0	t		30.0	female	black	2.7345801830481498	neutral	062	sub-01	1.0	2.0	062_neutral	0.0	192.30493588660056	
23.0	133.0230080775641	face	0.0		146	21.0	male	black	2.969757262236371	neutral	137	sub-01	1.0	2.0	137_neutral	0.0	193.3297795271792	1.2332991234211477
23.0	133.9981007461788	pulse	0.0	t		21.0	male	black	2.969757262236371	neutral	137	sub-01	1.0	2.0	137_neutral	0.0	194.3048721957939	
23.0	134.25630720098525	fix	1.0		1195	21.0	male	black	2.969757262236371	neutral	137	sub-01	1.0	2.0	137_neutral	0.0	194.56307865060035	10.016349822511074
23.0	135.99803494240678	pulse	1.0	t		21.0	male	black	2.969757262236371	neutral	137	sub-01	1.0	2.0	137_neutral	0.0	196.30480639202187	
23.0	137.99798694791252	pulse	1.0	t		21.0	male	black	2.969757262236371	neutral	137	sub-01	1.0	2.0	137_neutral	0.0	198.30475839752762	
23.0	139.99792838859275	pulse	1.0	t		21.0	male	black	2.969757262236371	neutral	137	sub-01	1.0	2.0	137_neutral	0.0	200.30469983820785	
23.0	141.99785956629876	pulse	1.0	t		21.0	male	black	2.969757262236371	neutral	137	sub-01	1.0	2.0	137_neutral	0.0	202.30463101591386	
23.0	143.99782334403926	pulse	1.0	t		21.0	male	black	2.969757262236371	neutral	137	sub-01	1.0	2.0	137_neutral	0.0	204.30459479365436	
24.0	144.27265702349632	face	0.0		147	26.0	female	white	4.854755272582572	smiling	027	sub-01	1.0	2.0	027_smiling	0.0	204.57942847311142	1.2333066697256072
24.0	145.50596369322193	fix	1.0		447	26.0	female	white	4.854755272582572	smiling	027	sub-01	1.0	2.0	027_smiling	0.0	205.81273514283703	3.7582653159788606
24.0	145.99774908840664	pulse	1.0	t		26.0	female	white	4.854755272582572	smiling	027	sub-01	1.0	2.0	027_smiling	0.0	206.30452053802173	
24.0	147.99768237907801	pulse	1.0	t		26.0	female	white	4.854755272582572	smiling	027	sub-01	1.0	2.0	027_smiling	0.0	208.3044538286931	
25.0	149.2642290092008	face	0.0		147	37.0	female	white	2.175885395941106	smiling	120	sub-01	1.0	2.0	120_smiling	1.0	209.5710004588159	1.2415973412857966
25.0	149.99761899012356	pulse	0.0	t		37.0	female	white	2.175885395941106	smiling	120	sub-01	1.0	2.0	120_smiling	1.0	210.30439043973865	
25.0	150.5058263504866	fix	1.0		238	37.0	female	white	2.175885395941106	smiling	120	sub-01	1.0	2.0	120_smiling	1.0	210.81259780010168	1.999927253628357
25.0	151.9975752215596	pulse	1.0	t		37.0	female	white	2.175885395941106	smiling	120	sub-01	1.0	2.0	120_smiling	1.0	212.3043466711747	
25.0	152.50575360411494	rating	2.0		238	37.0	female	white	2.175885395941106	smiling	120	sub-01	1.0	2.0	120_smiling	1.0	212.81252505373004	1.9999664944098186
25.0	153.99750307889235	pulse	2.0	t		37.0	female	white	2.175885395941106	smiling	120	sub-01	1.0	2.0	120_smiling	1.0	214.30427452850745	
25.0	154.50572009852476	fix	3.0		447	37.0	female	white	2.175885395941106	smiling	120	sub-01	1.0	2.0	120_smiling	1.0	214.81249154813986	3.758285540073757
25.0	155.9974457269809	pulse	3.0	t		37.0	female	white	2.175885395941106	smiling	120	sub-01	1.0	2.0	120_smiling	1.0	216.304217176596	
25.0	157.9973832435826	pulse	3.0	t		37.0	female	white	2.175885395941106	smiling	120	sub-01	1.0	2.0	120_smiling	1.0	218.3041546931977	
26.0	158.26400563859852	face	0.0		148	28.0	male	east_asian	1.5563072025467568	neutral	005	sub-01	1.0	2.0	005_neutral	0.0	218.57077708821362	1.2415538745744925
26.0	159.505559513173	fix	1.0		447	28.0	male	east_asian	1.5563072025467568	neutral	005	sub-01	1.0	2.0	005_neutral	0.0	219.8123309627881	3.758345306802312
26.0	159.99733585279273	pulse	1.0	t		28.0	male	east_asian	1.5563072025467568	neutral	005	sub-01	1.0	2.0	005_neutral	0.0	220.30410730240783	
26.0	161.99726491753427	pulse	1.0	t		28.0	male	east_asian	1.5563072025467568	neutral	005	sub-01	1.0	2.0	005_neutral	0.0	222.30403636714937	
27.0	163.26390481997532	face	0.0		147	24.0	male	black	2.56108237166733	neutral	114	sub-01	1.0	2.0	114_neutral	0.0	223.57067626959042	1.2415070874890262
27.0	163.99721933785713	pulse	0.0	t		24.0	male	black	2.56108237166733	neutral	114	sub-01	1.0	2.0	114_neutral	0.0	224.30399078747223	
27.0	164.50541190746435	fix	1.0		447	24.0	male	black	2.56108237166733	neutral	114	sub-01	1.0	2.0	114_neutral	0.0	224.81218335707945	3.7665523653136006
27.0	165.9971583637198	pulse	1.0	t		24.0	male	black	2.56108237166733	neutral	114	sub-01	1.0	2.0	114_neutral	0.0	226.3039298133349	
27.0	167.99709708773025	pulse	1.0	t		24.0	male	black	2.56108237166733	neutral	114	sub-01	1.0	2.0	114_neutral	0.0	228.30386853734535	
28.0	168.27196427277795	face	0.0		147	33.0	female	white	3.5455630720254674	neutral	113	sub-01	1.0	2.0	113_neutral	0.0	228.57873572239305	1.2333133104730223
28.0	169.50527758325097	fix	1.0		447	33.0	female	white	3.5455630720254674	neutral	113	sub-01	1.0	2.0	113_neutral	0.0	229.81204903286607	3.758273164135062
28.0	169.9970300765499	pulse	1.0	t		33.0	female	white	3.5455630720254674	neutral	113	sub-01	1.0	2.0	113_neutral	0.0	230.303801526165	
28.0	171.99698208205564	pulse	1.0	t		33.0	female	white	3.5455630720254674	neutral	113	sub-01	1.0	2.0	113_neutral	0.0	232.30375353167074	
29.0	173.26355074738603	face	0.0		147	37.0	male	west_asian	3.1858336649422996	neutral	037	sub-01	1.0	2.0	037_neutral	0.0	233.57032219700113	1.241576211634765
29.0	173.99691507087482	pulse	0.0	t		37.0	male	west_asian	3.1858336649422996	neutral	037	sub-01	1.0	2.0	037_neutral	0.0	234.30368652048992	
29.0	174.5051269590208	fix	1.0		447	37.0	male	west_asian	3.1858336649422996	neutral	037	sub-01	1.0	2.0	037_neutral	0.0	234.8118984086359	3.758187739972527
29.0	175.99685288932915	pulse	1.0	t		37.0	male	west_asian	3.1858336649422996	neutral	037	sub-01	1.0	2.0	037_neutral	0.0	236.30362433894425	
29.0	177.9968124411389	pulse	1.0	t		37.0	male	west_asian	3.1858336649422996	neutral	037	sub-01	1.0	2.0	037_neutral	0.0	238.303583890754	
30.0	178.26331469899333	face	0.0		148	21.0	female	white	4.060485475527258	smiling	134	sub-01	1.0	2.0	134_smiling	0.0	238.57008614860842	1.2416646543188108
30.0	179.50497935331214	fix	1.0		447	21.0	female	white	4.060485475527258	smiling	134	sub-01	1.0	2.0	134_smiling	0.0	239.81175080292724	3.7582622974573496
30.0	179.99674150588044	pulse	1.0	t		21.0	female	white	4.060485475527258	smiling	134	sub-01	1.0	2.0	134_smiling	0.0	240.30351295549553	
30.0	181.9966844558212	pulse	1.0	t		21.0	female	white	4.060485475527258	smiling	134	sub-01	1.0	2.0	134_smiling	0.0	242.3034559054363	
31.0	183.2632416507695	face	0.0		147	28.0	female	white	5.676880222841227	neutral	124	sub-01	1.0	2.0	124_neutral	0.0	243.57001310038459	1.2415913042427746
31.0	183.99661472797106	pulse	0.0	t		28.0	female	white	5.676880222841227	neutral	124	sub-01	1.0	2.0	124_neutral	0.0	244.30338617758616	
31.0	184.50483295501226	fix	1.0		447	28.0	female	white	5.676880222841227	neutral	124	sub-01	1.0	2.0	124_neutral	0.0	244.81160440462736	3.7665384801139226
31.0	185.99656522421583	pulse	1.0	t		28.0	female	white	5.676880222841227	neutral	124	sub-01	1.0	2.0	124_neutral	0.0	246.30333667383093	
31.0	187.99650666489606	pulse	1.0	t		28.0	female	white	5.676880222841227	neutral	124	sub-01	1.0	2.0	124_neutral	0.0	248.30327811451116	
32.0	188.27137143512618	face	0.0		147	28.0	male	east_asian	1.5563072025467568	smiling	005	sub-01	1.0	2.0	005_smiling	0.0	248.57814288474128	1.2333111975076463
32.0	189.50468263263383	fix	1.0		447	28.0	male	east_asian	1.5563072025467568	smiling	005	sub-01	1.0	2.0	005_smiling	0.0	249.81145408224893	3.7665405930792986
32.0	189.99643512593275	pulse	1.0	t		28.0	male	east_asian	1.5563072025467568	smiling	005	sub-01	1.0	2.0	005_smiling	0.0	250.30320657554785	
32.0	191.99639618700348	pulse	1.0	t		28.0	male	east_asian	1.5563072025467568	smiling	005	sub-01	1.0	2.0	005_smiling	0.0	252.30316763661858	
33.0	193.27122322571313	face	0.0		146	54.0	female	white	2.286908077994429	neutral	136	sub-01	1.0	2.0	136_neutral	0.0	253.57799467532823	1.2332991234211477
33.0	193.99636539808262	pulse	0.0	t		54.0	female	white	2.286908077994429	neutral	136	sub-01	1.0	2.0	136_neutral	0.0	254.30313684769771	
33.0	194.50452234913428	fix	1.0		447	54.0	female	white	2.286908077994429	neutral	136	sub-01	1.0	2.0	136_neutral	0.0	254.81129379874938	3.7665538745745835
33.0	195.9962657868682	pulse	1.0	t		54.0	female	white	2.286908077994429	neutral	136	sub-01	1.0	2.0	136_neutral	0.0	256.3030372364833	
33.0	197.99628601096356	pulse	1.0	t		54.0	female	white	2.286908077994429	neutral	136	sub-01	1.0	2.0	136_neutral	0.0	258.30305746057866	
34.0	198.27107622370886	face	0.0		147	32.0	male	white	1.8245125348189413	smiling	125	sub-01	1.0	2.0	125_smiling	0.0	258.57784767332396	1.2332942937864573
34.0	199.50437051749532	fix	1.0		447	32.0	male	white	1.8245125348189413	smiling	125	sub-01	1.0	2.0	125_smiling	0.0	259.8111419671104	3.766559307913667
34.0	199.9961411219242	pulse	1.0	t		32.0	male	white	1.8245125348189413	smiling	125	sub-01	1.0	2.0	125_smiling	0.0	260.3029125715393	
34.0	201.99609433483874	pulse	1.0	t		32.0	male	white	1.8245125348189413	smiling	125	sub-01	1.0	2.0	125_smiling	0.0	262.30286578445384	
35.0	203.27092982540898	face	0.0		146	23.0	male	black	2.7584560286510147	smiling	096	sub-01	1.0	2.0	096_smiling	0.0	263.5777012750241	1.2333096882471182
35.0	203.9960330588492	pulse	0.0	t		23.0	male	black	2.7584560286510147	smiling	096	sub-01	1.0	2.0	096_smiling	0.0	264.3028045084643	
35.0	204.5042395136561	fix	1.0		447	23.0	male	black	2.7584560286510147	smiling	096	sub-01	1.0	2.0	096_smiling	0.0	264.8110109632712	3.7582831252566393
35.0	205.99597208471187	pulse	1.0	t		23.0	male	black	2.7584560286510147	smiling	096	sub-01	1.0	2.0	096_smiling	0.0	266.30274353432696	
35.0	207.99591503465263	pulse	1.0	t		23.0	male	black	2.7584560286510147	smiling	096	sub-01	1.0	2.0	096_smiling	0.0	268.3026864842677	
36.0	208.26252263891274	face	0.0		148	28.0	female	white	5.676880222841227	smiling	124	sub-01	1.0	2.0	124_smiling	0.0	268.56929408852784	1.2415698727390918
36.0	209.50409251165183	fix	1.0		447	28.0	female	white	5.676880222841227	smiling	124	sub-01	1.0	2.0	124_smiling	0.0	269.81086396126693	3.7582031344327333
36.0	209.99585074014158	pulse	1.0	t		28.0	female	white	5.676880222841227	smiling	124	sub-01	1.0	2.0	124_smiling	0.0	270.3026221897567	
36.0	211.9958009345346	pulse	1.0	t		28.0	female	white	5.676880222841227	smiling	124	sub-01	1.0	2.0	124_smiling	0.0	272.3025723841497	
37.0	213.26229564608457	face	0.0		147	21.0	male	east_asian/white	3.501790688420215	neutral	036	sub-01	1.0	2.0	036_neutral	1.0	273.56906709569967	1.2416359783633197
37.0	213.9957284900147	pulse	0.0	t		21.0	male	east_asian/white	3.501790688420215	neutral	036	sub-01	1.0	2.0	036_neutral	1.0	274.3024999396298	
37.0	214.5039316244479	fix	1.0		238	21.0	male	east_asian/white	3.501790688420215	neutral	036	sub-01	1.0	2.0	036_neutral	1.0	274.810703074063	1.9999586462531624
37.0	215.99566751587736	pulse	1.0	t		21.0	male	east_asian/white	3.501790688420215	neutral	036	sub-01	1.0	2.0	036_neutral	1.0	276.30243896549246	
37.0	216.50389027070105	rating	2.0		238	21.0	male	east_asian/white	3.501790688420215	neutral	036	sub-01	1.0	2.0	036_neutral	1.0	276.81066172031615	1.9999351017845584
37.0	217.99561771027038	pulse	2.0	t		21.0	male	east_asian/white	3.501790688420215	neutral	036	sub-01	1.0	2.0	036_neutral	1.0	278.3023891598855	
37.0	218.5038253724856	fix	3.0		447	21.0	male	east_asian/white	3.501790688420215	neutral	036	sub-01	1.0	2.0	036_neutral	1.0	278.8105968221007	3.7583395716114865
37.0	219.99556005650675	pulse	3.0	t		21.0	male	east_asian/white	3.501790688420215	neutral	036	sub-01	1.0	2.0	036_neutral	1.0	280.30233150612185	
37.0	221.9954990823694	pulse	3.0	t		21.0	male	east_asian/white	3.501790688420215	neutral	036	sub-01	1.0	2.0	036_neutral	1.0	282.3022705319845	
38.0	222.2621649440971	face	0.0		148	19.0	female	white	3.4818941504178267	neutral	097	sub-01	1.0	2.0	097_neutral	0.0	282.5689363937122	1.2415107097149303
38.0	223.50367565381202	fix	1.0		447	19.0	female	white	3.4818941504178267	neutral	097	sub-01	1.0	2.0	097_neutral	0.0	283.8104471034271	3.7581862307115443
38.0	223.99543690082373	pulse	1.0	t		19.0	female	white	3.4818941504178267	neutral	097	sub-01	1.0	2.0	097_neutral	0.0	284.30220835043883	
38.0	225.99536898408633	pulse	1.0	t		19.0	female	white	3.4818941504178267	neutral	097	sub-01	1.0	2.0	097_neutral	0.0	286.3021404337014	
39.0	227.26186188452357	face	0.0		147	20.0	female	white	3.9502586549940313	neutral	091	sub-01	1.0	2.0	091_neutral	0.0	287.56863333413867	1.241665861727597
39.0	227.99532491367063	pulse	0.0	t		20.0	female	white	3.9502586549940313	neutral	091	sub-01	1.0	2.0	091_neutral	0.0	288.3020963632857	
39.0	228.50352774625117	fix	1.0		448	20.0	female	white	3.9502586549940313	neutral	091	sub-01	1.0	2.0	091_neutral	0.0	288.81029919586626	3.7498741276472174
39.0	229.9952720895417	pulse	1.0	t		20.0	female	white	3.9502586549940313	neutral	091	sub-01	1.0	2.0	091_neutral	0.0	290.3020435391568	
40.0	232.25340187389838	fix	0.0		720												292.5601733235135	5.999822209074864
