trial_nr	onset	event_type	phase	response	nr_frames	face_age	face_sex	face_eth	attractiveness	expression	face_id	sub_id	ses	run	trial_type	catch	onset_abs	duration
-1.0	0.05994226759821686	fix	0.0		713												99.62605033519276	5.957872190012949
-1.0	0.7014178940262354	pulse	0.0	t													100.26752596162078	
-1.0	1.4013977604322463	pulse	0.0	t													100.96750582802679	
-1.0	2.1013489508045495	pulse	0.0	t													101.66745701839909	
-1.0	2.801379830364567	pulse	0.0	t													102.36748789795911	
-1.0	3.501327700354068	pulse	0.0	t													103.06743576794861	
-1.0	4.201309981584018	pulse	0.0	t													103.76741804917856	
-1.0	4.901285923901014	pulse	0.0	t													104.46739399149556	
-1.0	5.601281184809068	pulse	0.0	t													105.16738925240361	
0.0	6.017814457611166	face	0.0		144	21.0	female	black	2.4994031038599283	smiling	129	sub-01	2.0	1.0	129_smiling	0.0	105.58392252520571	1.2333103220739758
0.0	6.301264673450987	pulse	0.0	t		21.0	female	black	2.4994031038599283	smiling	129	sub-01	2.0	1.0	129_smiling	0.0	105.86737274104553	
0.0	7.0012252212659405	pulse	0.0	t		21.0	female	black	2.4994031038599283	smiling	129	sub-01	2.0	1.0	129_smiling	0.0	106.56733328886048	
0.0	7.251124779685142	fix	1.0		444	21.0	female	black	2.4994031038599283	smiling	129	sub-01	2.0	1.0	129_smiling	0.0	106.81723284727968	3.7582157590800307
0.0	7.701229235910432	pulse	1.0	t		21.0	female	black	2.4994031038599283	smiling	129	sub-01	2.0	1.0	129_smiling	0.0	107.26733730350497	
0.0	8.40121906346485	pulse	1.0	t		21.0	female	black	2.4994031038599283	smiling	129	sub-01	2.0	1.0	129_smiling	0.0	107.96732713105939	
0.0	9.10118504463344	pulse	1.0	t		21.0	female	black	2.4994031038599283	smiling	129	sub-01	2.0	1.0	129_smiling	0.0	108.66729311222798	
0.0	9.801163401774375	pulse	1.0	t		21.0	female	black	2.4994031038599283	smiling	129	sub-01	2.0	1.0	129_smiling	0.0	109.36727146936892	
0.0	10.50115232376993	pulse	1.0	t		21.0	female	black	2.4994031038599283	smiling	129	sub-01	2.0	1.0	129_smiling	0.0	110.06726039136447	
1.0	11.009340538765173	face	0.0		146	27.0	male	black	3.5523278949462798	neutral	042	sub-01	2.0	1.0	042_neutral	0.0	110.57544860635971	1.2416529348715812
1.0	11.201149697648816	pulse	0.0	t		27.0	male	black	3.5523278949462798	neutral	042	sub-01	2.0	1.0	042_neutral	0.0	110.76725776524336	
1.0	11.901112358434602	pulse	0.0	t		27.0	male	black	3.5523278949462798	neutral	042	sub-01	2.0	1.0	042_neutral	0.0	111.46722042602914	
1.0	12.250993473636754	fix	1.0		444	27.0	male	black	3.5523278949462798	neutral	042	sub-01	2.0	1.0	042_neutral	0.0	111.8171015412313	3.766548108875668
1.0	12.601177649235524	pulse	1.0	t		27.0	male	black	3.5523278949462798	neutral	042	sub-01	2.0	1.0	042_neutral	0.0	112.16728571683007	
1.0	13.30107752460026	pulse	1.0	t		27.0	male	black	3.5523278949462798	neutral	042	sub-01	2.0	1.0	042_neutral	0.0	112.8671855921948	
1.0	14.00104109094491	pulse	1.0	t		27.0	male	black	3.5523278949462798	neutral	042	sub-01	2.0	1.0	042_neutral	0.0	113.56714915853945	
1.0	14.701030616646676	pulse	1.0	t		27.0	male	black	3.5523278949462798	neutral	042	sub-01	2.0	1.0	042_neutral	0.0	114.26713868424122	
1.0	15.40103100905526	pulse	1.0	t		27.0	male	black	3.5523278949462798	neutral	042	sub-01	2.0	1.0	042_neutral	0.0	114.9671390766498	
2.0	16.017541582512422	face	0.0		145	40.0	male	white	1.868682849184242	smiling	172	sub-01	2.0	1.0	172_smiling	0.0	115.58364965010696	1.233318170252005
2.0	16.10100272543059	pulse	0.0	t		40.0	male	white	1.868682849184242	smiling	172	sub-01	2.0	1.0	172_smiling	0.0	115.66711079302513	
2.0	16.800983195542358	pulse	0.0	t		40.0	male	white	1.868682849184242	smiling	172	sub-01	2.0	1.0	172_smiling	0.0	116.3670912631369	
2.0	17.250859752764427	fix	1.0		444	40.0	male	white	1.868682849184242	smiling	172	sub-01	2.0	1.0	172_smiling	0.0	116.81696782035897	3.7582133442565464
2.0	17.50096487306655	pulse	1.0	t		40.0	male	white	1.868682849184242	smiling	172	sub-01	2.0	1.0	172_smiling	0.0	117.06707294066109	
2.0	18.200937796853395	pulse	1.0	t		40.0	male	white	1.868682849184242	smiling	172	sub-01	2.0	1.0	172_smiling	0.0	117.76704586444794	
2.0	18.900916153994785	pulse	1.0	t		40.0	male	white	1.868682849184242	smiling	172	sub-01	2.0	1.0	172_smiling	0.0	118.46702422158933	
2.0	19.60093043164079	pulse	1.0	t		40.0	male	white	1.868682849184242	smiling	172	sub-01	2.0	1.0	172_smiling	0.0	119.16703849923533	
2.0	20.30088705536673	pulse	1.0	t		40.0	male	white	1.868682849184242	smiling	172	sub-01	2.0	1.0	172_smiling	0.0	119.86699512296127	
3.0	21.009073097020973	face	0.0		147	23.0	male	white	3.922801432550736	neutral	108	sub-01	2.0	1.0	108_neutral	0.0	120.57518116461551	1.2416511237529448
3.0	21.003022152085123	pulse	0.0	t		23.0	male	white	3.922801432550736	neutral	108	sub-01	2.0	1.0	108_neutral	0.0	120.56913021967966	
3.0	21.70086610676981	pulse	0.0	t		23.0	male	white	3.922801432550736	neutral	108	sub-01	2.0	1.0	108_neutral	0.0	121.26697417436435	
3.0	22.250724220773918	fix	1.0		443	23.0	male	white	3.922801432550736	neutral	108	sub-01	2.0	1.0	108_neutral	0.0	121.81683228836846	3.766549919994304
3.0	22.400842954645668	pulse	1.0	t		23.0	male	white	3.922801432550736	neutral	108	sub-01	2.0	1.0	108_neutral	0.0	121.96695102224021	
3.0	23.10080863396115	pulse	1.0	t		23.0	male	white	3.922801432550736	neutral	108	sub-01	2.0	1.0	108_neutral	0.0	122.66691670155569	
3.0	23.80079846151557	pulse	1.0	t		23.0	male	white	3.922801432550736	neutral	108	sub-01	2.0	1.0	108_neutral	0.0	123.36690652911011	
3.0	24.500806400249076	pulse	1.0	t		23.0	male	white	3.922801432550736	neutral	108	sub-01	2.0	1.0	108_neutral	0.0	124.06691446784362	
3.0	25.200767853622892	pulse	1.0	t		23.0	male	white	3.922801432550736	neutral	108	sub-01	2.0	1.0	108_neutral	0.0	124.76687592121743	
3.0	25.900739569998223	pulse	1.0	t		23.0	male	white	3.922801432550736	neutral	108	sub-01	2.0	1.0	108_neutral	0.0	125.46684763759276	
4.0	26.017274140768222	face	0.0		146	25.0	female	west_asian	2.6756864305610826	smiling	064	sub-01	2.0	1.0	064_smiling	0.0	125.58338220836276	1.2332940220126147
4.0	26.600708267843856	pulse	0.0	t		25.0	female	west_asian	2.6756864305610826	smiling	064	sub-01	2.0	1.0	064_smiling	0.0	126.1668163354384	
4.0	27.250568162780837	fix	1.0		443	25.0	female	west_asian	2.6756864305610826	smiling	064	sub-01	2.0	1.0	064_smiling	0.0	126.81667623037538	3.7582429258491175
4.0	27.30070322689926	pulse	1.0	t		25.0	female	west_asian	2.6756864305610826	smiling	064	sub-01	2.0	1.0	064_smiling	0.0	126.8668112944938	
4.0	28.000668604361636	pulse	1.0	t		25.0	female	west_asian	2.6756864305610826	smiling	064	sub-01	2.0	1.0	064_smiling	0.0	127.56677667195618	
4.0	28.700657224504084	pulse	1.0	t		25.0	female	west_asian	2.6756864305610826	smiling	064	sub-01	2.0	1.0	064_smiling	0.0	128.26676529209863	
4.0	29.400656409501153	pulse	1.0	t		25.0	female	west_asian	2.6756864305610826	smiling	064	sub-01	2.0	1.0	064_smiling	0.0	128.9667644770957	
4.0	30.10060609060838	pulse	1.0	t		25.0	female	west_asian	2.6756864305610826	smiling	064	sub-01	2.0	1.0	064_smiling	0.0	129.66671415820292	
4.0	30.80060467189969	pulse	1.0	t		25.0	female	west_asian	2.6756864305610826	smiling	064	sub-01	2.0	1.0	064_smiling	0.0	130.36671273949423	
5.0	31.008811088629955	face	0.0		146	31.0	male	west_asian	1.9538400318344609	smiling	070	sub-01	2.0	1.0	070_smiling	0.0	130.5749191562245	1.241654444136202
5.0	31.50060295133744	pulse	0.0	t		31.0	male	west_asian	1.9538400318344609	smiling	070	sub-01	2.0	1.0	070_smiling	0.0	131.06671101893198	
5.0	32.200670355109196	pulse	0.0	t		31.0	male	west_asian	1.9538400318344609	smiling	070	sub-01	2.0	1.0	070_smiling	0.0	131.76677842270374	
5.0	32.25046553276616	fix	1.0		444	31.0	male	west_asian	1.9538400318344609	smiling	070	sub-01	2.0	1.0	070_smiling	0.0	131.8165736003607	3.766577690468239
5.0	32.900555439677646	pulse	1.0	t		31.0	male	west_asian	1.9538400318344609	smiling	070	sub-01	2.0	1.0	070_smiling	0.0	132.4666635072722	
5.0	33.600530778288885	pulse	1.0	t		31.0	male	west_asian	1.9538400318344609	smiling	070	sub-01	2.0	1.0	070_smiling	0.0	133.16663884588343	
5.0	34.3005206058433	pulse	1.0	t		31.0	male	west_asian	1.9538400318344609	smiling	070	sub-01	2.0	1.0	070_smiling	0.0	133.86662867343784	
5.0	35.00057080399438	pulse	1.0	t		31.0	male	west_asian	1.9538400318344609	smiling	070	sub-01	2.0	1.0	070_smiling	0.0	134.56667887158892	
5.0	35.70054644445872	pulse	1.0	t		31.0	male	west_asian	1.9538400318344609	smiling	070	sub-01	2.0	1.0	070_smiling	0.0	135.26665451205326	
6.0	36.017043223234396	face	0.0		145	32.0	male	white	1.8245125348189413	smiling	125	sub-01	2.0	1.0	125_smiling	0.0	135.58315129082894	1.2332581015079995
6.0	36.40046171432596	pulse	0.0	t		32.0	male	white	1.8245125348189413	smiling	125	sub-01	2.0	1.0	125_smiling	0.0	135.9665697819205	
6.0	37.10041411211023	pulse	0.0	t		32.0	male	white	1.8245125348189413	smiling	125	sub-01	2.0	1.0	125_smiling	0.0	136.66652217970477	
6.0	37.250301324742395	fix	1.0		444	32.0	male	white	1.8245125348189413	smiling	125	sub-01	2.0	1.0	125_smiling	0.0	136.81640939233694	3.7665725589677095
6.0	37.800422050843736	pulse	1.0	t		32.0	male	white	1.8245125348189413	smiling	125	sub-01	2.0	1.0	125_smiling	0.0	137.36653011843828	
6.0	38.50039708760187	pulse	1.0	t		32.0	male	white	1.8245125348189413	smiling	125	sub-01	2.0	1.0	125_smiling	0.0	138.0665051551964	
6.0	39.20037333177197	pulse	1.0	t		32.0	male	white	1.8245125348189413	smiling	125	sub-01	2.0	1.0	125_smiling	0.0	138.7664813993665	
6.0	39.900358027825405	pulse	1.0	t		32.0	male	white	1.8245125348189413	smiling	125	sub-01	2.0	1.0	125_smiling	0.0	139.46646609541995	
6.0	40.60034513870323	pulse	1.0	t		32.0	male	white	1.8245125348189413	smiling	125	sub-01	2.0	1.0	125_smiling	0.0	140.16645320629777	
7.0	41.016873883710105	face	0.0		145	26.0	female	white	4.854755272582572	neutral	027	sub-01	2.0	1.0	027_neutral	0.0	140.58298195130465	1.2333226980463223
7.0	41.30034221072901	pulse	0.0	t		26.0	female	white	4.854755272582572	neutral	027	sub-01	2.0	1.0	027_neutral	0.0	140.86645027832355	
7.0	42.0003048715148	pulse	0.0	t		26.0	female	white	4.854755272582572	neutral	027	sub-01	2.0	1.0	027_neutral	0.0	141.56641293910934	
7.0	42.25019658175643	fix	1.0		444	26.0	female	white	4.854755272582572	neutral	027	sub-01	2.0	1.0	027_neutral	0.0	141.81630464935097	3.76654478849332
7.0	42.70028775645051	pulse	1.0	t		26.0	female	white	4.854755272582572	neutral	027	sub-01	2.0	1.0	027_neutral	0.0	142.26639582404505	
7.0	43.40026460432682	pulse	1.0	t		26.0	female	white	4.854755272582572	neutral	027	sub-01	2.0	1.0	027_neutral	0.0	142.96637267192136	
7.0	44.100252922616164	pulse	1.0	t		26.0	female	white	4.854755272582572	neutral	027	sub-01	2.0	1.0	027_neutral	0.0	143.6663609902107	
7.0	44.80024757981846	pulse	1.0	t		26.0	female	white	4.854755272582572	neutral	027	sub-01	2.0	1.0	027_neutral	0.0	144.366355647413	
7.0	45.50022684251826	pulse	1.0	t		26.0	female	white	4.854755272582572	neutral	027	sub-01	2.0	1.0	027_neutral	0.0	145.0663349101128	
8.0	46.01674137024975	face	0.0		145	30.0	female	black	2.7345801830481498	smiling	062	sub-01	2.0	1.0	062_smiling	0.0	145.5828494378443	1.2333118313390514
8.0	46.20019825704048	pulse	0.0	t		30.0	female	black	2.7345801830481498	smiling	062	sub-01	2.0	1.0	062_smiling	0.0	145.76630632463502	
8.0	46.90017872715225	pulse	0.0	t		30.0	female	black	2.7345801830481498	smiling	062	sub-01	2.0	1.0	062_smiling	0.0	146.4662867947468	
8.0	47.2500532015888	fix	1.0		444	30.0	female	black	2.7345801830481498	smiling	062	sub-01	2.0	1.0	062_smiling	0.0	146.81616126918334	3.7665544477886215
8.0	47.60015738614629	pulse	1.0	t		30.0	female	black	2.7345801830481498	smiling	062	sub-01	2.0	1.0	062_smiling	0.0	147.16626545374083	
8.0	48.30012487657996	pulse	1.0	t		30.0	female	black	2.7345801830481498	smiling	062	sub-01	2.0	1.0	062_smiling	0.0	147.8662329441745	
8.0	49.00013643754937	pulse	1.0	t		30.0	female	black	2.7345801830481498	smiling	062	sub-01	2.0	1.0	062_smiling	0.0	148.5662445051439	
8.0	49.70010030574713	pulse	1.0	t		30.0	female	black	2.7345801830481498	smiling	062	sub-01	2.0	1.0	062_smiling	0.0	149.26620837334167	
8.0	50.40013027974828	pulse	1.0	t		30.0	female	black	2.7345801830481498	smiling	062	sub-01	2.0	1.0	062_smiling	0.0	149.96623834734282	
9.0	51.01660764937742	face	0.0		145	30.0	male	white	2.7190608834062875	neutral	004	sub-01	2.0	1.0	004_neutral	0.0	150.58271571697196	1.2333145480156418
9.0	51.100066981177406	pulse	0.0	t		30.0	male	white	2.7190608834062875	neutral	004	sub-01	2.0	1.0	004_neutral	0.0	150.66617504877195	
9.0	51.80005892170266	pulse	0.0	t		30.0	male	white	2.7190608834062875	neutral	004	sub-01	2.0	1.0	004_neutral	0.0	151.3661669892972	
9.0	52.24992219739306	fix	1.0		444	30.0	male	white	2.7190608834062875	neutral	004	sub-01	2.0	1.0	004_neutral	0.0	151.8160302649876	3.7665456940521835
9.0	52.50003033622488	pulse	1.0	t		30.0	male	white	2.7190608834062875	neutral	004	sub-01	2.0	1.0	004_neutral	0.0	152.06613840381942	
9.0	53.19999480812885	pulse	1.0	t		30.0	male	white	2.7190608834062875	neutral	004	sub-01	2.0	1.0	004_neutral	0.0	152.7661028757234	
9.0	53.89996290226827	pulse	1.0	t		30.0	male	white	2.7190608834062875	neutral	004	sub-01	2.0	1.0	004_neutral	0.0	153.4660709698628	
9.0	54.599966313207005	pulse	1.0	t		30.0	male	white	2.7190608834062875	neutral	004	sub-01	2.0	1.0	004_neutral	0.0	154.16607438080155	
9.0	55.29995402779059	pulse	1.0	t		30.0	male	white	2.7190608834062875	neutral	004	sub-01	2.0	1.0	004_neutral	0.0	154.86606209538513	
10.0	56.016467891445245	face	0.0		146	29.0	male	east_asian	2.899323517707918	neutral	067	sub-01	2.0	1.0	067_neutral	1.0	155.5825759590398	1.233319981369732
10.0	56.00269886753813	pulse	0.0	t		29.0	male	east_asian	2.899323517707918	neutral	067	sub-01	2.0	1.0	067_neutral	1.0	155.56880693513267	
10.0	56.6999194958089	pulse	0.0	t		29.0	male	east_asian	2.899323517707918	neutral	067	sub-01	2.0	1.0	067_neutral	1.0	156.26602756340344	
10.0	57.24978787281498	fix	1.0		236	29.0	male	east_asian	2.899323517707918	neutral	067	sub-01	2.0	1.0	067_neutral	1.0	156.81589594040952	2.0082994478202636
10.0	57.39990389000968	pulse	1.0	t		29.0	male	east_asian	2.899323517707918	neutral	067	sub-01	2.0	1.0	067_neutral	1.0	156.96601195760422	
10.0	58.099877719355845	pulse	1.0	t		29.0	male	east_asian	2.899323517707918	neutral	067	sub-01	2.0	1.0	067_neutral	1.0	157.6659857869504	
10.0	58.79986483023322	pulse	1.0	t		29.0	male	east_asian	2.899323517707918	neutral	067	sub-01	2.0	1.0	067_neutral	1.0	158.36597289782776	
10.0	59.25808732063524	rating	2.0		234	29.0	male	east_asian	2.899323517707918	neutral	067	sub-01	2.0	1.0	067_neutral	1.0	158.82419538822978	1.9915915832521023
10.0	59.49984680961006	pulse	2.0	t		29.0	male	east_asian	2.899323517707918	neutral	067	sub-01	2.0	1.0	067_neutral	1.0	159.0659548772046	
10.0	60.199833618634784	pulse	2.0	t		29.0	male	east_asian	2.899323517707918	neutral	067	sub-01	2.0	1.0	067_neutral	1.0	159.76594168622933	
10.0	60.899813485040795	pulse	2.0	t		29.0	male	east_asian	2.899323517707918	neutral	067	sub-01	2.0	1.0	067_neutral	1.0	160.46592155263534	
10.0	61.049783405390826	response	2.0	b		29.0	male	east_asian	2.899323517707918	neutral	067	sub-01	2.0	1.0	067_neutral	1.0	160.61589147298537	
10.0	61.24967890388734	fix	3.0		444	29.0	male	east_asian	2.899323517707918	neutral	067	sub-01	2.0	1.0	067_neutral	1.0	160.81578697148188	3.766553542229758
10.0	61.599783994004156	pulse	3.0	t		29.0	male	east_asian	2.899323517707918	neutral	067	sub-01	2.0	1.0	067_neutral	1.0	161.1658920615987	
10.0	62.29977050117577	pulse	3.0	t		29.0	male	east_asian	2.899323517707918	neutral	067	sub-01	2.0	1.0	067_neutral	1.0	161.8658785687703	
10.0	62.99976998802549	pulse	3.0	t		29.0	male	east_asian	2.899323517707918	neutral	067	sub-01	2.0	1.0	067_neutral	1.0	162.56587805562003	
10.0	63.69972570619257	pulse	3.0	t		29.0	male	east_asian	2.899323517707918	neutral	067	sub-01	2.0	1.0	067_neutral	1.0	163.2658337737871	
10.0	64.3996944040382	pulse	3.0	t		29.0	male	east_asian	2.899323517707918	neutral	067	sub-01	2.0	1.0	067_neutral	1.0	163.96580247163274	
11.0	65.0162324461171	face	0.0		145	25.0	female	black	3.858336649423	neutral	126	sub-01	2.0	1.0	126_neutral	0.0	164.58234051371164	1.2333142461629905
11.0	65.09973071695231	pulse	0.0	t		25.0	female	black	3.858336649423	neutral	126	sub-01	2.0	1.0	126_neutral	0.0	164.66583878454685	
11.0	65.79967405914704	pulse	0.0	t		25.0	female	black	3.858336649423	neutral	126	sub-01	2.0	1.0	126_neutral	0.0	165.36578212674158	
11.0	66.24954669228009	fix	1.0		444	25.0	female	black	3.858336649423	neutral	126	sub-01	2.0	1.0	126_neutral	0.0	165.81565475987463	3.758191912694201
11.0	66.49965030331714	pulse	1.0	t		25.0	female	black	3.858336649423	neutral	126	sub-01	2.0	1.0	126_neutral	0.0	166.06575837091168	
11.0	67.1996238308102	pulse	1.0	t		25.0	female	black	3.858336649423	neutral	126	sub-01	2.0	1.0	126_neutral	0.0	166.76573189840474	
11.0	67.89960430092196	pulse	1.0	t		25.0	female	black	3.858336649423	neutral	126	sub-01	2.0	1.0	126_neutral	0.0	167.4657123685165	
11.0	68.59959956183047	pulse	1.0	t		25.0	female	black	3.858336649423	neutral	126	sub-01	2.0	1.0	126_neutral	0.0	168.16570762942501	
11.0	69.29957550414747	pulse	1.0	t		25.0	female	black	3.858336649423	neutral	126	sub-01	2.0	1.0	126_neutral	0.0	168.865683571742	
12.0	70.00773860497429	face	0.0		147	28.0	male	white	3.9076800636689217	smiling	033	sub-01	2.0	1.0	033_smiling	1.0	169.57384667256883	1.241665612696579
12.0	70.00177700852237	pulse	0.0	t		28.0	male	white	3.9076800636689217	smiling	033	sub-01	2.0	1.0	033_smiling	1.0	169.5678850761169	
12.0	70.69966956153758	pulse	0.0	t		28.0	male	white	3.9076800636689217	smiling	033	sub-01	2.0	1.0	033_smiling	1.0	170.26577762913212	
12.0	71.24940421767087	fix	1.0		236	28.0	male	white	3.9076800636689217	smiling	033	sub-01	2.0	1.0	033_smiling	1.0	170.8155122852654	1.999957136876219
12.0	71.3995211404249	pulse	1.0	t		28.0	male	white	3.9076800636689217	smiling	033	sub-01	2.0	1.0	033_smiling	1.0	170.96562920801944	
12.0	72.0995103642731	pulse	1.0	t		28.0	male	white	3.9076800636689217	smiling	033	sub-01	2.0	1.0	033_smiling	1.0	171.66561843186764	
12.0	72.79947061023495	pulse	1.0	t		28.0	male	white	3.9076800636689217	smiling	033	sub-01	2.0	1.0	033_smiling	1.0	172.3655786778295	
12.0	73.24936135454709	rating	2.0		236	28.0	male	white	3.9076800636689217	smiling	033	sub-01	2.0	1.0	033_smiling	1.0	172.81546942214163	1.9999363090205406
12.0	73.49949907497148	pulse	2.0	t		28.0	male	white	3.9076800636689217	smiling	033	sub-01	2.0	1.0	033_smiling	1.0	173.06560714256602	
12.0	74.1994387949303	pulse	2.0	t		28.0	male	white	3.9076800636689217	smiling	033	sub-01	2.0	1.0	033_smiling	1.0	173.76554686252484	
12.0	74.89945126145858	pulse	2.0	t		28.0	male	white	3.9076800636689217	smiling	033	sub-01	2.0	1.0	033_smiling	1.0	174.46555932905312	
12.0	75.24929766356763	fix	3.0		443	28.0	male	white	3.9076800636689217	smiling	033	sub-01	2.0	1.0	033_smiling	1.0	174.81540573116217	3.7582719037350216
12.0	75.51608529278701	response	3.0	b		28.0	male	white	3.9076800636689217	smiling	033	sub-01	2.0	1.0	033_smiling	1.0	175.08219336038155	
12.0	75.59939581106528	pulse	3.0	t		28.0	male	white	3.9076800636689217	smiling	033	sub-01	2.0	1.0	033_smiling	1.0	175.16550387865982	
12.0	76.29938956270871	pulse	3.0	t		28.0	male	white	3.9076800636689217	smiling	033	sub-01	2.0	1.0	033_smiling	1.0	175.86549763030325	
12.0	76.9993739569095	pulse	3.0	t		28.0	male	white	3.9076800636689217	smiling	033	sub-01	2.0	1.0	033_smiling	1.0	176.56548202450404	
12.0	77.69935050293225	pulse	3.0	t		28.0	male	white	3.9076800636689217	smiling	033	sub-01	2.0	1.0	033_smiling	1.0	177.2654585705268	
12.0	78.39935783796	pulse	3.0	t		28.0	male	white	3.9076800636689217	smiling	033	sub-01	2.0	1.0	033_smiling	1.0	177.96546590555454	
13.0	79.00756956730265	face	0.0		146	18.0	male	white	3.272980501392757	smiling	123	sub-01	2.0	1.0	123_smiling	0.0	178.5736776348972	1.2416037328348466
13.0	79.09930993389116	pulse	0.0	t		18.0	male	white	3.272980501392757	smiling	123	sub-01	2.0	1.0	123_smiling	0.0	178.6654180014857	
13.0	79.79929010215028	pulse	0.0	t		18.0	male	white	3.272980501392757	smiling	123	sub-01	2.0	1.0	123_smiling	0.0	179.36539816974482	
13.0	80.2491733001375	fix	1.0		445	18.0	male	white	3.272980501392757	smiling	123	sub-01	2.0	1.0	123_smiling	0.0	179.81528136773204	3.774888306849334
13.0	80.49927268523288	pulse	1.0	t		18.0	male	white	3.272980501392757	smiling	123	sub-01	2.0	1.0	123_smiling	0.0	180.06538075282742	
13.0	81.19925255163889	pulse	1.0	t		18.0	male	white	3.272980501392757	smiling	123	sub-01	2.0	1.0	123_smiling	0.0	180.76536061923343	
13.0	81.8992384551043	pulse	1.0	t		18.0	male	white	3.272980501392757	smiling	123	sub-01	2.0	1.0	123_smiling	0.0	181.46534652269884	
13.0	82.59921862336341	pulse	1.0	t		18.0	male	white	3.272980501392757	smiling	123	sub-01	2.0	1.0	123_smiling	0.0	182.16532669095795	
13.0	83.29920543238768	pulse	1.0	t		18.0	male	white	3.272980501392757	smiling	123	sub-01	2.0	1.0	123_smiling	0.0	182.86531349998222	
13.0	83.99918288396975	pulse	1.0	t		18.0	male	white	3.272980501392757	smiling	123	sub-01	2.0	1.0	123_smiling	0.0	183.5652909515643	
14.0	84.02406160698683	face	0.0		146	25.0	female	white	3.8249104655789887	neutral	094	sub-01	2.0	1.0	094_neutral	0.0	183.59016967458138	1.233311227633294
14.0	84.69917120225955	pulse	0.0	t		25.0	female	white	3.8249104655789887	neutral	094	sub-01	2.0	1.0	094_neutral	0.0	184.2652792698541	
14.0	85.25737283462013	fix	1.0		443	25.0	female	white	3.8249104655789887	neutral	094	sub-01	2.0	1.0	094_neutral	0.0	184.82348090221467	3.758220890581015
14.0	85.3991694816973	pulse	1.0	t		25.0	female	white	3.8249104655789887	neutral	094	sub-01	2.0	1.0	094_neutral	0.0	184.96527754929184	
14.0	86.099135764719	pulse	1.0	t		25.0	female	white	3.8249104655789887	neutral	094	sub-01	2.0	1.0	094_neutral	0.0	185.66524383231354	
14.0	86.79910989591826	pulse	1.0	t		25.0	female	white	3.8249104655789887	neutral	094	sub-01	2.0	1.0	094_neutral	0.0	186.3652179635128	
14.0	87.49908614008837	pulse	1.0	t		25.0	female	white	3.8249104655789887	neutral	094	sub-01	2.0	1.0	094_neutral	0.0	187.0651942076829	
14.0	88.19904095269658	pulse	1.0	t		25.0	female	white	3.8249104655789887	neutral	094	sub-01	2.0	1.0	094_neutral	0.0	187.76514902029112	
14.0	88.89904828772387	pulse	1.0	t		25.0	female	white	3.8249104655789887	neutral	094	sub-01	2.0	1.0	094_neutral	0.0	188.4651563553184	
15.0	89.01559372520114	face	0.0		147	37.0	male	west_asian	3.1858336649422996	smiling	037	sub-01	2.0	1.0	037_smiling	0.0	188.58170179279568	1.2416465959586276
15.0	89.599023324482	pulse	0.0	t		37.0	male	west_asian	3.1858336649422996	smiling	037	sub-01	2.0	1.0	037_smiling	0.0	189.16513139207655	
15.0	90.25724032115977	fix	1.0		443	37.0	male	west_asian	3.1858336649422996	smiling	037	sub-01	2.0	1.0	037_smiling	0.0	189.8233483887543	3.7665568626121058
15.0	90.29901828353741	pulse	1.0	t		37.0	male	west_asian	3.1858336649422996	smiling	037	sub-01	2.0	1.0	037_smiling	0.0	189.86512635113195	
15.0	90.99900811109183	pulse	1.0	t		37.0	male	west_asian	3.1858336649422996	smiling	037	sub-01	2.0	1.0	037_smiling	0.0	190.56511617868637	
15.0	91.69897620523125	pulse	1.0	t		37.0	male	west_asian	3.1858336649422996	smiling	037	sub-01	2.0	1.0	037_smiling	0.0	191.2650842728258	
15.0	92.39896361796173	pulse	1.0	t		37.0	male	west_asian	3.1858336649422996	smiling	037	sub-01	2.0	1.0	037_smiling	0.0	191.96507168555627	
15.0	93.09895133254531	pulse	1.0	t		37.0	male	west_asian	3.1858336649422996	smiling	037	sub-01	2.0	1.0	037_smiling	0.0	192.66505940013985	
15.0	93.79891610630193	pulse	1.0	t		37.0	male	west_asian	3.1858336649422996	smiling	037	sub-01	2.0	1.0	037_smiling	0.0	193.36502417389647	
16.0	94.02379718377188	face	0.0		145	22.0	male	black	2.767608436132113	neutral	044	sub-01	2.0	1.0	044_neutral	0.0	193.58990525136642	1.233306699838522
16.0	94.49890412273817	pulse	0.0	t		22.0	male	black	2.767608436132113	neutral	044	sub-01	2.0	1.0	044_neutral	0.0	194.0650121903327	
16.0	95.19887402799577	pulse	0.0	t		22.0	male	black	2.767608436132113	neutral	044	sub-01	2.0	1.0	044_neutral	0.0	194.7649820955903	
16.0	95.2571038836104	fix	1.0		444	22.0	male	black	2.767608436132113	neutral	044	sub-01	2.0	1.0	044_neutral	0.0	194.82321195120494	3.758299976062972
16.0	95.89888136302307	pulse	1.0	t		22.0	male	black	2.767608436132113	neutral	044	sub-01	2.0	1.0	044_neutral	0.0	195.4649894306176	
16.0	96.59884764604476	pulse	1.0	t		22.0	male	black	2.767608436132113	neutral	044	sub-01	2.0	1.0	044_neutral	0.0	196.1649557136393	
16.0	97.29883053098047	pulse	1.0	t		22.0	male	black	2.767608436132113	neutral	044	sub-01	2.0	1.0	044_neutral	0.0	196.864938598575	
16.0	97.99879832326724	pulse	1.0	t		22.0	male	black	2.767608436132113	neutral	044	sub-01	2.0	1.0	044_neutral	0.0	197.56490639086178	
16.0	98.69879992308779	pulse	1.0	t		22.0	male	black	2.767608436132113	neutral	044	sub-01	2.0	1.0	044_neutral	0.0	198.26490799068233	
17.0	99.01540385967337	face	0.0		146	24.0	female	black	3.0955033824114606	smiling	099	sub-01	2.0	1.0	099_smiling	0.0	198.5815119272679	1.2415693215943975
17.0	99.39878069505266	pulse	0.0	t		24.0	female	black	3.0955033824114606	smiling	099	sub-01	2.0	1.0	099_smiling	0.0	198.9648887626472	
17.0	100.09874516695663	pulse	0.0	t		24.0	female	black	3.0955033824114606	smiling	099	sub-01	2.0	1.0	099_smiling	0.0	199.66485323455117	
17.0	100.25697318126777	fix	1.0		444	24.0	female	black	3.0955033824114606	smiling	099	sub-01	2.0	1.0	099_smiling	0.0	199.8230812488623	3.766551731112031
17.0	100.79875552051408	pulse	1.0	t		24.0	female	black	3.0955033824114606	smiling	099	sub-01	2.0	1.0	099_smiling	0.0	200.36486358810862	
17.0	101.49871969056449	pulse	1.0	t		24.0	female	black	3.0955033824114606	smiling	099	sub-01	2.0	1.0	099_smiling	0.0	201.06482775815903	
17.0	102.19870861256004	pulse	1.0	t		24.0	female	black	3.0955033824114606	smiling	099	sub-01	2.0	1.0	099_smiling	0.0	201.76481668015458	
17.0	102.89868063078848	pulse	1.0	t		24.0	female	black	3.0955033824114606	smiling	099	sub-01	2.0	1.0	099_smiling	0.0	202.46478869838302	
17.0	103.59865053604562	pulse	1.0	t		24.0	female	black	3.0955033824114606	smiling	099	sub-01	2.0	1.0	099_smiling	0.0	203.16475860364017	
18.0	104.0235249123798	face	0.0		145	25.0	female	white	3.8249104655789887	smiling	094	sub-01	2.0	1.0	094_smiling	1.0	203.58963297997434	1.2333133406036723
18.0	104.29861108386058	pulse	0.0	t		25.0	female	white	3.8249104655789887	smiling	094	sub-01	2.0	1.0	094_smiling	1.0	203.86471915145512	
18.0	104.99863502080234	pulse	0.0	t		25.0	female	white	3.8249104655789887	smiling	094	sub-01	2.0	1.0	094_smiling	1.0	204.56474308839688	
18.0	105.25683825298347	fix	1.0		236	25.0	female	white	3.8249104655789887	smiling	094	sub-01	2.0	1.0	094_smiling	1.0	204.822946320578	1.999934799755465
18.0	105.69860341679487	pulse	1.0	t		25.0	female	white	3.8249104655789887	smiling	094	sub-01	2.0	1.0	094_smiling	1.0	205.2647114843894	
18.0	106.39858660358368	pulse	1.0	t		25.0	female	white	3.8249104655789887	smiling	094	sub-01	2.0	1.0	094_smiling	1.0	205.96469467117822	
18.0	107.09857129963711	pulse	1.0	t		25.0	female	white	3.8249104655789887	smiling	094	sub-01	2.0	1.0	094_smiling	1.0	206.66467936723166	
18.0	107.25677305273894	rating	2.0		235	25.0	female	white	3.8249104655789887	smiling	094	sub-01	2.0	1.0	094_smiling	1.0	206.82288112033348	1.9999610609647789
18.0	107.7985526753082	pulse	2.0	t		25.0	female	white	3.8249104655789887	smiling	094	sub-01	2.0	1.0	094_smiling	1.0	207.36466074290274	
18.0	108.47663401321688	response	2.0	y		25.0	female	white	3.8249104655789887	smiling	094	sub-01	2.0	1.0	094_smiling	1.0	208.04274208081142	
18.0	108.49855397327565	pulse	2.0	t		25.0	female	white	3.8249104655789887	smiling	094	sub-01	2.0	1.0	094_smiling	1.0	208.0646620408702	
18.0	109.19855134715499	pulse	2.0	t		25.0	female	white	3.8249104655789887	smiling	094	sub-01	2.0	1.0	094_smiling	1.0	208.76465941474953	
18.0	109.25673411370371	fix	3.0		444	25.0	female	white	3.8249104655789887	smiling	094	sub-01	2.0	1.0	094_smiling	1.0	208.82284218129826	3.766549316288092
18.0	109.89849348193775	pulse	3.0	t		25.0	female	white	3.8249104655789887	smiling	094	sub-01	2.0	1.0	094_smiling	1.0	209.4646015495323	
18.0	110.59847274463755	pulse	3.0	t		25.0	female	white	3.8249104655789887	smiling	094	sub-01	2.0	1.0	094_smiling	1.0	210.1645808122321	
18.0	111.2984586481034	pulse	3.0	t		25.0	female	white	3.8249104655789887	smiling	094	sub-01	2.0	1.0	094_smiling	1.0	210.86456671569795	
18.0	111.99843398671419	pulse	3.0	t		25.0	female	white	3.8249104655789887	smiling	094	sub-01	2.0	1.0	094_smiling	1.0	211.56454205430873	
18.0	112.69842924762224	pulse	3.0	t		25.0	female	white	3.8249104655789887	smiling	094	sub-01	2.0	1.0	094_smiling	1.0	212.26453731521678	
19.0	113.0232834299918	face	0.0		145	28.0	female	white	5.676880222841227	neutral	124	sub-01	2.0	1.0	124_neutral	0.0	212.58939149758635	1.233313038751021
19.0	113.39841454738189	pulse	0.0	t		28.0	female	white	5.676880222841227	neutral	124	sub-01	2.0	1.0	124_neutral	0.0	212.96452261497643	
19.0	114.09837539704995	pulse	0.0	t		28.0	female	white	5.676880222841227	neutral	124	sub-01	2.0	1.0	124_neutral	0.0	213.6644834646445	
19.0	114.25659646874283	fix	1.0		444	28.0	female	white	5.676880222841227	neutral	124	sub-01	2.0	1.0	124_neutral	0.0	213.82270453633737	3.7583217094779684
19.0	114.79835616901482	pulse	1.0	t		28.0	female	white	5.676880222841227	neutral	124	sub-01	2.0	1.0	124_neutral	0.0	214.36446423660936	
19.0	115.49834267618644	pulse	1.0	t		28.0	female	white	5.676880222841227	neutral	124	sub-01	2.0	1.0	124_neutral	0.0	215.06445074378098	
19.0	116.19832646668101	pulse	1.0	t		28.0	female	white	5.676880222841227	neutral	124	sub-01	2.0	1.0	124_neutral	0.0	215.76443453427555	
19.0	116.89830301270422	pulse	1.0	t		28.0	female	white	5.676880222841227	neutral	124	sub-01	2.0	1.0	124_neutral	0.0	216.46441108029876	
19.0	117.598287406905	pulse	1.0	t		28.0	female	white	5.676880222841227	neutral	124	sub-01	2.0	1.0	124_neutral	0.0	217.16439547449954	
20.0	118.0149181782208	face	0.0		146	19.0	male	white	3.2522881018702745	smiling	018	sub-01	2.0	1.0	018_smiling	0.0	217.58102624581534	1.241545777061674
20.0	118.29826848072253	pulse	0.0	t		19.0	male	white	3.2522881018702745	smiling	018	sub-01	2.0	1.0	018_smiling	0.0	217.86437654831707	
20.0	118.99824502674574	pulse	0.0	t		19.0	male	white	3.2522881018702745	smiling	018	sub-01	2.0	1.0	018_smiling	0.0	218.56435309434028	
20.0	119.25646395528247	fix	1.0		444	19.0	male	white	3.2522881018702745	smiling	018	sub-01	2.0	1.0	018_smiling	0.0	218.822572022877	3.7582296443174528
20.0	119.69824209877197	pulse	1.0	t		19.0	male	white	3.2522881018702745	smiling	018	sub-01	2.0	1.0	018_smiling	0.0	219.2643501663665	
20.0	120.39823464300298	pulse	1.0	t		19.0	male	white	3.2522881018702745	smiling	018	sub-01	2.0	1.0	018_smiling	0.0	219.96434271059752	
20.0	121.09820334084861	pulse	1.0	t		19.0	male	white	3.2522881018702745	smiling	018	sub-01	2.0	1.0	018_smiling	0.0	220.66431140844315	
20.0	121.79817324610576	pulse	1.0	t		19.0	male	white	3.2522881018702745	smiling	018	sub-01	2.0	1.0	018_smiling	0.0	221.3642813137003	
20.0	122.49813832171549	pulse	1.0	t		19.0	male	white	3.2522881018702745	smiling	018	sub-01	2.0	1.0	018_smiling	0.0	222.06424638931003	
21.0	123.01469359959992	face	0.0		146	31.0	male	west_asian	1.9538400318344609	neutral	070	sub-01	2.0	1.0	070_neutral	0.0	222.58080166719446	1.2416390496341592
21.0	123.19815682530361	pulse	0.0	t		31.0	male	west_asian	1.9538400318344609	neutral	070	sub-01	2.0	1.0	070_neutral	0.0	222.76426489289815	
21.0	123.89810228046917	pulse	0.0	t		31.0	male	west_asian	1.9538400318344609	neutral	070	sub-01	2.0	1.0	070_neutral	0.0	223.46421034806372	
21.0	124.25633264923408	fix	1.0		444	31.0	male	west_asian	1.9538400318344609	neutral	070	sub-01	2.0	1.0	070_neutral	0.0	223.82244071682862	3.76655263667044
21.0	124.5981141432917	pulse	1.0	t		31.0	male	west_asian	1.9538400318344609	neutral	070	sub-01	2.0	1.0	070_neutral	0.0	224.16422221088624	
21.0	125.29807921890097	pulse	1.0	t		31.0	male	west_asian	1.9538400318344609	neutral	070	sub-01	2.0	1.0	070_neutral	0.0	224.8641872864955	
21.0	125.99810828734371	pulse	1.0	t		31.0	male	west_asian	1.9538400318344609	neutral	070	sub-01	2.0	1.0	070_neutral	0.0	225.56421635493825	
21.0	126.69804197024268	pulse	1.0	t		31.0	male	west_asian	1.9538400318344609	neutral	070	sub-01	2.0	1.0	070_neutral	0.0	226.26415003783723	
21.0	127.39802244035491	pulse	1.0	t		31.0	male	west_asian	1.9538400318344609	neutral	070	sub-01	2.0	1.0	070_neutral	0.0	226.96413050794945	
22.0	128.02288528590452	face	0.0		145	28.0	male	east_asian	1.5563072025467568	neutral	005	sub-01	2.0	1.0	005_neutral	0.0	227.58899335349906	1.2333127368979149
22.0	128.0980083438203	pulse	0.0	t		28.0	male	east_asian	1.5563072025467568	neutral	005	sub-01	2.0	1.0	005_neutral	0.0	227.66411641141485	
22.0	128.79798156946072	pulse	0.0	t		28.0	male	east_asian	1.5563072025467568	neutral	005	sub-01	2.0	1.0	005_neutral	0.0	228.36408963705526	
22.0	129.25619802280244	fix	1.0		444	28.0	male	east_asian	1.5563072025467568	neutral	005	sub-01	2.0	1.0	005_neutral	0.0	228.82230609039698	3.766553844082864
22.0	129.49797109516203	pulse	1.0	t		28.0	male	east_asian	1.5563072025467568	neutral	005	sub-01	2.0	1.0	005_neutral	0.0	229.06407916275657	
22.0	130.19794884859675	pulse	1.0	t		28.0	male	east_asian	1.5563072025467568	neutral	005	sub-01	2.0	1.0	005_neutral	0.0	229.7640569161913	
22.0	130.89792358350223	pulse	1.0	t		28.0	male	east_asian	1.5563072025467568	neutral	005	sub-01	2.0	1.0	005_neutral	0.0	230.46403165109678	
22.0	131.59791310920355	pulse	1.0	t		28.0	male	east_asian	1.5563072025467568	neutral	005	sub-01	2.0	1.0	005_neutral	0.0	231.1640211767981	
22.0	132.29789569228615	pulse	1.0	t		28.0	male	east_asian	1.5563072025467568	neutral	005	sub-01	2.0	1.0	005_neutral	0.0	231.8640037598807	
22.0	132.9978713327505	pulse	1.0	t		28.0	male	east_asian	1.5563072025467568	neutral	005	sub-01	2.0	1.0	005_neutral	0.0	232.56397940034503	
23.0	133.0227518668853	face	0.0		146	20.0	female	white	3.9502586549940313	neutral	091	sub-01	2.0	1.0	091_neutral	0.0	232.58885993447984	1.2333115294859454
23.0	133.69786780107052	pulse	0.0	t		20.0	female	white	3.9502586549940313	neutral	091	sub-01	2.0	1.0	091_neutral	0.0	233.26397586866506	
23.0	134.25606339637125	fix	1.0		1184	20.0	female	white	3.9502586549940313	neutral	091	sub-01	2.0	1.0	091_neutral	0.0	233.8221714639658	10.01638639113935
23.0	134.39786487309675	pulse	1.0	t		20.0	female	white	3.9502586549940313	neutral	091	sub-01	2.0	1.0	091_neutral	0.0	233.9639729406913	
23.0	135.09782572276436	pulse	1.0	t		20.0	female	white	3.9502586549940313	neutral	091	sub-01	2.0	1.0	091_neutral	0.0	234.6639337903589	
23.0	135.79780045766938	pulse	1.0	t		20.0	female	white	3.9502586549940313	neutral	091	sub-01	2.0	1.0	091_neutral	0.0	235.36390852526392	
23.0	136.49778304075244	pulse	1.0	t		20.0	female	white	3.9502586549940313	neutral	091	sub-01	2.0	1.0	091_neutral	0.0	236.06389110834698	
23.0	137.19777437757148	pulse	1.0	t		20.0	female	white	3.9502586549940313	neutral	091	sub-01	2.0	1.0	091_neutral	0.0	236.76388244516602	
23.0	137.8977617903024	pulse	1.0	t		20.0	female	white	3.9502586549940313	neutral	091	sub-01	2.0	1.0	091_neutral	0.0	237.46386985789695	
23.0	138.59772535664706	pulse	1.0	t		20.0	female	white	3.9502586549940313	neutral	091	sub-01	2.0	1.0	091_neutral	0.0	238.1638334242416	
23.0	139.29767715072512	pulse	1.0	t		20.0	female	white	3.9502586549940313	neutral	091	sub-01	2.0	1.0	091_neutral	0.0	238.86378521831966	
23.0	139.99768146722272	pulse	1.0	t		20.0	female	white	3.9502586549940313	neutral	091	sub-01	2.0	1.0	091_neutral	0.0	239.56378953481726	
23.0	140.69767069107138	pulse	1.0	t		20.0	female	white	3.9502586549940313	neutral	091	sub-01	2.0	1.0	091_neutral	0.0	240.26377875866592	
23.0	141.39763969076967	pulse	1.0	t		20.0	female	white	3.9502586549940313	neutral	091	sub-01	2.0	1.0	091_neutral	0.0	240.9637477583642	
23.0	142.09765909991665	pulse	1.0	t		20.0	female	white	3.9502586549940313	neutral	091	sub-01	2.0	1.0	091_neutral	0.0	241.6637671675112	
23.0	142.79761179955403	pulse	1.0	t		20.0	female	white	3.9502586549940313	neutral	091	sub-01	2.0	1.0	091_neutral	0.0	242.36371986714857	
23.0	143.4975759696049	pulse	1.0	t		20.0	female	white	3.9502586549940313	neutral	091	sub-01	2.0	1.0	091_neutral	0.0	243.06368403719944	
23.0	144.1975769657197	pulse	1.0	t		20.0	female	white	3.9502586549940313	neutral	091	sub-01	2.0	1.0	091_neutral	0.0	243.76368503331423	
24.0	144.2724497875106	face	0.0		146	31.0	female	east_asian	3.395941106247513	smiling	087	sub-01	2.0	1.0	087_smiling	0.0	243.83855785510514	1.233297644248978
24.0	144.89755260618358	pulse	0.0	t		31.0	female	east_asian	3.395941106247513	smiling	087	sub-01	2.0	1.0	087_smiling	0.0	244.46366067377812	
24.0	145.50574743175957	fix	1.0		443	31.0	female	east_asian	3.395941106247513	smiling	087	sub-01	2.0	1.0	087_smiling	0.0	245.07185549935411	3.7665674274667253
24.0	145.5975357929724	pulse	1.0	t		31.0	female	east_asian	3.395941106247513	smiling	087	sub-01	2.0	1.0	087_smiling	0.0	245.16364386056694	
24.0	146.29752350755598	pulse	1.0	t		31.0	female	east_asian	3.395941106247513	smiling	087	sub-01	2.0	1.0	087_smiling	0.0	245.86363157515052	
24.0	146.99750367581464	pulse	1.0	t		31.0	female	east_asian	3.395941106247513	smiling	087	sub-01	2.0	1.0	087_smiling	0.0	246.56361174340918	
24.0	147.6974775051608	pulse	1.0	t		31.0	female	east_asian	3.395941106247513	smiling	087	sub-01	2.0	1.0	087_smiling	0.0	247.26358557275535	
24.0	148.39745948453765	pulse	1.0	t		31.0	female	east_asian	3.395941106247513	smiling	087	sub-01	2.0	1.0	087_smiling	0.0	247.9635675521322	
24.0	149.09744236947336	pulse	1.0	t		31.0	female	east_asian	3.395941106247513	smiling	087	sub-01	2.0	1.0	087_smiling	0.0	248.6635504370679	
25.0	149.2723148592263	face	0.0		146	20.0	female	white	3.9502586549940313	smiling	091	sub-01	2.0	1.0	091_smiling	0.0	248.83842292682084	1.2416511237533996
25.0	149.79743370629285	pulse	0.0	t		20.0	female	white	3.9502586549940313	smiling	091	sub-01	2.0	1.0	091_smiling	0.0	249.3635417738874	
25.0	150.4974093467572	pulse	0.0	t		20.0	female	white	3.9502586549940313	smiling	091	sub-01	2.0	1.0	091_smiling	0.0	250.06351741435174	
25.0	150.5139659829797	fix	1.0		443	20.0	female	white	3.9502586549940313	smiling	091	sub-01	2.0	1.0	091_smiling	0.0	250.08007405057424	3.749894275992119
25.0	151.19739102428093	pulse	1.0	t		20.0	female	white	3.9502586549940313	smiling	091	sub-01	2.0	1.0	091_smiling	0.0	250.76349909187547	
25.0	151.89737360736353	pulse	1.0	t		20.0	female	white	3.9502586549940313	smiling	091	sub-01	2.0	1.0	091_smiling	0.0	251.46348167495808	
25.0	152.59734834226856	pulse	1.0	t		20.0	female	white	3.9502586549940313	smiling	091	sub-01	2.0	1.0	091_smiling	0.0	252.1634564098631	
25.0	153.2973354531464	pulse	1.0	t		20.0	female	white	3.9502586549940313	smiling	091	sub-01	2.0	1.0	091_smiling	0.0	252.86344352074093	
25.0	153.9973083769337	pulse	1.0	t		20.0	female	white	3.9502586549940313	smiling	091	sub-01	2.0	1.0	091_smiling	0.0	253.56341644452823	
26.0	154.26386025897182	face	0.0		146	25.0	female	black	3.858336649423	smiling	126	sub-01	2.0	1.0	126_smiling	0.0	253.82996832656636	1.2416357292513567
26.0	154.6972942803991	pulse	0.0	t		25.0	female	black	3.858336649423	smiling	126	sub-01	2.0	1.0	126_smiling	0.0	254.26340234799363	
26.0	155.39730101172063	pulse	0.0	t		25.0	female	black	3.858336649423	smiling	126	sub-01	2.0	1.0	126_smiling	0.0	254.96340907931517	
26.0	155.50549598822317	fix	1.0		444	25.0	female	black	3.858336649423	smiling	126	sub-01	2.0	1.0	126_smiling	0.0	255.07160405581772	3.7665538440824093
26.0	156.0972757466261	pulse	1.0	t		25.0	female	black	3.858336649423	smiling	126	sub-01	2.0	1.0	126_smiling	0.0	255.66338381422065	
26.0	156.79724353891243	pulse	1.0	t		25.0	female	black	3.858336649423	smiling	126	sub-01	2.0	1.0	126_smiling	0.0	256.36335160650697	
26.0	157.49720952008101	pulse	1.0	t		25.0	female	black	3.858336649423	smiling	126	sub-01	2.0	1.0	126_smiling	0.0	257.06331758767556	
26.0	158.19720115875316	pulse	1.0	t		25.0	female	black	3.858336649423	smiling	126	sub-01	2.0	1.0	126_smiling	0.0	257.7633092263477	
26.0	158.89786985367073	pulse	1.0	t		25.0	female	black	3.858336649423	smiling	126	sub-01	2.0	1.0	126_smiling	0.0	258.46397792126527	
27.0	159.27204983230558	face	0.0		145	23.0	male	white	3.922801432550736	smiling	108	sub-01	2.0	1.0	108_smiling	0.0	258.8381578999001	1.233308812809355
27.0	159.5971693434485	pulse	0.0	t		23.0	male	white	3.922801432550736	smiling	108	sub-01	2.0	1.0	108_smiling	0.0	259.16327741104305	
27.0	160.29714498391286	pulse	0.0	t		23.0	male	white	3.922801432550736	smiling	108	sub-01	2.0	1.0	108_smiling	0.0	259.8632530515074	
27.0	160.50535864511494	fix	1.0		444	23.0	male	white	3.922801432550736	smiling	108	sub-01	2.0	1.0	108_smiling	0.0	260.0714667127095	3.766555051494379
27.0	160.99717193938432	pulse	1.0	t		23.0	male	white	3.922801432550736	smiling	108	sub-01	2.0	1.0	108_smiling	0.0	260.56328000697886	
27.0	161.69710169819473	pulse	1.0	t		23.0	male	white	3.922801432550736	smiling	108	sub-01	2.0	1.0	108_smiling	0.0	261.26320976578927	
27.0	162.39709062019028	pulse	1.0	t		23.0	male	white	3.922801432550736	smiling	108	sub-01	2.0	1.0	108_smiling	0.0	261.9631986877848	
27.0	163.0970704865963	pulse	1.0	t		23.0	male	white	3.922801432550736	smiling	108	sub-01	2.0	1.0	108_smiling	0.0	262.66317855419084	
27.0	163.79704552335443	pulse	1.0	t		23.0	male	white	3.922801432550736	smiling	108	sub-01	2.0	1.0	108_smiling	0.0	263.36315359094897	
28.0	164.27191369660932	face	0.0		145	28.0	male	east_asian	1.5563072025467568	smiling	005	sub-01	2.0	1.0	005_smiling	0.0	263.83802176420386	1.233306699838522
28.0	164.4971026641242	pulse	0.0	t		28.0	male	east_asian	1.5563072025467568	smiling	005	sub-01	2.0	1.0	005_smiling	0.0	264.06321073171875	
28.0	165.19702246178622	pulse	0.0	t		28.0	male	east_asian	1.5563072025467568	smiling	005	sub-01	2.0	1.0	005_smiling	0.0	264.76313052938076	
28.0	165.50522039644784	fix	1.0		444	28.0	male	east_asian	1.5563072025467568	smiling	005	sub-01	2.0	1.0	005_smiling	0.0	265.0713284640424	3.7665450903459714
28.0	165.89701078007556	pulse	1.0	t		28.0	male	east_asian	1.5563072025467568	smiling	005	sub-01	2.0	1.0	005_smiling	0.0	265.4631188476701	
28.0	166.59697223344938	pulse	1.0	t		28.0	male	east_asian	1.5563072025467568	smiling	005	sub-01	2.0	1.0	005_smiling	0.0	266.1630803010439	
28.0	167.29696145729804	pulse	1.0	t		28.0	male	east_asian	1.5563072025467568	smiling	005	sub-01	2.0	1.0	005_smiling	0.0	266.8630695248926	
28.0	167.99692804217239	pulse	1.0	t		28.0	male	east_asian	1.5563072025467568	smiling	005	sub-01	2.0	1.0	005_smiling	0.0	267.5630361097669	
28.0	168.69691062525544	pulse	1.0	t		28.0	male	east_asian	1.5563072025467568	smiling	005	sub-01	2.0	1.0	005_smiling	0.0	268.26301869285	
29.0	169.2717654867938	face	0.0		145	25.0	female	west_asian	2.6756864305610826	neutral	064	sub-01	2.0	1.0	064_neutral	0.0	268.83787355438835	1.23332873510617
29.0	169.39689501945622	pulse	0.0	t		25.0	female	west_asian	2.6756864305610826	neutral	064	sub-01	2.0	1.0	064_neutral	0.0	268.96300308705077	
29.0	170.09688001736276	pulse	0.0	t		25.0	female	west_asian	2.6756864305610826	neutral	064	sub-01	2.0	1.0	064_neutral	0.0	269.6629880849573	
29.0	170.50509422189998	fix	1.0		444	25.0	female	west_asian	2.6756864305610826	neutral	064	sub-01	2.0	1.0	064_neutral	0.0	270.0712022894945	3.758296051974412
29.0	170.79686984491718	pulse	1.0	t		25.0	female	west_asian	2.6756864305610826	neutral	064	sub-01	2.0	1.0	064_neutral	0.0	270.3629779125117	
29.0	171.49684699464615	pulse	1.0	t		25.0	female	west_asian	2.6756864305610826	neutral	064	sub-01	2.0	1.0	064_neutral	0.0	271.0629550622407	
29.0	172.19681901287458	pulse	1.0	t		25.0	female	west_asian	2.6756864305610826	neutral	064	sub-01	2.0	1.0	064_neutral	0.0	271.7629270804691	
29.0	172.8967898236906	pulse	1.0	t		25.0	female	west_asian	2.6756864305610826	neutral	064	sub-01	2.0	1.0	064_neutral	0.0	272.46289789128514	
29.0	173.59676757712577	pulse	1.0	t		25.0	female	west_asian	2.6756864305610826	neutral	064	sub-01	2.0	1.0	064_neutral	0.0	273.1628756447203	
30.0	174.2633902738744	face	0.0		146	24.0	female	black	3.0955033824114606	neutral	099	sub-01	2.0	1.0	099_neutral	1.0	273.82949834146893	1.241561775269929
30.0	174.29680509745185	pulse	0.0	t		24.0	female	black	3.0955033824114606	neutral	099	sub-01	2.0	1.0	099_neutral	1.0	273.8629131650464	
30.0	174.99674994891166	pulse	0.0	t		24.0	female	black	3.0955033824114606	neutral	099	sub-01	2.0	1.0	099_neutral	1.0	274.5628580165062	
30.0	175.50495204914432	fix	1.0		236	24.0	female	black	3.0955033824114606	neutral	099	sub-01	2.0	1.0	099_neutral	1.0	275.07106011673886	1.9999601554059154
30.0	175.69681373044705	pulse	1.0	t		24.0	female	black	3.0955033824114606	neutral	099	sub-01	2.0	1.0	099_neutral	1.0	275.2629217980416	
30.0	176.39671994472474	pulse	1.0	t		24.0	female	black	3.0955033824114606	neutral	099	sub-01	2.0	1.0	099_neutral	1.0	275.9628280123193	
30.0	177.09669890557188	pulse	1.0	t		24.0	female	black	3.0955033824114606	neutral	099	sub-01	2.0	1.0	099_neutral	1.0	276.6628069731664	
30.0	177.50491220455024	rating	2.0		235	24.0	female	black	3.0955033824114606	neutral	099	sub-01	2.0	1.0	099_neutral	1.0	277.0710202721448	1.9999347997550103
30.0	177.79668662015501	pulse	2.0	t		24.0	female	black	3.0955033824114606	neutral	099	sub-01	2.0	1.0	099_neutral	1.0	277.36279468774956	
30.0	178.4966529031767	pulse	2.0	t		24.0	female	black	3.0955033824114606	neutral	099	sub-01	2.0	1.0	099_neutral	1.0	278.06276097077125	
30.0	179.19664816408476	pulse	2.0	t		24.0	female	black	3.0955033824114606	neutral	099	sub-01	2.0	1.0	099_neutral	1.0	278.7627562316793	
30.0	179.4799444349028	response	2.0	y		24.0	female	black	3.0955033824114606	neutral	099	sub-01	2.0	1.0	099_neutral	1.0	279.04605250249733	
30.0	179.50484700430525	fix	3.0		444	24.0	female	black	3.0955033824114606	neutral	099	sub-01	2.0	1.0	099_neutral	1.0	279.0709550718998	3.7582767333833544
30.0	179.89660659892888	pulse	3.0	t		24.0	female	black	3.0955033824114606	neutral	099	sub-01	2.0	1.0	099_neutral	1.0	279.4627146665234	
30.0	180.59660457651398	pulse	3.0	t		24.0	female	black	3.0955033824114606	neutral	099	sub-01	2.0	1.0	099_neutral	1.0	280.1627126441085	
30.0	181.29659621518613	pulse	3.0	t		24.0	female	black	3.0955033824114606	neutral	099	sub-01	2.0	1.0	099_neutral	1.0	280.86270428278067	
30.0	181.99656551673752	pulse	3.0	t		24.0	female	black	3.0955033824114606	neutral	099	sub-01	2.0	1.0	099_neutral	1.0	281.56267358433206	
30.0	182.69654930723254	pulse	3.0	t		24.0	female	black	3.0955033824114606	neutral	099	sub-01	2.0	1.0	099_neutral	1.0	282.2626573748271	
31.0	183.2631237376886	face	0.0		146	40.0	female	west_asian	1.5777954635893354	neutral	038	sub-01	2.0	1.0	038_neutral	0.0	282.82923180528314	1.241597695774999
31.0	183.3965312866094	pulse	0.0	t		40.0	female	west_asian	1.5777954635893354	neutral	038	sub-01	2.0	1.0	038_neutral	0.0	282.96263935420393	
31.0	184.09650149371964	pulse	0.0	t		40.0	female	west_asian	1.5777954635893354	neutral	038	sub-01	2.0	1.0	038_neutral	0.0	283.6626095613142	
31.0	184.5047214334636	fix	1.0		444	40.0	female	west_asian	1.5777954635893354	neutral	038	sub-01	2.0	1.0	038_neutral	0.0	284.07082950105814	3.766553542229758
31.0	184.79649222683292	pulse	1.0	t		40.0	female	west_asian	1.5777954635893354	neutral	038	sub-01	2.0	1.0	038_neutral	0.0	284.36260029442747	
31.0	185.4964766210337	pulse	1.0	t		40.0	female	west_asian	1.5777954635893354	neutral	038	sub-01	2.0	1.0	038_neutral	0.0	285.06258468862825	
31.0	186.19646705229388	pulse	1.0	t		40.0	female	west_asian	1.5777954635893354	neutral	038	sub-01	2.0	1.0	038_neutral	0.0	285.7625751198884	
31.0	186.89643756125724	pulse	1.0	t		40.0	female	west_asian	1.5777954635893354	neutral	038	sub-01	2.0	1.0	038_neutral	0.0	286.4625456288518	
31.0	187.5964165221044	pulse	1.0	t		40.0	female	west_asian	1.5777954635893354	neutral	038	sub-01	2.0	1.0	038_neutral	0.0	287.16252458969893	
32.0	188.27127497569336	face	0.0		145	32.0	male	white	1.8245125348189413	neutral	125	sub-01	2.0	1.0	125_neutral	0.0	287.8373830432879	1.2333124350448088
32.0	188.2964060478057	pulse	0.0	t		32.0	male	white	1.8245125348189413	neutral	125	sub-01	2.0	1.0	125_neutral	0.0	287.86251411540024	
32.0	188.99638470679974	pulse	0.0	t		32.0	male	white	1.8245125348189413	neutral	125	sub-01	2.0	1.0	125_neutral	0.0	288.5624927743943	
32.0	189.50458741073817	fix	1.0		443	32.0	male	white	1.8245125348189413	neutral	125	sub-01	2.0	1.0	125_neutral	0.0	289.0706954783327	3.766552032965137
32.0	189.6963618565287	pulse	1.0	t		32.0	male	white	1.8245125348189413	neutral	125	sub-01	2.0	1.0	125_neutral	0.0	289.26246992412325	
32.0	190.39634745814146	pulse	1.0	t		32.0	male	white	1.8245125348189413	neutral	125	sub-01	2.0	1.0	125_neutral	0.0	289.962455525736	
32.0	191.09637622473065	pulse	1.0	t		32.0	male	white	1.8245125348189413	neutral	125	sub-01	2.0	1.0	125_neutral	0.0	290.6624842923252	
32.0	191.7962984372166	pulse	1.0	t		32.0	male	white	1.8245125348189413	neutral	125	sub-01	2.0	1.0	125_neutral	0.0	291.36240650481113	
32.0	192.49629067959495	pulse	1.0	t		32.0	male	white	1.8245125348189413	neutral	125	sub-01	2.0	1.0	125_neutral	0.0	292.0623987471895	
32.0	193.19626843303013	pulse	1.0	t		32.0	male	white	1.8245125348189413	neutral	125	sub-01	2.0	1.0	125_neutral	0.0	292.76237650062467	
33.0	193.2711394437033	face	0.0		146	22.0	female	west_asian	3.8205332272184642	smiling	066	sub-01	2.0	1.0	066_smiling	1.0	292.83724751129785	1.2333136424567783
33.0	193.89625071425962	pulse	0.0	t		22.0	female	west_asian	3.8205332272184642	smiling	066	sub-01	2.0	1.0	066_smiling	1.0	293.46235878185416	
33.0	194.50445308616008	fix	1.0		236	22.0	female	west_asian	3.8205332272184642	smiling	066	sub-01	2.0	1.0	066_smiling	1.0	294.0705611537546	1.999939327550237
33.0	194.59622726028283	pulse	1.0	t		22.0	female	west_asian	3.8205332272184642	smiling	066	sub-01	2.0	1.0	066_smiling	1.0	294.1623353278774	
33.0	195.29620954151278	pulse	1.0	t		22.0	female	west_asian	3.8205332272184642	smiling	066	sub-01	2.0	1.0	066_smiling	1.0	294.8623176091073	
33.0	195.99620661353856	pulse	1.0	t		22.0	female	west_asian	3.8205332272184642	smiling	066	sub-01	2.0	1.0	066_smiling	1.0	295.5623146811331	
33.0	196.50439241371032	rating	2.0		235	22.0	female	west_asian	3.8205332272184642	smiling	066	sub-01	2.0	1.0	066_smiling	1.0	296.07050048130486	1.9999441571976604
33.0	196.69618255585556	pulse	2.0	t		22.0	female	west_asian	3.8205332272184642	smiling	066	sub-01	2.0	1.0	066_smiling	1.0	296.2622906234501	
33.0	197.39615880002566	pulse	2.0	t		22.0	female	west_asian	3.8205332272184642	smiling	066	sub-01	2.0	1.0	066_smiling	1.0	296.9622668676202	
33.0	198.09614832572743	pulse	2.0	t		22.0	female	west_asian	3.8205332272184642	smiling	066	sub-01	2.0	1.0	066_smiling	1.0	297.66225639332197	
33.0	198.42944624164375	response	2.0	w		22.0	female	west_asian	3.8205332272184642	smiling	066	sub-01	2.0	1.0	066_smiling	1.0	297.9955543092383	
33.0	198.50433657090798	fix	3.0		444	22.0	female	west_asian	3.8205332272184642	smiling	066	sub-01	2.0	1.0	066_smiling	1.0	298.0704446385025	3.766562597819302
33.0	198.79610525130647	pulse	3.0	t		22.0	female	west_asian	3.8205332272184642	smiling	066	sub-01	2.0	1.0	066_smiling	1.0	298.362213318901	
33.0	199.49610745483324	pulse	3.0	t		22.0	female	west_asian	3.8205332272184642	smiling	066	sub-01	2.0	1.0	066_smiling	1.0	299.0622155224278	
33.0	200.19607373785448	pulse	3.0	t		22.0	female	west_asian	3.8205332272184642	smiling	066	sub-01	2.0	1.0	066_smiling	1.0	299.762181805449	
33.0	200.89606567837973	pulse	3.0	t		22.0	female	west_asian	3.8205332272184642	smiling	066	sub-01	2.0	1.0	066_smiling	1.0	300.46217374597427	
33.0	201.5960470540508	pulse	3.0	t		22.0	female	west_asian	3.8205332272184642	smiling	066	sub-01	2.0	1.0	066_smiling	1.0	301.16215512164536	
34.0	202.27089916872728	face	0.0		145	24.0	female	east_asian	4.409868682849185	neutral	030	sub-01	2.0	1.0	030_neutral	0.0	301.8370072363218	1.233303983161477
34.0	202.29603175010425	pulse	0.0	t		24.0	female	east_asian	4.409868682849185	neutral	030	sub-01	2.0	1.0	030_neutral	0.0	301.8621398176988	
34.0	202.99602218136488	pulse	0.0	t		24.0	female	east_asian	4.409868682849185	neutral	030	sub-01	2.0	1.0	030_neutral	0.0	302.5621302489594	
34.0	203.50420315188876	fix	1.0		443	24.0	female	east_asian	4.409868682849185	neutral	030	sub-01	2.0	1.0	030_neutral	0.0	303.0703112194833	3.7582220979929843
34.0	203.69598514400377	pulse	1.0	t		24.0	female	east_asian	4.409868682849185	neutral	030	sub-01	2.0	1.0	030_neutral	0.0	303.2620932115983	
34.0	204.39596531226243	pulse	1.0	t		24.0	female	east_asian	4.409868682849185	neutral	030	sub-01	2.0	1.0	030_neutral	0.0	303.962073379857	
34.0	205.09595634722882	pulse	1.0	t		24.0	female	east_asian	4.409868682849185	neutral	030	sub-01	2.0	1.0	030_neutral	0.0	304.66206441482336	
34.0	205.79594617478324	pulse	1.0	t		24.0	female	east_asian	4.409868682849185	neutral	030	sub-01	2.0	1.0	030_neutral	0.0	305.3620542423778	
34.0	206.49591396706955	pulse	1.0	t		24.0	female	east_asian	4.409868682849185	neutral	030	sub-01	2.0	1.0	030_neutral	0.0	306.0620220346641	
34.0	207.19590892612496	pulse	1.0	t		24.0	female	east_asian	4.409868682849185	neutral	030	sub-01	2.0	1.0	030_neutral	0.0	306.7620169937195	
35.0	207.26242524988174	face	0.0		147	31.0	female	east_asian	3.395941106247513	neutral	087	sub-01	2.0	1.0	087_neutral	0.0	306.8285333174763	1.2416414644576435
35.0	207.8958661535571	pulse	0.0	t		31.0	female	east_asian	3.395941106247513	neutral	087	sub-01	2.0	1.0	087_neutral	0.0	307.46197422115165	
35.0	208.5040667143394	fix	1.0		443	31.0	female	east_asian	3.395941106247513	neutral	087	sub-01	2.0	1.0	087_neutral	0.0	308.07017478193393	3.758348272540843
35.0	208.59586292372978	pulse	1.0	t		31.0	female	east_asian	3.395941106247513	neutral	087	sub-01	2.0	1.0	087_neutral	0.0	308.1619709913243	
35.0	209.29583584751708	pulse	1.0	t		31.0	female	east_asian	3.395941106247513	neutral	087	sub-01	2.0	1.0	087_neutral	0.0	308.8619439151116	
35.0	209.995857671488	pulse	1.0	t		31.0	female	east_asian	3.395941106247513	neutral	087	sub-01	2.0	1.0	087_neutral	0.0	309.56196573908255	
35.0	210.69580101368274	pulse	1.0	t		31.0	female	east_asian	3.395941106247513	neutral	087	sub-01	2.0	1.0	087_neutral	0.0	310.2619090812773	
35.0	211.39577967267678	pulse	1.0	t		31.0	female	east_asian	3.395941106247513	neutral	087	sub-01	2.0	1.0	087_neutral	0.0	310.9618877402713	
35.0	212.0957562187	pulse	1.0	t		31.0	female	east_asian	3.395941106247513	neutral	087	sub-01	2.0	1.0	087_neutral	0.0	311.66186428629453	
36.0	212.26241498688023	face	0.0		147	24.0	female	white	3.1794667727815358	smiling	019	sub-01	2.0	1.0	019_smiling	0.0	311.8285230544748	1.2498536767652695
36.0	212.79578347602455	pulse	0.0	t		24.0	female	white	3.1794667727815358	smiling	019	sub-01	2.0	1.0	019_smiling	0.0	312.3618915436191	
36.0	213.49571263112875	pulse	0.0	t		24.0	female	white	3.1794667727815358	smiling	019	sub-01	2.0	1.0	019_smiling	0.0	313.0618206987233	
36.0	213.5122686636455	fix	1.0		443	24.0	female	white	3.1794667727815358	smiling	019	sub-01	2.0	1.0	019_smiling	0.0	313.07837673124004	3.7582311535825283
36.0	214.19570245868317	pulse	1.0	t		24.0	female	white	3.1794667727815358	smiling	019	sub-01	2.0	1.0	019_smiling	0.0	313.7618105262777	
36.0	214.89568685288395	pulse	1.0	t		24.0	female	white	3.1794667727815358	smiling	019	sub-01	2.0	1.0	019_smiling	0.0	314.4617949204785	
36.0	215.59566943596656	pulse	1.0	t		24.0	female	white	3.1794667727815358	smiling	019	sub-01	2.0	1.0	019_smiling	0.0	315.1617775035611	
36.0	216.2956517171965	pulse	1.0	t		24.0	female	white	3.1794667727815358	smiling	019	sub-01	2.0	1.0	019_smiling	0.0	315.86175978479105	
36.0	216.9956493929285	pulse	1.0	t		24.0	female	white	3.1794667727815358	smiling	019	sub-01	2.0	1.0	019_smiling	0.0	316.56175746052304	
37.0	217.27049981722803	face	0.0		145	40.0	male	white	1.868682849184242	neutral	172	sub-01	2.0	1.0	172_neutral	0.0	316.83660788482257	1.233313642457233
37.0	217.6956036018305	pulse	0.0	t		40.0	male	white	1.868682849184242	neutral	172	sub-01	2.0	1.0	172_neutral	0.0	317.26171166942504	
37.0	218.39559222197295	pulse	0.0	t		40.0	male	white	1.868682849184242	neutral	172	sub-01	2.0	1.0	172_neutral	0.0	317.9617002895675	
37.0	218.50381345968526	fix	1.0		444	40.0	male	white	1.868682849184242	neutral	172	sub-01	2.0	1.0	172_neutral	0.0	318.0699215272798	3.7582492647611616
37.0	219.09557540876176	pulse	1.0	t		40.0	male	white	1.868682849184242	neutral	172	sub-01	2.0	1.0	172_neutral	0.0	318.6616834763563	
37.0	219.79554984181414	pulse	1.0	t		40.0	male	white	1.868682849184242	neutral	172	sub-01	2.0	1.0	172_neutral	0.0	319.3616579094087	
37.0	220.4955333304556	pulse	1.0	t		40.0	male	white	1.868682849184242	neutral	172	sub-01	2.0	1.0	172_neutral	0.0	320.06164139805014	
37.0	221.19553402471774	pulse	1.0	t		40.0	male	white	1.868682849184242	neutral	172	sub-01	2.0	1.0	172_neutral	0.0	320.7616420923123	
37.0	221.895504231828	pulse	1.0	t		40.0	male	white	1.868682849184242	neutral	172	sub-01	2.0	1.0	172_neutral	0.0	321.46161229942254	
38.0	222.26206272444642	face	0.0		146	28.0	male	white	3.9076800636689217	neutral	033	sub-01	2.0	1.0	033_neutral	0.0	321.82817079204096	1.2416037328348466
38.0	222.59548289082204	pulse	0.0	t		28.0	male	white	3.9076800636689217	neutral	033	sub-01	2.0	1.0	033_neutral	0.0	322.1615909584166	
38.0	223.295460040551	pulse	0.0	t		28.0	male	white	3.9076800636689217	neutral	033	sub-01	2.0	1.0	033_neutral	0.0	322.86156810814555	
38.0	223.50366645728127	fix	1.0		444	28.0	male	white	3.9076800636689217	neutral	033	sub-01	2.0	1.0	033_neutral	0.0	323.0697745248758	3.7665662200552106
38.0	223.995441114369	pulse	1.0	t		28.0	male	white	3.9076800636689217	neutral	033	sub-01	2.0	1.0	033_neutral	0.0	323.5615491819635	
38.0	224.69543546971818	pulse	1.0	t		28.0	male	white	3.9076800636689217	neutral	033	sub-01	2.0	1.0	033_neutral	0.0	324.2615435373127	
38.0	225.39600696797424	pulse	1.0	t		28.0	male	white	3.9076800636689217	neutral	033	sub-01	2.0	1.0	033_neutral	0.0	324.9621150355688	
38.0	226.09539067473497	pulse	1.0	t		28.0	male	white	3.9076800636689217	neutral	033	sub-01	2.0	1.0	033_neutral	0.0	325.6614987423295	
38.0	226.79536118369833	pulse	1.0	t		28.0	male	white	3.9076800636689217	neutral	033	sub-01	2.0	1.0	033_neutral	0.0	326.3614692512929	
39.0	227.27023267733648	face	0.0		145	27.0	male	black	3.5523278949462798	smiling	042	sub-01	2.0	1.0	042_smiling	0.0	326.836340744931	1.2333139443098844
39.0	227.49535161495896	pulse	0.0	t		27.0	male	black	3.5523278949462798	smiling	042	sub-01	2.0	1.0	042_smiling	0.0	327.0614596825535	
39.0	228.1953329906296	pulse	0.0	t		27.0	male	black	3.5523278949462798	smiling	042	sub-01	2.0	1.0	042_smiling	0.0	327.76144105822414	
39.0	228.50354662164636	fix	1.0		444	27.0	male	black	3.5523278949462798	smiling	042	sub-01	2.0	1.0	042_smiling	0.0	328.0696546892409	3.7498972945218156
39.0	228.89530742368197	pulse	1.0	t		27.0	male	black	3.5523278949462798	smiling	042	sub-01	2.0	1.0	042_smiling	0.0	328.4614154912765	
39.0	229.59528366785207	pulse	1.0	t		27.0	male	black	3.5523278949462798	smiling	042	sub-01	2.0	1.0	042_smiling	0.0	329.1613917354466	
39.0	230.29526443981695	pulse	1.0	t		27.0	male	black	3.5523278949462798	smiling	042	sub-01	2.0	1.0	042_smiling	0.0	329.8613725074115	
39.0	230.99527388781507	pulse	1.0	t		27.0	male	black	3.5523278949462798	smiling	042	sub-01	2.0	1.0	042_smiling	0.0	330.5613819554096	
39.0	231.69523654860086	pulse	1.0	t		27.0	male	black	3.5523278949462798	smiling	042	sub-01	2.0	1.0	042_smiling	0.0	331.2613446161954	
40.0	232.25344391616818	fix	0.0		720												331.8195519837627	5.999843640153813
40.0	232.3952221502136	pulse	0.0	t													331.96133021780815	
40.0	233.09519718697175	pulse	0.0	t													332.6613052545663	
40.0	233.79519395714487	pulse	0.0	t													333.3613020247394	
40.0	234.4951487697531	pulse	0.0	t													334.0612568373476	
40.0	235.1951452380731	pulse	0.0	t													334.76125330566765	
40.0	235.89512299150783	pulse	0.0	t													335.4612310591024	
40.0	236.59510617829665	pulse	0.0	t													336.1612142458912	
40.0	237.29507880023084	pulse	0.0	t													336.8611868678254	
40.0	237.99507345743314	pulse	0.0	t													337.5611815250277	
