trial_nr	onset	event_type	phase	response	nr_frames	face_age	face_sex	face_eth	attractiveness	expression	face_id	sub_id	ses	run	trial_type	catch	onset_abs	duration
-1.0	0.059507354842935456	fix	0.0		713												21.21292717360393	5.957891254391143
-1.0	0.7010079837573358	pulse	0.0	t													21.85442780251833	
-1.0	0.8759515595475023	response	0.0	d													22.029371378308497	
-1.0	1.401449386042259	pulse	0.0	t													22.554869204803254	
-1.0	2.100981601647618	pulse	0.0	t													23.254401420408612	
-1.0	2.800934904708811	pulse	0.0	t													23.954354723469805	
-1.0	3.5009404286520294	pulse	0.0	t													24.654360247413024	
-1.0	4.200924219048829	pulse	0.0	t													25.354344037809824	
-1.0	4.900893822269609	pulse	0.0	t													26.054313641030603	
-1.0	5.600899346212827	pulse	0.0	t													26.754319164973822	
0.0	6.017398609234078	face	0.0		144	20.0	female	white	3.9502586549940313	smiling	091	sub-02	1.0	6.0	091_smiling	0.0	27.170818427995073	1.2333410105075018
0.0	6.30087679765802	pulse	0.0	t		20.0	female	white	3.9502586549940313	smiling	091	sub-02	1.0	6.0	091_smiling	0.0	27.454296616419015	
0.0	7.000863908458086	pulse	0.0	t		20.0	female	white	3.9502586549940313	smiling	091	sub-02	1.0	6.0	091_smiling	0.0	28.15428372721908	
0.0	7.25073961974158	fix	1.0		444	20.0	female	white	3.9502586549940313	smiling	091	sub-02	1.0	6.0	091_smiling	0.0	28.404159438502575	3.758242673757195
0.0	7.700846793291021	pulse	1.0	t		20.0	female	white	3.9502586549940313	smiling	091	sub-02	1.0	6.0	091_smiling	0.0	28.854266612052015	
0.0	8.40082937626812	pulse	1.0	t		20.0	female	white	3.9502586549940313	smiling	091	sub-02	1.0	6.0	091_smiling	0.0	29.554249195029115	
0.0	9.100814675939546	pulse	1.0	t		20.0	female	white	3.9502586549940313	smiling	091	sub-02	1.0	6.0	091_smiling	0.0	30.25423449470054	
0.0	9.800812351657441	pulse	1.0	t		20.0	female	white	3.9502586549940313	smiling	091	sub-02	1.0	6.0	091_smiling	0.0	30.954232170418436	
0.0	10.500797349473032	pulse	1.0	t		20.0	female	white	3.9502586549940313	smiling	091	sub-02	1.0	6.0	091_smiling	0.0	31.654217168234027	
1.0	11.008982293498775	face	0.0		146	22.0	female	white	4.614007162753682	neutral	009	sub-02	1.0	6.0	009_neutral	0.0	32.16240211225977	1.241612435935167
1.0	11.200730428262432	pulse	0.0	t		22.0	female	white	4.614007162753682	neutral	009	sub-02	1.0	6.0	009_neutral	0.0	32.354150247023426	
1.0	11.900752554220162	pulse	0.0	t		22.0	female	white	4.614007162753682	neutral	009	sub-02	1.0	6.0	009_neutral	0.0	33.05417237298116	
1.0	12.250594729433942	fix	1.0		444	22.0	female	white	4.614007162753682	neutral	009	sub-02	1.0	6.0	009_neutral	0.0	33.40401454819494	3.758280405608275
1.0	12.600754757760114	pulse	1.0	t		22.0	female	white	4.614007162753682	neutral	009	sub-02	1.0	6.0	009_neutral	0.0	33.75417457652111	
1.0	13.3007282850931	pulse	1.0	t		22.0	female	white	4.614007162753682	neutral	009	sub-02	1.0	6.0	009_neutral	0.0	34.454148103854095	
1.0	14.00071147178096	pulse	1.0	t		22.0	female	white	4.614007162753682	neutral	009	sub-02	1.0	6.0	009_neutral	0.0	35.154131290541955	
1.0	14.700702808547248	pulse	1.0	t		22.0	female	white	4.614007162753682	neutral	009	sub-02	1.0	6.0	009_neutral	0.0	35.85412262730824	
1.0	15.40069082491209	pulse	1.0	t		22.0	female	white	4.614007162753682	neutral	009	sub-02	1.0	6.0	009_neutral	0.0	36.554110643673084	
2.0	16.008875135042217	face	0.0		146	28.0	female	white	5.676880222841227	smiling	124	sub-02	1.0	6.0	124_smiling	1.0	37.16229495380321	1.2416634493974925
2.0	16.10063990200615	pulse	0.0	t		28.0	female	white	5.676880222841227	smiling	124	sub-02	1.0	6.0	124_smiling	1.0	37.254059720767145	
2.0	16.800613429339137	pulse	0.0	t		28.0	female	white	5.676880222841227	smiling	124	sub-02	1.0	6.0	124_smiling	1.0	37.95403324810013	
2.0	17.25053858443971	fix	1.0		236	28.0	female	white	5.676880222841227	smiling	124	sub-02	1.0	6.0	124_smiling	1.0	38.403958403200704	2.0082994979247815
2.0	17.50064219610249	pulse	1.0	t		28.0	female	white	5.676880222841227	smiling	124	sub-02	1.0	6.0	124_smiling	1.0	38.654062014863484	
2.0	18.20061300674206	pulse	1.0	t		28.0	female	white	5.676880222841227	smiling	124	sub-02	1.0	6.0	124_smiling	1.0	39.354032825503054	
2.0	18.900611889879656	pulse	1.0	t		28.0	female	white	5.676880222841227	smiling	124	sub-02	1.0	6.0	124_smiling	1.0	40.05403170864065	
2.0	19.25883808236449	rating	2.0		234	28.0	female	white	5.676880222841227	smiling	124	sub-02	1.0	6.0	124_smiling	1.0	40.412257901125486	1.991608436358547
2.0	19.600622545353872	pulse	2.0	t		28.0	female	white	5.676880222841227	smiling	124	sub-02	1.0	6.0	124_smiling	1.0	40.754042364114866	
2.0	20.30058731889858	pulse	2.0	t		28.0	female	white	5.676880222841227	smiling	124	sub-02	1.0	6.0	124_smiling	1.0	41.45400713765957	
2.0	20.32036394030365	response	2.0	y		28.0	female	white	5.676880222841227	smiling	124	sub-02	1.0	6.0	124_smiling	1.0	41.473783759064645	
2.0	21.0005852964714	pulse	2.0	t		28.0	female	white	5.676880222841227	smiling	124	sub-02	1.0	6.0	124_smiling	1.0	42.154005115232394	
2.0	21.250446518723038	fix	3.0		444	28.0	female	white	5.676880222841227	smiling	124	sub-02	1.0	6.0	124_smiling	1.0	42.40386633748403	3.7582375422261975
2.0	21.700580557350804	pulse	3.0	t		28.0	female	white	5.676880222841227	smiling	124	sub-02	1.0	6.0	124_smiling	1.0	42.8540003761118	
2.0	22.400543217911036	pulse	3.0	t		28.0	female	white	5.676880222841227	smiling	124	sub-02	1.0	6.0	124_smiling	1.0	43.55396303667203	
2.0	23.100520065647288	pulse	3.0	t		28.0	female	white	5.676880222841227	smiling	124	sub-02	1.0	6.0	124_smiling	1.0	44.25393988440828	
2.0	23.800515024671768	pulse	3.0	t		28.0	female	white	5.676880222841227	smiling	124	sub-02	1.0	6.0	124_smiling	1.0	44.95393484343276	
2.0	24.500498815068568	pulse	3.0	t		28.0	female	white	5.676880222841227	smiling	124	sub-02	1.0	6.0	124_smiling	1.0	45.65391863382956	
3.0	25.008684060949236	face	0.0		146	34.0	male	white	2.651014723438122	smiling	121	sub-02	1.0	6.0	121_smiling	0.0	46.16210387971023	1.241617567467074
3.0	25.200452419984686	pulse	0.0	t		34.0	male	white	2.651014723438122	smiling	121	sub-02	1.0	6.0	121_smiling	0.0	46.35387223874568	
3.0	25.900425645463656	pulse	0.0	t		34.0	male	white	2.651014723438122	smiling	121	sub-02	1.0	6.0	121_smiling	0.0	47.05384546422465	
3.0	26.25030162841631	fix	1.0		444	34.0	male	white	2.651014723438122	smiling	121	sub-02	1.0	6.0	121_smiling	0.0	47.403721447177304	3.758277387059934
3.0	26.600460751177707	pulse	1.0	t		34.0	male	white	2.651014723438122	smiling	121	sub-02	1.0	6.0	121_smiling	0.0	47.7538805699387	
3.0	27.300446654558073	pulse	1.0	t		34.0	male	white	2.651014723438122	smiling	121	sub-02	1.0	6.0	121_smiling	0.0	48.45386647331907	
3.0	28.000427728261457	pulse	1.0	t		34.0	male	white	2.651014723438122	smiling	121	sub-02	1.0	6.0	121_smiling	0.0	49.15384754702245	
3.0	28.700407292691125	pulse	1.0	t		34.0	male	white	2.651014723438122	smiling	121	sub-02	1.0	6.0	121_smiling	0.0	49.85382711145212	
3.0	29.400395912764907	pulse	1.0	t		34.0	male	white	2.651014723438122	smiling	121	sub-02	1.0	6.0	121_smiling	0.0	50.5538157315259	
4.0	30.008579015476244	face	0.0		146	54.0	female	white	2.286908077994429	neutral	136	sub-02	1.0	6.0	136_neutral	0.0	51.16199883423724	1.2416604308491515
4.0	30.100358875180063	pulse	0.0	t		54.0	female	white	2.286908077994429	neutral	136	sub-02	1.0	6.0	136_neutral	0.0	51.25377869394106	
4.0	30.800323346868936	pulse	0.0	t		54.0	female	white	2.286908077994429	neutral	136	sub-02	1.0	6.0	136_neutral	0.0	51.95374316562993	
4.0	31.250239446325395	fix	1.0		444	54.0	female	white	2.286908077994429	neutral	136	sub-02	1.0	6.0	136_neutral	0.0	52.40365926508639	3.7665518310368498
4.0	31.500352415487214	pulse	1.0	t		54.0	female	white	2.286908077994429	neutral	136	sub-02	1.0	6.0	136_neutral	0.0	52.65377223424821	
4.0	32.20033771515864	pulse	1.0	t		54.0	female	white	2.286908077994429	neutral	136	sub-02	1.0	6.0	136_neutral	0.0	53.353757533919634	
4.0	32.90033991869859	pulse	1.0	t		54.0	female	white	2.286908077994429	neutral	136	sub-02	1.0	6.0	136_neutral	0.0	54.053759737459586	
4.0	33.600342725948394	pulse	1.0	t		54.0	female	white	2.286908077994429	neutral	136	sub-02	1.0	6.0	136_neutral	0.0	54.75376254470939	
4.0	34.30029844384808	pulse	1.0	t		54.0	female	white	2.286908077994429	neutral	136	sub-02	1.0	6.0	136_neutral	0.0	55.45371826260907	
5.0	35.016791277362245	face	0.0		146	19.0	female	white	4.298846000795861	smiling	100	sub-02	1.0	6.0	100_smiling	0.0	56.17021109612324	1.2332957322860238
5.0	35.004580344844726	pulse	0.0	t		19.0	female	white	4.298846000795861	smiling	100	sub-02	1.0	6.0	100_smiling	0.0	56.15800016360572	
5.0	35.70024006512813	pulse	0.0	t		19.0	female	white	4.298846000795861	smiling	100	sub-02	1.0	6.0	100_smiling	0.0	56.85365988388912	
5.0	36.25008700964827	fix	1.0		443	19.0	female	white	4.298846000795861	smiling	100	sub-02	1.0	6.0	100_smiling	0.0	57.40350682840926	3.7666179372390616
5.0	36.4002830190675	pulse	1.0	t		19.0	female	white	4.298846000795861	smiling	100	sub-02	1.0	6.0	100_smiling	0.0	57.553702837828496	
5.0	37.100225153501015	pulse	1.0	t		19.0	female	white	4.298846000795861	smiling	100	sub-02	1.0	6.0	100_smiling	0.0	58.25364497226201	
5.0	37.800218905105794	pulse	1.0	t		19.0	female	white	4.298846000795861	smiling	100	sub-02	1.0	6.0	100_smiling	0.0	58.95363872386679	
5.0	38.50021476969505	pulse	1.0	t		19.0	female	white	4.298846000795861	smiling	100	sub-02	1.0	6.0	100_smiling	0.0	59.65363458845604	
5.0	39.20018437291583	pulse	1.0	t		19.0	female	white	4.298846000795861	smiling	100	sub-02	1.0	6.0	100_smiling	0.0	60.35360419167682	
5.0	39.90017480411916	pulse	1.0	t		19.0	female	white	4.298846000795861	smiling	100	sub-02	1.0	6.0	100_smiling	0.0	61.053594622880155	
6.0	40.01670494688733	face	0.0		146	28.0	male	white	3.9076800636689217	neutral	033	sub-02	1.0	6.0	033_neutral	0.0	61.170124765648325	1.233282752528794
6.0	40.600123579358296	pulse	0.0	t		28.0	male	white	3.9076800636689217	neutral	033	sub-02	1.0	6.0	033_neutral	0.0	61.75354339811929	
6.0	41.249987699416124	fix	1.0		443	28.0	male	white	3.9076800636689217	neutral	033	sub-02	1.0	6.0	033_neutral	0.0	62.40340751817712	3.76661491869163
6.0	41.30015868507235	pulse	1.0	t		28.0	male	white	3.9076800636689217	neutral	033	sub-02	1.0	6.0	033_neutral	0.0	62.45357850383334	
6.0	42.00013794764709	pulse	1.0	t		28.0	male	white	3.9076800636689217	neutral	033	sub-02	1.0	6.0	033_neutral	0.0	63.153557766408085	
6.0	42.70011600280213	pulse	1.0	t		28.0	male	white	3.9076800636689217	neutral	033	sub-02	1.0	6.0	033_neutral	0.0	63.85353582156313	
6.0	43.400102208037424	pulse	1.0	t		28.0	male	white	3.9076800636689217	neutral	033	sub-02	1.0	6.0	033_neutral	0.0	64.55352202679842	
6.0	44.100111052383	pulse	1.0	t		28.0	male	white	3.9076800636689217	neutral	033	sub-02	1.0	6.0	033_neutral	0.0	65.253530871144	
6.0	44.800075222217856	pulse	1.0	t		28.0	male	white	3.9076800636689217	neutral	033	sub-02	1.0	6.0	033_neutral	0.0	65.95349504097885	
7.0	45.016602618107754	face	0.0		145	27.0	male	black	3.5523278949462798	neutral	042	sub-02	1.0	6.0	042_neutral	0.0	66.17002243686875	1.233322899218365
7.0	45.500033656810956	pulse	0.0	t		27.0	male	black	3.5523278949462798	neutral	042	sub-02	1.0	6.0	042_neutral	0.0	66.65345347557195	
7.0	46.19998514874351	pulse	0.0	t		27.0	male	black	3.5523278949462798	neutral	042	sub-02	1.0	6.0	042_neutral	0.0	67.3534049675045	
7.0	46.24992551732612	fix	1.0		444	27.0	male	black	3.5523278949462798	neutral	042	sub-02	1.0	6.0	042_neutral	0.0	67.40334533608711	3.7665726590175836
7.0	46.90003866760071	pulse	1.0	t		27.0	male	black	3.5523278949462798	neutral	042	sub-02	1.0	6.0	042_neutral	0.0	68.0534584863617	
7.0	47.60001823203038	pulse	1.0	t		27.0	male	black	3.5523278949462798	neutral	042	sub-02	1.0	6.0	042_neutral	0.0	68.75343805079137	
7.0	48.29999387234693	pulse	1.0	t		27.0	male	black	3.5523278949462798	neutral	042	sub-02	1.0	6.0	042_neutral	0.0	69.45341369110793	
7.0	48.999988529517395	pulse	1.0	t		27.0	male	black	3.5523278949462798	neutral	042	sub-02	1.0	6.0	042_neutral	0.0	70.15340834827839	
7.0	49.69997564031655	pulse	1.0	t		27.0	male	black	3.5523278949462798	neutral	042	sub-02	1.0	6.0	042_neutral	0.0	70.85339545907755	
8.0	50.0164981763437	face	0.0		145	40.0	male	white	1.868682849184242	neutral	172	sub-02	1.0	6.0	172_neutral	0.0	71.1699179951047	1.2332815451109127
8.0	50.39991143579937	pulse	0.0	t		40.0	male	white	1.868682849184242	neutral	172	sub-02	1.0	6.0	172_neutral	0.0	71.55333125456036	
8.0	51.09989371692245	pulse	0.0	t		40.0	male	white	1.868682849184242	neutral	172	sub-02	1.0	6.0	172_neutral	0.0	72.25331353568345	
8.0	51.249779721454615	fix	1.0		444	40.0	male	white	1.868682849184242	neutral	172	sub-02	1.0	6.0	172_neutral	0.0	72.40319954021561	3.766594392564002
8.0	51.79994753763458	pulse	1.0	t		40.0	male	white	1.868682849184242	neutral	172	sub-02	1.0	6.0	172_neutral	0.0	72.95336735639557	
8.0	52.49993012061168	pulse	1.0	t		40.0	male	white	1.868682849184242	neutral	172	sub-02	1.0	6.0	172_neutral	0.0	73.65334993937267	
8.0	53.19989398859161	pulse	1.0	t		40.0	male	white	1.868682849184242	neutral	172	sub-02	1.0	6.0	172_neutral	0.0	74.3533138073526	
8.0	53.89988411793911	pulse	1.0	t		40.0	male	white	1.868682849184242	neutral	172	sub-02	1.0	6.0	172_neutral	0.0	75.0533039367001	
8.0	54.59986488978848	pulse	1.0	t		40.0	male	white	1.868682849184242	neutral	172	sub-02	1.0	6.0	172_neutral	0.0	75.75328470854947	
9.0	55.01637411401862	face	0.0		145	40.0	female	west_asian	1.5777954635893354	smiling	038	sub-02	1.0	6.0	038_smiling	0.0	76.16979393277961	1.2333440290549333
9.0	55.299855019135975	pulse	0.0	t		40.0	female	west_asian	1.5777954635893354	smiling	038	sub-02	1.0	6.0	038_smiling	0.0	76.45327483789697	
9.0	55.99981073703566	pulse	0.0	t		40.0	female	west_asian	1.5777954635893354	smiling	038	sub-02	1.0	6.0	038_smiling	0.0	77.15323055579665	
9.0	56.24971814307355	fix	1.0		444	40.0	female	west_asian	1.5777954635893354	smiling	038	sub-02	1.0	6.0	038_smiling	0.0	77.40313796183455	3.7582372403712725
9.0	56.69982742960656	pulse	1.0	t		40.0	female	west_asian	1.5777954635893354	smiling	038	sub-02	1.0	6.0	038_smiling	0.0	77.85324724836755	
9.0	57.399819973792546	pulse	1.0	t		40.0	female	west_asian	1.5777954635893354	smiling	038	sub-02	1.0	6.0	038_smiling	0.0	78.55323979255354	
9.0	58.09979531225508	pulse	1.0	t		40.0	female	west_asian	1.5777954635893354	smiling	038	sub-02	1.0	6.0	038_smiling	0.0	79.25321513101608	
9.0	58.79977698966832	pulse	1.0	t		40.0	female	west_asian	1.5777954635893354	smiling	038	sub-02	1.0	6.0	038_smiling	0.0	79.95319680842931	
9.0	59.49975625224306	pulse	1.0	t		40.0	female	west_asian	1.5777954635893354	smiling	038	sub-02	1.0	6.0	038_smiling	0.0	80.65317607100405	
10.0	60.00795538344482	face	0.0		146	20.0	female	white	3.9502586549940313	neutral	091	sub-02	1.0	6.0	091_neutral	0.0	81.16137520220582	1.2416854847979266
10.0	60.199706234901896	pulse	0.0	t		20.0	female	white	3.9502586549940313	neutral	091	sub-02	1.0	6.0	091_neutral	0.0	81.35312605366289	
10.0	60.89981921915569	pulse	0.0	t		20.0	female	white	3.9502586549940313	neutral	091	sub-02	1.0	6.0	091_neutral	0.0	82.05323903791668	
10.0	61.24964086824275	fix	1.0		444	20.0	female	white	3.9502586549940313	neutral	091	sub-02	1.0	6.0	091_neutral	0.0	82.40306068700374	3.7665463976500178
10.0	61.599805726245904	pulse	1.0	t		20.0	female	white	3.9502586549940313	neutral	091	sub-02	1.0	6.0	091_neutral	0.0	82.7532255450069	
10.0	62.29971616592502	pulse	1.0	t		20.0	female	white	3.9502586549940313	neutral	091	sub-02	1.0	6.0	091_neutral	0.0	83.45313598468601	
10.0	62.999688485839215	pulse	1.0	t		20.0	female	white	3.9502586549940313	neutral	091	sub-02	1.0	6.0	091_neutral	0.0	84.15310830460021	
10.0	63.699673483654806	pulse	1.0	t		20.0	female	white	3.9502586549940313	neutral	091	sub-02	1.0	6.0	091_neutral	0.0	84.8530933024158	
10.0	64.39966753711542	pulse	1.0	t		20.0	female	white	3.9502586549940313	neutral	091	sub-02	1.0	6.0	091_neutral	0.0	85.55308735587641	
11.0	65.01618726589277	face	0.0		145	22.0	female	white	4.614007162753682	smiling	009	sub-02	1.0	6.0	009_smiling	0.0	86.16960708465376	1.2333219936544992
11.0	65.09965917573663	pulse	0.0	t		22.0	female	white	4.614007162753682	smiling	009	sub-02	1.0	6.0	009_smiling	0.0	86.25307899449763	
11.0	65.79960613984713	pulse	0.0	t		22.0	female	white	4.614007162753682	smiling	009	sub-02	1.0	6.0	009_smiling	0.0	86.95302595860812	
11.0	66.24950925954727	fix	1.0		444	22.0	female	white	4.614007162753682	smiling	009	sub-02	1.0	6.0	009_smiling	0.0	87.40292907830826	3.7665669237758266
11.0	66.49962403983773	pulse	1.0	t		22.0	female	white	4.614007162753682	smiling	009	sub-02	1.0	6.0	009_smiling	0.0	87.65304385859872	
11.0	67.19961175434673	pulse	1.0	t		22.0	female	white	4.614007162753682	smiling	009	sub-02	1.0	6.0	009_smiling	0.0	88.35303157310773	
11.0	67.8995861872445	pulse	1.0	t		22.0	female	white	4.614007162753682	smiling	009	sub-02	1.0	6.0	009_smiling	0.0	89.05300600600549	
11.0	68.59959322046143	pulse	1.0	t		22.0	female	white	4.614007162753682	smiling	009	sub-02	1.0	6.0	009_smiling	0.0	89.75301303922242	
11.0	69.29953927900715	pulse	1.0	t		22.0	female	white	4.614007162753682	smiling	009	sub-02	1.0	6.0	009_smiling	0.0	90.45295909776814	
12.0	70.0160761833231	face	0.0		146	30.0	female	black	2.7345801830481498	neutral	062	sub-02	1.0	6.0	062_neutral	1.0	91.16949600208409	1.2333286344610315
12.0	70.00219025848128	pulse	0.0	t		30.0	female	black	2.7345801830481498	neutral	062	sub-02	1.0	6.0	062_neutral	1.0	91.15561007724227	
12.0	70.69954308237811	pulse	0.0	t		30.0	female	black	2.7345801830481498	neutral	062	sub-02	1.0	6.0	062_neutral	1.0	91.85296290113911	
12.0	71.24940481778413	fix	1.0		236	30.0	female	black	2.7345801830481498	neutral	062	sub-02	1.0	6.0	062_neutral	1.0	92.40282463654512	1.999962570003845
12.0	71.39972579509322	pulse	1.0	t		30.0	female	black	2.7345801830481498	neutral	062	sub-02	1.0	6.0	062_neutral	1.0	92.55314561385421	
12.0	72.09953058558949	pulse	1.0	t		30.0	female	black	2.7345801830481498	neutral	062	sub-02	1.0	6.0	062_neutral	1.0	93.25295040435049	
12.0	72.79950109437414	pulse	1.0	t		30.0	female	black	2.7345801830481498	neutral	062	sub-02	1.0	6.0	062_neutral	1.0	93.95292091313513	
12.0	73.24936738778797	rating	2.0		235	30.0	female	black	2.7345801830481498	neutral	062	sub-02	1.0	6.0	062_neutral	1.0	94.40278720654896	1.9999562310522379
12.0	73.49948790331928	pulse	2.0	t		30.0	female	black	2.7345801830481498	neutral	062	sub-02	1.0	6.0	062_neutral	1.0	94.65290772208027	
12.0	74.19946414734568	pulse	2.0	t		30.0	female	black	2.7345801830481498	neutral	062	sub-02	1.0	6.0	062_neutral	1.0	95.35288396610667	
12.0	74.28581877059969	response	2.0	w		30.0	female	black	2.7345801830481498	neutral	062	sub-02	1.0	6.0	062_neutral	1.0	95.43923858936068	
12.0	74.89943103387395	pulse	2.0	t		30.0	female	black	2.7345801830481498	neutral	062	sub-02	1.0	6.0	062_neutral	1.0	96.05285085263495	
12.0	75.24932361884021	fix	3.0		444	30.0	female	black	2.7345801830481498	neutral	062	sub-02	1.0	6.0	062_neutral	1.0	96.4027434376012	3.7665533403105655
12.0	75.599428105882	pulse	3.0	t		30.0	female	black	2.7345801830481498	neutral	062	sub-02	1.0	6.0	062_neutral	1.0	96.75284792464299	
12.0	76.29941038700508	pulse	3.0	t		30.0	female	black	2.7345801830481498	neutral	062	sub-02	1.0	6.0	062_neutral	1.0	97.45283020576608	
12.0	76.99939870522394	pulse	3.0	t		30.0	female	black	2.7345801830481498	neutral	062	sub-02	1.0	6.0	062_neutral	1.0	98.15281852398493	
12.0	77.69939426795827	pulse	3.0	t		30.0	female	black	2.7345801830481498	neutral	062	sub-02	1.0	6.0	062_neutral	1.0	98.85281408671926	
12.0	78.39937926577386	pulse	3.0	t		30.0	female	black	2.7345801830481498	neutral	062	sub-02	1.0	6.0	062_neutral	1.0	99.55279908453485	
13.0	79.01587695915077	face	0.0		145	31.0	male	west_asian	1.9538400318344609	smiling	070	sub-02	1.0	6.0	070_smiling	0.0	100.16929677791177	1.2333431234910677
13.0	79.09932713544913	pulse	0.0	t		31.0	male	west_asian	1.9538400318344609	smiling	070	sub-02	1.0	6.0	070_smiling	0.0	100.25274695421012	
13.0	79.79933899834305	pulse	0.0	t		31.0	male	west_asian	1.9538400318344609	smiling	070	sub-02	1.0	6.0	070_smiling	0.0	100.95275881710404	
13.0	80.24922008264184	fix	1.0		444	31.0	male	west_asian	1.9538400318344609	smiling	070	sub-02	1.0	6.0	070_smiling	0.0	101.40263990140284	3.766562697808695
13.0	80.4993336555126	pulse	1.0	t		31.0	male	west_asian	1.9538400318344609	smiling	070	sub-02	1.0	6.0	070_smiling	0.0	101.6527534742736	
13.0	81.19930506986293	pulse	1.0	t		31.0	male	west_asian	1.9538400318344609	smiling	070	sub-02	1.0	6.0	070_smiling	0.0	102.35272488862392	
13.0	81.89929338808179	pulse	1.0	t		31.0	male	west_asian	1.9538400318344609	smiling	070	sub-02	1.0	6.0	070_smiling	0.0	103.05271320684278	
13.0	82.59929861017008	pulse	1.0	t		31.0	male	west_asian	1.9538400318344609	smiling	070	sub-02	1.0	6.0	070_smiling	0.0	103.75271842893108	
13.0	83.29926278000403	pulse	1.0	t		31.0	male	west_asian	1.9538400318344609	smiling	070	sub-02	1.0	6.0	070_smiling	0.0	104.45268259876502	
14.0	84.01578278045054	face	0.0		147	21.0	male	black	2.969757262236371	neutral	137	sub-02	1.0	6.0	137_neutral	0.0	105.16920259921153	1.241610021096676
14.0	84.00207313881583	pulse	0.0	t		21.0	male	black	2.969757262236371	neutral	137	sub-02	1.0	6.0	137_neutral	0.0	105.15549295757683	
14.0	84.69919564749489	pulse	0.0	t		21.0	male	black	2.969757262236371	neutral	137	sub-02	1.0	6.0	137_neutral	0.0	105.85261546625588	
14.0	85.25739280154721	fix	1.0		443	21.0	male	black	2.969757262236371	neutral	137	sub-02	1.0	6.0	137_neutral	0.0	106.4108126203082	3.7666254836094595
14.0	85.39923497917607	pulse	1.0	t		21.0	male	black	2.969757262236371	neutral	137	sub-02	1.0	6.0	137_neutral	0.0	106.55265479793707	
14.0	86.09921605288037	pulse	1.0	t		21.0	male	black	2.969757262236371	neutral	137	sub-02	1.0	6.0	137_neutral	0.0	107.25263587164136	
14.0	86.7992028618246	pulse	1.0	t		21.0	male	black	2.969757262236371	neutral	137	sub-02	1.0	6.0	137_neutral	0.0	107.95262268058559	
14.0	87.4991803132707	pulse	1.0	t		21.0	male	black	2.969757262236371	neutral	137	sub-02	1.0	6.0	137_neutral	0.0	108.6526001320317	
14.0	88.19915716100695	pulse	1.0	t		21.0	male	black	2.969757262236371	neutral	137	sub-02	1.0	6.0	137_neutral	0.0	109.35257697976795	
14.0	88.89915725156334	pulse	1.0	t		21.0	male	black	2.969757262236371	neutral	137	sub-02	1.0	6.0	137_neutral	0.0	110.05257707032433	
15.0	89.02401828515667	face	0.0		146	31.0	female	east_asian	3.395941106247513	smiling	087	sub-02	1.0	6.0	087_smiling	0.0	110.17743810391767	1.2333078064784786
15.0	89.59909576373957	pulse	0.0	t		31.0	female	east_asian	3.395941106247513	smiling	087	sub-02	1.0	6.0	087_smiling	0.0	110.75251558250056	
15.0	90.25732609163515	fix	1.0		443	31.0	female	east_asian	3.395941106247513	smiling	087	sub-02	1.0	6.0	087_smiling	0.0	111.41074591039614	3.7582390514999133
15.0	90.29918792001172	pulse	1.0	t		31.0	female	east_asian	3.395941106247513	smiling	087	sub-02	1.0	6.0	087_smiling	0.0	111.45260773877271	
15.0	90.99911013202836	pulse	1.0	t		31.0	female	east_asian	3.395941106247513	smiling	087	sub-02	1.0	6.0	087_smiling	0.0	112.15252995078936	
15.0	91.69909030016697	pulse	1.0	t		31.0	female	east_asian	3.395941106247513	smiling	087	sub-02	1.0	6.0	087_smiling	0.0	112.85251011892797	
15.0	92.39908284435387	pulse	1.0	t		31.0	female	east_asian	3.395941106247513	smiling	087	sub-02	1.0	6.0	087_smiling	0.0	113.55250266311486	
15.0	93.09906029579906	pulse	1.0	t		31.0	female	east_asian	3.395941106247513	smiling	087	sub-02	1.0	6.0	087_smiling	0.0	114.25248011456006	
15.0	93.79904559547049	pulse	1.0	t		31.0	female	east_asian	3.395941106247513	smiling	087	sub-02	1.0	6.0	087_smiling	0.0	114.95246541423148	
16.0	94.01556514313506	face	0.0		146	21.0	male	black	2.969757262236371	smiling	137	sub-02	1.0	6.0	137_smiling	0.0	115.16898496189606	1.2416700902031153
16.0	94.49902817844759	pulse	0.0	t		21.0	male	black	2.969757262236371	smiling	137	sub-02	1.0	6.0	137_smiling	0.0	115.65244799720858	
16.0	95.19898238707356	pulse	0.0	t		21.0	male	black	2.969757262236371	smiling	137	sub-02	1.0	6.0	137_smiling	0.0	116.35240220583455	
16.0	95.25723523333818	fix	1.0		444	21.0	male	black	2.969757262236371	smiling	137	sub-02	1.0	6.0	137_smiling	0.0	116.41065505209917	3.7582318069844405
16.0	95.89900300375666	pulse	1.0	t		21.0	male	black	2.969757262236371	smiling	137	sub-02	1.0	6.0	137_smiling	0.0	117.05242282251766	
16.0	96.59898951084688	pulse	1.0	t		21.0	male	black	2.969757262236371	smiling	137	sub-02	1.0	6.0	137_smiling	0.0	117.75240932960787	
16.0	97.29897239567981	pulse	1.0	t		21.0	male	black	2.969757262236371	smiling	137	sub-02	1.0	6.0	137_smiling	0.0	118.4523922144408	
16.0	97.99896644913952	pulse	1.0	t		21.0	male	black	2.969757262236371	smiling	137	sub-02	1.0	6.0	137_smiling	0.0	119.15238626790051	
16.0	98.69895205066587	pulse	1.0	t		21.0	male	black	2.969757262236371	smiling	137	sub-02	1.0	6.0	137_smiling	0.0	119.85237186942686	
17.0	99.01546704032262	face	0.0		146	25.0	female	black	3.858336649423	neutral	126	sub-02	1.0	6.0	126_neutral	0.0	120.16888685908361	1.2416613364139266
17.0	99.39892437058006	pulse	0.0	t		25.0	female	black	3.858336649423	neutral	126	sub-02	1.0	6.0	126_neutral	0.0	120.55234418934106	
17.0	100.09887012727086	pulse	0.0	t		25.0	female	black	3.858336649423	neutral	126	sub-02	1.0	6.0	126_neutral	0.0	121.25228994603185	
17.0	100.25712837673655	fix	1.0		444	25.0	female	black	3.858336649423	neutral	126	sub-02	1.0	6.0	126_neutral	0.0	121.41054819549754	3.7665796016781314
17.0	100.79890613854968	pulse	1.0	t		25.0	female	black	3.858336649423	neutral	126	sub-02	1.0	6.0	126_neutral	0.0	121.95232595731068	
17.0	101.49889053265542	pulse	1.0	t		25.0	female	black	3.858336649423	neutral	126	sub-02	1.0	6.0	126_neutral	0.0	122.65231035141642	
17.0	102.19888518982589	pulse	1.0	t		25.0	female	black	3.858336649423	neutral	126	sub-02	1.0	6.0	126_neutral	0.0	123.35230500858688	
17.0	102.89885660417531	pulse	1.0	t		25.0	female	black	3.858336649423	neutral	126	sub-02	1.0	6.0	126_neutral	0.0	124.0522764229363	
17.0	103.59884190384673	pulse	1.0	t		25.0	female	black	3.858336649423	neutral	126	sub-02	1.0	6.0	126_neutral	0.0	124.75226172260773	
18.0	104.02370797841468	face	0.0		145	19.0	male	white	3.2522881018702745	smiling	018	sub-02	1.0	6.0	018_smiling	0.0	125.17712779717567	1.2332779228527215
18.0	104.29883444803272	pulse	0.0	t		19.0	male	white	3.2522881018702745	smiling	018	sub-02	1.0	6.0	018_smiling	0.0	125.45225426679372	
18.0	104.99876903609584	pulse	0.0	t		19.0	male	white	3.2522881018702745	smiling	018	sub-02	1.0	6.0	018_smiling	0.0	126.15218885485683	
18.0	105.2569859012674	fix	1.0		444	19.0	male	white	3.2522881018702745	smiling	018	sub-02	1.0	6.0	018_smiling	0.0	126.4104057200284	3.7666161261104207
18.0	105.69880957519672	pulse	1.0	t		19.0	male	white	3.2522881018702745	smiling	018	sub-02	1.0	6.0	018_smiling	0.0	126.85222939395771	
18.0	106.39878340438463	pulse	1.0	t		19.0	male	white	3.2522881018702745	smiling	018	sub-02	1.0	6.0	018_smiling	0.0	127.55220322314563	
18.0	107.098807341471	pulse	1.0	t		19.0	male	white	3.2522881018702745	smiling	018	sub-02	1.0	6.0	018_smiling	0.0	128.252227160232	
18.0	107.79875370187165	pulse	1.0	t		19.0	male	white	3.2522881018702745	smiling	018	sub-02	1.0	6.0	018_smiling	0.0	128.95217352063264	
18.0	108.49875620726652	pulse	1.0	t		19.0	male	white	3.2522881018702745	smiling	018	sub-02	1.0	6.0	018_smiling	0.0	129.65217602602752	
19.0	109.02360202737782	face	0.0		145	24.0	female	east_asian	4.409868682849185	neutral	030	sub-02	1.0	6.0	030_neutral	0.0	130.1770218461388	1.2332736968846802
19.0	109.19873064016429	pulse	0.0	t		24.0	female	east_asian	4.409868682849185	neutral	030	sub-02	1.0	6.0	030_neutral	0.0	130.35215045892528	
19.0	109.8986854525001	pulse	0.0	t		24.0	female	east_asian	4.409868682849185	neutral	030	sub-02	1.0	6.0	030_neutral	0.0	131.0521052712611	
19.0	110.2568757242625	fix	1.0		444	24.0	female	east_asian	4.409868682849185	neutral	030	sub-02	1.0	6.0	030_neutral	0.0	131.4102955430235	3.758287650123748
19.0	110.59870697474798	pulse	1.0	t		24.0	female	east_asian	4.409868682849185	neutral	030	sub-02	1.0	6.0	030_neutral	0.0	131.75212679350898	
19.0	111.29868231320961	pulse	1.0	t		24.0	female	east_asian	4.409868682849185	neutral	030	sub-02	1.0	6.0	030_neutral	0.0	132.4521021319706	
19.0	111.99868391304062	pulse	1.0	t		24.0	female	east_asian	4.409868682849185	neutral	030	sub-02	1.0	6.0	030_neutral	0.0	133.15210373180162	
19.0	112.69865894964732	pulse	1.0	t		24.0	female	east_asian	4.409868682849185	neutral	030	sub-02	1.0	6.0	030_neutral	0.0	133.85207876840832	
19.0	113.39863428810986	pulse	1.0	t		24.0	female	east_asian	4.409868682849185	neutral	030	sub-02	1.0	6.0	030_neutral	0.0	134.55205410687086	
20.0	114.01516337438625	face	0.0		146	19.0	male	white	3.2522881018702745	neutral	018	sub-02	1.0	6.0	018_neutral	0.0	135.16858319314724	1.24164443254449
20.0	114.09865822519623	pulse	0.0	t		19.0	male	white	3.2522881018702745	neutral	018	sub-02	1.0	6.0	018_neutral	0.0	135.25207804395723	
20.0	114.79857802237439	pulse	0.0	t		19.0	male	white	3.2522881018702745	neutral	018	sub-02	1.0	6.0	018_neutral	0.0	135.95199784113538	
20.0	115.25680780693074	fix	1.0		444	19.0	male	white	3.2522881018702745	neutral	018	sub-02	1.0	6.0	018_neutral	0.0	136.41022762569173	3.7665629996645293
20.0	115.49860558171804	pulse	1.0	t		19.0	male	white	3.2522881018702745	neutral	018	sub-02	1.0	6.0	018_neutral	0.0	136.65202540047903	
20.0	116.19858273130922	pulse	1.0	t		19.0	male	white	3.2522881018702745	neutral	018	sub-02	1.0	6.0	018_neutral	0.0	137.3520025500702	
20.0	116.89857950146234	pulse	1.0	t		19.0	male	white	3.2522881018702745	neutral	018	sub-02	1.0	6.0	018_neutral	0.0	138.05199932022333	
20.0	117.59856842339104	pulse	1.0	t		19.0	male	white	3.2522881018702745	neutral	018	sub-02	1.0	6.0	018_neutral	0.0	138.75198824215204	
20.0	118.29853229137098	pulse	1.0	t		19.0	male	white	3.2522881018702745	neutral	018	sub-02	1.0	6.0	018_neutral	0.0	139.45195211013197	
20.0	118.99852694854053	pulse	1.0	t		19.0	male	white	3.2522881018702745	neutral	018	sub-02	1.0	6.0	018_neutral	0.0	140.15194676730152	
21.0	119.02337080659527	face	0.0		146	19.0	female	white	4.298846000795861	neutral	100	sub-02	1.0	6.0	100_neutral	0.0	140.17679062535626	1.233293921157383
21.0	119.6985243224035	pulse	0.0	t		19.0	female	white	4.298846000795861	neutral	100	sub-02	1.0	6.0	100_neutral	0.0	140.8519441411645	
21.0	120.25666472775265	fix	1.0		443	19.0	female	white	4.298846000795861	neutral	100	sub-02	1.0	6.0	100_neutral	0.0	141.41008454651364	3.766623068770059
21.0	120.39848154957781	pulse	1.0	t		19.0	female	white	4.298846000795861	neutral	100	sub-02	1.0	6.0	100_neutral	0.0	141.5519013683388	
21.0	121.09849703472901	pulse	1.0	t		19.0	female	white	4.298846000795861	neutral	100	sub-02	1.0	6.0	100_neutral	0.0	142.25191685349	
21.0	121.79846029899909	pulse	1.0	t		19.0	female	white	4.298846000795861	neutral	100	sub-02	1.0	6.0	100_neutral	0.0	142.95188011776008	
21.0	122.49845525802357	pulse	1.0	t		19.0	female	white	4.298846000795861	neutral	100	sub-02	1.0	6.0	100_neutral	0.0	143.65187507678456	
21.0	123.19844417995228	pulse	1.0	t		19.0	female	white	4.298846000795861	neutral	100	sub-02	1.0	6.0	100_neutral	0.0	144.35186399871327	
21.0	123.89843430929977	pulse	1.0	t		19.0	female	white	4.298846000795861	neutral	100	sub-02	1.0	6.0	100_neutral	0.0	145.05185412806077	
22.0	124.02328779652271	face	0.0		146	24.0	female	east_asian	4.409868682849185	smiling	030	sub-02	1.0	6.0	030_smiling	0.0	145.1767076152837	1.233272187611874
22.0	124.59840723292382	pulse	0.0	t		24.0	female	east_asian	4.409868682849185	smiling	030	sub-02	1.0	6.0	030_smiling	0.0	145.7518270516848	
22.0	125.25655998413458	fix	1.0		443	24.0	female	east_asian	4.409868682849185	smiling	030	sub-02	1.0	6.0	030_smiling	0.0	146.40997980289558	3.7666248798996094
22.0	125.2983907214657	pulse	1.0	t		24.0	female	east_asian	4.409868682849185	smiling	030	sub-02	1.0	6.0	030_smiling	0.0	146.4518105402267	
22.0	125.99837088960521	pulse	1.0	t		24.0	female	east_asian	4.409868682849185	smiling	030	sub-02	1.0	6.0	030_smiling	0.0	147.1517907083662	
22.0	126.69836011338884	pulse	1.0	t		24.0	female	east_asian	4.409868682849185	smiling	030	sub-02	1.0	6.0	030_smiling	0.0	147.85177993214984	
22.0	127.39834601676921	pulse	1.0	t		24.0	female	east_asian	4.409868682849185	smiling	030	sub-02	1.0	6.0	030_smiling	0.0	148.5517658355302	
22.0	128.0983334294233	pulse	1.0	t		24.0	female	east_asian	4.409868682849185	smiling	030	sub-02	1.0	6.0	030_smiling	0.0	149.2517532481843	
22.0	128.7983247661905	pulse	1.0	t		24.0	female	east_asian	4.409868682849185	smiling	030	sub-02	1.0	6.0	030_smiling	0.0	149.95174458495148	
23.0	129.0231848640342	face	0.0		145	37.0	male	white	3.898925586947871	neutral	101	sub-02	1.0	6.0	101_neutral	0.0	150.1766046827952	1.233250454064546
23.0	129.4983148955389	pulse	0.0	t		37.0	male	white	3.898925586947871	neutral	101	sub-02	1.0	6.0	101_neutral	0.0	150.6517347142999	
23.0	130.19828057464656	pulse	0.0	t		37.0	male	white	3.898925586947871	neutral	101	sub-02	1.0	6.0	101_neutral	0.0	151.35170039340755	
23.0	130.25643531809874	fix	1.0		1185	37.0	male	white	3.898925586947871	neutral	101	sub-02	1.0	6.0	101_neutral	0.0	151.40985513685973	10.01651568392299
23.0	130.89828670229963	pulse	1.0	t		37.0	male	white	3.898925586947871	neutral	101	sub-02	1.0	6.0	101_neutral	0.0	152.05170652106062	
23.0	131.59827170011522	pulse	1.0	t		37.0	male	white	3.898925586947871	neutral	101	sub-02	1.0	6.0	101_neutral	0.0	152.7516915188762	
23.0	132.29824945341625	pulse	1.0	t		37.0	male	white	3.898925586947871	neutral	101	sub-02	1.0	6.0	101_neutral	0.0	153.45166927217724	
23.0	132.99825075139233	pulse	1.0	t		37.0	male	white	3.898925586947871	neutral	101	sub-02	1.0	6.0	101_neutral	0.0	154.15167057015333	
23.0	133.6982279009826	pulse	1.0	t		37.0	male	white	3.898925586947871	neutral	101	sub-02	1.0	6.0	101_neutral	0.0	154.8516477197436	
23.0	134.39820203202635	pulse	1.0	t		37.0	male	white	3.898925586947871	neutral	101	sub-02	1.0	6.0	101_neutral	0.0	155.55162185078734	
23.0	135.098186727987	pulse	1.0	t		37.0	male	white	3.898925586947871	neutral	101	sub-02	1.0	6.0	101_neutral	0.0	156.251606546748	
23.0	135.79820040201048	pulse	1.0	t		37.0	male	white	3.898925586947871	neutral	101	sub-02	1.0	6.0	101_neutral	0.0	156.95162022077147	
23.0	136.49816487369935	pulse	1.0	t		37.0	male	white	3.898925586947871	neutral	101	sub-02	1.0	6.0	101_neutral	0.0	157.65158469246035	
23.0	137.19814987151494	pulse	1.0	t		37.0	male	white	3.898925586947871	neutral	101	sub-02	1.0	6.0	101_neutral	0.0	158.35156969027594	
23.0	137.89813124707416	pulse	1.0	t		37.0	male	white	3.898925586947871	neutral	101	sub-02	1.0	6.0	101_neutral	0.0	159.05155106583516	
23.0	138.59813013021085	pulse	1.0	t		37.0	male	white	3.898925586947871	neutral	101	sub-02	1.0	6.0	101_neutral	0.0	159.75154994897184	
23.0	139.2981057705283	pulse	1.0	t		37.0	male	white	3.898925586947871	neutral	101	sub-02	1.0	6.0	101_neutral	0.0	160.4515255892893	
23.0	139.99809771100445	pulse	1.0	t		37.0	male	white	3.898925586947871	neutral	101	sub-02	1.0	6.0	101_neutral	0.0	161.15151752976544	
24.0	140.27295100202173	face	0.0		145	21.0	male	east_asian/white	3.501790688420215	neutral	036	sub-02	1.0	6.0	036_neutral	0.0	161.42637082078272	1.2332945248672331
24.0	140.69802988422907	pulse	0.0	t		21.0	male	east_asian/white	3.501790688420215	neutral	036	sub-02	1.0	6.0	036_neutral	0.0	161.85144970299007	
24.0	141.39799978930478	pulse	0.0	t		21.0	male	east_asian/white	3.501790688420215	neutral	036	sub-02	1.0	6.0	036_neutral	0.0	162.55141960806577	
24.0	141.50624552688896	fix	1.0		444	21.0	male	east_asian/white	3.501790688420215	neutral	036	sub-02	1.0	6.0	036_neutral	0.0	162.65966534564996	3.766599825950834
24.0	142.09804696921128	pulse	1.0	t		21.0	male	east_asian/white	3.501790688420215	neutral	036	sub-02	1.0	6.0	036_neutral	0.0	163.25146678797228	
24.0	142.79802623178603	pulse	1.0	t		21.0	male	east_asian/white	3.501790688420215	neutral	036	sub-02	1.0	6.0	036_neutral	0.0	163.95144605054702	
24.0	143.49800489065183	pulse	1.0	t		21.0	male	east_asian/white	3.501790688420215	neutral	036	sub-02	1.0	6.0	036_neutral	0.0	164.65142470941282	
24.0	144.1980086034655	pulse	1.0	t		21.0	male	east_asian/white	3.501790688420215	neutral	036	sub-02	1.0	6.0	036_neutral	0.0	165.3514284222265	
24.0	144.89799420499094	pulse	1.0	t		21.0	male	east_asian/white	3.501790688420215	neutral	036	sub-02	1.0	6.0	036_neutral	0.0	166.05141402375193	
25.0	145.2728453528398	face	0.0		145	25.0	female	black	3.858336649423	smiling	126	sub-02	1.0	6.0	126_smiling	0.0	166.4262651716008	1.2333084101874192
25.0	145.5979408672465	pulse	0.0	t		25.0	female	black	3.858336649423	smiling	126	sub-02	1.0	6.0	126_smiling	0.0	166.7513606860075	
25.0	146.29794639118973	pulse	0.0	t		25.0	female	black	3.858336649423	smiling	126	sub-02	1.0	6.0	126_smiling	0.0	167.45136620995072	
25.0	146.5061537630272	fix	1.0		444	25.0	female	black	3.858336649423	smiling	126	sub-02	1.0	6.0	126_smiling	0.0	167.6595735817882	3.7665931851452115
25.0	146.99794527432732	pulse	1.0	t		25.0	female	black	3.858336649423	smiling	126	sub-02	1.0	6.0	126_smiling	0.0	168.15136509308832	
25.0	147.69794838343114	pulse	1.0	t		25.0	female	black	3.858336649423	smiling	126	sub-02	1.0	6.0	126_smiling	0.0	168.85136820219213	
25.0	148.3978986679449	pulse	1.0	t		25.0	female	black	3.858336649423	smiling	126	sub-02	1.0	6.0	126_smiling	0.0	169.5513184867059	
25.0	149.09789664551772	pulse	1.0	t		25.0	female	black	3.858336649423	smiling	126	sub-02	1.0	6.0	126_smiling	0.0	170.25131646427872	
25.0	149.7978891897037	pulse	1.0	t		25.0	female	black	3.858336649423	smiling	126	sub-02	1.0	6.0	126_smiling	0.0	170.9513090084647	
26.0	150.27274694817243	face	0.0		145	31.0	female	west_asian	2.364902506963788	neutral	006	sub-02	1.0	6.0	006_neutral	0.0	171.42616676693342	1.2333062972038533
26.0	150.49784460574847	pulse	0.0	t		31.0	female	west_asian	2.364902506963788	neutral	006	sub-02	1.0	6.0	006_neutral	0.0	171.65126442450946	
26.0	151.19781028485704	pulse	0.0	t		31.0	female	west_asian	2.364902506963788	neutral	006	sub-02	1.0	6.0	006_neutral	0.0	172.35123010361804	
26.0	151.50605324537628	fix	1.0		444	31.0	female	west_asian	2.364902506963788	neutral	006	sub-02	1.0	6.0	006_neutral	0.0	172.65947306413727	3.7665859406297386
26.0	151.89784207016874	pulse	1.0	t		31.0	female	west_asian	2.364902506963788	neutral	006	sub-02	1.0	6.0	006_neutral	0.0	173.05126188892973	
26.0	152.59784276443406	pulse	1.0	t		31.0	female	west_asian	2.364902506963788	neutral	006	sub-02	1.0	6.0	006_neutral	0.0	173.75126258319506	
26.0	153.297801802737	pulse	1.0	t		31.0	female	west_asian	2.364902506963788	neutral	006	sub-02	1.0	6.0	006_neutral	0.0	174.451221621498	
26.0	153.9977979691812	pulse	1.0	t		31.0	female	west_asian	2.364902506963788	neutral	006	sub-02	1.0	6.0	006_neutral	0.0	175.1512177879422	
26.0	154.69777270393388	pulse	1.0	t		31.0	female	west_asian	2.364902506963788	neutral	006	sub-02	1.0	6.0	006_neutral	0.0	175.85119252269487	
27.0	155.27263918600602	face	0.0		145	28.0	male	east_asian	1.5563072025467568	smiling	005	sub-02	1.0	6.0	005_smiling	0.0	176.426059004767	1.2333464438943338
27.0	155.3977655499748	pulse	0.0	t		28.0	male	east_asian	1.5563072025467568	smiling	005	sub-02	1.0	6.0	005_smiling	0.0	176.5511853687358	
27.0	156.09771553263363	pulse	0.0	t		28.0	male	east_asian	1.5563072025467568	smiling	005	sub-02	1.0	6.0	005_smiling	0.0	177.25113535139462	
27.0	156.50598562990035	fix	1.0		444	28.0	male	east_asian	1.5563072025467568	smiling	005	sub-02	1.0	6.0	005_smiling	0.0	177.65940544866135	3.7665470013589584
27.0	156.79773796044537	pulse	1.0	t		28.0	male	east_asian	1.5563072025467568	smiling	005	sub-02	1.0	6.0	005_smiling	0.0	177.95115777920637	
27.0	157.49771903414876	pulse	1.0	t		28.0	male	east_asian	1.5563072025467568	smiling	005	sub-02	1.0	6.0	005_smiling	0.0	178.65113885290975	
27.0	158.19770040970707	pulse	1.0	t		28.0	male	east_asian	1.5563072025467568	smiling	005	sub-02	1.0	6.0	005_smiling	0.0	179.35112022846806	
27.0	158.89769235018412	pulse	1.0	t		28.0	male	east_asian	1.5563072025467568	smiling	005	sub-02	1.0	6.0	005_smiling	0.0	180.0511121689451	
27.0	159.5976885166283	pulse	1.0	t		28.0	male	east_asian	1.5563072025467568	smiling	005	sub-02	1.0	6.0	005_smiling	0.0	180.7511083353893	
28.0	160.2725326312593	face	0.0		145	34.0	male	white	2.651014723438122	neutral	121	sub-02	1.0	6.0	121_neutral	0.0	181.4259524500203	1.2332727913208146
28.0	160.29774233734042	pulse	0.0	t		34.0	male	white	2.651014723438122	neutral	121	sub-02	1.0	6.0	121_neutral	0.0	181.45116215610142	
28.0	160.99761383774876	pulse	0.0	t		34.0	male	white	2.651014723438122	neutral	121	sub-02	1.0	6.0	121_neutral	0.0	182.15103365650975	
28.0	161.50580542258012	fix	1.0		443	34.0	male	white	2.651014723438122	neutral	121	sub-02	1.0	6.0	121_neutral	0.0	182.65922524134112	3.7582891593974637
28.0	161.697638680399	pulse	1.0	t		34.0	male	white	2.651014723438122	neutral	121	sub-02	1.0	6.0	121_neutral	0.0	182.85105849916	
28.0	162.3976224707958	pulse	1.0	t		34.0	male	white	2.651014723438122	neutral	121	sub-02	1.0	6.0	121_neutral	0.0	183.5510422895568	
28.0	163.09760475191888	pulse	1.0	t		34.0	male	white	2.651014723438122	neutral	121	sub-02	1.0	6.0	121_neutral	0.0	184.25102457067987	
28.0	163.79759850352457	pulse	1.0	t		34.0	male	white	2.651014723438122	neutral	121	sub-02	1.0	6.0	121_neutral	0.0	184.95101832228556	
28.0	164.4975714271486	pulse	1.0	t		34.0	male	white	2.651014723438122	neutral	121	sub-02	1.0	6.0	121_neutral	0.0	185.6509912459096	
28.0	165.1975537082708	pulse	1.0	t		34.0	male	white	2.651014723438122	neutral	121	sub-02	1.0	6.0	121_neutral	0.0	186.35097352703178	
29.0	165.2640945819776	face	0.0		147	24.0	male	white	3.1153999204138483	neutral	012	sub-02	1.0	6.0	012_neutral	0.0	186.41751440073858	1.2416082099680352
29.0	165.897545045038	pulse	0.0	t		24.0	male	white	3.1153999204138483	neutral	012	sub-02	1.0	6.0	012_neutral	0.0	187.05096486379898	
29.0	166.50570279194562	fix	1.0		443	24.0	male	white	3.1153999204138483	neutral	012	sub-02	1.0	6.0	012_neutral	0.0	187.65912261070662	3.7666248798996094
29.0	166.5975327595479	pulse	1.0	t		24.0	male	white	3.1153999204138483	neutral	012	sub-02	1.0	6.0	012_neutral	0.0	187.7509525783089	
29.0	167.2975138332513	pulse	1.0	t		24.0	male	white	3.1153999204138483	neutral	012	sub-02	1.0	6.0	012_neutral	0.0	188.45093365201228	
29.0	167.99750064219552	pulse	1.0	t		24.0	male	white	3.1153999204138483	neutral	012	sub-02	1.0	6.0	012_neutral	0.0	189.1509204609565	
29.0	168.69751612734763	pulse	1.0	t		24.0	male	white	3.1153999204138483	neutral	012	sub-02	1.0	6.0	012_neutral	0.0	189.85093594610862	
29.0	169.39747908976278	pulse	1.0	t		24.0	male	white	3.1153999204138483	neutral	012	sub-02	1.0	6.0	012_neutral	0.0	190.55089890852378	
29.0	170.09746408757837	pulse	1.0	t		24.0	male	white	3.1153999204138483	neutral	012	sub-02	1.0	6.0	012_neutral	0.0	191.25088390633937	
30.0	170.27232767184523	face	0.0		146	21.0	male	east_asian/white	3.501790688420215	smiling	036	sub-02	1.0	6.0	036_smiling	0.0	191.42574749060623	1.2416559030270946
30.0	170.79744516128267	pulse	0.0	t		21.0	male	east_asian/white	3.501790688420215	smiling	036	sub-02	1.0	6.0	036_smiling	0.0	191.95086498004366	
30.0	171.49741597192224	pulse	0.0	t		21.0	male	east_asian/white	3.501790688420215	smiling	036	sub-02	1.0	6.0	036_smiling	0.0	192.65083579068323	
30.0	171.51398357487233	fix	1.0		443	21.0	male	east_asian/white	3.501790688420215	smiling	036	sub-02	1.0	6.0	036_smiling	0.0	192.66740339363332	3.758239957063779
30.0	172.19741636433355	pulse	1.0	t		21.0	male	east_asian/white	3.501790688420215	smiling	036	sub-02	1.0	6.0	036_smiling	0.0	193.35083618309454	
30.0	172.89739592876322	pulse	1.0	t		21.0	male	east_asian/white	3.501790688420215	smiling	036	sub-02	1.0	6.0	036_smiling	0.0	194.0508157475242	
30.0	173.59739692488438	pulse	1.0	t		21.0	male	east_asian/white	3.501790688420215	smiling	036	sub-02	1.0	6.0	036_smiling	0.0	194.75081674364537	
30.0	174.297386148668	pulse	1.0	t		21.0	male	east_asian/white	3.501790688420215	smiling	036	sub-02	1.0	6.0	036_smiling	0.0	195.450805967429	
30.0	174.99736178898456	pulse	1.0	t		21.0	male	east_asian/white	3.501790688420215	smiling	036	sub-02	1.0	6.0	036_smiling	0.0	196.15078160774556	
31.0	175.2722235319361	face	0.0		145	37.0	male	white	3.898925586947871	smiling	101	sub-02	1.0	6.0	101_smiling	0.0	196.4256433506971	1.233304787931047
31.0	175.69731479019083	pulse	0.0	t		37.0	male	white	3.898925586947871	smiling	101	sub-02	1.0	6.0	101_smiling	0.0	196.85073460895183	
31.0	176.3972753377675	pulse	0.0	t		37.0	male	white	3.898925586947871	smiling	101	sub-02	1.0	6.0	101_smiling	0.0	197.5506951565285	
31.0	176.50552831986715	fix	1.0		444	37.0	male	white	3.898925586947871	smiling	101	sub-02	1.0	6.0	101_smiling	0.0	197.65894813862815	3.766592883289377
31.0	177.09731316017496	pulse	1.0	t		37.0	male	white	3.898925586947871	smiling	101	sub-02	1.0	6.0	101_smiling	0.0	198.25073297893596	
31.0	177.79729544129805	pulse	1.0	t		37.0	male	white	3.898925586947871	smiling	101	sub-02	1.0	6.0	101_smiling	0.0	198.95071526005904	
31.0	178.49727530758264	pulse	1.0	t		37.0	male	white	3.898925586947871	smiling	101	sub-02	1.0	6.0	101_smiling	0.0	199.65069512634363	
31.0	179.1972738888644	pulse	1.0	t		37.0	male	white	3.898925586947871	smiling	101	sub-02	1.0	6.0	101_smiling	0.0	200.3506937076254	
31.0	179.89725586813256	pulse	1.0	t		37.0	male	white	3.898925586947871	smiling	101	sub-02	1.0	6.0	101_smiling	0.0	201.05067568689356	
32.0	180.27212120315653	face	0.0		145	27.0	female	white	4.181058495821727	neutral	039	sub-02	1.0	6.0	039_neutral	1.0	201.42554102191752	1.233264037531626
32.0	180.59723090474017	pulse	0.0	t		27.0	female	white	4.181058495821727	neutral	039	sub-02	1.0	6.0	039_neutral	1.0	201.75065072350117	
32.0	181.29717877441544	pulse	0.0	t		27.0	female	white	4.181058495821727	neutral	039	sub-02	1.0	6.0	039_neutral	1.0	202.45059859317644	
32.0	181.50538524068816	fix	1.0		236	27.0	female	white	4.181058495821727	neutral	039	sub-02	1.0	6.0	039_neutral	1.0	202.65880505944915	2.0000114704826046
32.0	181.99721055972623	pulse	1.0	t		27.0	female	white	4.181058495821727	neutral	039	sub-02	1.0	6.0	039_neutral	1.0	203.15063037848722	
32.0	182.69720612246056	pulse	1.0	t		27.0	female	white	4.181058495821727	neutral	039	sub-02	1.0	6.0	039_neutral	1.0	203.85062594122155	
32.0	183.39717451826255	pulse	1.0	t		27.0	female	white	4.181058495821727	neutral	039	sub-02	1.0	6.0	039_neutral	1.0	204.55059433702354	
32.0	183.50539671117076	rating	2.0		236	27.0	female	white	4.181058495821727	neutral	039	sub-02	1.0	6.0	039_neutral	1.0	204.65881652993176	2.0083022146181975
32.0	184.0971869848654	pulse	2.0	t		27.0	female	white	4.181058495821727	neutral	039	sub-02	1.0	6.0	039_neutral	1.0	205.2506068036264	
32.0	184.44715925950186	response	2.0	g		27.0	female	white	4.181058495821727	neutral	039	sub-02	1.0	6.0	039_neutral	1.0	205.60057907826285	
32.0	184.79714723058805	pulse	2.0	t		27.0	female	white	4.181058495821727	neutral	039	sub-02	1.0	6.0	039_neutral	1.0	205.95056704934905	
32.0	185.4971406803379	pulse	2.0	t		27.0	female	white	4.181058495821727	neutral	039	sub-02	1.0	6.0	039_neutral	1.0	206.6505604990989	
32.0	185.51369892578896	fix	3.0		443	27.0	female	white	4.181058495821727	neutral	039	sub-02	1.0	6.0	039_neutral	1.0	206.66711874454995	3.7582372403712725
32.0	186.19713352637973	pulse	3.0	t		27.0	female	white	4.181058495821727	neutral	039	sub-02	1.0	6.0	039_neutral	1.0	207.35055334514072	
32.0	186.89710977040613	pulse	3.0	t		27.0	female	white	4.181058495821727	neutral	039	sub-02	1.0	6.0	039_neutral	1.0	208.05052958916713	
32.0	187.597112275801	pulse	3.0	t		27.0	female	white	4.181058495821727	neutral	039	sub-02	1.0	6.0	039_neutral	1.0	208.750532094562	
32.0	188.29706467329743	pulse	3.0	t		27.0	female	white	4.181058495821727	neutral	039	sub-02	1.0	6.0	039_neutral	1.0	209.45048449205842	
32.0	188.99713781271748	pulse	3.0	t		27.0	female	white	4.181058495821727	neutral	039	sub-02	1.0	6.0	039_neutral	1.0	210.15055763147848	
33.0	189.27193616616023	face	0.0		145	40.0	male	white	1.868682849184242	smiling	172	sub-02	1.0	6.0	172_smiling	0.0	210.42535598492123	1.2332676597889076
33.0	189.69705157279896	pulse	0.0	t		40.0	male	white	1.868682849184242	smiling	172	sub-02	1.0	6.0	172_smiling	0.0	210.85047139155995	
33.0	190.39707098206327	pulse	0.0	t		40.0	male	white	1.868682849184242	smiling	172	sub-02	1.0	6.0	172_smiling	0.0	211.55049080082426	
33.0	190.50520382594914	fix	1.0		444	40.0	male	white	1.868682849184242	smiling	172	sub-02	1.0	6.0	172_smiling	0.0	211.65862364471013	3.758272859237877
33.0	191.09702247399582	pulse	1.0	t		40.0	male	white	1.868682849184242	smiling	172	sub-02	1.0	6.0	172_smiling	0.0	212.25044229275682	
33.0	191.79700747181232	pulse	1.0	t		40.0	male	white	1.868682849184242	smiling	172	sub-02	1.0	6.0	172_smiling	0.0	212.95042729057332	
33.0	192.4969960918861	pulse	1.0	t		40.0	male	white	1.868682849184242	smiling	172	sub-02	1.0	6.0	172_smiling	0.0	213.6504159106471	
33.0	193.1969862212336	pulse	1.0	t		40.0	male	white	1.868682849184242	smiling	172	sub-02	1.0	6.0	172_smiling	0.0	214.3504060399946	
33.0	193.89695522074453	pulse	1.0	t		40.0	male	white	1.868682849184242	smiling	172	sub-02	1.0	6.0	172_smiling	0.0	215.05037503950552	
34.0	194.26347668518702	face	0.0		146	24.0	female	east_asian	2.9076800636689217	smiling	034	sub-02	1.0	6.0	034_smiling	1.0	215.416896503948	1.2416184730318491
34.0	194.59695682057554	pulse	0.0	t		24.0	female	east_asian	2.9076800636689217	smiling	034	sub-02	1.0	6.0	034_smiling	1.0	215.75037663933654	
34.0	195.29695449629344	pulse	0.0	t		24.0	female	east_asian	2.9076800636689217	smiling	034	sub-02	1.0	6.0	034_smiling	1.0	216.45037431505443	
34.0	195.50509515821886	fix	1.0		236	24.0	female	east_asian	2.9076800636689217	smiling	034	sub-02	1.0	6.0	034_smiling	1.0	216.65851497697986	2.000001811128641
34.0	195.99691323274146	pulse	1.0	t		24.0	female	east_asian	2.9076800636689217	smiling	034	sub-02	1.0	6.0	034_smiling	1.0	217.15033305150246	
34.0	196.69690788991102	pulse	1.0	t		24.0	female	east_asian	2.9076800636689217	smiling	034	sub-02	1.0	6.0	034_smiling	1.0	217.850327708672	
34.0	197.3969016415167	pulse	1.0	t		24.0	female	east_asian	2.9076800636689217	smiling	034	sub-02	1.0	6.0	034_smiling	1.0	218.5503214602777	
34.0	197.5050969693475	rating	2.0		236	24.0	female	east_asian	2.9076800636689217	smiling	034	sub-02	1.0	6.0	034_smiling	1.0	218.6585167881085	2.008316099939293
34.0	198.05825737408668	response	2.0	b		24.0	female	east_asian	2.9076800636689217	smiling	034	sub-02	1.0	6.0	034_smiling	1.0	219.21167719284767	
34.0	198.09686581135065	pulse	2.0	t		24.0	female	east_asian	2.9076800636689217	smiling	034	sub-02	1.0	6.0	034_smiling	1.0	219.25028563011165	
34.0	198.7968589592465	pulse	2.0	t		24.0	female	east_asian	2.9076800636689217	smiling	034	sub-02	1.0	6.0	034_smiling	1.0	219.9502787780075	
34.0	199.49684878673997	pulse	2.0	t		24.0	female	east_asian	2.9076800636689217	smiling	034	sub-02	1.0	6.0	034_smiling	1.0	220.65026860550097	
34.0	199.5134130692868	fix	3.0		443	24.0	female	east_asian	2.9076800636689217	smiling	034	sub-02	1.0	6.0	034_smiling	1.0	220.6668328880478	3.758225468033743
34.0	200.1968304641532	pulse	3.0	t		24.0	female	east_asian	2.9076800636689217	smiling	034	sub-02	1.0	6.0	034_smiling	1.0	221.3502502829142	
34.0	200.89681516011387	pulse	3.0	t		24.0	female	east_asian	2.9076800636689217	smiling	034	sub-02	1.0	6.0	034_smiling	1.0	222.05023497887487	
34.0	201.59680317647872	pulse	3.0	t		24.0	female	east_asian	2.9076800636689217	smiling	034	sub-02	1.0	6.0	034_smiling	1.0	222.7502229952397	
34.0	202.2968056818736	pulse	3.0	t		24.0	female	east_asian	2.9076800636689217	smiling	034	sub-02	1.0	6.0	034_smiling	1.0	223.4502255006346	
34.0	202.9967755869493	pulse	3.0	t		24.0	female	east_asian	2.9076800636689217	smiling	034	sub-02	1.0	6.0	034_smiling	1.0	224.1501954057103	
35.0	203.27163853732054	face	0.0		145	20.0	male	black	3.1070433744528456	smiling	082	sub-02	1.0	6.0	082_smiling	0.0	224.42505835608154	1.233320484379874
35.0	203.69672436218843	pulse	0.0	t		20.0	male	black	3.1070433744528456	smiling	082	sub-02	1.0	6.0	082_smiling	0.0	224.85014418094943	
35.0	204.3967012099247	pulse	0.0	t		20.0	male	black	3.1070433744528456	smiling	082	sub-02	1.0	6.0	082_smiling	0.0	225.55012102868568	
35.0	204.50495902170042	fix	1.0		444	20.0	male	black	3.1070433744528456	smiling	082	sub-02	1.0	6.0	082_smiling	0.0	225.6583788404614	3.758310591088957
35.0	205.09672514701106	pulse	1.0	t		20.0	male	black	3.1070433744528456	smiling	082	sub-02	1.0	6.0	082_smiling	0.0	226.25014496577205	
35.0	205.79670652256937	pulse	1.0	t		20.0	male	black	3.1070433744528456	smiling	082	sub-02	1.0	6.0	082_smiling	0.0	226.95012634133036	
35.0	206.4966984630455	pulse	1.0	t		20.0	male	black	3.1070433744528456	smiling	082	sub-02	1.0	6.0	082_smiling	0.0	227.6501182818065	
35.0	207.1966885923939	pulse	1.0	t		20.0	male	black	3.1070433744528456	smiling	082	sub-02	1.0	6.0	082_smiling	0.0	228.3501084111549	
35.0	207.89667902359633	pulse	1.0	t		20.0	male	black	3.1070433744528456	smiling	082	sub-02	1.0	6.0	082_smiling	0.0	229.05009884235733	
36.0	208.26326961278937	face	0.0		146	32.0	male	white	2.389176283326701	smiling	092	sub-02	1.0	6.0	092_smiling	0.0	229.41668943155037	1.2415716855366554
36.0	208.5966534564941	pulse	0.0	t		32.0	male	white	2.389176283326701	smiling	092	sub-02	1.0	6.0	092_smiling	0.0	229.7500732752551	
36.0	209.29663935987446	pulse	0.0	t		32.0	male	white	2.389176283326701	smiling	092	sub-02	1.0	6.0	092_smiling	0.0	230.45005917863546	
36.0	209.50484129832603	fix	1.0		444	32.0	male	white	2.389176283326701	smiling	092	sub-02	1.0	6.0	092_smiling	0.0	230.65826111708702	3.7665871480485293
36.0	209.99664729865617	pulse	1.0	t		32.0	male	white	2.389176283326701	smiling	092	sub-02	1.0	6.0	092_smiling	0.0	231.15006711741717	
36.0	210.6966138833286	pulse	1.0	t		32.0	male	white	2.389176283326701	smiling	092	sub-02	1.0	6.0	092_smiling	0.0	231.8500337020896	
36.0	211.39660703122445	pulse	1.0	t		32.0	male	white	2.389176283326701	smiling	092	sub-02	1.0	6.0	092_smiling	0.0	232.55002684998544	
36.0	212.09659293460481	pulse	1.0	t		32.0	male	white	2.389176283326701	smiling	092	sub-02	1.0	6.0	092_smiling	0.0	233.2500127533658	
36.0	212.7965664619387	pulse	1.0	t		32.0	male	white	2.389176283326701	smiling	092	sub-02	1.0	6.0	092_smiling	0.0	233.9499862806997	
37.0	213.27142844637456	face	0.0		145	24.0	female	black	3.0955033824114606	neutral	099	sub-02	1.0	6.0	099_neutral	1.0	234.42484826513555	1.2332688672076983
37.0	213.49651312419428	pulse	0.0	t		24.0	female	black	3.0955033824114606	neutral	099	sub-02	1.0	6.0	099_neutral	1.0	234.64993294295527	
37.0	214.19649178305917	pulse	0.0	t		24.0	female	black	3.0955033824114606	neutral	099	sub-02	1.0	6.0	099_neutral	1.0	235.34991160182017	
37.0	214.50469731358226	fix	1.0		236	24.0	female	black	3.0955033824114606	neutral	099	sub-02	1.0	6.0	099_neutral	1.0	235.65811713234325	2.0000039241131162
37.0	214.89653986853045	pulse	1.0	t		24.0	female	black	3.0955033824114606	neutral	099	sub-02	1.0	6.0	099_neutral	1.0	236.04995968729145	
37.0	215.59650101981606	pulse	1.0	t		24.0	female	black	3.0955033824114606	neutral	099	sub-02	1.0	6.0	099_neutral	1.0	236.74992083857705	
37.0	216.29650895859777	pulse	1.0	t		24.0	female	black	3.0955033824114606	neutral	099	sub-02	1.0	6.0	099_neutral	1.0	237.44992877735876	
37.0	216.50470123769537	rating	2.0		235	24.0	female	black	3.0955033824114606	neutral	099	sub-02	1.0	6.0	099_neutral	1.0	237.65812105645637	1.999957136617013
37.0	216.99644928190264	pulse	2.0	t		24.0	female	black	3.0955033824114606	neutral	099	sub-02	1.0	6.0	099_neutral	1.0	238.14986910066364	
37.0	217.65480125728573	response	2.0	e		24.0	female	black	3.0955033824114606	neutral	099	sub-02	1.0	6.0	099_neutral	1.0	238.80822107604672	
37.0	217.69641013133423	pulse	2.0	t		24.0	female	black	3.0955033824114606	neutral	099	sub-02	1.0	6.0	099_neutral	1.0	238.84982995009523	
37.0	218.39641022189062	pulse	2.0	t		24.0	female	black	3.0955033824114606	neutral	099	sub-02	1.0	6.0	099_neutral	1.0	239.5498300406516	
37.0	218.50465837431238	fix	3.0		444	24.0	female	black	3.0955033824114606	neutral	099	sub-02	1.0	6.0	099_neutral	1.0	239.65807819307338	3.7582287884360994
37.0	219.09644019607276	pulse	3.0	t		24.0	female	black	3.0955033824114606	neutral	099	sub-02	1.0	6.0	099_neutral	1.0	240.24986001483376	
37.0	219.79645296453145	pulse	3.0	t		24.0	female	black	3.0955033824114606	neutral	099	sub-02	1.0	6.0	099_neutral	1.0	240.94987278329245	
37.0	220.49646482742537	pulse	3.0	t		24.0	female	black	3.0955033824114606	neutral	099	sub-02	1.0	6.0	099_neutral	1.0	241.64988464618636	
37.0	221.1964465048377	pulse	3.0	t		24.0	female	black	3.0955033824114606	neutral	099	sub-02	1.0	6.0	099_neutral	1.0	242.3498663235987	
37.0	221.89636207604872	pulse	3.0	t		24.0	female	black	3.0955033824114606	neutral	099	sub-02	1.0	6.0	099_neutral	1.0	243.0497818948097	
38.0	222.26288716274848	face	0.0		146	28.0	male	east_asian	1.5563072025467568	neutral	005	sub-02	1.0	6.0	005_neutral	0.0	243.41630698150948	1.2416767310096475
38.0	222.59634586644552	pulse	0.0	t		28.0	male	east_asian	1.5563072025467568	neutral	005	sub-02	1.0	6.0	005_neutral	0.0	243.7497656852065	
38.0	223.29635833304928	pulse	0.0	t		28.0	male	east_asian	1.5563072025467568	neutral	005	sub-02	1.0	6.0	005_neutral	0.0	244.44977815181028	
38.0	223.50456389375813	fix	1.0		444	28.0	male	east_asian	1.5563072025467568	neutral	005	sub-02	1.0	6.0	005_neutral	0.0	244.65798371251913	3.7665732627274338
38.0	223.99634151973623	pulse	1.0	t		28.0	male	east_asian	1.5563072025467568	neutral	005	sub-02	1.0	6.0	005_neutral	0.0	245.14976133849723	
38.0	224.6963527789203	pulse	1.0	t		28.0	male	east_asian	1.5563072025467568	neutral	005	sub-02	1.0	6.0	005_neutral	0.0	245.8497725976813	
38.0	225.3963124209331	pulse	1.0	t		28.0	male	east_asian	1.5563072025467568	neutral	005	sub-02	1.0	6.0	005_neutral	0.0	246.5497322396941	
38.0	226.0962925890717	pulse	1.0	t		28.0	male	east_asian	1.5563072025467568	neutral	005	sub-02	1.0	6.0	005_neutral	0.0	247.2497124078327	
38.0	226.7962851332586	pulse	1.0	t		28.0	male	east_asian	1.5563072025467568	neutral	005	sub-02	1.0	6.0	005_neutral	0.0	247.9497049520196	
39.0	227.27113715648557	face	0.0		145	30.0	female	black	2.7345801830481498	smiling	062	sub-02	1.0	6.0	062_smiling	0.0	248.42455697524656	1.2333114287357603
39.0	227.4962601698653	pulse	0.0	t		30.0	female	black	2.7345801830481498	smiling	062	sub-02	1.0	6.0	062_smiling	0.0	248.6496799886263	
39.0	228.19624607324658	pulse	0.0	t		30.0	female	black	2.7345801830481498	smiling	062	sub-02	1.0	6.0	062_smiling	0.0	249.34966589200758	
39.0	228.50444858522133	fix	1.0		444	30.0	female	black	2.7345801830481498	smiling	062	sub-02	1.0	6.0	062_smiling	0.0	249.65786840398232	3.7499087643845996
39.0	228.8962416359809	pulse	1.0	t		30.0	female	black	2.7345801830481498	smiling	062	sub-02	1.0	6.0	062_smiling	0.0	250.0496614547419	
39.0	229.59622331339324	pulse	1.0	t		30.0	female	black	2.7345801830481498	smiling	062	sub-02	1.0	6.0	062_smiling	0.0	250.74964313215423	
39.0	230.2962001611304	pulse	1.0	t		30.0	female	black	2.7345801830481498	smiling	062	sub-02	1.0	6.0	062_smiling	0.0	251.4496199798914	
39.0	230.99618485709107	pulse	1.0	t		30.0	female	black	2.7345801830481498	smiling	062	sub-02	1.0	6.0	062_smiling	0.0	252.14960467585206	
39.0	231.6961894754695	pulse	1.0	t		30.0	female	black	2.7345801830481498	smiling	062	sub-02	1.0	6.0	062_smiling	0.0	252.8496092942305	
40.0	232.25435734960593	fix	0.0		720												253.40777716836692	5.999883182189478
40.0	232.3961566638518	pulse	0.0	t													253.5495764826128	
40.0	233.09614377465186	pulse	0.0	t													254.24956359341286	
40.0	233.7960659866685	pulse	0.0	t													254.9494858054295	
40.0	234.49606275682163	pulse	0.0	t													255.64948257558262	
40.0	235.19604654721843	pulse	0.0	t													256.3494663659794	
40.0	235.8960716917236	pulse	0.0	t													257.0494915104846	
40.0	236.5961291346939	pulse	0.0	t													257.7495489534549	
40.0	237.296111415817	pulse	0.0	t													258.449531234578	
40.0	237.99603302412288	pulse	0.0	t													259.1494528428839	
