trial_nr	onset	event_type	phase	response	nr_frames	trial_type	stim_name	task_probe	onset_abs	duration
0.0	0.05987539542638842	baseline	0.0		40.0		baseline	0.0	74.23687456231437	0.3413443891722636
0.0	0.40121978459865204	ISI	1.0		11.0		baseline	0.0	74.57821895148663	0.09999728333013991
1.0	0.501217067928792	baseline	0.0		48.0		baseline	0.0	74.67821623481677	0.39998792591359233
1.0	0.9012049938423843	ISI	1.0		11.0		baseline	0.0	75.07820416073037	0.0999978870349878
2.0	1.001202880877372	baseline	0.0		48.0		baseline	0.0	75.17820204776535	0.3999716258963417
2.0	1.4011745067737138	ISI	1.0		11.0		baseline	0.0	75.5781736736617	0.10000181111308848
3.0	1.5011763178868023	baseline	0.0		48.0		baseline	0.0	75.67817548477478	0.399987624060941
3.0	1.9011639419477433	ISI	1.0		11.0		baseline	0.0	76.07816310883572	0.09999094443537615
4.0	2.0011548863831194	baseline	0.0		47.0		baseline	0.0	76.1781540532711	0.399989737026317
4.0	2.0052754702855964	pulse	0.0	t			baseline	0.0	76.18227463717358	
4.0	2.4011446234094365	ISI	1.0		11.0		baseline	0.0	76.57814379029742	0.09999486851302208
5.0	2.5011394919224585	baseline	0.0		48.0		baseline	0.0	76.67813865881044	0.3999954722175971
5.0	2.9011349641400557	ISI	1.0		11.0		baseline	0.0	77.07813413102804	0.09999154813931455
6.0	3.00112651227937	baseline	0.0		48.0		baseline	0.0	77.17812567916735	0.3999852092438232
6.0	3.4011117215231934	ISI	1.0		11.0		baseline	0.0	77.57811088841117	0.10000694259997545
7.0	3.501118664123169	baseline	0.0		48.0		baseline	0.0	77.67811783101115	0.3999740407139143
7.0	3.901092704837083	ISI	1.0		11.0		baseline	0.0	78.07809187172506	0.10001116852981795
8.0	4.001103873366901	baseline	0.0		47.0		baseline	0.0	78.17810304025488	0.3999806814617841
8.0	4.005222948009305	pulse	0.0	t			baseline	0.0	78.18222211489729	
8.0	4.401084554828685	ISI	1.0		11.0		baseline	0.0	78.57808372171667	0.10000332037361659
9.0	4.501087875202302	baseline	0.0		48.0		baseline	0.0	78.67808704209028	0.39998400183549165
9.0	4.9010718770377935	ISI	1.0		11.0		baseline	0.0	79.07807104392577	0.09999607592180837
10.0	5.001067952959602	baseline	0.0		48.0		baseline	0.0	79.17806711984758	0.3999800777569362
10.0	5.401048030716538	ISI	1.0		11.0		baseline	0.0	79.57804719760452	0.09997313515759743
11.0	5.5010211658741355	baseline	0.0		48.0		baseline	0.0	79.67802033276212	0.40001026297341014
11.0	5.901031428847546	ISI	1.0		11.0		baseline	0.0	80.07803059573553	0.10001720557329463
12.0	6.00104863442084	baseline	0.0		47.0		baseline	0.0	80.17804780130882	0.3999921518438896
12.0	6.005253736929717	pulse	0.0	t			baseline	0.0	80.1822529038177	
12.0	6.40104078626473	ISI	1.0		11.0		baseline	0.0	80.57803995315271	0.0999797759050125
13.0	6.501020562169742	baseline	0.0		48.0		baseline	0.0	80.67801972905772	0.3999888314697273
13.0	6.90100939363947	ISI	1.0		11.0		baseline	0.0	81.07800856052745	0.09999758518279123
14.0	7.001006978822261	baseline	0.0		48.0		baseline	0.0	81.17800614571024	0.3999972833303218
14.0	7.401004262152583	ISI	1.0		11.0		baseline	0.0	81.57800342904056	0.0999951703656734
15.0	7.500999432518256	baseline	0.0		48.0		baseline	0.0	81.67799859940624	0.39998822776533416
15.0	7.90098766028359	ISI	1.0		11.0		baseline	0.0	82.07798682717157	0.09999728333059466
16.0	8.000984943614185	baseline	0.0		47.0		baseline	0.0	82.17798411050217	0.39998098331352594
16.0	8.005087718239338	pulse	0.0	t			baseline	0.0	82.18208688512732	
16.0	8.40096592692771	ISI	1.0		11.0		baseline	0.0	82.57796509381569	0.0999978870349878
17.0	8.500963813962699	baseline	0.0		48.0		baseline	0.0	82.67796298085068	0.399989737026317
17.0	8.900953550989016	ISI	1.0		11.0		baseline	0.0	83.077952717877	0.09999396295688712
18.0	9.000947513945903	baseline	0.0		48.0		baseline	0.0	83.17794668083388	0.3999776629398184
18.0	9.400925176885721	ISI	1.0		11.0		baseline	0.0	83.5779243437737	0.10002656299047885
19.0	9.5009517398762	baseline	0.0		48.0		baseline	0.0	83.67795090676418	0.3999680036704376
19.0	9.900919743546638	ISI	1.0		11.0		baseline	0.0	84.07791891043462	0.09999999999990905
20.0	10.000919743546547	baseline	0.0		47.0		baseline	0.0	84.17791891043453	0.39998279442670537
20.0	10.00504908116227	pulse	0.0	t			baseline	0.0	84.18204824805025	
20.0	10.400902537973252	ISI	1.0		11.0		baseline	0.0	84.57790170486123	0.10000241481702687
21.0	10.500904952790279	baseline	0.0		48.0		baseline	0.0	84.67790411967826	0.3999882277657889
21.0	10.900893180556068	ISI	1.0		11.0		baseline	0.0	85.07789234744405	0.09999517036521866
22.0	11.000888350921286	baseline	0.0		48.0		baseline	0.0	85.17788751780927	0.39998943517412044
22.0	11.400877786095407	ISI	1.0		11.0		baseline	0.0	85.57787695298339	0.09999547221786997
23.0	11.500873258313277	baseline	0.0		48.0		baseline	0.0	85.67787242520126	0.39998098331352594
23.0	11.900854241626803	ISI	1.0		7.0		baseline	0.0	86.07785340851478	0.125
24.0	12.025854241626803	body	0.0		44.0	body	body-57.jpg	0.0	86.20285340851478	0.37498158701782813
24.0	12.015875914612025	pulse	0.0	t		body	body-57.jpg	0.0	86.1928750815	
24.0	12.400835828644631	ISI	1.0		7.0	body	body-57.jpg	0.0	86.57783499553261	0.11668216174439294
25.0	12.517517990389024	body	0.0		46.0	body	body-71.jpg	0.0	86.694517157277	0.3832958030475311
25.0	12.900813793436555	ISI	1.0		7.0	body	body-71.jpg	0.0	87.07781296032454	0.11670087657876138
26.0	13.017514670015316	body	0.0		46.0	body	body-141.jpg	0.0	87.1945138369033	0.3832831252566393
26.0	13.400797795271956	ISI	1.0		7.0	body	body-141.jpg	0.0	87.57779696215994	0.11669846176118881
27.0	13.517496257033145	body	0.0		46.0	body	body-82.jpg	0.0	87.69449542392113	0.38328855859572286
27.0	13.900784815628867	ISI	1.0		7.0	body	body-82.jpg	0.0	88.07778398251685	0.11669272657036345
28.0	14.01747754219923	body	0.0		45.0	body	body-19.jpg	0.0	88.19447670908721	0.38330153823835644
28.0	14.006080208157528	pulse	0.0	t		body	body-19.jpg	0.0	88.18307937504551	
28.0	14.400779080437587	ISI	1.0		7.0	body	body-19.jpg	0.0	88.57777824732557	0.1166522783801156
29.0	14.517431358817703	body	0.0		46.0	body	body-27.jpg	0.0	88.69443052570568	0.38333111975089196
29.0	14.900762478568595	ISI	1.0		7.0	body	body-27.jpg	0.0	89.07776164545658	0.1166921228659703
30.0	15.017454601434565	body	0.0		46.0	body	body-108.jpg	0.0	89.19445376832255	0.38329248267382354
30.0	15.400747084108389	ISI	1.0		7.0	body	body-108.jpg	0.0	89.57774625099637	0.11669634879626756
31.0	15.517443432904656	body	0.0		46.0	body	body-33.jpg	0.0	89.69444259979264	0.3832496196660031
31.0	15.90069305257066	ISI	1.0		7.0	body	body-33.jpg	0.0	90.07769221945864	0.11668518026635866
32.0	16.017378232837018	body	0.0		45.0	body	body-114.jpg	0.0	90.194377399725	0.38329187896897565
32.0	16.008809857284632	pulse	0.0	t		body	body-114.jpg	0.0	90.18580902417261	
32.0	16.400670111805994	ISI	1.0		7.0	body	body-114.jpg	0.0	90.57766927869397	0.11669031175324562
33.0	16.51736042355924	body	0.0		46.0	body	body-42.jpg	0.0	90.69435959044722	0.38331300862091666
33.0	16.900673432180156	ISI	1.0		7.0	body	body-42.jpg	0.0	91.07767259906814	0.11667974692682037
34.0	17.017353179106976	body	0.0		46.0	body	body-50.jpg	0.0	91.19435234599496	0.3832964067519242
34.0	17.4006495858589	ISI	1.0		7.0	body	body-50.jpg	0.0	91.57764875274688	0.1166996691699751
35.0	17.517349255028876	body	0.0		46.0	body	body-142.jpg	0.0	91.69434842191686	0.3832834271088359
35.0	17.90063268213771	ISI	1.0		7.0	body	body-142.jpg	0.0	92.07763184902569	0.11669151916157716
36.0	18.01732420129929	word	0.0		45.0	character	word-3.jpg	0.0	92.19432336818727	0.3832945956387448
36.0	18.00898251672288	pulse	0.0	t		character	word-3.jpg	0.0	92.18598168361086	
36.0	18.400618796938033	ISI	1.0		7.0	character	word-3.jpg	0.0	92.57761796382601	0.11669634879626756
37.0	18.5173151457343	word	0.0		46.0	character	word-85.jpg	0.0	92.69431431262228	0.3832894641523126
37.0	18.900604609886614	ISI	1.0		8.0	character	word-85.jpg	0.0	93.0776037767746	0.1166996691699751
38.0	19.01730427905659	word	0.0		46.0	character	word-85.jpg	1.0	93.19430344594457	0.3832921808211722
38.0	19.40059645987776	ISI	1.0		7.0	character	word-85.jpg	1.0	93.57759562676574	0.11688470454737399
38.0	19.492408719905598	response	1.0	b		character	word-85.jpg	1.0	93.66940788679358	
39.0	19.517481164425135	word	0.0		46.0	character	word-8.jpg	0.0	93.69448033131312	0.3830920528362185
39.0	19.900573217261353	ISI	1.0		7.0	character	word-8.jpg	0.0	94.07757238414933	0.11667461544038815
40.0	20.01724783270174	word	0.0		45.0	character	word-124.jpg	0.0	94.19424699958972	0.383318743811742
40.0	20.009289500374507	pulse	0.0	t		character	word-124.jpg	0.0	94.18628866726249	
40.0	20.400566576513484	ISI	1.0		7.0	character	word-124.jpg	0.0	94.57756574340146	0.11668880249226277
41.0	20.517255379005746	word	0.0		46.0	character	word-144.jpg	0.0	94.69425454589373	0.3832982178646489
41.0	20.900553596870395	ISI	1.0		7.0	character	word-144.jpg	0.0	95.07755276375838	0.11668759508347648
42.0	21.01724119195387	word	0.0		46.0	character	word-74.jpg	0.0	95.19424035884185	0.38328191784785304
42.0	21.400523109801725	ISI	1.0		7.0	character	word-74.jpg	0.0	95.5775222766897	0.11670872473496274
43.0	21.517231834536688	word	0.0		46.0	character	word-139.jpg	0.0	95.69423100142467	0.38332176233370774
43.0	21.900553596870395	ISI	1.0		7.0	character	word-139.jpg	0.0	96.07755276375838	0.11668548211855523
44.0	22.01723907898895	word	0.0		45.0	character	word-31.jpg	0.0	96.19423824587693	0.3832801067346736
44.0	22.008826459153624	pulse	0.0	t		character	word-31.jpg	0.0	96.1858256260416	
44.0	22.400519185723624	ISI	1.0		7.0	character	word-31.jpg	0.0	96.5775183526116	0.11671325251745657
45.0	22.51723243824108	word	0.0		46.0	character	word-14.jpg	0.0	96.69423160512906	0.3832638067183325
45.0	22.900496244959413	ISI	1.0		7.0	character	word-14.jpg	0.0	97.0774954118474	0.11668759508302173
46.0	23.017183840042435	word	0.0		46.0	character	word-143.jpg	0.0	97.19418300693042	0.3832855400742119
46.0	23.400469380116647	ISI	1.0		7.0	character	word-143.jpg	0.0	97.57746854700463	0.11670208398709292
47.0	23.51717146410374	word	0.0		46.0	character	word-118.jpg	0.0	97.69417063099172	0.38328493636981875
47.0	23.90045640047356	ISI	1.0		7.0	character	word-118.jpg	0.0	98.07745556736154	0.11668850063961145
48.0	24.01714490111317	word	0.0		45.0	character	word-37.jpg	0.0	98.19414406800115	0.38329731230851394
48.0	24.008816498032047	pulse	0.0	t		character	word-37.jpg	0.0	98.18581566492003	
48.0	24.400442213421684	ISI	1.0		7.0	character	word-37.jpg	0.0	98.57744138030966	0.11670238583974424
49.0	24.517144599261428	word	0.0		46.0	character	word-119.jpg	0.0	98.69414376614941	0.3832924826733688
49.0	24.900437081934797	ISI	1.0		7.0	character	word-119.jpg	0.0	99.07743624882278	0.11668970804885248
50.0	25.01712678998365	word	0.0		46.0	character	word-1.jpg	0.0	99.19412595687163	0.3832921808211722
50.0	25.40041897080482	ISI	1.0		7.0	character	word-1.jpg	0.0	99.5774181376928	0.11668880249226277
51.0	25.517107773297084	word	0.0		46.0	character	word-58.jpg	0.0	99.69410694018507	0.38328554007375715
51.0	25.90039331337084	ISI	1.0		7.0	character	word-58.jpg	0.0	100.07739248025882	0.1166752191447813
52.0	26.017068532515623	word	0.0		45.0	character	word-59.jpg	0.0	100.1940676994036	0.38332176233370774
52.0	26.01061583878709	pulse	0.0	t		character	word-59.jpg	0.0	100.18761500567507	
52.0	26.40039029484933	ISI	1.0		7.0	character	word-59.jpg	0.0	100.57738946173731	0.11668880249226277
53.0	26.517079097341593	word	0.0		46.0	character	word-70.jpg	0.0	100.69407826422957	0.3832958030475311
53.0	26.900374900389124	ISI	1.0		7.0	character	word-70.jpg	0.0	101.0773740672771	0.11668970804839773
54.0	27.017064608437522	word	0.0		46.0	character	word-47.jpg	0.0	101.1940637753255	0.38329610489972765
54.0	27.40036071333725	ISI	1.0		8.0	character	word-47.jpg	0.0	101.57735988022523	0.11668970804839773
55.0	27.517050421385647	word	0.0		46.0	character	word-47.jpg	1.0	101.69404958827363	0.3832873511869366
55.0	27.900337772572584	ISI	1.0		7.0	character	word-47.jpg	1.0	102.07733693946057	0.11669061360498745
56.0	28.01702838617757	word	0.0		45.0	character	word-131.jpg	0.0	102.19402755306555	0.38330184009100776
56.0	28.008995798218166	pulse	0.0	t		character	word-131.jpg	0.0	102.18599496510615	
56.0	28.009171778030122	response	0.0	b		character	word-131.jpg	0.0	102.1861709449181	
56.0	28.40033022626858	ISI	1.0		7.0	character	word-131.jpg	0.0	102.57732939315656	0.11667582284871969
57.0	28.5170060491173	word	0.0		46.0	character	word-106.jpg	0.0	102.69400521600528	0.3833410808724693
57.0	28.90034712998977	ISI	1.0		7.0	character	word-106.jpg	0.0	103.07734629687775	0.11669242471816688
58.0	29.017039554707935	word	0.0		46.0	character	word-132.jpg	0.0	103.19403872159592	0.3832616937529565
58.0	29.40030124846089	ISI	1.0		7.0	character	word-132.jpg	0.0	103.57730041534887	0.11668970804839773
59.0	29.51699095650929	word	0.0		46.0	character	word-104.jpg	0.0	103.69399012339727	0.38329489749094137
59.0	29.90028585400023	ISI	1.0		7.0	character	word-104.jpg	0.0	104.07728502088821	0.11668518026635866
60.0	30.01697103426659	house	0.0		45.0	place	house-116.jpg	0.0	104.19397020115457	0.38329187896897565
60.0	30.008760353529397	pulse	0.0	t		place	house-116.jpg	0.0	104.18575952041738	
60.0	30.400262913235565	ISI	1.0		7.0	place	house-116.jpg	0.0	104.57726208012355	0.11669966917042984
61.0	30.516962582405995	house	0.0		46.0	place	house-144.jpg	0.0	104.69396174929398	0.3832973123080592
61.0	30.900259894714054	ISI	1.0		7.0	place	house-144.jpg	0.0	105.07725906160204	0.11666525802320393
62.0	31.016925152737258	house	0.0		46.0	place	house-55.jpg	0.0	105.19392431962524	0.38331542343848923
62.0	31.400240576175747	ISI	1.0		7.0	place	house-55.jpg	0.0	105.57723974306373	0.11668759508302173
63.0	31.51692817125877	house	0.0		46.0	place	house-131.jpg	0.0	105.69392733814675	0.3832988215694968
63.0	31.900226992828266	ISI	1.0		7.0	place	house-131.jpg	0.0	106.07722615971625	0.1166842747093142
64.0	32.01691126753758	house	0.0		45.0	place	house-94.jpg	0.0	106.19391043442556	0.38329248267382354
64.0	32.00768877834389	pulse	0.0	t		place	house-94.jpg	0.0	106.18468794523187	
64.0	32.4002037502114	ISI	1.0		7.0	place	house-94.jpg	0.0	106.57720291709938	0.11669815990944699
65.0	32.51690191012085	house	0.0		46.0	place	house-94.jpg	1.0	106.69390107700883	0.3832964067514695
65.0	32.90019831687232	ISI	1.0		7.0	place	house-94.jpg	1.0	107.0771974837603	0.11667129506668061
66.0	33.016869611939	house	0.0		46.0	place	house-69.jpg	0.0	107.19386877882698	0.383309084542816
66.0	33.058636895993914	response	0.0	b		place	house-69.jpg	0.0	107.2356360628819	
66.0	33.40017869648182	ISI	1.0		7.0	place	house-69.jpg	0.0	107.5771778633698	0.11669272657036345
67.0	33.51687142305218	house	0.0		46.0	place	house-9.jpg	0.0	107.69387058994016	0.38328071043906675
67.0	33.90015213349125	ISI	1.0		7.0	place	house-9.jpg	0.0	108.07715130037923	0.11669091545718402
68.0	34.01684304894843	house	0.0		45.0	place	house-17.jpg	0.0	108.19384221583641	0.38330184009100776
68.0	34.00887083142152	pulse	0.0	t		place	house-17.jpg	0.0	108.1858699983095	
68.0	34.40014488903944	ISI	1.0		7.0	place	house-17.jpg	0.0	108.57714405592742	0.11670238583928949
69.0	34.51684727487873	house	0.0		46.0	place	house-67.jpg	0.0	108.69384644176671	0.3832825215522462
69.0	34.900129796430974	ISI	1.0		7.0	place	house-67.jpg	0.0	109.07712896331896	0.11669785805725041
70.0	35.016827654488225	house	0.0		46.0	place	house-97.jpg	0.0	109.1938268213762	0.3833274975245331
70.0	35.40015515201276	ISI	1.0		7.0	place	house-97.jpg	0.0	109.57715431890074	0.11669393397914973
71.0	35.51684908599191	house	0.0		46.0	place	house-5.jpg	0.0	109.69384825287989	0.38324871410986816
71.0	35.900097800101776	ISI	1.0		7.0	place	house-5.jpg	0.0	110.07709696698976	0.11669363212649841
72.0	36.016791432228274	word	0.0		45.0	character	word-97.jpg	0.0	110.19379059911626	0.3832930863782167
72.0	36.00868911641828	pulse	0.0	t		character	word-97.jpg	0.0	110.18568828330626	
72.0	36.40008451860649	ISI	1.0		7.0	character	word-97.jpg	0.0	110.57708368549447	0.11670057472611006
73.0	36.5167850933326	word	0.0		46.0	character	word-88.jpg	0.0	110.69378426022058	0.3832930863782167
73.0	36.90007817971082	ISI	1.0		7.0	character	word-88.jpg	0.0	111.0770773465988	0.11667159691887719
74.0	37.016749776629695	word	0.0		46.0	character	word-141.jpg	0.0	111.19374894351768	0.38330636787304684
74.0	37.40005614450274	ISI	1.0		7.0	character	word-141.jpg	0.0	111.57705531139072	0.11670027287436824
75.0	37.51675641737711	word	0.0		46.0	character	word-83.jpg	0.0	111.69375558426509	0.38329338823041326
75.0	37.90004980560752	ISI	1.0		7.0	character	word-83.jpg	0.0	112.0770489724955	0.11668608582249362
76.0	38.01673589143002	word	0.0		45.0	character	word-80.jpg	0.0	112.193735058318	0.38329882156904205
76.0	38.008368549419174	pulse	0.0	t		character	word-80.jpg	0.0	112.18536771630716	
76.0	38.40003471299906	ISI	1.0		7.0	character	word-80.jpg	0.0	112.57703387988704	0.11666888024910804
77.0	38.51670359324817	word	0.0		46.0	character	word-80.jpg	1.0	112.69370276013615	0.38330848083842284
77.0	38.90001207408659	ISI	1.0		7.0	character	word-80.jpg	1.0	113.07701124097457	0.11669997102217167
77.0	38.96679837482816	response	1.0	b		character	word-80.jpg	1.0	113.14379754171614	
78.0	39.01671204510876	word	0.0		46.0	character	word-50.jpg	0.0	113.19371121199674	0.3832737678394551
78.0	39.399985812948216	ISI	1.0		7.0	character	word-50.jpg	0.0	113.5769849798362	0.11669031175324562
79.0	39.51667612470146	word	0.0		46.0	character	word-69.jpg	0.0	113.69367529158944	0.3833190456639386
79.0	39.8999951703654	ISI	1.0		7.0	character	word-69.jpg	0.0	114.07699433725338	0.11665590060601971
80.0	40.01665107097142	word	0.0		45.0	character	word-5.jpg	0.0	114.1936502378594	0.3833196493687865
80.0	40.00860761633385	pulse	0.0	t		character	word-5.jpg	0.0	114.18560678322183	
80.0	40.39997072034021	ISI	1.0		7.0	character	word-5.jpg	0.0	114.57696988722819	0.11670298954368263
81.0	40.51667370988389	word	0.0		46.0	character	word-112.jpg	0.0	114.69367287677187	0.38330938639501255
81.0	40.8999830962789	ISI	1.0		7.0	character	word-112.jpg	0.0	115.07698226316688	0.11667914322288198
82.0	41.016662239501784	word	0.0		46.0	character	word-63.jpg	0.0	115.19366140638977	0.3832764845087695
82.0	41.39993872401055	ISI	1.0		7.0	character	word-63.jpg	0.0	115.57693789089853	0.11670117843095795
83.0	41.51663990244151	word	0.0		46.0	character	word-45.jpg	0.0	115.69363906932949	0.3833220641859043
83.0	41.899961966627416	ISI	1.0		7.0	character	word-45.jpg	0.0	116.0769611335154	0.1166655598754005
84.0	42.016627526502816	car	0.0		45.0	object	car-140.jpg	0.0	116.1936266933908	0.3833118012121304
84.0	42.008597655212725	pulse	0.0	t		object	car-140.jpg	0.0	116.1855968221007	
84.0	42.39993932771495	ISI	1.0		8.0	object	car-140.jpg	0.0	116.57693849460293	0.11668427470976894
85.0	42.516623602424716	car	0.0		46.0	object	car-107.jpg	0.0	116.6936227693127	0.3832698437613544
85.0	42.89989344618607	ISI	1.0		8.0	object	car-107.jpg	0.0	117.07689261307405	0.11669876361338538
86.0	43.016592209799455	car	0.0		46.0	object	car-139.jpg	0.0	117.19359137668744	0.383284936369364
86.0	43.39987714616882	ISI	1.0		8.0	object	car-139.jpg	0.0	117.5768763130568	0.11669997102262641
87.0	43.516577117191446	car	0.0		46.0	object	car-44.jpg	0.0	117.69357628407943	0.3832973123080592
87.0	43.899874429499505	ISI	1.0		8.0	object	car-44.jpg	0.0	118.07687359638749	0.11668336915317923
88.0	44.016557798652684	car	0.0		45.0	object	car-95.jpg	0.0	118.19355696554067	0.38328855859572286
88.0	44.0095149839417	pulse	0.0	t		object	car-95.jpg	0.0	118.18651415082968	
88.0	44.39984635724841	ISI	1.0		7.0	object	car-95.jpg	0.0	118.57684552413639	0.11668457656151077
89.0	44.51653093380992	car	0.0		46.0	object	car-20.jpg	0.0	118.6935301006979	0.383311197508192
89.0	44.89984213131811	ISI	1.0		7.0	object	car-20.jpg	0.0	119.07684129820609	0.11669091545718402
90.0	45.016533046775294	car	0.0		46.0	object	car-20.jpg	1.0	119.19353221366327	0.3832813141434599
90.0	45.399814360918754	ISI	1.0		7.0	object	car-20.jpg	1.0	119.57681352780673	0.11669182101377373
90.0	45.432877134094724	response	1.0	b		object	car-20.jpg	1.0	119.6098763009827	
91.0	45.51650618193253	car	0.0		46.0	object	car-65.jpg	0.0	119.69350534882051	0.38330636787304684
91.0	45.899812549805574	ISI	1.0		7.0	object	car-65.jpg	0.0	120.07681171669356	0.11668699137908334
92.0	46.01649954118466	car	0.0		45.0	object	car-45.jpg	0.0	120.19349870807264	0.383289162300116
92.0	46.007662819057714	pulse	0.0	t		object	car-45.jpg	0.0	120.1846619859457	
92.0	46.399788703484774	ISI	1.0		7.0	object	car-45.jpg	0.0	120.57678787037275	0.11668699137908334
93.0	46.51647569486386	car	0.0		46.0	object	car-108.jpg	0.0	120.69347486175184	0.3832955011953345
93.0	46.89977119605919	ISI	1.0		7.0	object	car-108.jpg	0.0	121.07677036294717	0.10835134384569756
94.0	47.00812253990489	car	0.0		47.0	object	car-103.jpg	0.0	121.18512170679287	0.39163326169364154
94.0	47.39975580159853	ISI	1.0		6.0	object	car-103.jpg	0.0	121.57675496848651	0.10836070126333652
95.0	47.50811650286187	car	0.0		47.0	object	car-127.jpg	0.0	121.68511566974985	0.39162480983304704
95.0	47.899741312694914	ISI	1.0		6.0	object	car-127.jpg	0.0	122.0767404795829	0.10834500495047905
96.0	48.00808631764539	word	0.0		46.0	character	word-92.jpg	0.0	122.18508548453337	0.39165378764073466
96.0	48.003803940981925	pulse	0.0	t		character	word-92.jpg	0.0	122.1808031078699	
96.0	48.39974010528613	ISI	1.0		6.0	character	word-92.jpg	0.0	122.57673927217411	0.10835707903697767
97.0	48.508097184323105	word	0.0		47.0	character	word-126.jpg	0.0	122.68509635121109	0.39165831542368323
97.0	48.89975549974679	ISI	1.0		6.0	character	word-126.jpg	0.0	123.07675466663477	0.11667401173599501
98.0	49.016429511482784	word	0.0		46.0	character	word-56.jpg	0.0	123.19342867837076	0.3833118012121304
98.0	49.399741312694914	ISI	1.0		6.0	character	word-56.jpg	0.0	123.5767404795829	0.11669182101377373
99.0	49.51643313370869	word	0.0		46.0	character	word-91.jpg	0.0	123.69343230059667	0.38327950303028047
99.0	49.89971263673897	ISI	1.0		6.0	character	word-91.jpg	0.0	124.07671180362695	0.11670148028315452
100.0	50.01641411702212	word	0.0		45.0	character	word-15.jpg	0.0	124.1934132839101	0.38328674748254343
100.0	50.00444175460643	pulse	0.0	t		character	word-15.jpg	0.0	124.18144092149441	
100.0	50.399700864504666	ISI	1.0		7.0	character	word-15.jpg	0.0	124.57670003139265	0.11668427470976894
101.0	50.516385139214435	word	0.0		46.0	character	word-103.jpg	0.0	124.69338430610242	0.38328433266497086
101.0	50.899669471879406	ISI	1.0		7.0	character	word-103.jpg	0.0	125.07666863876739	0.1166773321101573
102.0	51.01634680398956	word	0.0		46.0	character	word-75.jpg	0.0	125.19334597087754	0.38330123638615987
102.0	51.39964804037572	ISI	1.0		7.0	character	word-75.jpg	0.0	125.5766472072637	0.11669302842256002
103.0	51.51634106879828	word	0.0		46.0	character	word-33.jpg	0.0	125.69334023568626	0.3832958030475311
103.0	51.899636871845814	ISI	1.0		7.0	character	word-33.jpg	0.0	126.0766360387338	0.11668306730098266
104.0	52.0163199391468	word	0.0		45.0	character	word-81.jpg	0.0	126.19331910603478	0.3832825215522462
104.0	52.007699041317665	pulse	0.0	t		character	word-81.jpg	0.0	126.18469820820565	
104.0	52.39960246069904	ISI	1.0		7.0	character	word-81.jpg	0.0	126.57660162758702	0.11670721547397989
105.0	52.51630967617302	word	0.0		46.0	character	word-12.jpg	0.0	126.693308843061	0.38328765303913315
105.0	52.899597329212156	ISI	1.0		7.0	character	word-12.jpg	0.0	127.07659649610014	0.1166996691699751
106.0	53.01629699838213	word	0.0		46.0	character	word-16.jpg	0.0	127.19329616527011	0.38327889932634207
106.0	53.39957589770847	ISI	1.0		7.0	character	word-16.jpg	0.0	127.57657506459645	0.11670630991784492
107.0	53.51628220762632	word	0.0		46.0	character	word-136.jpg	0.0	127.6932813745143	0.38327980488247704
107.0	53.899562012508795	ISI	1.0		8.0	character	word-136.jpg	0.0	128.07656117939678	0.1166857839707518
108.0	54.01624779647955	adult	0.0		45.0	face	adult-122.jpg	0.0	128.19324696336753	0.38330516046426055
108.0	54.01027595324922	pulse	0.0	t		face	adult-122.jpg	0.0	128.1872751201372	
108.0	54.39955295694381	ISI	1.0		7.0	face	adult-122.jpg	0.0	128.5765521238318	0.11669936731777852
109.0	54.516252324261586	adult	0.0		46.0	face	adult-122.jpg	1.0	128.69325149114957	0.3832816159961112
109.0	54.89131812803362	response	0.0	b		face	adult-122.jpg	1.0	129.0683172949216	
109.0	54.8995339402577	ISI	1.0		8.0	face	adult-122.jpg	1.0	129.07653310714568	0.1166900099005943
110.0	55.01622395015829	adult	0.0		46.0	face	adult-50.jpg	0.0	129.19322311704627	0.38330938639501255
110.0	55.399533336553304	ISI	1.0		8.0	face	adult-50.jpg	0.0	129.57653250344129	0.11668759508347648
111.0	55.51622093163678	adult	0.0		46.0	face	adult-67.jpg	0.0	129.69322009852476	0.3832945956387448
111.0	55.899515527275526	ISI	1.0		7.0	face	adult-67.jpg	0.0	130.0765146941635	0.11668457656196551
112.0	56.01620010383749	adult	0.0		45.0	face	adult-57.jpg	0.0	130.19319927072547	0.3832792011780839
112.0	56.00685476081253	pulse	0.0	t		face	adult-57.jpg	0.0	130.1838539277005	
112.0	56.399479305015575	ISI	1.0		7.0	face	adult-57.jpg	0.0	130.57647847190356	0.11671264881306342
113.0	56.51619195382864	adult	0.0		46.0	face	adult-21.jpg	0.0	130.69319112071662	0.38332357344688717
113.0	56.899515527275526	ISI	1.0		7.0	face	adult-21.jpg	0.0	131.0765146941635	0.11669906546558195
114.0	57.01621459274111	adult	0.0		46.0	face	adult-48.jpg	0.0	131.1932137596291	0.38328101229171807
114.0	57.399495605032826	ISI	1.0		7.0	face	adult-48.jpg	0.0	131.5764947719208	0.11669936731777852
115.0	57.516194972350604	adult	0.0		46.0	face	adult-63.jpg	0.0	131.69319413923859	0.3832970104558626
115.0	57.89949198280647	ISI	1.0		7.0	face	adult-63.jpg	0.0	132.07649114969445	0.11668397285757237
116.0	58.01617595566404	adult	0.0		45.0	face	adult-71.jpg	0.0	132.19317512255202	0.3832979160129071
116.0	58.00595493950914	pulse	0.0	t		face	adult-71.jpg	0.0	132.18295410639712	
116.0	58.399473871676946	ISI	1.0		7.0	face	adult-71.jpg	0.0	132.57647303856493	0.11668095433560666
117.0	58.51615482601255	adult	0.0		46.0	face	adult-86.jpg	0.0	132.69315399290053	0.3832964067519242
117.0	58.89945123276448	ISI	1.0		7.0	face	adult-86.jpg	0.0	133.07645039965246	0.11670117843095795
118.0	59.016152411195435	adult	0.0		46.0	face	adult-130.jpg	0.0	133.19315157808342	0.38327678636096607
118.0	59.3994291975564	ISI	1.0		7.0	face	adult-130.jpg	0.0	133.57642836444438	0.11672321363903393
119.0	59.516152411195435	adult	0.0		46.0	face	adult-44.jpg	0.0	133.69315157808342	0.38327708821316264
119.0	59.8994294994086	ISI	1.0		7.0	face	adult-44.jpg	0.0	134.07642866629658	0.11668729323127991
120.0	60.01611679263988	car	0.0		45.0	object	car-73.jpg	0.0	134.19311595952786	0.3832858419259537
120.0	60.00597969138653	pulse	0.0	t		object	car-73.jpg	0.0	134.1829788582745	
120.0	60.39940263456583	ISI	1.0		7.0	object	car-73.jpg	0.0	134.5764018014538	0.11670691362178331
121.0	60.516109548187615	car	0.0		46.0	object	car-36.jpg	0.0	134.6931087150756	0.383289162300116
121.0	60.89939871048773	ISI	1.0		7.0	object	car-36.jpg	0.0	135.0763978773757	0.11669393397869499
122.0	61.016092644466426	car	0.0		46.0	object	car-83.jpg	0.0	135.1930918113544	0.38327920117853864
122.0	61.399371845644964	ISI	1.0		7.0	object	car-83.jpg	0.0	135.57637101253295	0.11670600806564835
123.0	61.51607785371061	car	0.0		46.0	object	car-109.jpg	0.0	135.6930770205986	0.3832834271088359
123.0	61.89936128081945	ISI	1.0		7.0	object	car-109.jpg	0.0	136.07636044770743	0.11669544323967784
124.0	62.016056724059126	car	0.0		45.0	object	car-60.jpg	0.0	136.1930558909471	0.38329882156904205
124.0	62.005802504165786	pulse	0.0	t		object	car-60.jpg	0.0	136.18280167105377	
124.0	62.39935554562817	ISI	1.0		7.0	object	car-60.jpg	0.0	136.57635471251615	0.1166948395352847
125.0	62.51605038516345	car	0.0		46.0	object	car-55.jpg	0.0	136.69304955205143	0.3832813141434599
125.0	62.89933169930691	ISI	1.0		7.0	object	car-55.jpg	0.0	137.0763308661949	0.11670359324853052
126.0	63.01603529255544	car	0.0		46.0	object	car-84.jpg	0.0	137.19303445944342	0.38327316413506196
126.0	63.399308456690505	ISI	1.0		7.0	object	car-84.jpg	0.0	137.5763076235785	0.11670963029155246
127.0	63.51601808698206	car	0.0		46.0	object	car-47.jpg	0.0	137.69301725387004	0.3832801067346736
127.0	63.89929819371673	ISI	1.0		7.0	object	car-47.jpg	0.0	138.0762973606047	0.11668276544878609
128.0	64.01598095916552	car	0.0		45.0	object	car-126.jpg	0.0	138.1929801260535	0.383309084542816
128.0	64.00595524136133	pulse	0.0	t		object	car-126.jpg	0.0	138.18295440824932	
128.0	64.39929004370833	ISI	1.0		7.0	object	car-126.jpg	0.0	138.57628921059631	0.11670027287436824
129.0	64.5159903165827	car	0.0		46.0	object	car-126.jpg	1.0	138.69298948347068	0.38327346598725853
129.0	64.89926378256996	ISI	1.0		7.0	object	car-126.jpg	1.0	139.07626294945794	0.11670480065686206
130.0	65.01596858322682	car	0.0		45.0	object	car-42.jpg	0.0	139.1929677501148	0.38328946415185783
130.0	65.00581518195668	response	0.0	b		object	car-42.jpg	0.0	139.18281434884466	
130.0	65.39925804737868	ISI	1.0		7.0	object	car-42.jpg	0.0	139.57625721426666	0.11671898770873668
131.0	65.51597703508742	car	0.0		46.0	object	car-27.jpg	0.0	139.6929762019754	0.38327437154384825
131.0	65.89925140663127	ISI	1.0		7.0	object	car-27.jpg	0.0	140.07625057351925	0.11668819878786962
132.0	66.01593960541913	car	0.0		45.0	object	car-96.jpg	0.0	140.19293877230712	0.38328795489087497
132.0	66.00582453937386	pulse	0.0	t		object	car-96.jpg	0.0	140.18282370626184	
132.0	66.39922756031001	ISI	1.0		7.0	object	car-96.jpg	0.0	140.576226727198	0.11670238583974424
133.0	66.51592994614975	car	0.0		46.0	object	car-144.jpg	0.0	140.69292911303774	0.38329761416025576
133.0	66.89922756031001	ISI	1.0		7.0	object	car-144.jpg	0.0	141.076226727198	0.11668789693567305
134.0	67.01591545724568	car	0.0		46.0	object	car-16.jpg	0.0	141.19291462413366	0.38328372896103247
134.0	67.39919918620672	ISI	1.0		7.0	object	car-16.jpg	0.0	141.5761983530947	0.11669393397869499
135.0	67.51589312018541	car	0.0		46.0	object	car-121.jpg	0.0	141.6928922870734	0.38329067156109886
135.0	67.89918379174651	ISI	1.0		7.0	object	car-121.jpg	0.0	142.0761829586345	0.11667823766629226
136.0	68.0158620294128	car	0.0		45.0	object	car-64.jpg	0.0	142.19286119630078	0.3833154234380345
136.0	68.00578318562702	pulse	0.0	t		object	car-64.jpg	0.0	142.182782352515	
136.0	68.39917745285084	ISI	1.0		7.0	object	car-64.jpg	0.0	142.57617661973882	0.11669302842256002
137.0	68.5158704812734	car	0.0		46.0	object	car-106.jpg	0.0	142.69286964816138	0.3832752770999832
137.0	68.89914575837338	ISI	1.0		7.0	object	car-106.jpg	0.0	143.07614492526136	0.11671717659555725
138.0	69.01586293496894	car	0.0		46.0	object	car-113.jpg	0.0	143.19286210185692	0.38327739006581396
138.0	69.39914032503475	ISI	1.0		7.0	object	car-113.jpg	0.0	143.57613949192273	0.11670208398709292
139.0	69.51584240902184	car	0.0		46.0	object	car-40.jpg	0.0	143.69284157590982	0.38329399193435165
139.0	69.8991364009562	ISI	1.0		7.0	object	car-40.jpg	0.0	144.07613556784418	0.11668306730098266
140.0	70.01581946825718	car	0.0		46.0	object	car-5.jpg	0.0	144.19281863514516	0.3916187727900251
140.0	70.00717472410724	pulse	0.0	t		object	car-5.jpg	0.0	144.18417389099523	
140.0	70.4074382410472	ISI	1.0		6.0	object	car-5.jpg	0.0	144.58443740793518	0.10837277534938039
141.0	70.51581101639658	car	0.0		47.0	object	car-79.jpg	0.0	144.69281018328456	0.3916248098335018
141.0	70.90743582623008	ISI	1.0		6.0	object	car-79.jpg	0.0	145.08443499311807	0.10835979570629206
142.0	71.01579562193638	car	0.0		47.0	object	car-46.jpg	0.0	145.19279478882436	0.3916302431721306
142.0	71.40742586510851	ISI	1.0		7.0	object	car-46.jpg	0.0	145.5844250319965	0.11668789693567305
143.0	71.52411376204418	car	0.0		46.0	object	car-10.jpg	0.0	145.70111292893216	0.3832876530386784
143.0	71.90740141508286	ISI	1.0		7.0	object	car-10.jpg	0.0	146.08440058197084	0.1250322981818499
143.0	71.99921488251948	pulse	1.0	t		object	car-10.jpg	0.0	146.17621404940746	
144.0	72.03243371326471	house	0.0		45.0	place	house-102.jpg	0.0	146.2094328801527	0.37494959068862954
144.0	72.40738330395334	ISI	1.0		7.0	place	house-102.jpg	0.0	146.58438247084132	0.11670510250905863
145.0	72.5240884064624	house	0.0		46.0	place	house-58.jpg	0.0	146.70108757335038	0.38324811040502027
145.0	72.90733651686742	ISI	1.0		7.0	place	house-58.jpg	0.0	147.0843356837554	0.11669574509232916
146.0	73.02403226195975	house	0.0		46.0	place	house-77.jpg	0.0	147.20103142884773	0.38329006785625097
146.0	73.407322329816	ISI	1.0		7.0	place	house-77.jpg	0.0	147.58432149670398	0.11667974692682037
147.0	73.52400207674282	house	0.0		46.0	place	house-86.jpg	0.0	147.7010012436308	0.38330485861251873
147.0	73.90730693535534	ISI	1.0		7.0	place	house-86.jpg	0.0	148.08430610224332	0.1166863876746902
147.0	73.99910017869661	pulse	1.0	t		place	house-86.jpg	0.0	148.1760993455846	
148.0	74.02399332303003	house	0.0		46.0	place	house-140.jpg	0.0	148.200992489918	0.38330757528228787
148.0	74.40730089831231	ISI	1.0		7.0	place	house-140.jpg	0.0	148.5843000652003	0.11669091545718402
149.0	74.5239918137695	house	0.0		46.0	place	house-11.jpg	0.0	148.70099098065748	0.3832834271088359
149.0	74.90727524087833	ISI	1.0		7.0	place	house-11.jpg	0.0	149.08427440776632	0.1166996691699751
150.0	75.02397491004831	house	0.0		46.0	place	house-76.jpg	0.0	149.2009740769363	0.38328916229966126
150.0	75.40726407234797	ISI	1.0		7.0	place	house-76.jpg	0.0	149.58426323923595	0.11669785805725041
151.0	75.52396193040522	house	0.0		46.0	place	house-22.jpg	0.0	149.7009610972932	0.38329218082162697
151.0	75.90725411122685	ISI	1.0		7.0	place	house-22.jpg	0.0	150.08425327811483	0.11669544323967784
151.0	75.99907391755823	pulse	1.0	t		place	house-22.jpg	0.0	150.17607308444622	
152.0	76.02394955446653	house	0.0		46.0	place	house-95.jpg	0.0	150.2009487213545	0.38328554007375715
152.0	76.40723509454028	ISI	1.0		7.0	place	house-95.jpg	0.0	150.58423426142826	0.11669815990899224
153.0	76.52393325444928	house	0.0		46.0	place	house-95.jpg	1.0	150.70093242133726	0.38329429378700297
153.0	76.90722754823628	ISI	1.0		7.0	place	house-95.jpg	1.0	151.08422671512426	0.11669091545718402
153.0	76.94390198256497	response	1.0	b		place	house-95.jpg	1.0	151.12090114945295	
154.0	77.02391846369346	house	0.0		46.0	place	house-125.jpg	0.0	151.20091763058144	0.383284936369364
154.0	77.40720340006283	ISI	1.0		7.0	place	house-125.jpg	0.0	151.5842025669508	0.11667944507507855
155.0	77.5238828451379	house	0.0		46.0	place	house-83.jpg	0.0	151.7008820120259	0.3832927845260201
155.0	77.90717562966393	ISI	1.0		11.0	place	house-83.jpg	0.0	152.0841747965519	0.10001328149519395
155.0	77.99896374151831	pulse	1.0	t		place	house-83.jpg	0.0	152.1759629084063	
156.0	78.00718891115912	baseline	0.0		48.0		baseline	0.0	152.1841880780471	0.39999034073071016
156.0	78.40717925188983	ISI	1.0		11.0		baseline	0.0	152.5841784187778	0.09999184999151112
157.0	78.50717110188134	baseline	0.0		48.0		baseline	0.0	152.68417026876932	0.4000479944943436
157.0	78.90721909637568	ISI	1.0		11.0		baseline	0.0	153.08421826326366	0.1000006037043022
158.0	79.00721970007999	baseline	0.0		48.0		baseline	0.0	153.18421886696797	0.3999954722171424
158.0	79.40721517229713	ISI	1.0		11.0		baseline	0.0	153.5842143391851	0.0999978870349878
159.0	79.50721305933212	baseline	0.0		48.0		baseline	0.0	153.6842122262201	0.39999396295661427
159.0	79.90720702228873	ISI	1.0		11.0		baseline	0.0	154.0842061891767	0.09999034073098301
159.0	79.99898547487419	pulse	1.0	t			baseline	0.0	154.17598464176217	
160.0	80.00719736301971	baseline	0.0		48.0		baseline	0.0	154.1841965299077	0.3999891333219239
160.0	80.40718649634164	ISI	1.0		11.0		baseline	0.0	154.58418566322962	0.09999517036521866
161.0	80.50718166670686	baseline	0.0		48.0		baseline	0.0	154.68418083359484	0.39998279442670537
161.0	80.90716446113356	ISI	1.0		11.0		baseline	0.0	155.08416362802154	0.09999728333059466
162.0	81.00716174446416	baseline	0.0		48.0		baseline	0.0	155.18416091135214	0.39998852961753073
162.0	81.40715027408169	ISI	1.0		11.0		baseline	0.0	155.58414944096967	0.09999154813976929
163.0	81.50714182222146	baseline	0.0		48.0		baseline	0.0	155.68414098910944	0.40000513148652317
163.0	81.90714695370798	ISI	1.0		11.0		baseline	0.0	156.08414612059596	0.10000482963459945
163.0	81.99892389703245	pulse	1.0	t			baseline	0.0	156.17592306392044	
164.0	82.00715178334258	baseline	0.0		48.0		baseline	0.0	156.18415095023056	0.39997736108762183
164.0	82.4071291444302	ISI	1.0		11.0		baseline	0.0	156.58412831131818	0.1000027166696782
165.0	82.50713186109988	baseline	0.0		48.0		baseline	0.0	156.68413102798786	0.39998098331352594
165.0	82.9071128444134	ISI	1.0		11.0		baseline	0.0	157.0841120113014	0.09999607592180837
166.0	83.00710892033521	baseline	0.0		48.0		baseline	0.0	157.1841080872232	0.3999945666610074
166.0	83.40710348699622	ISI	1.0		11.0		baseline	0.0	157.5841026538842	0.09998520924409604
167.0	83.50708869624032	baseline	0.0		48.0		baseline	0.0	157.6840878631283	0.40000181111281563
167.0	83.90709050735313	ISI	1.0		7.0		baseline	0.0	158.0840896742411	0.12498792591350139
167.0	83.99885899881701	pulse	1.0	t			baseline	0.0	158.175858165705	
168.0	84.03207843326663	adult	0.0		45.0	face	adult-38.jpg	0.0	158.20907760015461	0.37494113882803504
168.0	84.40701957209467	ISI	1.0		7.0	face	adult-38.jpg	0.0	158.58401873898265	0.1167262321605449
169.0	84.52374580425521	adult	0.0		46.0	face	adult-99.jpg	0.0	158.7007449711432	0.38326652338719214
169.0	84.9070123276424	ISI	1.0		7.0	face	adult-99.jpg	0.0	159.0840114945304	0.11670238583974424
170.0	85.02371471348215	adult	0.0		46.0	face	adult-41.jpg	0.0	159.20071388037013	0.38328372896103247
170.0	85.40699844244318	ISI	1.0		7.0	face	adult-41.jpg	0.0	159.58399760933116	0.11670238583928949
171.0	85.52370082828247	adult	0.0		46.0	face	adult-32.jpg	0.0	159.70069999517045	0.38328554007375715
171.0	85.90698636835623	ISI	1.0		7.0	face	adult-32.jpg	0.0	160.0839855352442	0.1250341092945746
171.0	85.99880949506178	pulse	1.0	t		face	adult-32.jpg	0.0	160.17580866194976	
172.0	86.0320204776508	adult	0.0		45.0	face	adult-92.jpg	0.0	160.20901964453878	0.3749486851320398
172.0	86.40696916278284	ISI	1.0		7.0	face	adult-92.jpg	0.0	160.58396832967082	0.11670057472656481
173.0	86.52366973750941	adult	0.0		46.0	face	adult-60.jpg	0.0	160.7006689043974	0.3832882567435263
173.0	86.90695799425293	ISI	1.0		7.0	face	adult-60.jpg	0.0	161.08395716114092	0.1166975562045991
174.0	87.02365555045753	adult	0.0		46.0	face	adult-76.jpg	0.0	161.20065471734551	0.3832795030307352
174.0	87.40693505348827	ISI	1.0		7.0	face	adult-76.jpg	0.0	161.58393422037625	0.11669574509187441
175.0	87.52363079858014	adult	0.0		46.0	face	adult-9.jpg	0.0	161.70062996546812	0.383306066021305
175.0	87.90693686460145	ISI	1.0		7.0	face	adult-9.jpg	0.0	162.08393603148943	0.1250235444686041
175.0	87.99874218202922	pulse	1.0	t		face	adult-9.jpg	0.0	162.1757413489172	
176.0	88.03196040907005	adult	0.0		45.0	face	adult-36.jpg	0.0	162.20895957595803	0.3749583444014206
176.0	88.40691875347147	ISI	1.0		7.0	face	adult-36.jpg	0.0	162.58391792035945	0.1166900099005943
177.0	88.52360876337207	adult	0.0		46.0	face	adult-33.jpg	0.0	162.70060793026005	0.38329701045631737
177.0	88.90690577382838	ISI	1.0		7.0	face	adult-33.jpg	0.0	163.08390494071637	0.1166731061794053
178.0	89.02357888000779	adult	0.0		46.0	face	adult-33.jpg	1.0	163.20057804689577	0.3833096882472091
178.0	89.406888568255	ISI	1.0		7.0	face	adult-33.jpg	1.0	163.58388773514298	0.11669182101377373
178.0	89.48206213324966	response	1.0	b		face	adult-33.jpg	1.0	163.65906130013764	
179.0	89.52358038926877	adult	0.0		46.0	face	adult-54.jpg	0.0	163.70057955615675	0.383284936369364
179.0	89.90686532563814	ISI	1.0		7.0	face	adult-54.jpg	0.0	164.08386449252612	0.1250350148511643
179.0	89.99868452826558	pulse	1.0	t		face	adult-54.jpg	0.0	164.17568369515357	
180.0	90.0319003404893	adult	0.0		45.0	face	adult-27.jpg	0.0	164.20889950737728	0.37494959068862954
180.0	90.40684993117793	ISI	1.0		7.0	face	adult-27.jpg	0.0	164.5838490980659	0.11668336915317923
181.0	90.52353330033111	adult	0.0		46.0	face	adult-88.jpg	0.0	164.7005324672191	0.3833102919511475
181.0	90.90684359228226	ISI	1.0		7.0	face	adult-88.jpg	0.0	165.08384275917024	0.11668548211855523
182.0	91.02352907440081	adult	0.0		46.0	face	adult-15.jpg	0.0	165.2005282412888	0.3832991234212386
182.0	91.40682819782205	ISI	1.0		7.0	face	adult-15.jpg	0.0	165.58382736471003	0.11669514138748127
183.0	91.52352333920953	adult	0.0		46.0	face	adult-137.jpg	0.0	165.7005225060975	0.38325837337924895
183.0	91.90678171258878	ISI	1.0		7.0	face	adult-137.jpg	0.0	166.08378087947676	0.11669363212649841
183.0	91.99855171331319	pulse	1.0	t		face	adult-137.jpg	0.0	166.17555088020117	
184.0	92.02347534471528	adult	0.0		46.0	face	adult-85.jpg	0.0	166.20047451160326	0.38329157711723383
184.0	92.40676692183251	ISI	1.0		7.0	face	adult-85.jpg	0.0	166.5837660887205	0.11667220062281558
185.0	92.52343912245533	adult	0.0		46.0	face	adult-85.jpg	1.0	166.7004382893433	0.38331300862091666
185.0	92.90675213107625	ISI	1.0		7.0	face	adult-85.jpg	1.0	167.08375129796423	0.11669363212695316
186.0	93.0234457632032	adult	0.0		45.0	face	adult-119.jpg	0.0	167.20044493009118	0.38329157711723383
186.0	93.02789053633114	response	0.0	b		face	adult-119.jpg	0.0	167.20488970321912	
186.0	93.40673734032043	ISI	1.0		7.0	face	adult-119.jpg	0.0	167.5837365072084	0.11667763396189912
187.0	93.52341497428233	adult	0.0		46.0	face	adult-98.jpg	0.0	167.7004141411703	0.38330636787304684
187.0	93.90672134215538	ISI	1.0		7.0	face	adult-98.jpg	0.0	168.08372050904336	0.11668155804045455
187.0	93.9985707299993	pulse	1.0	t		face	adult-98.jpg	0.0	168.17556989688728	
188.0	94.02340290019583	adult	0.0		46.0	face	adult-79.jpg	0.0	168.20040206708381	0.38330606602085027
188.0	94.40670896621668	ISI	1.0		7.0	face	adult-79.jpg	0.0	168.58370813310466	0.11669091545718402
189.0	94.52339988167387	adult	0.0		46.0	face	adult-121.jpg	0.0	168.70039904856185	0.3832843326654256
189.0	94.9066842143393	ISI	1.0		7.0	face	adult-121.jpg	0.0	169.08368338122727	0.1167017821353511
190.0	95.02338599647464	adult	0.0		46.0	face	adult-30.jpg	0.0	169.20038516336263	0.38328674748254343
190.0	95.40667274395719	ISI	1.0		7.0	face	adult-30.jpg	0.0	169.58367191084517	0.11669393397869499
191.0	95.52336667793588	adult	0.0		46.0	face	adult-45.jpg	0.0	169.70036584482386	0.3833012363866146
191.0	95.9066679143225	ISI	1.0		11.0	face	adult-45.jpg	0.0	170.08366708121048	0.09999456666082551
191.0	95.99842916133412	pulse	1.0	t		face	adult-45.jpg	0.0	170.1754283282221	
192.0	96.00666248098332	baseline	0.0		48.0		baseline	0.0	170.1836616478713	0.39998279442670537
192.0	96.40664527541003	ISI	1.0		11.0		baseline	0.0	170.583644442298	0.10000301852187476
193.0	96.5066482939319	baseline	0.0		48.0		baseline	0.0	170.68364746081988	0.39997887034814994
193.0	96.90662716428005	ISI	1.0		11.0		baseline	0.0	171.08362633116803	0.1000042259302063
194.0	97.00663139021026	baseline	0.0		48.0		baseline	0.0	171.18363055709824	0.3999870203570026
194.0	97.40661841056726	ISI	1.0		11.0		baseline	0.0	171.58361757745524	0.0999978870349878
195.0	97.50661629760225	baseline	0.0		48.0		baseline	0.0	171.68361546449023	0.4000591630242525
195.0	97.9066754606265	ISI	1.0		11.0		baseline	0.0	172.08367462751448	0.09998973702658986
195.0	97.99844546135091	pulse	1.0	t			baseline	0.0	172.1754446282389	
196.0	98.00666519765309	baseline	0.0		48.0		baseline	0.0	172.18366436454107	0.39999426480881084
196.0	98.4066594624619	ISI	1.0		11.0		baseline	0.0	172.58365862934988	0.09998822776560701
197.0	98.50664769022751	baseline	0.0		48.0		baseline	0.0	172.6836468571155	0.39997404071345954
197.0	98.90662173094097	ISI	1.0		11.0		baseline	0.0	173.08362089782895	0.0999978870349878
198.0	99.00661961797596	baseline	0.0		48.0		baseline	0.0	173.18361878486394	0.4000021129650122
198.0	99.40662173094097	ISI	1.0		11.0		baseline	0.0	173.58362089782895	0.1000063388955823
199.0	99.50662806983655	baseline	0.0		48.0		baseline	0.0	173.68362723672453	0.3999861148004129
199.0	99.90661418463696	ISI	1.0		11.0		baseline	0.0	174.08361335152495	0.09999215184370769
199.0	99.99839233536977	pulse	1.0	t			baseline	0.0	174.17539150225775	
200.0	100.00660633648067	baseline	0.0		48.0		baseline	0.0	174.18360550336865	0.39999396295661427
200.0	100.40660029943729	ISI	1.0		11.0		baseline	0.0	174.58359946632527	0.09999667962620151
201.0	100.50659697906349	baseline	0.0		48.0		baseline	0.0	174.68359614595147	0.39998037960958754
201.0	100.90657735867308	ISI	1.0		11.0		baseline	0.0	175.08357652556106	0.10002777039926514
202.0	101.00660512907234	baseline	0.0		48.0		baseline	0.0	175.18360429596032	0.3999646832962753
202.0	101.40656981236862	ISI	1.0		11.0		baseline	0.0	175.5835689792566	0.09999758518279123
203.0	101.50656739755141	baseline	0.0		48.0		baseline	0.0	175.6835665644394	0.3999882277657889
203.0	101.9065556253172	ISI	1.0		11.0		baseline	0.0	176.08355479220518	0.09999969814771248
203.0	101.99833709642371	pulse	1.0	t			baseline	0.0	176.1753362633117	
204.0	102.00655532346491	baseline	0.0		48.0		baseline	0.0	176.1835544903529	0.39997977590473965
204.0	102.40653509936965	ISI	1.0		11.0		baseline	0.0	176.58353426625763	0.10000241481748162
205.0	102.50653751418713	baseline	0.0		48.0		baseline	0.0	176.6835366810751	0.3999882277657889
205.0	102.90652574195292	ISI	1.0		11.0		baseline	0.0	177.0835249088409	0.09998973702613512
206.0	103.00651547897905	baseline	0.0		48.0		baseline	0.0	177.18351464586704	0.3999797759051944
206.0	103.40649525488425	ISI	1.0		11.0		baseline	0.0	177.58349442177223	0.10001267779080081
207.0	103.50650793267505	baseline	0.0		48.0		baseline	0.0	177.68350709956303	0.39998068146132937
207.0	103.90648861413638	ISI	1.0		11.0		baseline	0.0	178.08348778102436	0.10000513148679602
207.0	103.99829725193786	pulse	1.0	t			baseline	0.0	178.17529641882584	
208.0	104.00649374562317	baseline	0.0		48.0		baseline	0.0	178.18349291251116	0.39997253145293143
208.0	104.4064662770761	ISI	1.0		11.0		baseline	0.0	178.5834654439641	0.09999969814816723
209.0	104.50646597522427	baseline	0.0		48.0		baseline	0.0	178.68346514211225	0.39998671850480605
209.0	104.90645269372908	ISI	1.0		11.0		baseline	0.0	179.08345186061706	0.09999698147794334
210.0	105.00644967520702	baseline	0.0		48.0		baseline	0.0	179.183448842095	0.40000211296546695
210.0	105.40645178817249	ISI	1.0		11.0		baseline	0.0	179.58345095506047	0.09998943517393855
211.0	105.50644122334643	baseline	0.0		48.0		baseline	0.0	179.6834403902344	0.39999818888736627
211.0	105.9064394122338	ISI	1.0		11.0		baseline	0.0	180.08343857912178	0.09999124628711797
211.0	105.9982136388885	pulse	1.0	t			baseline	0.0	180.17521280577648	
212.0	106.00643065852091	baseline	0.0		48.0		baseline	0.0	180.1834298254089	0.3999767573832287
212.0	106.40640741590414	ISI	1.0		11.0		baseline	0.0	180.58340658279212	0.0999930574002974
213.0	106.50640047330444	baseline	0.0		48.0		baseline	0.0	180.68339964019242	0.4000156963124937
213.0	106.90641616961693	ISI	1.0		11.0		baseline	0.0	181.0834153365049	0.09998490739189947
214.0	107.00640107700883	baseline	0.0		48.0		baseline	0.0	181.1834002438968	0.399992755547828
214.0	107.40639383255666	ISI	1.0		11.0		baseline	0.0	181.58339299944464	0.09999547221741523
215.0	107.50638930477407	baseline	0.0		48.0		baseline	0.0	181.68338847166206	0.3999812851657225
215.0	107.9063705899398	ISI	1.0		7.0		baseline	0.0	182.08336975682778	0.12499547221796092
215.0	107.99819764072345	pulse	1.0	t			baseline	0.0	182.17519680761143	
216.0	108.03136606215776	word	0.0		45.0	character	word-98.jpg	0.0	182.20836522904574	0.37494506290568097
216.0	108.40631112506344	ISI	1.0		7.0	character	word-98.jpg	0.0	182.58331029195142	0.1166942358313463
217.0	108.52300536089479	word	0.0		46.0	character	word-77.jpg	0.0	182.70000452778277	0.38330697157744
217.0	108.90631233247223	ISI	1.0		7.0	character	word-77.jpg	0.0	183.0833114993602	0.11669091545718402
218.0	109.02300324792941	word	0.0		46.0	character	word-10.jpg	0.0	183.2000024148174	0.38329248267382354
218.0	109.40629573060323	ISI	1.0		7.0	character	word-10.jpg	0.0	183.58329489749121	0.11669151916157716
219.0	109.52298724976481	word	0.0		46.0	character	word-82.jpg	0.0	183.6999864166528	0.38329399193435165
219.0	109.90628124169916	ISI	1.0		7.0	character	word-82.jpg	0.0	184.08328040858714	0.12502505372958694
219.0	109.99808263504883	pulse	1.0	t		character	word-82.jpg	0.0	184.1750818019368	
220.0	110.03130629542875	word	0.0		45.0	character	word-135.jpg	0.0	184.20830546231673	0.3749432517929563
220.0	110.4062495472217	ISI	1.0		7.0	character	word-135.jpg	0.0	184.5832487141097	0.11671355436965314
221.0	110.52296310159136	word	0.0		46.0	character	word-27.jpg	0.0	184.69996226847934	0.3832873511869366
221.0	110.9062504527783	ISI	1.0		7.0	character	word-27.jpg	0.0	185.08324961966628	0.11669272657036345
222.0	111.02294317934866	word	0.0		46.0	character	word-138.jpg	0.0	185.19994234623664	0.38328946415185783
222.0	111.40623264350052	ISI	1.0		7.0	character	word-138.jpg	0.0	185.5832318103885	0.11667944507507855
223.0	111.5229120885756	word	0.0		46.0	character	word-129.jpg	0.0	185.69991125546358	0.3832967086041208
223.0	111.90620879717972	ISI	1.0		7.0	character	word-129.jpg	0.0	186.0832079640677	0.12502233706027255
223.0	111.99802679239838	pulse	1.0	t		character	word-129.jpg	0.0	186.17502595928636	
224.0	112.03123113423999	word	0.0		45.0	character	word-120.jpg	0.0	186.20823030112797	0.3749686073747398
224.0	112.40619974161473	ISI	1.0		7.0	character	word-120.jpg	0.0	186.5831989085027	0.1166996691699751
225.0	112.5228994107847	word	0.0		46.0	character	word-123.jpg	0.0	186.69989857767268	0.3832897660040544
225.0	112.90618917678876	ISI	1.0		7.0	character	word-123.jpg	0.0	187.08318834367674	0.11668246359658951
226.0	113.02287164038535	word	0.0		46.0	character	word-116.jpg	0.0	187.19987080727333	0.3833072734300913
226.0	113.40617891381544	ISI	1.0		7.0	character	word-116.jpg	0.0	187.58317808070342	0.11667370988379844
227.0	113.52285262369924	word	0.0		46.0	character	word-13.jpg	0.0	187.69985179058722	0.3833211586293146
227.0	113.90617378232855	ISI	1.0		11.0	character	word-13.jpg	0.0	188.08317294921653	0.10002354446896788
227.0	113.99799992755561	pulse	1.0	t		character	word-13.jpg	0.0	188.1749990944436	
228.0	114.00619732679752	baseline	0.0		48.0		baseline	0.0	188.1831964936855	0.39998852961753073
228.0	114.40618585641505	ISI	1.0		11.0		baseline	0.0	188.58318502330303	0.09999698147839808
229.0	114.50618283789345	baseline	0.0		48.0		baseline	0.0	188.68318200478143	0.399974946270504
229.0	114.90615778416395	ISI	1.0		11.0		baseline	0.0	189.08315695105193	0.09999607592180837
230.0	115.00615386008576	baseline	0.0		48.0		baseline	0.0	189.18315302697374	0.4000012074084225
230.0	115.40615506749418	ISI	1.0		11.0		baseline	0.0	189.58315423438216	0.09999758518279123
231.0	115.50615265267697	baseline	0.0		48.0		baseline	0.0	189.68315181956496	0.39997977590473965
231.0	115.90613242858171	ISI	1.0		11.0		baseline	0.0	190.0831315954697	0.09999969814816723
231.0	115.99791027746278	pulse	1.0	t			baseline	0.0	190.17490944435076	
232.0	116.00613212672988	baseline	0.0		48.0		baseline	0.0	190.18313129361786	0.4000024148172088
232.0	116.40613454154709	ISI	1.0		11.0		baseline	0.0	190.58313370843507	0.09998158701773718
233.0	116.50611612856483	baseline	0.0		48.0		baseline	0.0	190.6831152954528	0.3999954722175971
233.0	116.90611160078242	ISI	1.0		11.0		baseline	0.0	191.0831107676704	0.09999184999151112
234.0	117.00610345077394	baseline	0.0		48.0		baseline	0.0	191.18310261766192	0.39999818888736627
234.0	117.4061016396613	ISI	1.0		11.0		baseline	0.0	191.58310080654928	0.09998581294803444
235.0	117.50608745260934	baseline	0.0		48.0		baseline	0.0	191.68308661949732	0.39999426480881084
235.0	117.90608171741815	ISI	1.0		11.0		baseline	0.0	192.08308088430613	0.09999758518279123
235.0	117.99785866074262	pulse	1.0	t			baseline	0.0	192.1748578276306	
236.0	118.00607930260094	baseline	0.0		48.0		baseline	0.0	192.18307846948892	0.399977964792015
236.0	118.40605726739295	ISI	1.0		11.0		baseline	0.0	192.58305643428093	0.10000724445171727
237.0	118.50606451184467	baseline	0.0		48.0		baseline	0.0	192.68306367873265	0.3999873222091992
237.0	118.90605183405387	ISI	1.0		11.0		baseline	0.0	193.08305100094185	0.09999818888718437
238.0	119.00605002294105	baseline	0.0		48.0		baseline	0.0	193.18304918982903	0.39998068146132937
238.0	119.40603070440238	ISI	1.0		11.0		baseline	0.0	193.58302987129036	0.10000513148679602
239.0	119.50603583588918	baseline	0.0		48.0		baseline	0.0	193.68303500277716	0.3999873222091992
239.0	119.90602315809838	ISI	1.0		7.0		baseline	0.0	194.08302232498636	0.12498913332183292
239.0	119.99780130883119	pulse	1.0	t			baseline	0.0	194.17480047571917	
240.0	120.03101229142021	house	0.0		45.0	place	house-68.jpg	0.0	194.2080114583082	0.3749562314360446
240.0	120.40596852285626	ISI	1.0		7.0	place	house-68.jpg	0.0	194.58296768974424	0.11669393397914973
241.0	120.5226624568354	house	0.0		46.0	place	house-68.jpg	1.0	194.6996616237234	0.3832837289605777
241.0	120.90594618579598	ISI	1.0		7.0	place	house-68.jpg	1.0	195.08294535268396	0.11670117843095795
241.0	120.94439611455891	response	1.0	b		place	house-68.jpg	1.0	195.1213952814469	
242.0	121.02264736422694	house	0.0		46.0	place	house-134.jpg	0.0	195.19964653111492	0.38328372896103247
242.0	121.40593109318797	ISI	1.0		7.0	place	house-134.jpg	0.0	195.58293026007595	0.11670148028315452
243.0	121.52263257347113	house	0.0		46.0	place	house-12.jpg	0.0	195.6996317403591	0.38328554007375715
243.0	121.90591811354489	ISI	1.0		7.0	place	house-12.jpg	0.0	196.08291728043287	0.12503471299896773
243.0	121.99773248653764	pulse	1.0	t		place	house-12.jpg	0.0	196.17473165342562	
244.0	122.03095282654385	house	0.0		45.0	place	house-89.jpg	0.0	196.20795199343183	0.37495683514043776
244.0	122.40590966168429	ISI	1.0		7.0	place	house-89.jpg	0.0	196.58290882857227	0.1166996691699751
245.0	122.52260933085427	house	0.0		46.0	place	house-59.jpg	0.0	196.69960849774225	0.3832858419259537
245.0	122.90589517278022	ISI	1.0		7.0	place	house-59.jpg	0.0	197.0828943396682	0.11669302842256002
246.0	123.02258820120278	house	0.0		46.0	place	house-32.jpg	0.0	197.19958736809076	0.38329278452556537
246.0	123.40588098572834	ISI	1.0		7.0	place	house-32.jpg	0.0	197.58288015261633	0.11667672840576415
247.0	123.52255771413411	house	0.0		46.0	place	house-126.jpg	0.0	197.6995568810221	0.38330727342963655
247.0	123.90586498756375	ISI	1.0		7.0	place	house-126.jpg	0.0	198.08286415445173	0.12502958151208077
247.0	123.9976712105481	pulse	1.0	t		place	house-126.jpg	0.0	198.1746703774361	
248.0	124.03089456907583	house	0.0		45.0	place	house-74.jpg	0.0	198.2078937359638	0.37495924995801033
248.0	124.40585381903384	ISI	1.0		7.0	place	house-74.jpg	0.0	198.58285298592182	0.11667280432720872
249.0	124.52252662336105	house	0.0		46.0	place	house-129.jpg	0.0	198.69952579024903	0.38330244379494616
249.0	124.90582906715599	ISI	1.0		7.0	place	house-129.jpg	0.0	199.08282823404397	0.11669302842256002
250.0	125.02252209557855	house	0.0		46.0	place	house-101.jpg	0.0	199.19952126246653	0.3832897660040544
250.0	125.4058118615826	ISI	1.0		7.0	place	house-101.jpg	0.0	199.5828110284706	0.11668457656196551
251.0	125.52249643814457	house	0.0		46.0	place	house-142.jpg	0.0	199.69949560503255	0.38331029195160227
251.0	125.90580673009617	ISI	1.0		7.0	place	house-142.jpg	0.0	200.08280589698415	0.1250280722510979
251.0	125.99765038274882	pulse	1.0	t		place	house-142.jpg	0.0	200.1746495496368	
252.0	126.03083480234727	adult	0.0		45.0	face	adult-72.jpg	0.0	200.20783396923525	0.3749562314360446
252.0	126.40579103378332	ISI	1.0		7.0	face	adult-72.jpg	0.0	200.5827902006713	0.11667552099697787
253.0	126.5224665547803	adult	0.0		46.0	face	adult-17.jpg	0.0	200.69946572166828	0.3833105938033441
253.0	126.90577714858364	ISI	1.0		7.0	face	adult-17.jpg	0.0	201.08277631547162	0.11669333027475659
254.0	127.0224704788584	adult	0.0		46.0	face	adult-89.jpg	0.0	201.19946964574638	0.3832909734128407
254.0	127.40576145227124	ISI	1.0		7.0	face	adult-89.jpg	0.0	201.58276061915922	0.11667461544038815
255.0	127.52243606771162	adult	0.0		46.0	face	adult-108.jpg	0.0	201.6994352345996	0.38330727342963655
255.0	127.90574334114126	ISI	1.0		7.0	face	adult-108.jpg	0.0	202.08274250802924	0.1250313926252602
255.0	127.99758518268118	pulse	1.0	t		face	adult-108.jpg	0.0	202.17458434956916	
256.0	128.03077473376652	adult	0.0		45.0	face	adult-102.jpg	0.0	202.2077739006545	0.3749444592017426
256.0	128.40571919296826	ISI	1.0		7.0	face	adult-102.jpg	0.0	202.58271835985624	0.11669363212649841
257.0	128.52241282509476	adult	0.0		46.0	face	adult-75.jpg	0.0	202.69941199198274	0.38329731230851394
257.0	128.90571013740328	ISI	1.0		7.0	face	adult-75.jpg	0.0	203.08270930429126	0.11669876361338538
258.0	129.02240890101666	adult	0.0		46.0	face	adult-128.jpg	0.0	203.19940806790464	0.38329519934313794
258.0	129.4057041003598	ISI	1.0		7.0	face	adult-128.jpg	0.0	203.58270326724778	0.11669574509187441
259.0	129.52239984545167	adult	0.0		46.0	face	adult-1.jpg	0.0	203.69939901233965	0.38328584192640847
259.0	129.90568568737808	ISI	1.0		7.0	face	adult-1.jpg	0.0	204.08268485426606	0.1250027166693144
259.0	129.9975800511943	pulse	1.0	t		face	adult-1.jpg	0.0	204.17457921808227	
260.0	130.0306884040474	adult	0.0		45.0	face	adult-144.jpg	0.0	204.20768757093538	0.3749770592353343
260.0	130.40566546328273	ISI	1.0		7.0	face	adult-144.jpg	0.0	204.5826646301707	0.11670087657876138
261.0	130.5223663398615	adult	0.0		46.0	face	adult-31.jpg	0.0	204.69936550674947	0.3832798048829318
261.0	130.90564614474442	ISI	1.0		7.0	face	adult-31.jpg	0.0	205.0826453116324	0.11668457656151077
262.0	131.02233072130593	adult	0.0		46.0	face	adult-26.jpg	0.0	205.19932988819392	0.38331210306432695
262.0	131.40564282437026	ISI	1.0		7.0	face	adult-26.jpg	0.0	205.58264199125824	0.11667612470137101
263.0	131.52231894907163	adult	0.0		46.0	face	adult-80.jpg	0.0	205.6993181159596	0.3833096882472091
263.0	131.90562863731884	ISI	1.0		7.0	face	adult-80.jpg	0.0	206.08262780420682	0.12502535558178351
263.0	131.99743727512032	pulse	1.0	t		face	adult-80.jpg	0.0	206.1744364420083	
264.0	132.03065399290062	house	0.0		45.0	place	house-87.jpg	0.0	206.2076531597886	0.37496166477512816
264.0	132.40561565767575	ISI	1.0		7.0	place	house-87.jpg	0.0	206.58261482456373	0.1166900099005943
265.0	132.52230566757635	house	0.0		46.0	place	house-124.jpg	0.0	206.69930483446433	0.38328403081322904
265.0	132.90558969838958	ISI	1.0		7.0	place	house-124.jpg	0.0	207.08258886527756	0.11668759508347648
266.0	133.02227729347305	house	0.0		46.0	place	house-56.jpg	0.0	207.19927646036103	0.38326742894378185
266.0	133.40554472241683	ISI	1.0		7.0	place	house-56.jpg	0.0	207.58254388930482	0.11668306730098266
267.0	133.52222778971782	house	0.0		46.0	place	house-13.jpg	0.0	207.6992269566058	0.383309084542816
267.0	133.90553687426063	ISI	1.0		7.0	place	house-13.jpg	0.0	208.08253604114861	0.11669272657036345
267.0	133.99730415831573	pulse	1.0	t		place	house-13.jpg	0.0	208.1743033252037	
268.0	134.022229600831	house	0.0		46.0	place	house-119.jpg	0.0	208.19922876771898	0.38327950303028047
268.0	134.40550910386128	ISI	1.0		7.0	place	house-119.jpg	0.0	208.58250827074926	0.11668518026635866
269.0	134.52219428412764	house	0.0		46.0	place	house-46.jpg	0.0	208.69919345101562	0.38330606602085027
269.0	134.9055003501485	ISI	1.0		7.0	place	house-46.jpg	0.0	209.08249951703647	0.11669785805725041
270.0	135.02219820820574	house	0.0		46.0	place	house-51.jpg	0.0	209.19919737509372	0.3832798048829318
270.0	135.40547801308867	ISI	1.0		7.0	place	house-51.jpg	0.0	209.58247717997665	0.11670751732617646
271.0	135.52218553041484	house	0.0		46.0	place	house-135.jpg	0.0	209.69918469730283	0.383284936369364
271.0	135.9054704667842	ISI	1.0		7.0	place	house-135.jpg	0.0	210.0824696336722	0.11669997102217167
271.0	135.9972537490039	pulse	1.0	t		place	house-135.jpg	0.0	210.17425291589188	
272.0	136.02217043780638	house	0.0		46.0	place	house-96.jpg	0.0	210.19916960469436	0.38329248267382354
272.0	136.4054629204802	ISI	1.0		7.0	place	house-96.jpg	0.0	210.58246208736819	0.1166921228659703
273.0	136.52215504334617	house	0.0		46.0	place	house-43.jpg	0.0	210.69915421023416	0.38329278452556537
273.0	136.90544782787174	ISI	1.0		7.0	place	house-43.jpg	0.0	211.08244699475972	0.11669031175324562
274.0	137.02213813962499	house	0.0		46.0	place	house-105.jpg	0.0	211.19913730651297	0.38329519934313794
274.0	137.40543333896812	ISI	1.0		7.0	place	house-105.jpg	0.0	211.5824325058561	0.11669182101377373
275.0	137.5221251599819	house	0.0		46.0	place	house-29.jpg	0.0	211.69912432686988	0.38329278452556537
275.0	137.90541794450746	ISI	1.0		7.0	place	house-29.jpg	0.0	212.08241711139544	0.11669363212695316
275.0	137.9972296008309	pulse	1.0	t		place	house-29.jpg	0.0	212.1742287677189	
276.0	138.02211157663442	house	0.0		46.0	place	house-35.jpg	0.0	212.1991107435224	0.38329248267382354
276.0	138.40540405930824	ISI	1.0		7.0	place	house-35.jpg	0.0	212.58240322619622	0.11669091545718402
277.0	138.52209497476542	house	0.0		46.0	place	house-18.jpg	0.0	212.6990941416534	0.38328946415185783
277.0	138.90538443891728	ISI	1.0		7.0	place	house-18.jpg	0.0	213.08238360580526	0.11669725435285727
278.0	139.02208169327014	house	0.0		46.0	place	house-1.jpg	0.0	213.19908086015812	0.38332327159423585
278.0	139.40540496486437	ISI	1.0		7.0	place	house-1.jpg	0.0	213.58240413175236	0.11669453768354288
279.0	139.52209950254792	house	0.0		46.0	place	house-50.jpg	0.0	213.6990986694359	0.3832785974741455
279.0	139.90537810002206	ISI	1.0		7.0	place	house-50.jpg	0.0	214.08237726691004	0.1250217333558794
279.0	139.99719639709292	pulse	1.0	t		place	house-50.jpg	0.0	214.1741955639809	
280.0	140.03039983337794	house	0.0		45.0	place	house-118.jpg	0.0	214.20739900026592	0.37496589070497066
280.0	140.4053657240829	ISI	1.0		7.0	place	house-118.jpg	0.0	214.5823648909709	0.1166990654660367
281.0	140.52206478954895	house	0.0		46.0	place	house-36.jpg	0.0	214.69906395643693	0.3832970104558626
281.0	140.9053618000048	ISI	1.0		7.0	place	house-36.jpg	0.0	215.0823609668928	0.11669815990944699
282.0	141.02205995991426	house	0.0		46.0	place	house-36.jpg	1.0	215.19905912680224	0.38328191784785304
282.0	141.4053418777621	ISI	1.0		7.0	place	house-36.jpg	1.0	215.5823410446501	0.11667703025750598
283.0	141.52201890801962	house	0.0		46.0	place	house-115.jpg	0.0	215.6990180749076	0.38331693269901734
283.0	141.63051755572224	response	0.0	b		place	house-115.jpg	0.0	215.80751672261022	
283.0	141.90533584071864	ISI	1.0		7.0	place	house-115.jpg	0.0	216.08233500760662	0.12502263891246912
283.0	141.9971336118424	pulse	1.0	t		place	house-115.jpg	0.0	216.17413277873038	
284.0	142.0303584796311	house	0.0		45.0	place	house-71.jpg	0.0	216.20735764651909	0.37495592958384805
284.0	142.40531440921495	ISI	1.0		7.0	place	house-71.jpg	0.0	216.58231357610293	0.11668487841416209
285.0	142.52199928762911	house	0.0		46.0	place	house-91.jpg	0.0	216.6989984545171	0.38329761416025576
285.0	142.90529690178937	ISI	1.0		7.0	place	house-91.jpg	0.0	217.08229606867735	0.11669604694407099
286.0	143.02199294873344	house	0.0		46.0	place	house-47.jpg	0.0	217.19899211562142	0.38328644563034686
286.0	143.4052793943638	ISI	1.0		7.0	place	house-47.jpg	0.0	217.58227856125177	0.11668216174484769
287.0	143.52196155610864	house	0.0		46.0	place	house-48.jpg	0.0	217.69896072299662	0.383303953055929
287.0	143.90526550916456	ISI	1.0		7.0	place	house-48.jpg	0.0	218.08226467605255	0.12503471299896773
287.0	143.99707565622657	pulse	1.0	t		place	house-48.jpg	0.0	218.17407482311455	
288.0	144.03030022216353	body	0.0		45.0	body	body-62.jpg	0.0	218.2072993890515	0.374958948105359
288.0	144.4052591702689	ISI	1.0		7.0	body	body-62.jpg	0.0	218.58225833715687	0.11669544323967784
289.0	144.52195461350857	body	0.0		46.0	body	body-83.jpg	0.0	218.69895378039655	0.3832761826570277
289.0	144.9052307961656	ISI	1.0		7.0	body	body-83.jpg	0.0	219.08222996305358	0.11669936731777852
290.0	145.02193016348338	body	0.0		46.0	body	body-13.jpg	0.0	219.19892933037136	0.3832662215354503
290.0	145.40519638501883	ISI	1.0		7.0	body	body-13.jpg	0.0	219.5821955519068	0.11669031175279088
291.0	145.52188669677162	body	0.0		46.0	body	body-68.jpg	0.0	219.6988858636596	0.3832879548913297
291.0	145.90517465166295	ISI	1.0		7.0	body	body-68.jpg	0.0	220.08217381855093	0.1166996691699751
291.0	145.9970285672889	pulse	1.0	t		body	body-68.jpg	0.0	220.1740277341769	
292.0	146.02187432083292	body	0.0		46.0	body	body-80.jpg	0.0	220.1988734877209	0.3832936900821551
292.0	146.40516801091508	ISI	1.0		7.0	body	body-80.jpg	0.0	220.58216717780306	0.11667129506668061
293.0	146.52183930598176	body	0.0		46.0	body	body-5.jpg	0.0	220.69883847286974	0.3833105938033441
293.0	146.9051498997851	ISI	1.0		7.0	body	body-5.jpg	0.0	221.08214906667308	0.11669363212695316
294.0	147.02184353191205	body	0.0		46.0	body	body-59.jpg	0.0	221.19884269880004	0.38329489749094137
294.0	147.405138429403	ISI	1.0		7.0	body	body-59.jpg	0.0	221.58213759629098	0.11669031175279088
295.0	147.5218287411558	body	0.0		46.0	body	body-2.jpg	0.0	221.69882790804377	0.3832927845260201
295.0	147.9051215256818	ISI	1.0		7.0	body	body-2.jpg	0.0	222.0821206925698	0.11669604694407099
295.0	147.99695823573438	pulse	1.0	t		body	body-2.jpg	0.0	222.17395740262236	
296.0	148.02181757262588	body	0.0		46.0	body	body-2.jpg	1.0	222.19881673951386	0.3832918789694304
296.0	148.4051094515953	ISI	1.0		7.0	body	body-2.jpg	1.0	222.5821086184833	0.11668880249180802
297.0	148.52179825408712	body	0.0		46.0	body	body-18.jpg	0.0	222.6987974209751	0.38328704933474
297.0	148.60521751467013	response	0.0	b		body	body-18.jpg	0.0	222.7822166815581	
297.0	148.90508530342186	ISI	1.0		7.0	body	body-18.jpg	0.0	223.08208447030984	0.11667914322288198
298.0	149.02176444664474	body	0.0		46.0	body	body-55.jpg	0.0	223.19876361353272	0.38331331047311323
298.0	149.40507775711785	ISI	1.0		7.0	body	body-55.jpg	0.0	223.58207692400583	0.11669061360498745
299.0	149.52176837072284	body	0.0		46.0	body	body-100.jpg	0.0	223.69876753761082	0.38328554007375715
299.0	149.9050539107966	ISI	1.0		7.0	body	body-100.jpg	0.0	224.08205307768458	0.1167017821353511
299.0	149.9968284393035	pulse	1.0	t		body	body-100.jpg	0.0	224.17382760619148	
300.0	150.02175569293195	body	0.0		46.0	body	body-58.jpg	0.0	224.19875485981993	0.3832918789694304
300.0	150.40504757190138	ISI	1.0		7.0	body	body-58.jpg	0.0	224.58204673878936	0.11669091545718402
301.0	150.52173848735856	body	0.0		46.0	body	body-58.jpg	1.0	224.69873765424654	0.38329338823041326
301.0	150.90503187558897	ISI	1.0		7.0	body	body-58.jpg	1.0	225.08203104247696	0.11668699137908334
302.0	151.02171886696806	body	0.0		45.0	body	body-75.jpg	0.0	225.19871803385604	0.38333172345483035
302.0	151.0119554586945	response	0.0	b		body	body-75.jpg	0.0	225.18895462558248	
302.0	151.4050505904229	ISI	1.0		7.0	body	body-75.jpg	0.0	225.58204975731087	0.11669091545718402
303.0	151.52174150588007	body	0.0		46.0	body	body-140.jpg	0.0	225.69874067276805	0.38329519934313794
303.0	151.9050367052232	ISI	1.0		7.0	body	body-140.jpg	0.0	226.0820358721112	0.12502746854715951
303.0	151.99687100045912	pulse	1.0	t		body	body-140.jpg	0.0	226.1738701673471	
304.0	152.03006417377037	body	0.0		45.0	body	body-46.jpg	0.0	226.20706334065835	0.37495683514043776
304.0	152.4050210089108	ISI	1.0		7.0	body	body-46.jpg	0.0	226.5820201757988	0.11669151916157716
305.0	152.52171252807238	body	0.0		46.0	body	body-125.jpg	0.0	226.69871169496037	0.3832958030475311
305.0	152.90500833111992	ISI	1.0		7.0	body	body-125.jpg	0.0	227.0820074980079	0.11666737098857993
306.0	153.0216757021085	body	0.0		46.0	body	body-4.jpg	0.0	227.19867486899648	0.38331572529023106
306.0	153.40499142739873	ISI	1.0		7.0	body	body-4.jpg	0.0	227.5819905942867	0.1166921228659703
307.0	153.5216835502647	body	0.0		46.0	body	body-10.jpg	0.0	227.69868271715268	0.38329670860366605
307.0	153.90498025886836	ISI	1.0		7.0	body	body-10.jpg	0.0	228.08197942575634	0.12502233706027255
307.0	153.9967879911137	pulse	1.0	t		body	body-10.jpg	0.0	228.1737871580017	
308.0	154.03000259592864	body	0.0		45.0	body	body-131.jpg	0.0	228.20700176281662	0.3749586462536172
308.0	154.40496124218225	ISI	1.0		7.0	body	body-131.jpg	0.0	228.58196040907023	0.11670842288276617
309.0	154.52166966506502	body	0.0		46.0	body	body-36.jpg	0.0	228.698668831953	0.38326591968325374
309.0	154.90493558474827	ISI	1.0		7.0	body	body-36.jpg	0.0	229.08193475163625	0.1167032913958792
310.0	155.02163887614415	body	0.0		46.0	body	body-25.jpg	0.0	229.19863804303213	0.3832927845260201
310.0	155.40493166067017	ISI	1.0		7.0	body	body-25.jpg	0.0	229.58193082755815	0.11667582284871969
311.0	155.5216074835189	body	0.0		46.0	body	body-1.jpg	0.0	229.69860665040687	0.38330184009100776
311.0	155.9049093236099	ISI	1.0		7.0	body	body-1.jpg	0.0	230.08190849049788	0.12503260003359173
311.0	155.99672671512417	pulse	1.0	t		body	body-1.jpg	0.0	230.17372588201215	
312.0	156.0299419236435	car	0.0		45.0	object	car-2.jpg	0.0	230.20694109053147	0.37495442032331994
312.0	156.4048963439668	ISI	1.0		7.0	object	car-2.jpg	0.0	230.5818955108548	0.11667914322288198
313.0	156.5215754871897	car	0.0		46.0	object	car-19.jpg	0.0	230.69857465407767	0.3833105938033441
313.0	156.90488608099304	ISI	1.0		7.0	object	car-19.jpg	0.0	231.08188524788102	0.11669363212695316
314.0	157.02157971312	car	0.0		46.0	object	car-7.jpg	0.0	231.19857888000797	0.38329670860366605
314.0	157.40487642172366	ISI	1.0		7.0	object	car-7.jpg	0.0	231.58187558861164	0.11666948395350119
315.0	157.52154590567716	car	0.0		46.0	object	car-56.jpg	0.0	231.69854507256514	0.38330666972569816
315.0	157.90485257540286	ISI	1.0		7.0	object	car-56.jpg	0.0	232.08185174229084	0.12501630001679587
315.0	157.9967203762285	pulse	1.0	t		object	car-56.jpg	0.0	232.17371954311648	
316.0	158.02986887541965	car	0.0		45.0	object	car-30.jpg	0.0	232.20686804230763	0.374961061070735
316.0	158.4048299364904	ISI	1.0		7.0	object	car-30.jpg	0.0	232.58182910337837	0.1166809543360614
317.0	158.52151089082645	car	0.0		46.0	object	car-24.jpg	0.0	232.69851005771443	0.3833042549081256
317.0	158.90481514573457	ISI	1.0		7.0	object	car-24.jpg	0.0	233.08181431262256	0.1166996691699751
318.0	159.02151481490455	car	0.0		46.0	object	car-69.jpg	0.0	233.19851398179253	0.3832909734128407
318.0	159.4048057883174	ISI	1.0		7.0	object	car-69.jpg	0.0	233.58180495520537	0.11668518026590391
319.0	159.5214909685833	car	0.0		46.0	object	car-118.jpg	0.0	233.69849013547127	0.38326199560515306
319.0	159.90475296418845	ISI	1.0		7.0	object	car-118.jpg	0.0	234.08175213107643	0.11668276544878609
319.0	159.9965757890418	pulse	1.0	t		object	car-118.jpg	0.0	234.17357495592978	
320.0	160.02143572963723	car	0.0		46.0	object	car-102.jpg	0.0	234.1984348965252	0.3833151215858379
320.0	160.40475085122307	ISI	1.0		7.0	object	car-102.jpg	0.0	234.58175001811105	0.11667189877107376
321.0	160.52142274999414	car	0.0		46.0	object	car-50.jpg	0.0	234.69842191688213	0.38330334935153587
321.0	160.5381758469971	response	0.0	b		object	car-50.jpg	0.0	234.71517501388507	
321.0	160.90472609934568	ISI	1.0		7.0	object	car-50.jpg	0.0	235.08172526623366	0.11668185989219637
322.0	161.02140795923788	car	0.0		46.0	object	car-50.jpg	1.0	235.19840712612586	0.3833108956559954
322.0	161.40471885489387	ISI	1.0		7.0	object	car-50.jpg	1.0	235.58171802178185	0.11667733210970255
323.0	161.52139618700357	car	0.0		46.0	object	car-13.jpg	0.0	235.69839535389156	0.3833030474993393
323.0	161.9046992345029	ISI	1.0		7.0	object	car-13.jpg	0.0	236.0816984013909	0.11669936731777852
323.0	161.99651813527817	pulse	1.0	t		object	car-13.jpg	0.0	236.17351730216615	
324.0	162.0213986018207	adult	0.0		46.0	face	adult-113.jpg	0.0	236.19839776870867	0.3832846345176222
324.0	162.40468323633831	ISI	1.0		7.0	face	adult-113.jpg	0.0	236.5816824032263	0.11668095433560666
325.0	162.52136419067392	adult	0.0		46.0	face	adult-8.jpg	0.0	236.6983633575619	0.3833127067687201
325.0	162.90467689744264	ISI	1.0		7.0	face	adult-8.jpg	0.0	237.08167606433062	0.11669000990104905
326.0	163.0213669073437	adult	0.0		46.0	face	adult-24.jpg	0.0	237.19836607423167	0.3832810122912633
326.0	163.40464791963495	ISI	1.0		7.0	face	adult-24.jpg	0.0	237.58164708652293	0.11668608582249362
327.0	163.52133400545745	adult	0.0		46.0	face	adult-47.jpg	0.0	237.69833317234543	0.3832819178483078
327.0	163.90461592330576	ISI	1.0		7.0	face	adult-47.jpg	0.0	238.08161509019374	0.11672562845615175
327.0	163.99641369442907	pulse	1.0	t		face	adult-47.jpg	0.0	238.17341286131705	
328.0	164.0213415517619	adult	0.0		46.0	face	adult-34.jpg	0.0	238.1983407186499	0.38328674748254343
328.0	164.40462829924445	ISI	1.0		7.0	face	adult-34.jpg	0.0	238.58162746613243	0.11668608582249362
329.0	164.52131438506694	adult	0.0		46.0	face	adult-84.jpg	0.0	238.69831355195493	0.3833042549081256
329.0	164.90461863997507	ISI	1.0		7.0	face	adult-84.jpg	0.0	239.08161780686305	0.11669151916157716
330.0	165.02131015913665	adult	0.0		46.0	face	adult-2.jpg	0.0	239.19830932602463	0.38328282340444275
330.0	165.4045929825411	ISI	1.0		7.0	face	adult-2.jpg	0.0	239.58159214942907	0.11667974692727512
331.0	165.52127272946836	adult	0.0		46.0	face	adult-7.jpg	0.0	239.69827189635635	0.3833410808720146
331.0	165.90461381034038	ISI	1.0		7.0	face	adult-7.jpg	0.0	240.08161297722836	0.1250329018857883
331.0	165.99643452222836	pulse	1.0	t		face	adult-7.jpg	0.0	240.17343368911634	
332.0	166.02964671222617	adult	0.0		45.0	face	adult-95.jpg	0.0	240.20664587911415	0.37495804254922405
332.0	166.4046047547754	ISI	1.0		7.0	face	adult-95.jpg	0.0	240.58160392166337	0.11669121730938059
333.0	166.52129597208477	adult	0.0		46.0	face	adult-82.jpg	0.0	240.69829513897275	0.3832852382220153
333.0	166.9045812103068	ISI	1.0		7.0	face	adult-82.jpg	0.0	241.08158037719477	0.1167011784305032
334.0	167.0212823887373	adult	0.0		46.0	face	adult-139.jpg	0.0	241.19828155562527	0.3832843326654256
334.0	167.40456672140272	ISI	1.0		7.0	face	adult-139.jpg	0.0	241.5815658882907	0.11670208398709292
335.0	167.5212688053898	adult	0.0		46.0	face	adult-3.jpg	0.0	241.6982679722778	0.38325837337924895
335.0	167.90452717876906	ISI	1.0		7.0	face	adult-3.jpg	0.0	242.08152634565704	0.11669333027475659
335.0	167.99629355726756	pulse	1.0	t		face	adult-3.jpg	0.0	242.17329272415554	
336.0	168.02122050904381	body	0.0		46.0	body	body-9.jpg	0.0	242.1982196759318	0.3832852382215606
336.0	168.40450574726538	ISI	1.0		7.0	body	body-9.jpg	0.0	242.58150491415336	0.11669997102217167
337.0	168.52120571828755	body	0.0		46.0	body	body-22.jpg	0.0	242.69820488517553	0.38328704933474
337.0	168.9044927676223	ISI	1.0		7.0	body	body-22.jpg	0.0	243.08149193451027	0.1166969525006607
338.0	169.02118972012295	body	0.0		46.0	body	body-118.jpg	0.0	243.19818888701093	0.3832858419259537
338.0	169.4044755620489	ISI	1.0		7.0	body	body-118.jpg	0.0	243.58147472893688	0.11669936731777852
339.0	169.52117492936668	body	0.0		46.0	body	body-118.jpg	1.0	243.69817409625466	0.3832858419259537
339.0	169.90446077129263	ISI	1.0		7.0	body	body-118.jpg	1.0	244.08145993818061	0.11668638767514494
339.0	169.9962343942434	pulse	1.0	t		body	body-118.jpg	1.0	244.17323356113138	
340.0	170.02114715896778	body	0.0		46.0	body	body-88.jpg	0.0	244.19814632585576	0.38329882156904205
340.0	170.07956672140244	response	0.0	b		body	body-88.jpg	0.0	244.25656588829042	
340.0	170.40444598053682	ISI	1.0		7.0	body	body-88.jpg	0.0	244.5814451474248	0.11670178213489635
341.0	170.52114776267172	body	0.0		46.0	body	body-12.jpg	0.0	244.6981469295597	0.3832909734128407
341.0	170.90443873608456	ISI	1.0		7.0	body	body-12.jpg	0.0	245.08143790297254	0.11669272657036345
342.0	171.02113146265492	body	0.0		46.0	body	body-123.jpg	0.0	245.1981306295429	0.38329248267382354
342.0	171.40442394532874	ISI	1.0		7.0	body	body-123.jpg	0.0	245.58142311221673	0.1166900099005943
343.0	171.52111395522934	body	0.0		46.0	body	body-66.jpg	0.0	245.69811312211732	0.3832882567435263
343.0	171.90440221197287	ISI	1.0		7.0	body	body-66.jpg	0.0	246.08140137886085	0.11669876361338538
343.0	171.99617674047977	pulse	1.0	t		body	body-66.jpg	0.0	246.17317590736775	
344.0	172.02110097558625	body	0.0		46.0	body	body-95.jpg	0.0	246.19810014247423	0.38329369008260983
344.0	172.40439466566886	ISI	1.0		7.0	body	body-95.jpg	0.0	246.58139383255684	0.11667129506622587
345.0	172.5210659607351	body	0.0		46.0	body	body-64.jpg	0.0	246.69806512762307	0.38330576416910844
345.0	172.9043717249042	ISI	1.0		7.0	body	body-64.jpg	0.0	247.08137089179218	0.11669906546558195
346.0	173.02107079036978	body	0.0		46.0	body	body-39.jpg	0.0	247.19806995725776	0.38327829562194893
346.0	173.40434908599173	ISI	1.0		7.0	body	body-39.jpg	0.0	247.5813482528797	0.11671747844775382
347.0	173.52106656443948	body	0.0		46.0	body	body-101.jpg	0.0	247.69806573132746	0.38330274564714273
347.0	173.90436931008662	ISI	1.0		7.0	body	body-101.jpg	0.0	248.0813684769746	0.1250202240953513
347.0	173.99618338122718	pulse	1.0	t		body	body-101.jpg	0.0	248.17318254811516	
348.0	174.02938953418197	adult	0.0		45.0	face	adult-68.jpg	0.0	248.20638870106995	0.37497011663572266
348.0	174.4043596508177	ISI	1.0		7.0	face	adult-68.jpg	0.0	248.58135881770568	0.11670057472656481
349.0	174.52106022554426	adult	0.0		46.0	face	adult-96.jpg	0.0	248.69805939243224	0.3832837289605777
349.0	174.90434395450484	ISI	1.0		7.0	face	adult-96.jpg	0.0	249.08134312139282	0.11669846176164356
350.0	175.02104241626648	adult	0.0		46.0	face	adult-13.jpg	0.0	249.19804158315446	0.3832955011953345
350.0	175.40433791746182	ISI	1.0		7.0	face	adult-13.jpg	0.0	249.5813370843498	0.11669182101377373
351.0	175.5210297384756	adult	0.0		46.0	face	adult-91.jpg	0.0	249.69802890536357	0.3832936900821551
351.0	175.90432342855775	ISI	1.0		7.0	face	adult-91.jpg	0.0	250.08132259544573	0.12502897780768762
351.0	175.99614474415012	pulse	1.0	t		face	adult-91.jpg	0.0	250.1731439110381	
352.0	176.02935240636543	adult	0.0		45.0	face	adult-64.jpg	0.0	250.20635157325341	0.3749556277321062
352.0	176.40430803409754	ISI	1.0		7.0	face	adult-64.jpg	0.0	250.58130720098552	0.11667401173599501
353.0	176.52098204583353	adult	0.0		46.0	face	adult-61.jpg	0.0	250.69798121272152	0.38330244379494616
353.0	176.90428448962848	ISI	1.0		7.0	face	adult-61.jpg	0.0	251.08128365651646	0.1167032913958792
354.0	177.02098778102436	adult	0.0		46.0	face	adult-100.jpg	0.0	251.19798694791234	0.383250223370851
354.0	177.4042380043952	ISI	1.0		7.0	face	adult-100.jpg	0.0	251.5812371712832	0.11668276544878609
355.0	177.520920769844	adult	0.0		46.0	face	adult-125.jpg	0.0	251.69791993673198	0.383301840090553
355.0	177.90422260993455	ISI	1.0		7.0	face	adult-125.jpg	0.0	252.08122177682253	0.11670117843095795
355.0	177.9960046847459	pulse	1.0	t		face	adult-125.jpg	0.0	252.1730038516339	
356.0	178.0209237883655	adult	0.0		46.0	face	adult-39.jpg	0.0	252.1979229552535	0.3832843326654256
356.0	178.40420812103093	ISI	1.0		7.0	face	adult-39.jpg	0.0	252.58120728791891	0.11668035063121351
357.0	178.52088847166215	adult	0.0		46.0	face	adult-46.jpg	0.0	252.69788763855013	0.38330455676032216
357.0	178.90419302842247	ISI	1.0		7.0	face	adult-46.jpg	0.0	253.08119219531045	0.11670057472656481
358.0	179.02089360314903	adult	0.0		46.0	face	adult-42.jpg	0.0	253.19789277003701	0.38328554007375715
358.0	179.4041791432228	ISI	1.0		7.0	face	adult-42.jpg	0.0	253.58117831011077	0.11670117843095795
359.0	179.52088032165375	adult	0.0		46.0	face	adult-127.jpg	0.0	253.69787948854173	0.3832879548913297
359.0	179.90416827654508	ISI	1.0		7.0	face	adult-127.jpg	0.0	254.08116744343306	0.1166975562045991
359.0	179.99594008838267	pulse	1.0	t		face	adult-127.jpg	0.0	254.17293925527065	
360.0	180.02086583274968	word	0.0		46.0	character	word-52.jpg	0.0	254.19786499963766	0.3832855400742119
360.0	180.4041513728239	ISI	1.0		7.0	character	word-52.jpg	0.0	254.58115053971187	0.11669846176118881
361.0	180.52084983458508	word	0.0		46.0	character	word-32.jpg	0.0	254.69784900147306	0.38326229745734963
361.0	180.90411213204243	ISI	1.0		7.0	character	word-32.jpg	0.0	255.0811112989304	0.11670842288276617
362.0	181.0208205549252	word	0.0		46.0	character	word-125.jpg	0.0	255.19781972181318	0.38330546231691187
362.0	181.4041260172421	ISI	1.0		7.0	character	word-125.jpg	0.0	255.5811251841301	0.1166815580399998
363.0	181.5208075752821	word	0.0		46.0	character	word-101.jpg	0.0	255.6978067421701	0.38330485861251873
363.0	181.90411243389462	ISI	1.0		7.0	character	word-101.jpg	0.0	256.0811116007826	0.11666767284032176
363.0	181.99587790683654	pulse	1.0	t		character	word-101.jpg	0.0	256.1728770737245	
364.0	182.02078010673495	word	0.0		46.0	character	word-133.jpg	0.0	256.1977792736229	0.38331783825560706
364.0	182.40409794499055	ISI	1.0		7.0	character	word-133.jpg	0.0	256.58109711187853	0.1166921228659703
365.0	182.52079006785652	word	0.0		46.0	character	word-34.jpg	0.0	256.6977892347445	0.3832798048829318
365.0	182.90406987273946	ISI	1.0		7.0	character	word-34.jpg	0.0	257.08106903962744	0.11671264881306342
366.0	183.02078252155252	word	0.0		46.0	character	word-19.jpg	0.0	257.1977816884405	0.383318743811742
366.0	183.40410126536426	ISI	1.0		7.0	character	word-19.jpg	0.0	257.58110043225224	0.1166921228659703
367.0	183.52079338823023	word	0.0		46.0	character	word-95.jpg	0.0	257.6977925551182	0.3832529400401654
367.0	183.9040463282704	ISI	1.0		7.0	character	word-95.jpg	0.0	258.0810454951584	0.11669936731777852
367.0	183.9958045567605	pulse	1.0	t		character	word-95.jpg	0.0	258.1728037236485	
368.0	184.02074569558818	word	0.0		46.0	character	word-67.jpg	0.0	258.19774486247616	0.38329248267382354
368.0	184.404038178262	ISI	1.0		7.0	character	word-67.jpg	0.0	258.58103734515	0.11668970804839773
369.0	184.5207278863104	word	0.0		46.0	character	word-121.jpg	0.0	258.6977270531984	0.38328855859572286
369.0	184.90401644490612	ISI	1.0		7.0	character	word-121.jpg	0.0	259.0810156117941	0.11669755620505384
370.0	185.02071400111117	word	0.0		46.0	character	word-17.jpg	0.0	259.19771316799915	0.38328644563034686
370.0	185.40400044674152	ISI	1.0		7.0	character	word-17.jpg	0.0	259.5809996136295	0.11669665064800938
371.0	185.52069709738953	word	0.0		46.0	character	word-113.jpg	0.0	259.6976962642775	0.3832894641523126
371.0	185.90398656154184	ISI	1.0		7.0	character	word-113.jpg	0.0	260.0809857284298	0.11669846176118881
371.0	185.99575776967504	pulse	1.0	t		character	word-113.jpg	0.0	260.172756936563	
372.0	186.02068502330303	body	0.0		46.0	body	body-107.jpg	0.0	260.197684190191	0.3832873511869366
372.0	186.40397237448997	ISI	1.0		7.0	body	body-107.jpg	0.0	260.58097154137795	0.1166809543360614
373.0	186.52065332882603	body	0.0		46.0	body	body-51.jpg	0.0	260.697652495714	0.38330334935153587
373.0	186.90395667817756	ISI	1.0		7.0	body	body-51.jpg	0.0	261.08095584506555	0.11669815990899224
374.0	187.02065483808656	body	0.0		46.0	body	body-89.jpg	0.0	261.19765400497454	0.3832882567435263
374.0	187.40394309483008	ISI	1.0		7.0	body	body-89.jpg	0.0	261.58094226171806	0.1166969525006607
375.0	187.52064004733074	body	0.0		46.0	body	body-61.jpg	0.0	261.6976392142187	0.38328554007375715
375.0	187.9039255874045	ISI	1.0		7.0	body	body-61.jpg	0.0	262.0809247542925	0.11668246359658951
375.0	187.9957007196158	pulse	1.0	t		body	body-61.jpg	0.0	262.1726998865038	
376.0	188.0206080510011	body	0.0		46.0	body	body-32.jpg	0.0	262.1976072178891	0.3833030474993393
376.0	188.40391109850043	ISI	1.0		7.0	body	body-32.jpg	0.0	262.5809102653884	0.1166996691699751
377.0	188.5206107676704	body	0.0		46.0	body	body-63.jpg	0.0	262.6976099345584	0.3832939919348064
377.0	188.9039047596052	ISI	1.0		7.0	body	body-63.jpg	0.0	263.0809039264932	0.1166927265699087
378.0	189.02059748617512	body	0.0		46.0	body	body-21.jpg	0.0	263.1975966530631	0.3832918789694304
378.0	189.40388936514455	ISI	1.0		7.0	body	body-21.jpg	0.0	263.58088853203253	0.11667461544038815
379.0	189.52056398058494	body	0.0		46.0	body	body-135.jpg	0.0	263.6975631474729	0.38334228828080086
379.0	189.90390626886574	ISI	1.0		7.0	body	body-135.jpg	0.0	264.0809054357537	0.1250265629905698
379.0	189.9957130955545	pulse	1.0	t		body	body-135.jpg	0.0	264.1727122624425	
380.0	190.0289328318563	body	0.0		45.0	body	body-115.jpg	0.0	264.2059319987443	0.3749535147667302
380.0	190.40388634662304	ISI	1.0		7.0	body	body-115.jpg	0.0	264.580885513511	0.11669936731777852
381.0	190.52058571394082	body	0.0		46.0	body	body-29.jpg	0.0	264.6975848808288	0.3832843326654256
381.0	190.90387004660624	ISI	1.0		7.0	body	body-29.jpg	0.0	265.0808692134942	0.1166996691699751
382.0	191.02056971577622	body	0.0		46.0	body	body-15.jpg	0.0	265.1975688826642	0.38325505300508667
382.0	191.4038247687813	ISI	1.0		7.0	body	body-15.jpg	0.0	265.5808239356693	0.11668789693567305
383.0	191.52051266571698	body	0.0		46.0	body	body-116.jpg	0.0	265.69751183260496	0.38329399193435165
383.0	191.90380665765133	ISI	1.0		7.0	body	body-116.jpg	0.0	266.0808058245393	0.11668336915317923
383.0	191.995592958393	pulse	1.0	t		body	body-116.jpg	0.0	266.17259212528097	
384.0	192.0204900268045	house	0.0		46.0	place	house-7.jpg	0.0	266.1974891936925	0.3832958030475311
384.0	192.40378582985204	ISI	1.0		7.0	place	house-7.jpg	0.0	266.58078499674	0.11670208398754767
385.0	192.5204879138396	house	0.0		46.0	place	house-132.jpg	0.0	266.69748708072757	0.38328554007375715
385.0	192.90377345391335	ISI	1.0		7.0	place	house-132.jpg	0.0	267.0807726208013	0.1166836710053758
386.0	193.02045712491872	house	0.0		46.0	place	house-8.jpg	0.0	267.1974562918067	0.3833003308300249
386.0	193.40375745574875	ISI	1.0		7.0	place	house-8.jpg	0.0	267.5807566226367	0.11668729323127991
387.0	193.52044474898003	house	0.0		46.0	place	house-8.jpg	1.0	267.697443915868	0.3832982178646489
387.0	193.90374296684467	ISI	1.0		7.0	place	house-8.jpg	1.0	268.08074213373266	0.11668336915317923
387.0	193.95385887807606	response	1.0	b		place	house-8.jpg	1.0	268.13085804496404	
387.0	193.99549425273472	pulse	1.0	t		place	house-8.jpg	1.0	268.1724934196227	
388.0	194.02042633599785	house	0.0		46.0	place	house-82.jpg	0.0	268.19742550288584	0.3833051604647153
388.0	194.40373149646257	ISI	1.0		7.0	place	house-82.jpg	0.0	268.58073066335055	0.11668487841370734
389.0	194.52041637487628	house	0.0		46.0	place	house-108.jpg	0.0	268.69741554176426	0.3833015382388112
389.0	194.9037179131151	ISI	1.0		7.0	place	house-108.jpg	0.0	269.08071708000307	0.11668065248341009
390.0	195.0203985655985	house	0.0		46.0	place	house-2.jpg	0.0	269.1973977324865	0.38330365120373244
390.0	195.40370221680223	ISI	1.0		7.0	place	house-2.jpg	0.0	269.5807013836902	0.11669997102217167
391.0	195.5204021878244	house	0.0		46.0	place	house-15.jpg	0.0	269.6974013547124	0.3832939919348064
391.0	195.9036961797592	ISI	1.0		7.0	place	house-15.jpg	0.0	270.0806953466472	0.11669393397869499
391.0	195.99546225640552	pulse	1.0	t		place	house-15.jpg	0.0	270.1724614232935	
392.0	196.0203901137379	house	0.0		46.0	place	house-39.jpg	0.0	270.1973892806259	0.3832843326654256
392.0	196.40367444640333	ISI	1.0		7.0	place	house-39.jpg	0.0	270.5806736132913	0.11669725435285727
393.0	196.5203717007562	house	0.0		46.0	place	house-133.jpg	0.0	270.69737086764417	0.38329278452556537
393.0	196.90366448528175	ISI	1.0		7.0	place	house-133.jpg	0.0	271.08066365216973	0.11669272657036345
394.0	197.02035721185212	house	0.0		46.0	place	house-104.jpg	0.0	271.1973563787401	0.38331934751613517
394.0	197.40367655936825	ISI	1.0		7.0	place	house-104.jpg	0.0	271.58067572625623	0.11669846176164356
395.0	197.5203750211299	house	0.0		46.0	place	house-138.jpg	0.0	271.6973741880179	0.3832375455795045
395.0	197.9036125667094	ISI	1.0		7.0	place	house-138.jpg	0.0	272.0806117335974	0.11671717659555725
395.0	197.99540550819847	pulse	1.0	t		place	house-138.jpg	0.0	272.17240467508645	
396.0	198.02032974330496	car	0.0		46.0	object	car-100.jpg	0.0	272.19732891019294	0.38328886044791943
396.0	198.40361860375288	ISI	1.0		7.0	object	car-100.jpg	0.0	272.58061777064086	0.1166731061794053
397.0	198.52029170993228	car	0.0		46.0	object	car-48.jpg	0.0	272.69729087682026	0.3833175364034105
397.0	198.9036092463357	ISI	1.0		7.0	object	car-48.jpg	0.0	273.0806084132237	0.11668910434400459
398.0	199.0202983506797	car	0.0		46.0	object	car-97.jpg	0.0	273.1972975175677	0.38329429378700297
398.0	199.4035926444667	ISI	1.0		7.0	object	car-97.jpg	0.0	273.5805918113547	0.11669302842210527
399.0	199.5202856728888	car	0.0		46.0	object	car-97.jpg	1.0	273.6972848397768	0.38328614377860504
399.0	199.9035718166674	ISI	1.0		7.0	object	car-97.jpg	1.0	274.0805709835554	0.11669876361338538
399.0	199.9953550988871	pulse	1.0	t		object	car-97.jpg	1.0	274.1723542657751	
400.0	200.0202705802808	car	0.0		46.0	object	car-59.jpg	0.0	274.1972697471688	0.3832933882299585
400.0	200.06201492357104	response	0.0	b		object	car-59.jpg	0.0	274.239014090459	
400.0	200.40356396851075	ISI	1.0		7.0	object	car-59.jpg	0.0	274.58056313539873	0.11668729323127991
401.0	200.52025126174203	car	0.0		46.0	object	car-67.jpg	0.0	274.69725042863	0.3832979160129071
401.0	200.90354917775494	ISI	1.0		7.0	object	car-67.jpg	0.0	275.0805483446429	0.11669031175279088
402.0	201.02023948950773	car	0.0		46.0	object	car-98.jpg	0.0	275.1972386563957	0.3832858419259537
402.0	201.40352533143368	ISI	1.0		7.0	object	car-98.jpg	0.0	275.58052449832167	0.11669936731777852
403.0	201.52022469875146	car	0.0		46.0	object	car-71.jpg	0.0	275.69722386563944	0.38328765303913315
403.0	201.9035123517906	ISI	1.0		7.0	object	car-71.jpg	0.0	276.0805115186786	0.11669815990944699
403.0	201.9952862765931	pulse	1.0	t		object	car-71.jpg	0.0	276.1722854434811	
404.0	202.02021051170004	car	0.0		46.0	object	car-4.jpg	0.0	276.197209678588	0.38328644563034686
404.0	202.4034969573304	ISI	1.0		7.0	object	car-4.jpg	0.0	276.58049612421837	0.1166969525006607
405.0	202.52019390983105	car	0.0		46.0	object	car-99.jpg	0.0	276.69719307671903	0.383284936369364
405.0	202.90347884620041	ISI	1.0		7.0	object	car-99.jpg	0.0	277.0804780130884	0.1167017821353511
406.0	203.02018062833577	car	0.0		46.0	object	car-22.jpg	0.0	277.19717979522375	0.3832755789521798
406.0	203.40345620728795	ISI	1.0		7.0	object	car-22.jpg	0.0	277.5804553741759	0.11670932843935589
407.0	203.5201655357273	car	0.0		46.0	object	car-104.jpg	0.0	277.6971647026153	0.38331602714242763
407.0	203.90348156286973	ISI	1.0		7.0	object	car-104.jpg	0.0	278.0804807297577	0.12503652411214716
407.0	203.9952998599406	pulse	1.0	t		object	car-104.jpg	0.0	278.17229902682857	
408.0	204.02851808698188	body	0.0		45.0	body	body-44.jpg	0.0	278.20551725386986	0.3749514018013542
408.0	204.40346948878323	ISI	1.0		7.0	body	body-44.jpg	0.0	278.5804686556712	0.11669785805725041
409.0	204.52016734684048	body	0.0		46.0	body	body-143.jpg	0.0	278.69716651372846	0.3832924826733688
409.0	204.90345982951385	ISI	1.0		7.0	body	body-143.jpg	0.0	279.08045899640183	0.11669483953573945
410.0	205.0201546690496	body	0.0		46.0	body	body-28.jpg	0.0	279.19715383593757	0.3832556567094798
410.0	205.40341032575907	ISI	1.0		7.0	body	body-28.jpg	0.0	279.58040949264705	0.11669725435285727
411.0	205.52010758011193	body	0.0		46.0	body	body-110.jpg	0.0	279.6971067469999	0.38327799376975236
411.0	205.90338557388168	ISI	1.0		7.0	body	body-110.jpg	0.0	280.08038474076966	0.11668729323127991
411.0	205.99516402646668	pulse	1.0	t		body	body-110.jpg	0.0	280.17216319335466	
412.0	206.02007286711296	body	0.0		46.0	body	body-43.jpg	0.0	280.19707203400094	0.38330033082957016
412.0	206.40337319794253	ISI	1.0		7.0	body	body-43.jpg	0.0	280.5803723648305	0.11669121730938059
413.0	206.5200644152519	body	0.0		46.0	body	body-24.jpg	0.0	280.6970635821399	0.3832964067519242
413.0	206.90336082200383	ISI	1.0		7.0	body	body-24.jpg	0.0	281.0803599888918	0.11670027287436824
414.0	207.0200610948782	body	0.0		46.0	body	body-17.jpg	0.0	281.1970602617662	0.3832846345176222
414.0	207.40334572939582	ISI	1.0		7.0	body	body-17.jpg	0.0	281.5803448962838	0.11670027287436824
415.0	207.5200460022702	body	0.0		46.0	body	body-129.jpg	0.0	281.6970451691582	0.38328644563034686
415.0	207.90333244790054	ISI	1.0		7.0	body	body-129.jpg	0.0	282.0803316147885	0.11668759508347648
415.0	207.99511995605053	pulse	1.0	t		body	body-129.jpg	0.0	282.1721191229385	
416.0	208.02002004298402	body	0.0		46.0	body	body-45.jpg	0.0	282.197019209872	0.3832921808211722
416.0	208.4033122238052	ISI	1.0		7.0	body	body-45.jpg	0.0	282.58031139069317	0.11668246359704426
417.0	208.51999468740223	body	0.0		46.0	body	body-92.jpg	0.0	282.6969938542902	0.3833075752818331
417.0	208.90330226268406	ISI	1.0		7.0	body	body-92.jpg	0.0	283.08030142957205	0.1166863876746902
418.0	209.01998865035875	body	0.0		46.0	body	body-26.jpg	0.0	283.19698781724674	0.383306066021305
418.0	209.40329471638006	ISI	1.0		7.0	body	body-26.jpg	0.0	283.58029388326804	0.11667340803160187
419.0	209.51996812441166	body	0.0		46.0	body	body-102.jpg	0.0	283.69696729129964	0.3833054623164571
419.0	209.8283861775858	response	0.0	b		body	body-102.jpg	0.0	284.0053853444738	
419.0	209.90327358672812	ISI	1.0		11.0	body	body-102.jpg	0.0	284.0802727536161	0.0999978870349878
419.0	209.99504841708722	pulse	1.0	t		body	body-102.jpg	0.0	284.1720475839752	
420.0	210.0032714737631	baseline	0.0		48.0		baseline	0.0	284.1802706406511	0.3999767573832287
420.0	210.40324823114634	ISI	1.0		11.0		baseline	0.0	284.5802473980343	0.1000063388955823
421.0	210.50325457004192	baseline	0.0		48.0		baseline	0.0	284.6802537369299	0.399989737026317
421.0	210.90324430706823	ISI	1.0		11.0		baseline	0.0	285.0802434739562	0.09999245369590426
422.0	211.00323676076414	baseline	0.0		48.0		baseline	0.0	285.1802359276521	0.4000516167202477
422.0	211.4032883774844	ISI	1.0		11.0		baseline	0.0	285.58028754437237	0.10000664074777887
423.0	211.50329501823217	baseline	0.0		48.0		baseline	0.0	285.68029418512015	0.3999963777737321
423.0	211.9032913960059	ISI	1.0		11.0		baseline	0.0	286.0802905628939	0.09998641665288233
423.0	211.99505958561758	pulse	1.0	t			baseline	0.0	286.17205875250556	
424.0	212.00327781265878	baseline	0.0		48.0		baseline	0.0	286.18027697954676	0.3999993962956978
424.0	212.40327720895448	ISI	1.0		11.0		baseline	0.0	286.58027637584246	0.10001026297322824
425.0	212.5032874719277	baseline	0.0		48.0		baseline	0.0	286.6802866388157	0.3999673999664992
425.0	212.9032548718942	ISI	1.0		11.0		baseline	0.0	287.0802540387822	0.09999547221741523
426.0	213.00325034411162	baseline	0.0		48.0		baseline	0.0	287.1802495109996	0.39998762406139576
426.0	213.40323796817302	ISI	1.0		11.0		baseline	0.0	287.580237135061	0.09999305739984266
427.0	213.50323102557286	baseline	0.0		48.0		baseline	0.0	287.68023019246084	0.3999864166526095
427.0	213.90321744222547	ISI	1.0		11.0		baseline	0.0	288.08021660911345	0.10000181111308848
427.0	213.99500344111493	pulse	1.0	t			baseline	0.0	288.1720026080029	
428.0	214.00321925333856	baseline	0.0		48.0		baseline	0.0	288.18021842022654	0.39998460553943005
428.0	214.403203858878	ISI	1.0		11.0		baseline	0.0	288.58020302576597	0.10000150926089191
429.0	214.50320536813888	baseline	0.0		48.0		baseline	0.0	288.68020453502686	0.3999957740697937
429.0	214.90320114220867	ISI	1.0		11.0		baseline	0.0	289.08020030909665	0.09999999999990905
430.0	215.00320114220858	baseline	0.0		48.0		baseline	0.0	289.18020030909656	0.39997554997489715
430.0	215.40317669218348	ISI	1.0		11.0		baseline	0.0	289.58017585907146	0.09999728333059466
431.0	215.50317397551407	baseline	0.0		48.0		baseline	0.0	289.68017314240205	0.40000724445189917
431.0	215.90318121996597	ISI	1.0		7.0		baseline	0.0	290.08018038685395	0.12497917220071031
431.0	215.99503936152223	pulse	1.0	t			baseline	0.0	290.1720385284102	
432.0	216.02816039216668	car	0.0		45.0	object	car-93.jpg	0.0	290.20515955905466	0.37495834440096587
432.0	216.40311873656765	ISI	1.0		7.0	object	car-93.jpg	0.0	290.58011790345563	0.11667491729258472
433.0	216.51979365386023	car	0.0		46.0	object	car-9.jpg	0.0	290.6967928207482	0.383303953055929
433.0	216.90309760691616	ISI	1.0		7.0	object	car-9.jpg	0.0	291.08009677380414	0.11670027287436824
434.0	217.01979787979053	car	0.0		46.0	object	car-114.jpg	0.0	291.1967970466785	0.3832831252566393
434.0	217.40308100504717	ISI	1.0		7.0	object	car-114.jpg	0.0	291.58008017193515	0.11668216174439294
435.0	217.51976316679156	car	0.0		46.0	object	car-57.jpg	0.0	291.69676233367954	0.38327920117853864
435.0	217.9030423679701	ISI	1.0		7.0	object	car-57.jpg	0.0	292.0800415348581	0.11669121730938059
435.0	217.9948531187365	pulse	1.0	t		object	car-57.jpg	0.0	292.1718522856245	
436.0	218.01973358527948	car	0.0		46.0	object	car-34.jpg	0.0	292.19673275216746	0.3832933882299585
436.0	218.40302697350944	ISI	1.0		7.0	object	car-34.jpg	0.0	292.5800261403974	0.11667491729258472
437.0	218.51970189080203	car	0.0		46.0	object	car-132.jpg	0.0	292.69670105769	0.38330274564714273
437.0	218.90300463644917	ISI	1.0		7.0	object	car-132.jpg	0.0	293.08000380333715	0.11669785805725041
438.0	219.01970249450642	car	0.0		46.0	object	car-142.jpg	0.0	293.1967016613944	0.3832822197000496
438.0	219.40298471420647	ISI	1.0		7.0	object	car-142.jpg	0.0	293.57998388109445	0.11670419695246892
439.0	219.51968891115894	car	0.0		46.0	object	car-37.jpg	0.0	293.6966880780469	0.3832852382220153
439.0	219.90297414938095	ISI	1.0		7.0	object	car-37.jpg	0.0	294.07997331626893	0.11669997102217167
439.0	219.99475048900058	pulse	1.0	t		object	car-37.jpg	0.0	294.17174965588856	
440.0	220.01967412040312	car	0.0		46.0	object	car-28.jpg	0.0	294.1966732872911	0.3832942937865482
440.0	220.40296841418967	ISI	1.0		7.0	object	car-28.jpg	0.0	294.57996758107765	0.11669031175279088
441.0	220.51965872594246	car	0.0		46.0	object	car-124.jpg	0.0	294.69665789283044	0.38328886044791943
441.0	220.90294758639038	ISI	1.0		7.0	object	car-124.jpg	0.0	295.07994675327836	0.1166948395352847
442.0	221.01964242592567	car	0.0		46.0	object	car-86.jpg	0.0	295.19664159281365	0.3832958030475311
442.0	221.4029382289732	ISI	1.0		7.0	object	car-86.jpg	0.0	295.5799373958612	0.11669121730938059
443.0	221.51962944628258	car	0.0		46.0	object	car-116.jpg	0.0	295.69662861317056	0.38329399193435165
443.0	221.90292343821693	ISI	1.0		11.0	object	car-116.jpg	0.0	296.0799226051049	0.09999758518279123
443.0	221.99474445195756	pulse	1.0	t		object	car-116.jpg	0.0	296.17174361884554	
444.0	222.00292102339972	baseline	0.0		48.0		baseline	0.0	296.1799201902877	0.3999882277657889
444.0	222.4029092511655	ISI	1.0		11.0		baseline	0.0	296.5799084180535	0.09998943517393855
445.0	222.50289868633945	baseline	0.0		48.0		baseline	0.0	296.67989785322743	0.3999954722175971
445.0	222.90289415855705	ISI	1.0		11.0		baseline	0.0	297.079893325445	0.0999978870349878
446.0	223.00289204559203	baseline	0.0		48.0		baseline	0.0	297.17989121248	0.3999870203565479
446.0	223.40287906594858	ISI	1.0		11.0		baseline	0.0	297.57987823283656	0.09999728333059466
447.0	223.50287634927918	baseline	0.0		48.0		baseline	0.0	297.67987551616716	0.4000561445027415
447.0	223.90293249378192	ISI	1.0		11.0		baseline	0.0	298.0799316606699	0.09999667962620151
448.0	224.00292917340812	baseline	0.0		48.0		baseline	0.0	298.1799283402961	0.39998671850480605
448.0	224.40291589191293	ISI	1.0		11.0		baseline	0.0	298.5799150588009	0.0999978870349878
449.0	224.5029137789479	baseline	0.0		48.0		baseline	0.0	298.6799129458359	0.39999034073071016
449.0	224.90290411967862	ISI	1.0		11.0		baseline	0.0	299.0799032865666	0.09998822776560701
450.0	225.00289234744423	baseline	0.0		48.0		baseline	0.0	299.1798915143322	0.399987624060941
450.0	225.40287997150517	ISI	1.0		11.0		baseline	0.0	299.57987913839315	0.09999849073938094
451.0	225.50287846224455	baseline	0.0		48.0		baseline	0.0	299.67987762913253	0.3999852092438232
451.0	225.90286367148838	ISI	1.0		11.0		baseline	0.0	300.07986283837636	0.09999818888718437
452.0	226.00286186037556	baseline	0.0		48.0		baseline	0.0	300.17986102726354	0.39999577406933895
452.0	226.4028576344449	ISI	1.0		11.0		baseline	0.0	300.5798568013329	0.09998883147000015
453.0	226.5028464659149	baseline	0.0		48.0		baseline	0.0	300.6798456328029	0.399989737026317
453.0	226.90283620294122	ISI	1.0		11.0		baseline	0.0	301.0798353698292	0.09999667962620151
454.0	227.00283288256742	baseline	0.0		48.0		baseline	0.0	301.1798320494554	0.3999873222091992
454.0	227.40282020477662	ISI	1.0		11.0		baseline	0.0	301.5798193716646	0.09999758518279123
455.0	227.5028177899594	baseline	0.0		48.0		baseline	0.0	301.6798169568474	0.3999873222091992
455.0	227.9028051121686	ISI	1.0		12.0		baseline	0.0	302.0798042790566	0.10001630001670492
