trial_nr	onset	event_type	phase	response	nr_frames	face_age	face_sex	face_eth	attractiveness	expression	face_id	sub_id	ses	run	trial_type	catch	rating_type	onset_abs	duration
-1.0	0.056745987066733505	fix	0.0		714													28.427027656843165	5.966285232870177
-1.0	0.7065974292231658	pulse	0.0	t														29.076879098999598	
-1.0	1.406581823329816	pulse	0.0	t														29.776863493106248	
-1.0	2.1065565580825023	pulse	0.0	t														30.476838227858934	
-1.0	2.806548800413566	pulse	0.0	t														31.176830470189998	
-1.0	3.5065337982296114	pulse	0.0	t														31.876815468006043	
-1.0	4.206512155240034	pulse	0.0	t														32.576793825016466	
-1.0	4.90649866233025	pulse	0.0	t														33.27678033210668	
-1.0	5.606491810226089	pulse	0.0	t														33.97677348000252	
0.0	6.023031219936911	face	0.0		144	24.0	male	white	3.1153999204138483	smiling	012	sub-03	2.0	5.0	012_smiling	0.0		34.39331288971334	1.233316560268122
0.0	6.306482543283437	pulse	0.0	t		24.0	male	white	3.1153999204138483	smiling	012	sub-03	2.0	5.0	012_smiling	0.0		34.67676421305987	
0.0	7.006458787310294	pulse	0.0	t		24.0	male	white	3.1153999204138483	smiling	012	sub-03	2.0	5.0	012_smiling	0.0		35.376740457086726	
0.0	7.256347780205033	fix	1.0		444	24.0	male	white	3.1153999204138483	smiling	012	sub-03	2.0	5.0	012_smiling	0.0		35.626629449981465	3.7582369385158927
0.0	7.706448916658246	pulse	1.0	t		24.0	male	white	3.1153999204138483	smiling	012	sub-03	2.0	5.0	012_smiling	0.0		36.07673058643468	
0.0	8.406432103345196	pulse	1.0	t		24.0	male	white	3.1153999204138483	smiling	012	sub-03	2.0	5.0	012_smiling	0.0		36.77671377312163	
0.0	9.106411064065014	pulse	1.0	t		24.0	male	white	3.1153999204138483	smiling	012	sub-03	2.0	5.0	012_smiling	0.0		37.476692733841446	
0.0	9.806403306396533	pulse	1.0	t		24.0	male	white	3.1153999204138483	smiling	012	sub-03	2.0	5.0	012_smiling	0.0		38.176684976172965	
0.0	10.506370796633746	pulse	1.0	t		24.0	male	white	3.1153999204138483	smiling	012	sub-03	2.0	5.0	012_smiling	0.0		38.87665246641018	
1.0	11.014584718720926	face	0.0		146	31.0	female	west_asian	2.364902506963788	smiling	006	sub-03	2.0	5.0	006_smiling	0.0		39.38486638849736	1.2416565067369447
1.0	11.206374811302794	pulse	0.0	t		31.0	female	west_asian	2.364902506963788	smiling	006	sub-03	2.0	5.0	006_smiling	0.0		39.576656481079226	
1.0	11.906351357184121	pulse	0.0	t		31.0	female	west_asian	2.364902506963788	smiling	006	sub-03	2.0	5.0	006_smiling	0.0		40.27663302696055	
1.0	12.25624122545787	fix	1.0		444	31.0	female	west_asian	2.364902506963788	smiling	006	sub-03	2.0	5.0	006_smiling	0.0		40.6265228952343	3.758240862628554
1.0	12.606347523628301	pulse	1.0	t		31.0	female	west_asian	2.364902506963788	smiling	006	sub-03	2.0	5.0	006_smiling	0.0		40.97662919340473	
1.0	13.306335238137763	pulse	1.0	t		31.0	female	west_asian	2.364902506963788	smiling	006	sub-03	2.0	5.0	006_smiling	0.0		41.676616907914195	
1.0	14.006309972890449	pulse	1.0	t		31.0	female	west_asian	2.364902506963788	smiling	006	sub-03	2.0	5.0	006_smiling	0.0		42.37659164266688	
1.0	14.706290744738908	pulse	1.0	t		31.0	female	west_asian	2.364902506963788	smiling	006	sub-03	2.0	5.0	006_smiling	0.0		43.07657241451534	
1.0	15.406280572231935	pulse	1.0	t		31.0	female	west_asian	2.364902506963788	smiling	006	sub-03	2.0	5.0	006_smiling	0.0		43.77656224200837	
2.0	16.014482088086424	face	0.0		146	22.0	male	black	2.767608436132113	neutral	044	sub-03	2.0	5.0	044_neutral	0.0		44.384763757862856	1.2416528844792083
2.0	16.10627492754702	pulse	0.0	t		22.0	male	black	2.767608436132113	neutral	044	sub-03	2.0	5.0	044_neutral	0.0		44.47655659732345	
2.0	16.806246341896895	pulse	0.0	t		22.0	male	black	2.767608436132113	neutral	044	sub-03	2.0	5.0	044_neutral	0.0		45.17652801167333	
2.0	17.256134972565633	fix	1.0		444	22.0	male	black	2.767608436132113	neutral	044	sub-03	2.0	5.0	044_neutral	0.0		45.626416642342065	3.7582339199680064
2.0	17.50624492317911	pulse	1.0	t		22.0	male	black	2.767608436132113	neutral	044	sub-03	2.0	5.0	044_neutral	0.0		45.87652659295554	
2.0	18.206225695028024	pulse	1.0	t		22.0	male	black	2.767608436132113	neutral	044	sub-03	2.0	5.0	044_neutral	0.0		46.576507364804456	
2.0	18.90620103349056	pulse	1.0	t		22.0	male	black	2.767608436132113	neutral	044	sub-03	2.0	5.0	044_neutral	0.0		47.27648270326699	
2.0	19.606189653563888	pulse	1.0	t		22.0	male	black	2.767608436132113	neutral	044	sub-03	2.0	5.0	044_neutral	0.0		47.97647132334032	
2.0	20.306183405169577	pulse	1.0	t		22.0	male	black	2.767608436132113	neutral	044	sub-03	2.0	5.0	044_neutral	0.0		48.67646507494601	
3.0	21.01436889253364	face	0.0		147	25.0	female	west_asian	2.6756864305610826	neutral	064	sub-03	2.0	5.0	064_neutral	0.0		49.38465056231007	1.241662241978247
3.0	21.00750954389423	pulse	0.0	t		25.0	female	west_asian	2.6756864305610826	neutral	064	sub-03	2.0	5.0	064_neutral	0.0		49.37779121367066	
3.0	21.70615430636599	pulse	0.0	t		25.0	female	west_asian	2.6756864305610826	neutral	064	sub-03	2.0	5.0	064_neutral	0.0		50.07643597614242	
3.0	22.256031134511886	fix	1.0		443	25.0	female	west_asian	2.6756864305610826	neutral	064	sub-03	2.0	5.0	064_neutral	0.0		50.62631280428832	3.766571753453718
3.0	22.406147454261827	pulse	1.0	t		25.0	female	west_asian	2.6756864305610826	neutral	064	sub-03	2.0	5.0	064_neutral	0.0		50.77642912403826	
3.0	23.106116755628136	pulse	1.0	t		25.0	female	west_asian	2.6756864305610826	neutral	064	sub-03	2.0	5.0	064_neutral	0.0		51.47639842540457	
3.0	23.806101149734786	pulse	1.0	t		25.0	female	west_asian	2.6756864305610826	neutral	064	sub-03	2.0	5.0	064_neutral	0.0		52.17638281951122	
3.0	24.50609490134002	pulse	1.0	t		25.0	female	west_asian	2.6756864305610826	neutral	064	sub-03	2.0	5.0	064_neutral	0.0		52.87637657111645	
3.0	25.206070541657027	pulse	1.0	t		25.0	female	west_asian	2.6756864305610826	neutral	064	sub-03	2.0	5.0	064_neutral	0.0		53.57635221143346	
3.0	25.90605825616649	pulse	1.0	t		25.0	female	west_asian	2.6756864305610826	neutral	064	sub-03	2.0	5.0	064_neutral	0.0		54.27633992594292	
4.0	26.022602887965604	face	0.0		146	20.0	female	white	3.9502586549940313	neutral	091	sub-03	2.0	5.0	091_neutral	0.0		54.392884557742036	1.2333225973638946
4.0	26.60604506511163	pulse	0.0	t		20.0	female	white	3.9502586549940313	neutral	091	sub-03	2.0	5.0	091_neutral	0.0		54.97632673488806	
4.0	27.2559254853295	fix	1.0		443	20.0	female	white	3.9502586549940313	neutral	091	sub-03	2.0	5.0	091_neutral	0.0		55.62620715510593	3.7582372403708177
4.0	27.3060424389746	pulse	1.0	t		20.0	female	white	3.9502586549940313	neutral	091	sub-03	2.0	5.0	091_neutral	0.0		55.67632410875103	
4.0	28.00601506074372	pulse	1.0	t		20.0	female	white	3.9502586549940313	neutral	091	sub-03	2.0	5.0	091_neutral	0.0		56.37629673052015	
4.0	28.705998549285596	pulse	1.0	t		20.0	female	white	3.9502586549940313	neutral	091	sub-03	2.0	5.0	091_neutral	0.0		57.07628021906203	
4.0	29.405985358230737	pulse	1.0	t		20.0	female	white	3.9502586549940313	neutral	091	sub-03	2.0	5.0	091_neutral	0.0		57.77626702800717	
4.0	30.1059776005618	pulse	1.0	t		20.0	female	white	3.9502586549940313	neutral	091	sub-03	2.0	5.0	091_neutral	0.0		58.47625927033823	
4.0	30.80595957982996	pulse	1.0	t		20.0	female	white	3.9502586549940313	neutral	091	sub-03	2.0	5.0	091_neutral	0.0		59.17624124960639	
5.0	31.014162725700317	face	0.0		146	27.0	male	black	3.5523278949462798	smiling	042	sub-03	2.0	5.0	042_smiling	0.0		59.38444439547675	1.2416571104467948
5.0	31.505947596194346	pulse	0.0	t		27.0	male	black	3.5523278949462798	smiling	042	sub-03	2.0	5.0	042_smiling	0.0		59.87622926597078	
5.0	32.20593380142964	pulse	0.0	t		27.0	male	black	3.5523278949462798	smiling	042	sub-03	2.0	5.0	042_smiling	0.0		60.57621547120607	
5.0	32.25581983614711	fix	1.0		445	27.0	male	black	3.5523278949462798	smiling	042	sub-03	2.0	5.0	042_smiling	0.0		60.62610150592354	3.766570847888943
5.0	32.90592000666493	pulse	1.0	t		27.0	male	black	3.5523278949462798	smiling	042	sub-03	2.0	5.0	042_smiling	0.0		61.27620167644136	
5.0	33.605897156256106	pulse	1.0	t		27.0	male	black	3.5523278949462798	smiling	042	sub-03	2.0	5.0	042_smiling	0.0		61.97617882603254	
5.0	34.30588547447496	pulse	1.0	t		27.0	male	black	3.5523278949462798	smiling	042	sub-03	2.0	5.0	042_smiling	0.0		62.676167144251394	
5.0	35.005862322211215	pulse	1.0	t		27.0	male	black	3.5523278949462798	smiling	042	sub-03	2.0	5.0	042_smiling	0.0		63.37614399198765	
5.0	35.70585577196198	pulse	1.0	t		27.0	male	black	3.5523278949462798	smiling	042	sub-03	2.0	5.0	042_smiling	0.0		64.07613744173841	
6.0	36.022390684036054	face	0.0		145	24.0	female	black	3.0955033824114606	neutral	099	sub-03	2.0	5.0	099_neutral	0.0		64.39267235381249	1.2333241066380651
6.0	36.405842580906665	pulse	0.0	t		24.0	female	black	3.0955033824114606	neutral	099	sub-03	2.0	5.0	099_neutral	0.0		64.7761242506831	
6.0	37.10581942864292	pulse	0.0	t		24.0	female	black	3.0955033824114606	neutral	099	sub-03	2.0	5.0	099_neutral	0.0		65.47610109841935	
6.0	37.25571479067412	fix	1.0		444	24.0	female	black	3.0955033824114606	neutral	099	sub-03	2.0	5.0	099_neutral	0.0		65.62599646045055	3.7665696404696973
6.0	37.80581650065142	pulse	1.0	t		24.0	female	black	3.0955033824114606	neutral	099	sub-03	2.0	5.0	099_neutral	0.0		66.17609817042785	
6.0	38.50579485766184	pulse	1.0	t		24.0	female	black	3.0955033824114606	neutral	099	sub-03	2.0	5.0	099_neutral	0.0		66.87607652743827	
6.0	39.20577170539809	pulse	1.0	t		24.0	female	black	3.0955033824114606	neutral	099	sub-03	2.0	5.0	099_neutral	0.0		67.57605337517452	
6.0	39.90575911805263	pulse	1.0	t		24.0	female	black	3.0955033824114606	neutral	099	sub-03	2.0	5.0	099_neutral	0.0		68.27604078782906	
6.0	40.60575347336771	pulse	1.0	t		24.0	female	black	3.0955033824114606	neutral	099	sub-03	2.0	5.0	099_neutral	0.0		68.97603514314414	
7.0	41.02228443114382	face	0.0		145	31.0	female	east_asian	3.395941106247513	smiling	087	sub-03	2.0	5.0	087_smiling	0.0		69.39256610092025	1.2333228992188197
7.0	41.30574088602225	pulse	0.0	t		31.0	female	east_asian	3.395941106247513	smiling	087	sub-03	2.0	5.0	087_smiling	0.0		69.67602255579868	
7.0	42.005710187388104	pulse	0.0	t		31.0	female	east_asian	3.395941106247513	smiling	087	sub-03	2.0	5.0	087_smiling	0.0		70.37599185716454	
7.0	42.255607330362636	fix	1.0		444	31.0	female	east_asian	3.395941106247513	smiling	087	sub-03	2.0	5.0	087_smiling	0.0		70.62588900013907	3.7665723571631133
7.0	42.70571088165434	pulse	1.0	t		31.0	female	east_asian	3.395941106247513	smiling	087	sub-03	2.0	5.0	087_smiling	0.0		71.07599255143077	
7.0	43.405692559067575	pulse	1.0	t		31.0	female	east_asian	3.395941106247513	smiling	087	sub-03	2.0	5.0	087_smiling	0.0		71.775974228844	
7.0	44.105653710353636	pulse	1.0	t		31.0	female	east_asian	3.395941106247513	smiling	087	sub-03	2.0	5.0	087_smiling	0.0		72.47593538013007	
7.0	44.80565621574897	pulse	1.0	t		31.0	female	east_asian	3.395941106247513	smiling	087	sub-03	2.0	5.0	087_smiling	0.0		73.1759378855254	
7.0	45.505653891466864	pulse	1.0	t		31.0	female	east_asian	3.395941106247513	smiling	087	sub-03	2.0	5.0	087_smiling	0.0		73.8759355612433	
8.0	46.02217968752575	face	0.0		145	20.0	male	black	2.609629924393156	smiling	043	sub-03	2.0	5.0	043_smiling	0.0		74.39246135730218	1.2333219936544992
8.0	46.205640096702155	pulse	0.0	t		20.0	male	black	2.609629924393156	smiling	043	sub-03	2.0	5.0	043_smiling	0.0		74.57592176647859	
8.0	46.90562358524403	pulse	0.0	t		20.0	male	black	2.609629924393156	smiling	043	sub-03	2.0	5.0	043_smiling	0.0		75.27590525502046	
8.0	47.25550168118025	fix	1.0		444	20.0	male	black	2.609629924393156	smiling	043	sub-03	2.0	5.0	043_smiling	0.0		75.62578335095668	3.7665717534532632
8.0	47.605617940559114	pulse	1.0	t		20.0	male	black	2.609629924393156	smiling	043	sub-03	2.0	5.0	043_smiling	0.0		75.97589961033555	
8.0	48.305592071602405	pulse	1.0	t		20.0	male	black	2.609629924393156	smiling	043	sub-03	2.0	5.0	043_smiling	0.0		76.67587374137884	
8.0	49.005566806354636	pulse	1.0	t		20.0	male	black	2.609629924393156	smiling	043	sub-03	2.0	5.0	043_smiling	0.0		77.37584847613107	
8.0	49.705546974494155	pulse	1.0	t		20.0	male	black	2.609629924393156	smiling	043	sub-03	2.0	5.0	043_smiling	0.0		78.07582864427059	
8.0	50.40553921682567	pulse	1.0	t		20.0	male	black	2.609629924393156	smiling	043	sub-03	2.0	5.0	043_smiling	0.0		78.7758208866021	
9.0	51.02207343463351	face	0.0		145	19.0	female	white	4.298846000795861	neutral	100	sub-03	2.0	5.0	100_neutral	0.0		79.39235510440994	1.2333216917995742
9.0	51.10560994140678	pulse	0.0	t		19.0	female	white	4.298846000795861	neutral	100	sub-03	2.0	5.0	100_neutral	0.0		79.47589161118321	
9.0	51.805500760523046	pulse	0.0	t		19.0	female	white	4.298846000795861	neutral	100	sub-03	2.0	5.0	100_neutral	0.0		80.17578243029948	
9.0	52.255395126433086	fix	1.0		444	19.0	female	white	4.298846000795861	neutral	100	sub-03	2.0	5.0	100_neutral	0.0		80.62567679620952	3.7665850350649634
9.0	52.50550205849868	pulse	1.0	t		19.0	female	white	4.298846000795861	neutral	100	sub-03	2.0	5.0	100_neutral	0.0		80.87578372827511	
9.0	53.20548554704055	pulse	1.0	t		19.0	female	white	4.298846000795861	neutral	100	sub-03	2.0	5.0	100_neutral	0.0		81.57576721681698	
9.0	53.90546752630871	pulse	1.0	t		19.0	female	white	4.298846000795861	neutral	100	sub-03	2.0	5.0	100_neutral	0.0		82.27574919608514	
9.0	54.60545252412476	pulse	1.0	t		19.0	female	white	4.298846000795861	neutral	100	sub-03	2.0	5.0	100_neutral	0.0		82.97573419390119	
9.0	55.30543782379573	pulse	1.0	t		19.0	female	white	4.298846000795861	neutral	100	sub-03	2.0	5.0	100_neutral	0.0		83.67571949357216	
10.0	56.02198016149805	face	0.0		146	40.0	female	west_asian	1.5777954635893354	smiling	038	sub-03	2.0	5.0	038_smiling	0.0		84.39226183127448	1.2333102213169695
10.0	56.008158531729805	pulse	0.0	t		40.0	female	west_asian	1.5777954635893354	smiling	038	sub-03	2.0	5.0	038_smiling	0.0		84.37844020150624	
10.0	56.705412347249876	pulse	0.0	t		40.0	female	west_asian	1.5777954635893354	smiling	038	sub-03	2.0	5.0	038_smiling	0.0		85.07569401702631	
10.0	57.25529038281502	fix	1.0		443	40.0	female	west_asian	1.5777954635893354	smiling	038	sub-03	2.0	5.0	038_smiling	0.0		85.62557205259145	3.7665702441795474
10.0	57.40540187288798	pulse	1.0	t		40.0	female	west_asian	1.5777954635893354	smiling	038	sub-03	2.0	5.0	038_smiling	0.0		85.77568354266441	
10.0	58.1053744946571	pulse	1.0	t		40.0	female	west_asian	1.5777954635893354	smiling	038	sub-03	2.0	5.0	038_smiling	0.0		86.47565616443353	
10.0	58.80535798319943	pulse	1.0	t		40.0	female	west_asian	1.5777954635893354	smiling	038	sub-03	2.0	5.0	038_smiling	0.0		87.17563965297586	
10.0	59.505348112546926	pulse	1.0	t		40.0	female	west_asian	1.5777954635893354	smiling	038	sub-03	2.0	5.0	038_smiling	0.0		87.87562978232336	
10.0	60.205330091815085	pulse	1.0	t		40.0	female	west_asian	1.5777954635893354	smiling	038	sub-03	2.0	5.0	038_smiling	0.0		88.57561176159152	
10.0	60.90530452471285	pulse	1.0	t		40.0	female	west_asian	1.5777954635893354	smiling	038	sub-03	2.0	5.0	038_smiling	0.0		89.27558619448928	
11.0	61.02186062699457	face	0.0		146	20.0	male	black	3.1070433744528456	neutral	082	sub-03	2.0	5.0	082_neutral	0.0		89.392142296771	1.2333256159122357
11.0	61.6053067282528	pulse	0.0	t		20.0	male	black	3.1070433744528456	neutral	082	sub-03	2.0	5.0	082_neutral	0.0		89.97558839802923	
11.0	62.2551862429068	fix	1.0		443	20.0	male	black	3.1070433744528456	neutral	082	sub-03	2.0	5.0	082_neutral	0.0		90.62546791268323	3.7665702441790927
11.0	62.30530047985849	pulse	1.0	t		20.0	male	black	3.1070433744528456	neutral	082	sub-03	2.0	5.0	082_neutral	0.0		90.67558214963492	
11.0	63.00527974243323	pulse	1.0	t		20.0	male	black	3.1070433744528456	neutral	082	sub-03	2.0	5.0	082_neutral	0.0		91.37556141220966	
11.0	63.70526443839435	pulse	1.0	t		20.0	male	black	3.1070433744528456	neutral	082	sub-03	2.0	5.0	082_neutral	0.0		92.07554610817078	
11.0	64.40524490838834	pulse	1.0	t		20.0	male	black	3.1070433744528456	neutral	082	sub-03	2.0	5.0	082_neutral	0.0		92.77552657816477	
11.0	65.10522960434992	pulse	1.0	t		20.0	male	black	3.1070433744528456	neutral	082	sub-03	2.0	5.0	082_neutral	0.0		93.47551127412635	
11.0	65.80521520587536	pulse	1.0	t		20.0	male	black	3.1070433744528456	neutral	082	sub-03	2.0	5.0	082_neutral	0.0		94.17549687565179	
12.0	66.0217564870859	face	0.0		145	26.0	male	white	2.7966573816155993	neutral	117	sub-03	2.0	5.0	117_neutral	0.0		94.39203815686233	1.2333235029286698
12.0	66.50521529643174	pulse	0.0	t		26.0	male	white	2.7966573816155993	neutral	117	sub-03	2.0	5.0	117_neutral	0.0		94.87549696620817	
12.0	67.20518882376518	pulse	0.0	t		26.0	male	white	2.7966573816155993	neutral	117	sub-03	2.0	5.0	117_neutral	0.0		95.57547049354162	
12.0	67.25507999001456	fix	1.0		445	26.0	male	white	2.7966573816155993	neutral	117	sub-03	2.0	5.0	117_neutral	0.0		95.625361659791	3.766568734905377
12.0	67.90517925496806	pulse	1.0	t		26.0	male	white	2.7966573816155993	neutral	117	sub-03	2.0	5.0	117_neutral	0.0		96.2754609247445	
12.0	68.60515489528507	pulse	1.0	t		26.0	male	white	2.7966573816155993	neutral	117	sub-03	2.0	5.0	117_neutral	0.0		96.9754365650615	
12.0	69.30514200608468	pulse	1.0	t		26.0	male	white	2.7966573816155993	neutral	117	sub-03	2.0	5.0	117_neutral	0.0		97.67542367586111	
12.0	70.00512700390072	pulse	1.0	t		26.0	male	white	2.7966573816155993	neutral	117	sub-03	2.0	5.0	117_neutral	0.0		98.37540867367716	
12.0	70.70511320913602	pulse	1.0	t		26.0	male	white	2.7966573816155993	neutral	117	sub-03	2.0	5.0	117_neutral	0.0		99.07539487891245	
13.0	71.02164872491994	face	0.0		145	22.0	female	white	4.614007162753682	smiling	009	sub-03	2.0	5.0	009_smiling	0.0		99.39193039469637	1.2333241066380651
13.0	71.4051018292098	pulse	0.0	t		22.0	female	white	4.614007162753682	smiling	009	sub-03	2.0	5.0	009_smiling	0.0		99.77538349898623	
13.0	72.10507565839816	pulse	0.0	t		22.0	female	white	4.614007162753682	smiling	009	sub-03	2.0	5.0	009_smiling	0.0		100.4753573281746	
13.0	72.254972831558	fix	1.0		444	22.0	female	white	4.614007162753682	smiling	009	sub-03	2.0	5.0	009_smiling	0.0		100.62525450133444	3.7582387496449883
13.0	72.80507001371325	pulse	1.0	t		22.0	female	white	4.614007162753682	smiling	009	sub-03	2.0	5.0	009_smiling	0.0		101.17535168348968	
13.0	73.50507915991375	pulse	1.0	t		22.0	female	white	4.614007162753682	smiling	009	sub-03	2.0	5.0	009_smiling	0.0		101.87536082969018	
13.0	74.20504302789323	pulse	1.0	t		22.0	female	white	4.614007162753682	smiling	009	sub-03	2.0	5.0	009_smiling	0.0		102.57532469766966	
13.0	74.9050225923229	pulse	1.0	t		22.0	female	white	4.614007162753682	smiling	009	sub-03	2.0	5.0	009_smiling	0.0		103.27530426209933	
13.0	75.60500698642954	pulse	1.0	t		22.0	female	white	4.614007162753682	smiling	009	sub-03	2.0	5.0	009_smiling	0.0		103.97528865620598	
14.0	76.013211581203	face	0.0		146	20.0	male	black	2.609629924393156	neutral	043	sub-03	2.0	5.0	043_neutral	0.0		104.38349325097943	1.2416489603670016
14.0	76.30499983247046	pulse	0.0	t		20.0	male	black	2.609629924393156	neutral	043	sub-03	2.0	5.0	043_neutral	0.0		104.67528150224689	
14.0	77.00497305794897	pulse	0.0	t		20.0	male	black	2.609629924393156	neutral	043	sub-03	2.0	5.0	043_neutral	0.0		105.3752547277254	
14.0	77.25486054157	fix	1.0		444	20.0	male	black	2.609629924393156	neutral	043	sub-03	2.0	5.0	043_neutral	0.0		105.62514221134643	3.7665789979682813
14.0	77.70494175560589	pulse	1.0	t		20.0	male	black	2.609629924393156	neutral	043	sub-03	2.0	5.0	043_neutral	0.0		106.07522342538232	
14.0	78.40493973317871	pulse	1.0	t		20.0	male	black	2.609629924393156	neutral	043	sub-03	2.0	5.0	043_neutral	0.0		106.77522140295514	
14.0	79.10493167365485	pulse	1.0	t		20.0	male	black	2.609629924393156	neutral	043	sub-03	2.0	5.0	043_neutral	0.0		107.47521334343128	
14.0	79.80492482155069	pulse	1.0	t		20.0	male	black	2.609629924393156	neutral	043	sub-03	2.0	5.0	043_neutral	0.0		108.17520649132712	
14.0	80.50490800823763	pulse	1.0	t		20.0	male	black	2.609629924393156	neutral	043	sub-03	2.0	5.0	043_neutral	0.0		108.87518967801407	
15.0	81.02143953953828	face	0.0		145	23.0	male	white	2.6275368085953046	neutral	141	sub-03	2.0	5.0	141_neutral	1.0	trustworthiness	109.39172120931471	1.2333228992192744
15.0	81.20489572274755	pulse	0.0	t		23.0	male	white	2.6275368085953046	neutral	141	sub-03	2.0	5.0	141_neutral	1.0	trustworthiness	109.57517739252398	
15.0	81.9048713630641	pulse	0.0	t		23.0	male	white	2.6275368085953046	neutral	141	sub-03	2.0	5.0	141_neutral	1.0	trustworthiness	110.27515303284054	
15.0	82.25476243875755	fix	1.0		177	23.0	male	white	2.6275368085953046	neutral	141	sub-03	2.0	5.0	141_neutral	1.0	trustworthiness	110.62504410853398	1.508311421189319
15.0	82.60486813321813	pulse	1.0	t		23.0	male	white	2.6275368085953046	neutral	141	sub-03	2.0	5.0	141_neutral	1.0	trustworthiness	110.97514980299457	
15.0	83.30484890506659	pulse	1.0	t		23.0	male	white	2.6275368085953046	neutral	141	sub-03	2.0	5.0	141_neutral	1.0	trustworthiness	111.67513057484302	
15.0	83.76307385994687	rating	2.0		293	23.0	male	white	2.6275368085953046	neutral	141	sub-03	2.0	5.0	141_neutral	1.0	trustworthiness	112.1333555297233	2.491605266883198
15.0	83.99958344036577	pulse	2.0	t		23.0	male	white	2.6275368085953046	neutral	141	sub-03	2.0	5.0	141_neutral	1.0	trustworthiness	112.3698651101422	
15.0	84.69954942132927	pulse	2.0	t		23.0	male	white	2.6275368085953046	neutral	141	sub-03	2.0	5.0	141_neutral	1.0	trustworthiness	113.0698310911057	
15.0	85.39953804140305	pulse	2.0	t		23.0	male	white	2.6275368085953046	neutral	141	sub-03	2.0	5.0	141_neutral	1.0	trustworthiness	113.76981971117948	
15.0	85.44950980288604	response	2.0	w		23.0	male	white	2.6275368085953046	neutral	141	sub-03	2.0	5.0	141_neutral	1.0	trustworthiness	113.81979147266247	
15.0	86.10478074625144	pulse	2.0	t		23.0	male	white	2.6275368085953046	neutral	141	sub-03	2.0	5.0	141_neutral	1.0	trustworthiness	114.47506241602787	
15.0	86.25467912683007	fix	3.0		444	23.0	male	white	2.6275368085953046	neutral	141	sub-03	2.0	5.0	141_neutral	1.0	trustworthiness	114.6249607966065	3.766569640470152
15.0	86.80479140172565	pulse	3.0	t		23.0	male	white	2.6275368085953046	neutral	141	sub-03	2.0	5.0	141_neutral	1.0	trustworthiness	115.17507307150208	
15.0	87.50476221236613	pulse	3.0	t		23.0	male	white	2.6275368085953046	neutral	141	sub-03	2.0	5.0	141_neutral	1.0	trustworthiness	115.87504388214256	
15.0	88.20474751203665	pulse	3.0	t		23.0	male	white	2.6275368085953046	neutral	141	sub-03	2.0	5.0	141_neutral	1.0	trustworthiness	116.57502918181308	
15.0	88.90472466162782	pulse	3.0	t		23.0	male	white	2.6275368085953046	neutral	141	sub-03	2.0	5.0	141_neutral	1.0	trustworthiness	117.27500633140426	
15.0	89.60470573533212	pulse	3.0	t		23.0	male	white	2.6275368085953046	neutral	141	sub-03	2.0	5.0	141_neutral	1.0	trustworthiness	117.97498740510855	
16.0	90.02124876730022	face	0.0		145	40.0	female	west_asian	1.5777954635893354	neutral	038	sub-03	2.0	5.0	038_neutral	0.0		118.39153043707665	1.2333253140577654
16.0	90.3047046184688	pulse	0.0	t		40.0	female	west_asian	1.5777954635893354	neutral	038	sub-03	2.0	5.0	038_neutral	0.0		118.67498628824524	
16.0	91.00468357918862	pulse	0.0	t		40.0	female	west_asian	1.5777954635893354	neutral	038	sub-03	2.0	5.0	038_neutral	0.0		119.37496524896505	
16.0	91.25457408135799	fix	1.0		444	40.0	female	west_asian	1.5777954635893354	neutral	038	sub-03	2.0	5.0	038_neutral	0.0		119.62485575113442	3.7582508238365335
16.0	91.70467702893939	pulse	1.0	t		40.0	female	west_asian	1.5777954635893354	neutral	038	sub-03	2.0	5.0	038_neutral	0.0		120.07495869871582	
16.0	92.40465749893383	pulse	1.0	t		40.0	female	west_asian	1.5777954635893354	neutral	038	sub-03	2.0	5.0	038_neutral	0.0		120.77493916871026	
16.0	93.10463887449214	pulse	1.0	t		40.0	female	west_asian	1.5777954635893354	neutral	038	sub-03	2.0	5.0	038_neutral	0.0		121.47492054426857	
16.0	93.80462809827577	pulse	1.0	t		40.0	female	west_asian	1.5777954635893354	neutral	038	sub-03	2.0	5.0	038_neutral	0.0		122.1749097680522	
16.0	94.50461581278478	pulse	1.0	t		40.0	female	west_asian	1.5777954635893354	neutral	038	sub-03	2.0	5.0	038_neutral	0.0		122.87489748256121	
17.0	95.01282490519452	face	0.0		146	19.0	male	white	2.243931555909272	neutral	130	sub-03	2.0	5.0	130_neutral	0.0		123.38310657497095	1.2416399047224331
17.0	95.204602319875	pulse	0.0	t		19.0	male	white	2.243931555909272	neutral	130	sub-03	2.0	5.0	130_neutral	0.0		123.57488398965143	
17.0	95.90457705462768	pulse	0.0	t		19.0	male	white	2.243931555909272	neutral	130	sub-03	2.0	5.0	130_neutral	0.0		124.27485872440411	
17.0	96.25446480991695	fix	1.0		444	19.0	male	white	2.243931555909272	neutral	130	sub-03	2.0	5.0	130_neutral	0.0		124.62474647969339	3.766572055308643
17.0	96.60456778768503	pulse	1.0	t		19.0	male	white	2.243931555909272	neutral	130	sub-03	2.0	5.0	130_neutral	0.0		124.97484945746146	
17.0	97.30455429477524	pulse	1.0	t		19.0	male	white	2.243931555909272	neutral	130	sub-03	2.0	5.0	130_neutral	0.0		125.67483596455168	
17.0	98.0045362740434	pulse	1.0	t		19.0	male	white	2.243931555909272	neutral	130	sub-03	2.0	5.0	130_neutral	0.0		126.37481794381983	
17.0	98.70452187556884	pulse	1.0	t		19.0	male	white	2.243931555909272	neutral	130	sub-03	2.0	5.0	130_neutral	0.0		127.07480354534528	
17.0	99.4045050622558	pulse	1.0	t		19.0	male	white	2.243931555909272	neutral	130	sub-03	2.0	5.0	130_neutral	0.0		127.77478673203223	
18.0	100.0210368652256	face	0.0		145	26.0	female	white	4.854755272582572	neutral	027	sub-03	2.0	5.0	027_neutral	1.0	attractiveness	128.39131853500203	1.233323502928215
18.0	100.10449519160329	pulse	0.0	t		26.0	female	white	4.854755272582572	neutral	027	sub-03	2.0	5.0	027_neutral	1.0	attractiveness	128.47477686137972	
18.0	100.80447656716251	pulse	0.0	t		26.0	female	white	4.854755272582572	neutral	027	sub-03	2.0	5.0	027_neutral	1.0	attractiveness	129.17475823693894	
18.0	101.25436036815381	fix	1.0		177	26.0	female	white	4.854755272582572	neutral	027	sub-03	2.0	5.0	027_neutral	1.0	attractiveness	129.62464203793024	1.49996905988246
18.0	101.50446760207387	pulse	1.0	t		26.0	female	white	4.854755272582572	neutral	027	sub-03	2.0	5.0	027_neutral	1.0	attractiveness	129.8747492718503	
18.0	102.20443116819888	pulse	1.0	t		26.0	female	white	4.854755272582572	neutral	027	sub-03	2.0	5.0	027_neutral	1.0	attractiveness	130.5747128379753	
18.0	102.75432942803627	rating	2.0		294	26.0	female	white	4.854755272582572	neutral	027	sub-03	2.0	5.0	027_neutral	1.0	attractiveness	131.1246110978127	2.4999473263360414
18.0	102.89917536285202	pulse	2.0	t		26.0	female	white	4.854755272582572	neutral	027	sub-03	2.0	5.0	027_neutral	1.0	attractiveness	131.26945703262845	
18.0	103.59916186994224	pulse	2.0	t		26.0	female	white	4.854755272582572	neutral	027	sub-03	2.0	5.0	027_neutral	1.0	attractiveness	131.96944353971867	
18.0	104.00440617462073	response	2.0	b		26.0	female	white	4.854755272582572	neutral	027	sub-03	2.0	5.0	027_neutral	1.0	attractiveness	132.37468784439716	
18.0	104.29912664348603	pulse	2.0	t		26.0	female	white	4.854755272582572	neutral	027	sub-03	2.0	5.0	027_neutral	1.0	attractiveness	132.66940831326247	
18.0	105.0043817243818	pulse	2.0	t		26.0	female	white	4.854755272582572	neutral	027	sub-03	2.0	5.0	027_neutral	1.0	attractiveness	133.37466339415823	
18.0	105.25427675437231	fix	3.0		444	26.0	female	white	4.854755272582572	neutral	027	sub-03	2.0	5.0	027_neutral	1.0	attractiveness	133.62455842414874	3.766570847888943
18.0	105.7043794000997	pulse	3.0	t		26.0	female	white	4.854755272582572	neutral	027	sub-03	2.0	5.0	027_neutral	1.0	attractiveness	134.07466106987613	
18.0	106.40435594598102	pulse	3.0	t		26.0	female	white	4.854755272582572	neutral	027	sub-03	2.0	5.0	027_neutral	1.0	attractiveness	134.77463761575746	
18.0	107.10433792524918	pulse	3.0	t		26.0	female	white	4.854755272582572	neutral	027	sub-03	2.0	5.0	027_neutral	1.0	attractiveness	135.47461959502562	
18.0	107.80433560096708	pulse	3.0	t		26.0	female	white	4.854755272582572	neutral	027	sub-03	2.0	5.0	027_neutral	1.0	attractiveness	136.1746172707435	
18.0	108.50431878765403	pulse	3.0	t		26.0	female	white	4.854755272582572	neutral	027	sub-03	2.0	5.0	027_neutral	1.0	attractiveness	136.87460045743046	
19.0	109.02084760226126	face	0.0		145	19.0	male	white	3.2522881018702745	neutral	018	sub-03	2.0	5.0	018_neutral	0.0		137.3911292720377	1.2333219936544992
19.0	109.2043034836156	pulse	0.0	t		19.0	male	white	3.2522881018702745	neutral	018	sub-03	2.0	5.0	018_neutral	0.0		137.57458515339204	
19.0	109.90428274619035	pulse	0.0	t		19.0	male	white	3.2522881018702745	neutral	018	sub-03	2.0	5.0	018_neutral	0.0		138.27456441596678	
19.0	110.25416959591576	fix	1.0		444	19.0	male	white	3.2522881018702745	neutral	018	sub-03	2.0	5.0	018_neutral	0.0		138.6244512656922	3.766571451598793
19.0	110.60427679965096	pulse	1.0	t		19.0	male	white	3.2522881018702745	neutral	018	sub-03	2.0	5.0	018_neutral	0.0		138.9745584694274	
19.0	111.30425576037078	pulse	1.0	t		19.0	male	white	3.2522881018702745	neutral	018	sub-03	2.0	5.0	018_neutral	0.0		139.6745374301472	
19.0	112.00423200439718	pulse	1.0	t		19.0	male	white	3.2522881018702745	neutral	018	sub-03	2.0	5.0	018_neutral	0.0		140.3745136741736	
19.0	112.70423209495357	pulse	1.0	t		19.0	male	white	3.2522881018702745	neutral	018	sub-03	2.0	5.0	018_neutral	0.0		141.07451376473	
19.0	113.40421165938324	pulse	1.0	t		19.0	male	white	3.2522881018702745	neutral	018	sub-03	2.0	5.0	018_neutral	0.0		141.77449332915967	
20.0	114.02074104751455	face	0.0		145	24.0	female	east_asian	2.9076800636689217	neutral	034	sub-03	2.0	5.0	034_neutral	0.0		142.39102271729098	1.233322899218365
20.0	114.10430683420373	pulse	0.0	t		24.0	female	east_asian	2.9076800636689217	neutral	034	sub-03	2.0	5.0	034_neutral	0.0		142.47458850398016	
20.0	114.80417410864493	pulse	0.0	t		24.0	female	east_asian	2.9076800636689217	neutral	034	sub-03	2.0	5.0	034_neutral	0.0		143.17445577842136	
20.0	115.25406394673291	fix	1.0		1185	24.0	female	east_asian	2.9076800636689217	neutral	034	sub-03	2.0	5.0	034_neutral	0.0		143.62434561650934	10.016424825626018
20.0	115.50417540662102	pulse	1.0	t		24.0	female	east_asian	2.9076800636689217	neutral	034	sub-03	2.0	5.0	034_neutral	0.0		143.87445707639745	
20.0	116.20414742468029	pulse	1.0	t		24.0	female	east_asian	2.9076800636689217	neutral	034	sub-03	2.0	5.0	034_neutral	0.0		144.57442909445672	
20.0	116.90412789467382	pulse	1.0	t		24.0	female	east_asian	2.9076800636689217	neutral	034	sub-03	2.0	5.0	034_neutral	0.0		145.27440956445025	
20.0	117.60411953329594	pulse	1.0	t		24.0	female	east_asian	2.9076800636689217	neutral	034	sub-03	2.0	5.0	034_neutral	0.0		145.97440120307238	
20.0	118.30410936078943	pulse	1.0	t		24.0	female	east_asian	2.9076800636689217	neutral	034	sub-03	2.0	5.0	034_neutral	0.0		146.67439103056586	
20.0	119.00408832150924	pulse	1.0	t		24.0	female	east_asian	2.9076800636689217	neutral	034	sub-03	2.0	5.0	034_neutral	0.0		147.37436999128568	
20.0	119.70406999892248	pulse	1.0	t		24.0	female	east_asian	2.9076800636689217	neutral	034	sub-03	2.0	5.0	034_neutral	0.0		148.0743516686989	
20.0	120.40406103383475	pulse	1.0	t		24.0	female	east_asian	2.9076800636689217	neutral	034	sub-03	2.0	5.0	034_neutral	0.0		148.77434270361118	
20.0	121.1040505594724	pulse	1.0	t		24.0	female	east_asian	2.9076800636689217	neutral	034	sub-03	2.0	5.0	034_neutral	0.0		149.47433222924883	
20.0	121.80403495357905	pulse	1.0	t		24.0	female	east_asian	2.9076800636689217	neutral	034	sub-03	2.0	5.0	034_neutral	0.0		150.17431662335548	
20.0	122.50402266808806	pulse	1.0	t		24.0	female	east_asian	2.9076800636689217	neutral	034	sub-03	2.0	5.0	034_neutral	0.0		150.8743043378645	
20.0	123.20400283622757	pulse	1.0	t		24.0	female	east_asian	2.9076800636689217	neutral	034	sub-03	2.0	5.0	034_neutral	0.0		151.574284506004	
20.0	123.90398270251217	pulse	1.0	t		24.0	female	east_asian	2.9076800636689217	neutral	034	sub-03	2.0	5.0	034_neutral	0.0		152.2742643722886	
20.0	124.60396860589253	pulse	1.0	t		24.0	female	east_asian	2.9076800636689217	neutral	034	sub-03	2.0	5.0	034_neutral	0.0		152.97425027566896	
21.0	125.27048877235893	face	0.0		145	54.0	female	white	2.286908077994429	smiling	136	sub-03	2.0	5.0	136_smiling	0.0		153.64077044213536	1.2333388975239359
21.0	125.30396567790058	pulse	0.0	t		54.0	female	white	2.286908077994429	smiling	136	sub-03	2.0	5.0	136_smiling	0.0		153.674247347677	
21.0	126.00394916644245	pulse	0.0	t		54.0	female	white	2.286908077994429	smiling	136	sub-03	2.0	5.0	136_smiling	0.0		154.37423083621889	
21.0	126.50382766988287	fix	1.0		443	54.0	female	white	2.286908077994429	smiling	136	sub-03	2.0	5.0	136_smiling	0.0		154.8741093396593	3.7583121003635824
21.0	126.7039347679688	pulse	1.0	t		54.0	female	white	2.286908077994429	smiling	136	sub-03	2.0	5.0	136_smiling	0.0		155.07421643774524	
21.0	127.40391916207545	pulse	1.0	t		54.0	female	white	2.286908077994429	smiling	136	sub-03	2.0	5.0	136_smiling	0.0		155.77420083185189	
21.0	128.10389751908542	pulse	1.0	t		54.0	female	white	2.286908077994429	smiling	136	sub-03	2.0	5.0	136_smiling	0.0		156.47417918886185	
21.0	128.80386561303249	pulse	1.0	t		54.0	female	white	2.286908077994429	smiling	136	sub-03	2.0	5.0	136_smiling	0.0		157.17414728280892	
21.0	129.50387053326585	pulse	1.0	t		54.0	female	white	2.286908077994429	smiling	136	sub-03	2.0	5.0	136_smiling	0.0		157.87415220304229	
21.0	130.20385734221009	pulse	1.0	t		54.0	female	white	2.286908077994429	smiling	136	sub-03	2.0	5.0	136_smiling	0.0		158.57413901198652	
22.0	130.26213977024645	face	0.0		147	20.0	male	black	3.1070433744528456	smiling	082	sub-03	2.0	5.0	082_smiling	0.0		158.63242144002288	1.241566855858764
22.0	130.90385079196085	pulse	0.0	t		20.0	male	black	3.1070433744528456	smiling	082	sub-03	2.0	5.0	082_smiling	0.0		159.27413246173728	
22.0	131.5037066261052	fix	1.0		443	20.0	male	black	3.1070433744528456	smiling	082	sub-03	2.0	5.0	082_smiling	0.0		159.87398829588165	3.7665865443386792
22.0	131.60383035639052	pulse	1.0	t		20.0	male	black	3.1070433744528456	smiling	082	sub-03	2.0	5.0	082_smiling	0.0		159.97411202616695	
22.0	132.30386002871865	pulse	1.0	t		20.0	male	black	3.1070433744528456	smiling	082	sub-03	2.0	5.0	082_smiling	0.0		160.67414169849508	
22.0	133.00379220194327	pulse	1.0	t		20.0	male	black	3.1070433744528456	smiling	082	sub-03	2.0	5.0	082_smiling	0.0		161.3740738717197	
22.0	133.70377991645228	pulse	1.0	t		20.0	male	black	3.1070433744528456	smiling	082	sub-03	2.0	5.0	082_smiling	0.0		162.0740615862287	
22.0	134.4037676309622	pulse	1.0	t		20.0	male	black	3.1070433744528456	smiling	082	sub-03	2.0	5.0	082_smiling	0.0		162.77404930073862	
22.0	135.10374598797216	pulse	1.0	t		20.0	male	black	3.1070433744528456	smiling	082	sub-03	2.0	5.0	082_smiling	0.0		163.4740276577486	
23.0	135.2702931704439	face	0.0		146	19.0	male	white	3.2522881018702745	smiling	018	sub-03	2.0	5.0	018_smiling	1.0	attractiveness	163.64057484022032	1.2333216917995742
23.0	135.80374215441634	pulse	0.0	t		19.0	male	white	3.2522881018702745	smiling	018	sub-03	2.0	5.0	018_smiling	1.0	attractiveness	164.17402382419277	
23.0	136.50361486224347	fix	1.0		177	19.0	male	white	3.2522881018702745	smiling	018	sub-03	2.0	5.0	018_smiling	1.0	attractiveness	164.8738965320199	1.499969361737385
23.0	136.51142384610694	pulse	1.0	t		19.0	male	white	3.2522881018702745	smiling	018	sub-03	2.0	5.0	018_smiling	1.0	attractiveness	164.88170551588337	
23.0	137.203714263032	pulse	1.0	t		19.0	male	white	3.2522881018702745	smiling	018	sub-03	2.0	5.0	018_smiling	1.0	attractiveness	165.57399593280843	
23.0	137.90369352560674	pulse	1.0	t		19.0	male	white	3.2522881018702745	smiling	018	sub-03	2.0	5.0	018_smiling	1.0	attractiveness	166.27397519538317	
23.0	138.00358422398085	rating	2.0		296	19.0	male	white	3.2522881018702745	smiling	018	sub-03	2.0	5.0	018_smiling	1.0	attractiveness	166.37386589375728	2.4999470244811164
23.0	138.59842323122894	pulse	2.0	t		19.0	male	white	3.2522881018702745	smiling	018	sub-03	2.0	5.0	018_smiling	1.0	attractiveness	166.96870490100537	
23.0	139.2984003808201	pulse	2.0	t		19.0	male	white	3.2522881018702745	smiling	018	sub-03	2.0	5.0	018_smiling	1.0	attractiveness	167.66868205059654	
23.0	139.99836424879913	pulse	2.0	t		19.0	male	white	3.2522881018702745	smiling	018	sub-03	2.0	5.0	018_smiling	1.0	attractiveness	168.36864591857557	
23.0	140.50353124846197	fix	3.0		442	19.0	male	white	3.2522881018702745	smiling	018	sub-03	2.0	5.0	018_smiling	1.0	attractiveness	168.8738129182384	3.766570244180002
23.0	140.69530866314244	response	3.0	n		19.0	male	white	3.2522881018702745	smiling	018	sub-03	2.0	5.0	018_smiling	1.0	attractiveness	169.06559033291887	
23.0	140.70346387446943	pulse	3.0	t		19.0	male	white	3.2522881018702745	smiling	018	sub-03	2.0	5.0	018_smiling	1.0	attractiveness	169.07374554424587	
23.0	141.4036118738809	pulse	3.0	t		19.0	male	white	3.2522881018702745	smiling	018	sub-03	2.0	5.0	018_smiling	1.0	attractiveness	169.77389354365732	
23.0	142.1035944568589	pulse	3.0	t		19.0	male	white	3.2522881018702745	smiling	018	sub-03	2.0	5.0	018_smiling	1.0	attractiveness	170.47387612663533	
23.0	142.80358881217444	pulse	3.0	t		19.0	male	white	3.2522881018702745	smiling	018	sub-03	2.0	5.0	018_smiling	1.0	attractiveness	171.17387048195087	
23.0	143.5035723007163	pulse	3.0	t		19.0	male	white	3.2522881018702745	smiling	018	sub-03	2.0	5.0	018_smiling	1.0	attractiveness	171.87385397049275	
23.0	144.20356424119245	pulse	3.0	t		19.0	male	white	3.2522881018702745	smiling	018	sub-03	2.0	5.0	018_smiling	1.0	attractiveness	172.57384591096888	
24.0	144.27010149264197	face	0.0		146	28.0	female	white	5.676880222841227	smiling	124	sub-03	2.0	5.0	124_smiling	0.0		172.6403831624184	1.2333102213169695
24.0	144.90354652231554	pulse	0.0	t		28.0	female	white	5.676880222841227	smiling	124	sub-03	2.0	5.0	124_smiling	0.0		173.27382819209197	
24.0	145.50341171395894	fix	1.0		443	28.0	female	white	5.676880222841227	smiling	124	sub-03	2.0	5.0	124_smiling	0.0		173.87369338373537	3.766586242483754
24.0	145.60353182198605	pulse	1.0	t		28.0	female	white	5.676880222841227	smiling	124	sub-03	2.0	5.0	124_smiling	0.0		173.97381349176248	
24.0	146.30352406431803	pulse	1.0	t		28.0	female	white	5.676880222841227	smiling	124	sub-03	2.0	5.0	124_smiling	0.0		174.67380573409446	
24.0	147.00349427124866	pulse	1.0	t		28.0	female	white	5.676880222841227	smiling	124	sub-03	2.0	5.0	124_smiling	0.0		175.3737759410251	
24.0	147.70349104140178	pulse	1.0	t		28.0	female	white	5.676880222841227	smiling	124	sub-03	2.0	5.0	124_smiling	0.0		176.0737727111782	
24.0	148.40347302066994	pulse	1.0	t		28.0	female	white	5.676880222841227	smiling	124	sub-03	2.0	5.0	124_smiling	0.0		176.77375469044637	
24.0	149.10351808759287	pulse	1.0	t		28.0	female	white	5.676880222841227	smiling	124	sub-03	2.0	5.0	124_smiling	0.0		177.4737997573693	
25.0	149.2699979564427	face	0.0		146	31.0	female	white	2.1822522881018704	neutral	102	sub-03	2.0	5.0	102_neutral	0.0		177.64027962621913	1.2333225973643493
25.0	149.803447845979	pulse	0.0	t		31.0	female	white	2.1822522881018704	neutral	102	sub-03	2.0	5.0	102_neutral	0.0		178.17372951575544	
25.0	150.50332055380704	fix	1.0		444	31.0	female	white	2.1822522881018704	neutral	102	sub-03	2.0	5.0	102_neutral	0.0		178.87360222358348	3.7665717534528085
25.0	150.51081500496048	pulse	1.0	t		31.0	female	white	2.1822522881018704	neutral	102	sub-03	2.0	5.0	102_neutral	0.0		178.8810966747369	
25.0	151.2034154267726	pulse	1.0	t		31.0	female	white	2.1822522881018704	neutral	102	sub-03	2.0	5.0	102_neutral	0.0		179.57369709654904	
25.0	151.903391670799	pulse	1.0	t		31.0	female	white	2.1822522881018704	neutral	102	sub-03	2.0	5.0	102_neutral	0.0		180.27367334057544	
25.0	152.60338361127606	pulse	1.0	t		31.0	female	white	2.1822522881018704	neutral	102	sub-03	2.0	5.0	102_neutral	0.0		180.9736652810525	
25.0	153.30336981651135	pulse	1.0	t		31.0	female	white	2.1822522881018704	neutral	102	sub-03	2.0	5.0	102_neutral	0.0		181.67365148628778	
25.0	154.00335119206966	pulse	1.0	t		31.0	female	white	2.1822522881018704	neutral	102	sub-03	2.0	5.0	102_neutral	0.0		182.3736328618461	
26.0	154.26989230725985	face	0.0		145	19.0	female	white	4.298846000795861	smiling	100	sub-03	2.0	5.0	100_smiling	1.0	dominance	182.64017397703628	1.2333232010741995
26.0	154.70334132141716	pulse	0.0	t		19.0	female	white	4.298846000795861	smiling	100	sub-03	2.0	5.0	100_smiling	1.0	dominance	183.0736229911936	
26.0	155.40332511181487	pulse	0.0	t		19.0	female	white	4.298846000795861	smiling	100	sub-03	2.0	5.0	100_smiling	1.0	dominance	183.7736067815913	
26.0	155.50321550833405	fix	1.0		177	19.0	female	white	4.298846000795861	smiling	100	sub-03	2.0	5.0	100_smiling	1.0	dominance	183.87349717811048	1.4999672487529097
26.0	156.10331282632387	pulse	1.0	t		19.0	female	white	4.298846000795861	smiling	100	sub-03	2.0	5.0	100_smiling	1.0	dominance	184.4735944961003	
26.0	156.8032893722052	pulse	1.0	t		19.0	female	white	4.298846000795861	smiling	100	sub-03	2.0	5.0	100_smiling	1.0	dominance	185.17357104198163	
26.0	157.00318275708696	rating	2.0		295	19.0	female	white	4.298846000795861	smiling	100	sub-03	2.0	5.0	100_smiling	1.0	dominance	185.3734644268634	2.4999461189172507
26.0	157.49801062589313	pulse	2.0	t		19.0	female	white	4.298846000795861	smiling	100	sub-03	2.0	5.0	100_smiling	1.0	dominance	185.86829229566956	
26.0	158.19798928475802	pulse	2.0	t		19.0	female	white	4.298846000795861	smiling	100	sub-03	2.0	5.0	100_smiling	1.0	dominance	186.56827095453446	
26.0	158.31158479508986	response	2.0	e		19.0	female	white	4.298846000795861	smiling	100	sub-03	2.0	5.0	100_smiling	1.0	dominance	186.6818664648663	
26.0	158.90324164896037	pulse	2.0	t		19.0	female	white	4.298846000795861	smiling	100	sub-03	2.0	5.0	100_smiling	1.0	dominance	187.2735233187368	
26.0	159.5031288760042	fix	3.0		443	19.0	female	white	4.298846000795861	smiling	100	sub-03	2.0	5.0	100_smiling	1.0	dominance	187.87341054578064	3.7665699423241676
26.0	159.60323932467827	pulse	3.0	t		19.0	female	white	4.298846000795861	smiling	100	sub-03	2.0	5.0	100_smiling	1.0	dominance	187.9735209944547	
26.0	160.30322945402577	pulse	3.0	t		19.0	female	white	4.298846000795861	smiling	100	sub-03	2.0	5.0	100_smiling	1.0	dominance	188.6735111238022	
26.0	161.00320539619815	pulse	3.0	t		19.0	female	white	4.298846000795861	smiling	100	sub-03	2.0	5.0	100_smiling	1.0	dominance	189.3734870659746	
26.0	161.70318164022456	pulse	3.0	t		19.0	female	white	4.298846000795861	smiling	100	sub-03	2.0	5.0	100_smiling	1.0	dominance	190.073463310001	
26.0	162.40315003602655	pulse	3.0	t		19.0	female	white	4.298846000795861	smiling	100	sub-03	2.0	5.0	100_smiling	1.0	dominance	190.77343170580298	
26.0	163.1031609933557	pulse	3.0	t		19.0	female	white	4.298846000795861	smiling	100	sub-03	2.0	5.0	100_smiling	1.0	dominance	191.47344266313212	
27.0	163.26969881832838	face	0.0		146	25.0	female	black	3.858336649423	smiling	126	sub-03	2.0	5.0	126_smiling	0.0		191.6399804881048	1.2333247103479152
27.0	163.80315082084917	pulse	0.0	t		25.0	female	black	3.858336649423	smiling	126	sub-03	2.0	5.0	126_smiling	0.0		192.1734324906256	
27.0	164.5030235286763	fix	1.0		444	25.0	female	black	3.858336649423	smiling	126	sub-03	2.0	5.0	126_smiling	0.0		192.87330519845273	3.766574772002059
27.0	164.5105110371701	pulse	1.0	t		25.0	female	black	3.858336649423	smiling	126	sub-03	2.0	5.0	126_smiling	0.0		192.88079270694652	
27.0	165.2032050339717	pulse	1.0	t		25.0	female	black	3.858336649423	smiling	126	sub-03	2.0	5.0	126_smiling	0.0		193.57348670374813	
27.0	165.90309856978138	pulse	1.0	t		25.0	female	black	3.858336649423	smiling	126	sub-03	2.0	5.0	126_smiling	0.0		194.2733802395578	
27.0	166.60308960469365	pulse	1.0	t		25.0	female	black	3.858336649423	smiling	126	sub-03	2.0	5.0	126_smiling	0.0		194.97337127447008	
27.0	167.303080337751	pulse	1.0	t		25.0	female	black	3.858336649423	smiling	126	sub-03	2.0	5.0	126_smiling	0.0		195.67336200752743	
27.0	168.00305356322997	pulse	1.0	t		25.0	female	black	3.858336649423	smiling	126	sub-03	2.0	5.0	126_smiling	0.0		196.3733352330064	
28.0	168.26959830067835	face	0.0		145	47.0	male	east_asian	2.171110226820533	neutral	024	sub-03	2.0	5.0	024_neutral	0.0		196.63987997045479	1.2333192769610832
28.0	168.7030439944324	pulse	0.0	t		47.0	male	east_asian	2.171110226820533	neutral	024	sub-03	2.0	5.0	024_neutral	0.0		197.07332566420882	
28.0	169.40302567184563	pulse	0.0	t		47.0	male	east_asian	2.171110226820533	neutral	024	sub-03	2.0	5.0	024_neutral	0.0		197.77330734162206	
28.0	169.50291757763944	fix	1.0		444	47.0	male	east_asian	2.171110226820533	neutral	024	sub-03	2.0	5.0	024_neutral	0.0		197.87319924741587	3.7665774886945655
28.0	170.1030154993382	pulse	1.0	t		47.0	male	east_asian	2.171110226820533	neutral	024	sub-03	2.0	5.0	024_neutral	0.0		198.47329716911463	
28.0	170.8029965730425	pulse	1.0	t		47.0	male	east_asian	2.171110226820533	neutral	024	sub-03	2.0	5.0	024_neutral	0.0		199.17327824281892	
28.0	171.50298368384165	pulse	1.0	t		47.0	male	east_asian	2.171110226820533	neutral	024	sub-03	2.0	5.0	024_neutral	0.0		199.87326535361808	
28.0	172.2029717002065	pulse	1.0	t		47.0	male	east_asian	2.171110226820533	neutral	024	sub-03	2.0	5.0	024_neutral	0.0		200.57325336998292	
28.0	172.90294884979676	pulse	1.0	t		47.0	male	east_asian	2.171110226820533	neutral	024	sub-03	2.0	5.0	024_neutral	0.0		201.2732305195732	
29.0	173.269495066334	face	0.0		145	22.0	female	west_asian	3.8205332272184642	smiling	066	sub-03	2.0	5.0	066_smiling	0.0		201.63977673611043	1.2333165602676672
29.0	173.60294109212873	pulse	0.0	t		22.0	female	west_asian	3.8205332272184642	smiling	066	sub-03	2.0	5.0	066_smiling	0.0		201.97322276190516	
29.0	174.30292126026825	pulse	0.0	t		22.0	female	west_asian	3.8205332272184642	smiling	066	sub-03	2.0	5.0	066_smiling	0.0		202.67320293004468	
29.0	174.50281162660167	fix	1.0		444	22.0	female	west_asian	3.8205332272184642	smiling	066	sub-03	2.0	5.0	066_smiling	0.0		202.8730932963781	3.766571149743868
29.0	175.0029147100181	pulse	1.0	t		22.0	female	west_asian	3.8205332272184642	smiling	066	sub-03	2.0	5.0	066_smiling	0.0		203.37319637979454	
29.0	175.70289095404542	pulse	1.0	t		22.0	female	west_asian	3.8205332272184642	smiling	066	sub-03	2.0	5.0	066_smiling	0.0		204.07317262382185	
29.0	176.40287746113563	pulse	1.0	t		22.0	female	west_asian	3.8205332272184642	smiling	066	sub-03	2.0	5.0	066_smiling	0.0		204.77315913091206	
29.0	177.10286276080615	pulse	1.0	t		22.0	female	west_asian	3.8205332272184642	smiling	066	sub-03	2.0	5.0	066_smiling	0.0		205.47314443058258	
29.0	177.80284896604144	pulse	1.0	t		22.0	female	west_asian	3.8205332272184642	smiling	066	sub-03	2.0	5.0	066_smiling	0.0		206.17313063581787	
30.0	178.26938277634554	face	0.0		145	27.0	female	white	4.181058495821727	smiling	039	sub-03	2.0	5.0	039_smiling	0.0		206.63966444612197	1.2333222955094243
30.0	178.50284030280864	pulse	0.0	t		27.0	female	white	4.181058495821727	smiling	039	sub-03	2.0	5.0	039_smiling	0.0		206.87312197258507	
30.0	179.20279783183696	pulse	0.0	t		27.0	female	white	4.181058495821727	smiling	039	sub-03	2.0	5.0	039_smiling	0.0		207.5730795016134	
30.0	179.50270507185496	fix	1.0		444	27.0	female	white	4.181058495821727	smiling	039	sub-03	2.0	5.0	039_smiling	0.0		207.8729867416314	3.7665723571626586
30.0	179.90279792239335	pulse	1.0	t		27.0	female	white	4.181058495821727	smiling	039	sub-03	2.0	5.0	039_smiling	0.0		208.27307959216978	
30.0	180.60278895730562	pulse	1.0	t		27.0	female	white	4.181058495821727	smiling	039	sub-03	2.0	5.0	039_smiling	0.0		208.97307062708205	
30.0	181.30278089778267	pulse	1.0	t		27.0	female	white	4.181058495821727	smiling	039	sub-03	2.0	5.0	039_smiling	0.0		209.6730625675591	
30.0	182.00275533068043	pulse	1.0	t		27.0	female	white	4.181058495821727	smiling	039	sub-03	2.0	5.0	039_smiling	0.0		210.37303700045686	
30.0	182.70274847857627	pulse	1.0	t		27.0	female	white	4.181058495821727	smiling	039	sub-03	2.0	5.0	039_smiling	0.0		211.0730301483527	
31.0	183.26927742901762	face	0.0		145	37.0	male	white	3.898925586947871	smiling	101	sub-03	2.0	5.0	101_smiling	0.0		211.63955909879405	1.2333235029291245
31.0	183.40273860792377	pulse	0.0	t		37.0	male	white	3.898925586947871	smiling	101	sub-03	2.0	5.0	101_smiling	0.0		211.7730202777002	
31.0	184.1027112296929	pulse	0.0	t		37.0	male	white	3.898925586947871	smiling	101	sub-03	2.0	5.0	101_smiling	0.0		212.47299289946932	
31.0	184.50260093194674	fix	1.0		444	37.0	male	white	3.898925586947871	smiling	101	sub-03	2.0	5.0	101_smiling	0.0		212.87288260172318	3.7665705460340178
31.0	184.80270558500843	pulse	1.0	t		37.0	male	white	3.898925586947871	smiling	101	sub-03	2.0	5.0	101_smiling	0.0		213.17298725478486	
31.0	185.5026839420184	pulse	1.0	t		37.0	male	white	3.898925586947871	smiling	101	sub-03	2.0	5.0	101_smiling	0.0		213.87296561179483	
31.0	186.20266954354383	pulse	1.0	t		37.0	male	white	3.898925586947871	smiling	101	sub-03	2.0	5.0	101_smiling	0.0		214.57295121332027	
31.0	186.90265514507018	pulse	1.0	t		37.0	male	white	3.898925586947871	smiling	101	sub-03	2.0	5.0	101_smiling	0.0		215.27293681484662	
31.0	187.60264708554632	pulse	1.0	t		37.0	male	white	3.898925586947871	smiling	101	sub-03	2.0	5.0	101_smiling	0.0		215.97292875532276	
32.0	188.26917147798076	face	0.0		145	31.0	male	west_asian	1.9538400318344609	neutral	070	sub-03	2.0	5.0	070_neutral	0.0		216.6394531477572	1.23332380478314
32.0	188.30264144086186	pulse	0.0	t		31.0	male	west_asian	1.9538400318344609	neutral	070	sub-03	2.0	5.0	070_neutral	0.0		216.6729231106383	
32.0	189.00261617561455	pulse	0.0	t		31.0	male	west_asian	1.9538400318344609	neutral	070	sub-03	2.0	5.0	070_neutral	0.0		217.37289784539098	
32.0	189.5024952827639	fix	1.0		443	31.0	male	west_asian	1.9538400318344609	neutral	070	sub-03	2.0	5.0	070_neutral	0.0		217.87277695254033	3.7665699423241676
32.0	189.7026084179456	pulse	1.0	t		31.0	male	west_asian	1.9538400318344609	neutral	070	sub-03	2.0	5.0	070_neutral	0.0		218.07289008772204	
32.0	190.40258737866543	pulse	1.0	t		31.0	male	west_asian	1.9538400318344609	neutral	070	sub-03	2.0	5.0	070_neutral	0.0		218.77286904844186	
32.0	191.10256965978851	pulse	1.0	t		31.0	male	west_asian	1.9538400318344609	neutral	070	sub-03	2.0	5.0	070_neutral	0.0		219.47285132956495	
32.0	191.80255616687873	pulse	1.0	t		31.0	male	west_asian	1.9538400318344609	neutral	070	sub-03	2.0	5.0	070_neutral	0.0		220.17283783665516	
32.0	192.5025408628394	pulse	1.0	t		31.0	male	west_asian	1.9538400318344609	neutral	070	sub-03	2.0	5.0	070_neutral	0.0		220.87282253261583	
32.0	193.20252646436575	pulse	1.0	t		31.0	male	west_asian	1.9538400318344609	neutral	070	sub-03	2.0	5.0	070_neutral	0.0		221.57280813414218	
33.0	193.26906522508807	face	0.0		146	40.0	male	black	2.408674890569041	smiling	061	sub-03	2.0	5.0	061_smiling	1.0	trustworthiness	221.6393468948645	1.2333241066380651
33.0	193.90251629185832	pulse	0.0	t		40.0	male	black	2.408674890569041	smiling	061	sub-03	2.0	5.0	061_smiling	1.0	trustworthiness	222.27279796163475	
33.0	194.50238933172614	fix	1.0		177	40.0	male	black	2.408674890569041	smiling	061	sub-03	2.0	5.0	061_smiling	1.0	trustworthiness	222.87267100150257	1.499972078430801
33.0	194.6025024970936	pulse	1.0	t		40.0	male	black	2.408674890569041	smiling	061	sub-03	2.0	5.0	061_smiling	1.0	trustworthiness	222.97278416687004	
33.0	195.30247904297494	pulse	1.0	t		40.0	male	black	2.408674890569041	smiling	061	sub-03	2.0	5.0	061_smiling	1.0	trustworthiness	223.67276071275137	
33.0	196.00236141015694	rating	2.0		294	40.0	male	black	2.408674890569041	smiling	061	sub-03	2.0	5.0	061_smiling	1.0	trustworthiness	224.37264307993337	2.4999452133524755
33.0	195.99738110769204	pulse	2.0	t		40.0	male	black	2.408674890569041	smiling	061	sub-03	2.0	5.0	061_smiling	1.0	trustworthiness	224.36766277746847	
33.0	196.69718287963997	pulse	2.0	t		40.0	male	black	2.408674890569041	smiling	061	sub-03	2.0	5.0	061_smiling	1.0	trustworthiness	225.0674645494164	
33.0	197.39717542382687	pulse	2.0	t		40.0	male	black	2.408674890569041	smiling	061	sub-03	2.0	5.0	061_smiling	1.0	trustworthiness	225.7674570936033	
33.0	197.41914622782633	response	2.0	y		40.0	male	black	2.408674890569041	smiling	061	sub-03	2.0	5.0	061_smiling	1.0	trustworthiness	225.78942789760276	
33.0	198.10241571383676	pulse	2.0	t		40.0	male	black	2.408674890569041	smiling	061	sub-03	2.0	5.0	061_smiling	1.0	trustworthiness	226.4726973836132	
33.0	198.5023066235094	fix	3.0		444	40.0	male	black	2.408674890569041	smiling	061	sub-03	2.0	5.0	061_smiling	1.0	trustworthiness	226.87258829328584	3.758215506824854
33.0	198.8024088617326	pulse	3.0	t		40.0	male	black	2.408674890569041	smiling	061	sub-03	2.0	5.0	061_smiling	1.0	trustworthiness	227.17269053150903	
33.0	199.50238902987212	pulse	3.0	t		40.0	male	black	2.408674890569041	smiling	061	sub-03	2.0	5.0	061_smiling	1.0	trustworthiness	227.87267069964855	
33.0	200.20237282026892	pulse	3.0	t		40.0	male	black	2.408674890569041	smiling	061	sub-03	2.0	5.0	061_smiling	1.0	trustworthiness	228.57265449004535	
33.0	200.90236566630983	pulse	3.0	t		40.0	male	black	2.408674890569041	smiling	061	sub-03	2.0	5.0	061_smiling	1.0	trustworthiness	229.27264733608627	
33.0	201.60234311775594	pulse	3.0	t		40.0	male	black	2.408674890569041	smiling	061	sub-03	2.0	5.0	061_smiling	1.0	trustworthiness	229.97262478753237	
34.0	202.26052213033427	face	0.0		146	47.0	male	east_asian	2.171110226820533	smiling	024	sub-03	2.0	5.0	024_smiling	0.0		230.6308038001107	1.241677334718588
34.0	202.30233868049027	pulse	0.0	t		47.0	male	east_asian	2.171110226820533	smiling	024	sub-03	2.0	5.0	024_smiling	0.0		230.6726203502667	
34.0	203.00232005604857	pulse	0.0	t		47.0	male	east_asian	2.171110226820533	smiling	024	sub-03	2.0	5.0	024_smiling	0.0		231.372601725825	
34.0	203.50219946505285	fix	1.0		443	47.0	male	east_asian	2.171110226820533	smiling	024	sub-03	2.0	5.0	024_smiling	0.0		231.8724811348293	3.7665796016781314
34.0	203.70230595942894	pulse	1.0	t		47.0	male	east_asian	2.171110226820533	smiling	024	sub-03	2.0	5.0	024_smiling	0.0		232.07258762920537	
34.0	204.40228371272906	pulse	1.0	t		47.0	male	east_asian	2.171110226820533	smiling	024	sub-03	2.0	5.0	024_smiling	0.0		232.7725653825055	
34.0	205.10226750312586	pulse	1.0	t		47.0	male	east_asian	2.171110226820533	smiling	024	sub-03	2.0	5.0	024_smiling	0.0		233.4725491729023	
34.0	205.8022555194907	pulse	1.0	t		47.0	male	east_asian	2.171110226820533	smiling	024	sub-03	2.0	5.0	024_smiling	0.0		234.17253718926713	
34.0	206.5022405173063	pulse	1.0	t		47.0	male	east_asian	2.171110226820533	smiling	024	sub-03	2.0	5.0	024_smiling	0.0		234.87252218708272	
34.0	207.2022345707669	pulse	1.0	t		47.0	male	east_asian	2.171110226820533	smiling	024	sub-03	2.0	5.0	024_smiling	0.0		235.57251624054334	
35.0	207.26877906673099	face	0.0		146	28.0	female	white	5.676880222841227	neutral	124	sub-03	2.0	5.0	124_neutral	0.0		235.63906073650742	1.2333171639775173
35.0	207.9022207760022	pulse	0.0	t		28.0	female	white	5.676880222841227	neutral	124	sub-03	2.0	5.0	124_neutral	0.0		236.27250244577863	
35.0	208.5020962307085	fix	1.0		443	28.0	female	white	5.676880222841227	neutral	124	sub-03	2.0	5.0	124_neutral	0.0		236.87237790048493	3.766566018211961
35.0	208.60220547196377	pulse	1.0	t		28.0	female	white	5.676880222841227	neutral	124	sub-03	2.0	5.0	124_neutral	0.0		236.9724871417402	
35.0	209.30218896050565	pulse	1.0	t		28.0	female	white	5.676880222841227	neutral	124	sub-03	2.0	5.0	124_neutral	0.0		237.67247063028208	
35.0	210.0021594692912	pulse	1.0	t		28.0	female	white	5.676880222841227	neutral	124	sub-03	2.0	5.0	124_neutral	0.0		238.37244113906763	
35.0	210.7021508060575	pulse	1.0	t		28.0	female	white	5.676880222841227	neutral	124	sub-03	2.0	5.0	124_neutral	0.0		239.07243247583392	
35.0	211.40213882242233	pulse	1.0	t		28.0	female	white	5.676880222841227	neutral	124	sub-03	2.0	5.0	124_neutral	0.0		239.77242049219876	
35.0	212.1021198961257	pulse	1.0	t		28.0	female	white	5.676880222841227	neutral	124	sub-03	2.0	5.0	124_neutral	0.0		240.47240156590215	
36.0	212.26866224892046	face	0.0		146	19.0	male	white	2.243931555909272	smiling	130	sub-03	2.0	5.0	130_smiling	0.0		240.6389439186969	1.2333093157531039
36.0	212.80211545886004	pulse	0.0	t		19.0	male	white	2.243931555909272	smiling	130	sub-03	2.0	5.0	130_smiling	0.0		241.17239712863648	
36.0	213.50197156467357	fix	1.0		444	19.0	male	white	2.243931555909272	smiling	130	sub-03	2.0	5.0	130_smiling	0.0		241.87225323445	3.766588053612395
36.0	213.509523066386	pulse	1.0	t		19.0	male	white	2.243931555909272	smiling	130	sub-03	2.0	5.0	130_smiling	0.0		241.87980473616244	
36.0	214.20208394521842	pulse	1.0	t		19.0	male	white	2.243931555909272	smiling	130	sub-03	2.0	5.0	130_smiling	0.0		242.57236561499485	
36.0	214.9020598873899	pulse	1.0	t		19.0	male	white	2.243931555909272	smiling	130	sub-03	2.0	5.0	130_smiling	0.0		243.27234155716633	
36.0	215.60204699818996	pulse	1.0	t		19.0	male	white	2.243931555909272	smiling	130	sub-03	2.0	5.0	130_smiling	0.0		243.9723286679664	
36.0	216.30203441084404	pulse	1.0	t		19.0	male	white	2.243931555909272	smiling	130	sub-03	2.0	5.0	130_smiling	0.0		244.67231608062048	
36.0	217.0020148808385	pulse	1.0	t		19.0	male	white	2.243931555909272	smiling	130	sub-03	2.0	5.0	130_smiling	0.0		245.37229655061492	
37.0	217.26855961828596	face	0.0		145	34.0	male	white	2.651014723438122	neutral	121	sub-03	2.0	5.0	121_neutral	0.0		245.6388412880624	1.2333213899455586
37.0	217.70201738623336	pulse	0.0	t		34.0	male	white	2.651014723438122	neutral	121	sub-03	2.0	5.0	121_neutral	0.0		246.0722990560098	
37.0	218.40199061171143	pulse	0.0	t		34.0	male	white	2.651014723438122	neutral	121	sub-03	2.0	5.0	121_neutral	0.0		246.77227228148786	
37.0	218.50188100823152	fix	1.0		444	34.0	male	white	2.651014723438122	neutral	121	sub-03	2.0	5.0	121_neutral	0.0		246.87216267800795	3.7583579822930915
37.0	219.10198013734998	pulse	1.0	t		34.0	male	white	2.651014723438122	neutral	121	sub-03	2.0	5.0	121_neutral	0.0		247.47226180712642	
37.0	219.8019551739576	pulse	1.0	t		34.0	male	white	2.651014723438122	neutral	121	sub-03	2.0	5.0	121_neutral	0.0		248.17223684373403	
37.0	220.5019440958854	pulse	1.0	t		34.0	male	white	2.651014723438122	neutral	121	sub-03	2.0	5.0	121_neutral	0.0		248.87222576566182	
37.0	221.20193271595917	pulse	1.0	t		34.0	male	white	2.651014723438122	neutral	121	sub-03	2.0	5.0	121_neutral	0.0		249.5722143857356	
37.0	221.90191016740528	pulse	1.0	t		34.0	male	white	2.651014723438122	neutral	121	sub-03	2.0	5.0	121_neutral	0.0		250.2721918371817	
38.0	222.2602389905246	face	0.0		146	26.0	male	white	2.7966573816155993	smiling	117	sub-03	2.0	5.0	117_smiling	0.0		250.63052066030104	1.241537575942857
38.0	222.6019081449781	pulse	0.0	t		26.0	male	white	2.7966573816155993	smiling	117	sub-03	2.0	5.0	117_smiling	0.0		250.97218981475453	
38.0	223.30188861497254	pulse	0.0	t		26.0	male	white	2.7966573816155993	smiling	117	sub-03	2.0	5.0	117_smiling	0.0		251.67217028474897	
38.0	223.50177656646747	fix	1.0		444	26.0	male	white	2.7966573816155993	smiling	117	sub-03	2.0	5.0	117_smiling	0.0		251.8720582362439	3.7582674258519546
38.0	224.00187753690125	pulse	1.0	t		26.0	male	white	2.7966573816155993	smiling	117	sub-03	2.0	5.0	117_smiling	0.0		252.37215920667768	
38.0	224.7018607235882	pulse	1.0	t		26.0	male	white	2.7966573816155993	smiling	117	sub-03	2.0	5.0	117_smiling	0.0		253.07214239336463	
38.0	225.40184421213007	pulse	1.0	t		26.0	male	white	2.7966573816155993	smiling	117	sub-03	2.0	5.0	117_smiling	0.0		253.7721258819065	
38.0	226.10182045615647	pulse	1.0	t		26.0	male	white	2.7966573816155993	smiling	117	sub-03	2.0	5.0	117_smiling	0.0		254.4721021259329	
38.0	226.80180635953775	pulse	1.0	t		26.0	male	white	2.7966573816155993	smiling	117	sub-03	2.0	5.0	117_smiling	0.0		255.17208802931418	
39.0	227.26004399231942	face	0.0		146	31.0	female	west_asian	2.364902506963788	neutral	006	sub-03	2.0	5.0	006_neutral	0.0		255.63032566209586	1.2416142470638079
39.0	227.50180524267444	pulse	0.0	t		31.0	female	west_asian	2.364902506963788	neutral	006	sub-03	2.0	5.0	006_neutral	0.0		255.87208691245087	
39.0	228.20177937371727	pulse	0.0	t		31.0	female	west_asian	2.364902506963788	neutral	006	sub-03	2.0	5.0	006_neutral	0.0		256.5720610434937	
39.0	228.50165823938323	fix	1.0		444	31.0	female	west_asian	2.364902506963788	neutral	006	sub-03	2.0	5.0	006_neutral	0.0		256.87193990915966	3.749934422043225
39.0	228.90177674758115	pulse	1.0	t		31.0	female	west_asian	2.364902506963788	neutral	006	sub-03	2.0	5.0	006_neutral	0.0		257.2720584173576	
39.0	229.6017523878977	pulse	1.0	t		31.0	female	west_asian	2.364902506963788	neutral	006	sub-03	2.0	5.0	006_neutral	0.0		257.97203405767414	
39.0	230.30172017998984	pulse	1.0	t		31.0	female	west_asian	2.364902506963788	neutral	006	sub-03	2.0	5.0	006_neutral	0.0		258.6720018497663	
39.0	231.0017287224805	pulse	1.0	t		31.0	female	west_asian	2.364902506963788	neutral	006	sub-03	2.0	5.0	006_neutral	0.0		259.3720103922569	
39.0	231.7017061739266	pulse	1.0	t		31.0	female	west_asian	2.364902506963788	neutral	006	sub-03	2.0	5.0	006_neutral	0.0		260.071987843703	
40.0	232.25159266142646	fix	0.0		720													260.6218743312029	5.999871409851949
40.0	232.40170445335434	pulse	0.0	t														260.7719861231308	
40.0	233.1016773769784	pulse	0.0	t														261.4719590467548	
40.0	233.8017019177737	pulse	0.0	t														262.17198358755013	
40.0	234.5016552208349	pulse	0.0	t														262.8719368906113	
40.0	235.20163297413592	pulse	0.0	t														263.57191464391235	
40.0	235.90161948122613	pulse	0.0	t														264.27190115100257	
40.0	236.60160115863937	pulse	0.0	t														264.9718828284158	
40.0	237.30159611766385	pulse	0.0	t														265.6718777874403	
40.0	238.00157266354518	pulse	0.0	t														266.3718543333216	
