trial_nr	onset	event_type	phase	response	nr_frames	face_age	face_sex	face_eth	attractiveness	expression	face_id	sub_id	ses	run	trial_type	catch	rating_type	onset_abs	duration
-1.0	0.06059071174649944	fix	0.0		713													22.966933315141432	5.957922949145541
-1.0	0.7021025092885793	pulse	0.0	t														23.608445112683512	
-1.0	1.4020772440412657	pulse	0.0	t														24.3084198474362	
-1.0	2.1020462435526497	pulse	0.0	t														25.008388846947582	
-1.0	2.8020372784649226	pulse	0.0	t														25.708379881859855	
-1.0	3.5020234837002135	pulse	0.0	t														26.408366087095146	
-1.0	4.202003953694202	pulse	0.0	t														27.108346557089135	
-1.0	4.901987442236077	pulse	0.0	t														27.80833004563101	
-1.0	5.6019790808582	pulse	0.0	t														28.508321684253133	
0.0	6.01851366089204	face	0.0		144	22.0	male	black	2.767608436132113	smiling	044	sub-03	2.0	3.0	044_smiling	0.0		28.924856264286973	1.2333165602676672
0.0	6.3019658898028865	pulse	0.0	t		22.0	male	black	2.767608436132113	smiling	044	sub-03	2.0	3.0	044_smiling	0.0		29.20830849319782	
0.0	7.001946963506725	pulse	0.0	t		22.0	male	black	2.767608436132113	smiling	044	sub-03	2.0	3.0	044_smiling	0.0		29.908289566901658	
0.0	7.251830221159707	fix	1.0		445	22.0	male	black	2.767608436132113	smiling	044	sub-03	2.0	3.0	044_smiling	0.0		30.15817282455464	3.7582411644834792
0.0	7.701937696564073	pulse	1.0	t		22.0	male	black	2.767608436132113	smiling	044	sub-03	2.0	3.0	044_smiling	0.0		30.608280299959006	
0.0	8.401924203653834	pulse	1.0	t		22.0	male	black	2.767608436132113	smiling	044	sub-03	2.0	3.0	044_smiling	0.0		31.308266807048767	
0.0	9.101897730987275	pulse	1.0	t		22.0	male	black	2.767608436132113	smiling	044	sub-03	2.0	3.0	044_smiling	0.0		32.00824033438221	
0.0	9.801886049206587	pulse	1.0	t		22.0	male	black	2.767608436132113	smiling	044	sub-03	2.0	3.0	044_smiling	0.0		32.70822865260152	
0.0	10.501872556296348	pulse	1.0	t		22.0	male	black	2.767608436132113	smiling	044	sub-03	2.0	3.0	044_smiling	0.0		33.40821515969128	
1.0	11.010071385643187	face	0.0		146	23.0	male	white	2.6275368085953046	neutral	141	sub-03	2.0	3.0	141_neutral	0.0		33.91641398903812	1.2416556011726243
1.0	11.201865704192187	pulse	0.0	t		23.0	male	white	2.6275368085953046	neutral	141	sub-03	2.0	3.0	141_neutral	0.0		34.10820830758712	
1.0	11.901839533380553	pulse	0.0	t		23.0	male	white	2.6275368085953046	neutral	141	sub-03	2.0	3.0	141_neutral	0.0		34.808182136775486	
1.0	12.251726986815811	fix	1.0		445	23.0	male	white	2.6275368085953046	neutral	141	sub-03	2.0	3.0	141_neutral	0.0		35.158069590210744	3.7582393533543836
1.0	12.601834492405487	pulse	1.0	t		23.0	male	white	2.6275368085953046	neutral	141	sub-03	2.0	3.0	141_neutral	0.0		35.50817709580042	
1.0	13.30181073643189	pulse	1.0	t		23.0	male	white	2.6275368085953046	neutral	141	sub-03	2.0	3.0	141_neutral	0.0		36.20815333982682	
1.0	14.001791810135728	pulse	1.0	t		23.0	male	white	2.6275368085953046	neutral	141	sub-03	2.0	3.0	141_neutral	0.0		36.90813441353066	
1.0	14.701782543193076	pulse	1.0	t		23.0	male	white	2.6275368085953046	neutral	141	sub-03	2.0	3.0	141_neutral	0.0		37.60812514658801	
1.0	15.401765428025556	pulse	1.0	t		23.0	male	white	2.6275368085953046	neutral	141	sub-03	2.0	3.0	141_neutral	0.0		38.30810803142049	
2.0	16.009966340170195	face	0.0		146	26.0	female	white	4.854755272582572	smiling	027	sub-03	2.0	3.0	027_smiling	0.0		38.91630894356513	1.2416528844792083
2.0	16.10175917963079	pulse	0.0	t		26.0	female	white	4.854755272582572	smiling	027	sub-03	2.0	3.0	027_smiling	0.0		39.00810178302572	
2.0	16.80173572551257	pulse	0.0	t		26.0	female	white	4.854755272582572	smiling	027	sub-03	2.0	3.0	027_smiling	0.0		39.708078328907504	
2.0	17.251619224649403	fix	1.0		444	26.0	female	white	4.854755272582572	smiling	027	sub-03	2.0	3.0	027_smiling	0.0		40.157961828044336	3.7582345236778565
2.0	17.501730080827656	pulse	1.0	t		26.0	female	white	4.854755272582572	smiling	027	sub-03	2.0	3.0	027_smiling	0.0		40.40807268422259	
2.0	18.201704513725417	pulse	1.0	t		26.0	female	white	4.854755272582572	smiling	027	sub-03	2.0	3.0	027_smiling	0.0		41.10804711712035	
2.0	18.901688304122217	pulse	1.0	t		26.0	female	white	4.854755272582572	smiling	027	sub-03	2.0	3.0	027_smiling	0.0		41.80803090751715	
2.0	19.601685677985188	pulse	1.0	t		26.0	female	white	4.854755272582572	smiling	027	sub-03	2.0	3.0	027_smiling	0.0		42.50802828138012	
2.0	20.301656790480138	pulse	1.0	t		26.0	female	white	4.854755272582572	smiling	027	sub-03	2.0	3.0	027_smiling	0.0		43.20799939387507	
3.0	21.00985374832726	face	0.0		147	25.0	female	west_asian	2.6756864305610826	neutral	064	sub-03	2.0	3.0	064_neutral	0.0		43.91619635172219	1.241661638268397
3.0	21.00272001366784	pulse	0.0	t		25.0	female	west_asian	2.6756864305610826	neutral	064	sub-03	2.0	3.0	064_neutral	0.0		43.90906261706277	
3.0	21.7016340306277	pulse	0.0	t		25.0	female	west_asian	2.6756864305610826	neutral	064	sub-03	2.0	3.0	064_neutral	0.0		44.607976634022634	
3.0	22.251515386595656	fix	1.0		443	25.0	female	west_asian	2.6756864305610826	neutral	064	sub-03	2.0	3.0	064_neutral	0.0		45.15785798999059	3.7582372403712725
3.0	22.401626574814145	pulse	1.0	t		25.0	female	west_asian	2.6756864305610826	neutral	064	sub-03	2.0	3.0	064_neutral	0.0		45.30796917820908	
3.0	23.101606139243813	pulse	1.0	t		25.0	female	west_asian	2.6756864305610826	neutral	064	sub-03	2.0	3.0	064_neutral	0.0		46.007948742638746	
3.0	23.80159204262418	pulse	1.0	t		25.0	female	west_asian	2.6756864305610826	neutral	064	sub-03	2.0	3.0	064_neutral	0.0		46.70793464601911	
3.0	24.501573116327563	pulse	1.0	t		25.0	female	west_asian	2.6756864305610826	neutral	064	sub-03	2.0	3.0	064_neutral	0.0		47.407915719722496	
3.0	25.201556906724818	pulse	1.0	t		25.0	female	west_asian	2.6756864305610826	neutral	064	sub-03	2.0	3.0	064_neutral	0.0		48.10789951011975	
3.0	25.901550658330052	pulse	1.0	t		25.0	female	west_asian	2.6756864305610826	neutral	064	sub-03	2.0	3.0	064_neutral	0.0		48.807893261724985	
4.0	26.00975262696693	face	0.0		147	19.0	female	white	4.298846000795861	neutral	100	sub-03	2.0	3.0	100_neutral	0.0		48.91609523036186	1.241656808591415
4.0	26.601536259855948	pulse	0.0	t		19.0	female	white	4.298846000795861	neutral	100	sub-03	2.0	3.0	100_neutral	0.0		49.50787886325088	
4.0	27.251409435558344	fix	1.0		444	19.0	female	white	4.298846000795861	neutral	100	sub-03	2.0	3.0	100_neutral	0.0		50.15775203895328	3.7582514275468384
4.0	27.301517635414257	pulse	1.0	t		19.0	female	white	4.298846000795861	neutral	100	sub-03	2.0	3.0	100_neutral	0.0		50.20786023880919	
4.0	28.001507462907284	pulse	1.0	t		19.0	female	white	4.298846000795861	neutral	100	sub-03	2.0	3.0	100_neutral	0.0		50.90785006630222	
4.0	28.701490649594234	pulse	1.0	t		19.0	female	white	4.298846000795861	neutral	100	sub-03	2.0	3.0	100_neutral	0.0		51.60783325298917	
4.0	29.40147534555581	pulse	1.0	t		19.0	female	white	4.298846000795861	neutral	100	sub-03	2.0	3.0	100_neutral	0.0		52.30781794895074	
4.0	30.101455815549798	pulse	1.0	t		19.0	female	white	4.298846000795861	neutral	100	sub-03	2.0	3.0	100_neutral	0.0		53.00779841894473	
4.0	30.801445944897296	pulse	1.0	t		19.0	female	white	4.298846000795861	neutral	100	sub-03	2.0	3.0	100_neutral	0.0		53.70778854829223	
5.0	31.009660863105182	face	0.0		146	31.0	male	west_asian	1.9538400318344609	smiling	070	sub-03	2.0	3.0	070_smiling	0.0		53.916003466500115	1.2416414139966037
5.0	31.501447544727853	pulse	0.0	t		31.0	male	west_asian	1.9538400318344609	smiling	070	sub-03	2.0	3.0	070_smiling	0.0		54.407790148122785	
5.0	32.20141111085286	pulse	0.0	t		31.0	male	west_asian	1.9538400318344609	smiling	070	sub-03	2.0	3.0	070_smiling	0.0		55.10775371424779	
5.0	32.251302277101786	fix	1.0		445	31.0	male	west_asian	1.9538400318344609	smiling	070	sub-03	2.0	3.0	070_smiling	0.0		55.15764488049672	3.766573564582359
5.0	32.90140184391021	pulse	1.0	t		31.0	male	west_asian	1.9538400318344609	smiling	070	sub-03	2.0	3.0	070_smiling	0.0		55.80774444730514	
5.0	33.60138895470982	pulse	1.0	t		31.0	male	west_asian	1.9538400318344609	smiling	070	sub-03	2.0	3.0	070_smiling	0.0		56.50773155810475	
5.0	34.301365198736676	pulse	1.0	t		31.0	male	west_asian	1.9538400318344609	smiling	070	sub-03	2.0	3.0	070_smiling	0.0		57.20770780213161	
5.0	35.00136287445457	pulse	1.0	t		31.0	male	west_asian	1.9538400318344609	smiling	070	sub-03	2.0	3.0	070_smiling	0.0		57.907705477849504	
5.0	35.701332779530276	pulse	1.0	t		31.0	male	west_asian	1.9538400318344609	smiling	070	sub-03	2.0	3.0	070_smiling	0.0		58.60767538292521	
6.0	36.017875841684145	face	0.0		145	31.0	female	white	2.1822522881018704	smiling	102	sub-03	2.0	3.0	102_smiling	0.0		58.92421844507908	1.2333210880901788
6.0	36.40133287008666	pulse	0.0	t		31.0	female	white	2.1822522881018704	smiling	102	sub-03	2.0	3.0	102_smiling	0.0		59.307675473481595	
6.0	37.1013070011295	pulse	0.0	t		31.0	female	white	2.1822522881018704	smiling	102	sub-03	2.0	3.0	102_smiling	0.0		60.00764960452443	
6.0	37.25119692977432	fix	1.0		445	31.0	female	white	2.1822522881018704	smiling	102	sub-03	2.0	3.0	102_smiling	0.0		60.157539533169256	3.766571149743868
6.0	37.80129924346102	pulse	1.0	t		31.0	female	white	2.1822522881018704	smiling	102	sub-03	2.0	3.0	102_smiling	0.0		60.70764184685595	
6.0	38.50128092087425	pulse	1.0	t		31.0	female	white	2.1822522881018704	smiling	102	sub-03	2.0	3.0	102_smiling	0.0		61.407623524269184	
6.0	39.201263503851806	pulse	1.0	t		31.0	female	white	2.1822522881018704	smiling	102	sub-03	2.0	3.0	102_smiling	0.0		62.10760610724674	
6.0	39.90124427570072	pulse	1.0	t		31.0	female	white	2.1822522881018704	smiling	102	sub-03	2.0	3.0	102_smiling	0.0		62.80758687909565	
6.0	40.60123500875807	pulse	1.0	t		31.0	female	white	2.1822522881018704	smiling	102	sub-03	2.0	3.0	102_smiling	0.0		63.507577612153	
7.0	41.01776807951819	face	0.0		145	36.0	female	white	2.7548746518105847	neutral	011	sub-03	2.0	3.0	011_neutral	0.0		63.924110682913124	1.2333225973638946
7.0	41.30122845850883	pulse	0.0	t		36.0	female	white	2.7548746518105847	neutral	011	sub-03	2.0	3.0	011_neutral	0.0		64.20757106190376	
7.0	42.00120500439016	pulse	0.0	t		36.0	female	white	2.7548746518105847	neutral	011	sub-03	2.0	3.0	011_neutral	0.0		64.90754760778509	
7.0	42.251090676882086	fix	1.0		445	36.0	female	white	2.7548746518105847	neutral	011	sub-03	2.0	3.0	011_neutral	0.0		65.15743328027702	3.766573866437284
7.0	42.701194831883186	pulse	1.0	t		36.0	female	white	2.7548746518105847	neutral	011	sub-03	2.0	3.0	011_neutral	0.0		65.60753743527812	
7.0	43.40117952784476	pulse	1.0	t		36.0	female	white	2.7548746518105847	neutral	011	sub-03	2.0	3.0	011_neutral	0.0		66.3075221312397	
7.0	44.101161507112465	pulse	1.0	t		36.0	female	white	2.7548746518105847	neutral	011	sub-03	2.0	3.0	011_neutral	0.0		67.0075041105074	
7.0	44.801142580816304	pulse	1.0	t		36.0	female	white	2.7548746518105847	neutral	011	sub-03	2.0	3.0	011_neutral	0.0		67.70748518421124	
7.0	45.501139049114954	pulse	1.0	t		36.0	female	white	2.7548746518105847	neutral	011	sub-03	2.0	3.0	011_neutral	0.0		68.40748165250989	
8.0	46.01766454331937	face	0.0		145	28.0	male	white	3.9076800636689217	smiling	033	sub-03	2.0	3.0	033_smiling	0.0		68.9240071467143	1.2333099194620445
8.0	46.20111921725402	pulse	0.0	t		28.0	male	white	3.9076800636689217	smiling	033	sub-03	2.0	3.0	033_smiling	0.0		69.10746182064895	
8.0	46.901093046442384	pulse	0.0	t		28.0	male	white	3.9076800636689217	smiling	033	sub-03	2.0	3.0	033_smiling	0.0		69.80743564983732	
8.0	47.250974462781414	fix	1.0		444	28.0	male	white	3.9076800636689217	smiling	033	sub-03	2.0	3.0	033_smiling	0.0		70.15731706617635	3.766584129500643
8.0	47.6010852887739	pulse	1.0	t		28.0	male	white	3.9076800636689217	smiling	033	sub-03	2.0	3.0	033_smiling	0.0		70.50742789216883	
8.0	48.30107300328291	pulse	1.0	t		28.0	male	white	3.9076800636689217	smiling	033	sub-03	2.0	3.0	033_smiling	0.0		71.20741560667784	
8.0	49.001057699244484	pulse	1.0	t		28.0	male	white	3.9076800636689217	smiling	033	sub-03	2.0	3.0	033_smiling	0.0		71.90740030263942	
8.0	49.70104752673751	pulse	1.0	t		28.0	male	white	3.9076800636689217	smiling	033	sub-03	2.0	3.0	033_smiling	0.0		72.60739013013244	
8.0	50.401026185602404	pulse	1.0	t		28.0	male	white	3.9076800636689217	smiling	033	sub-03	2.0	3.0	033_smiling	0.0		73.30736878899734	
9.0	51.01755859228206	face	0.0		145	28.0	male	east_asian	1.5563072025467568	smiling	005	sub-03	2.0	3.0	005_smiling	1.0	attractiveness	73.92390119567699	1.2333204843803287
9.0	51.10101903164377	pulse	0.0	t		28.0	male	east_asian	1.5563072025467568	smiling	005	sub-03	2.0	3.0	005_smiling	1.0	attractiveness	74.0073616350387	
9.0	51.80099738865374	pulse	0.0	t		28.0	male	east_asian	1.5563072025467568	smiling	005	sub-03	2.0	3.0	005_smiling	1.0	attractiveness	74.70733999204867	
9.0	52.250879076662386	fix	1.0		177	28.0	male	east_asian	1.5563072025467568	smiling	005	sub-03	2.0	3.0	005_smiling	1.0	attractiveness	75.15722168005732	1.5083334565906625
9.0	52.50098872542094	pulse	1.0	t		28.0	male	east_asian	1.5563072025467568	smiling	005	sub-03	2.0	3.0	005_smiling	1.0	attractiveness	75.40733132881587	
9.0	53.200964969447796	pulse	1.0	t		28.0	male	east_asian	1.5563072025467568	smiling	005	sub-03	2.0	3.0	005_smiling	1.0	attractiveness	76.10730757284273	
9.0	53.75921253325305	rating	2.0		293	28.0	male	east_asian	1.5563072025467568	smiling	005	sub-03	2.0	3.0	005_smiling	1.0	attractiveness	76.66555513664798	2.491582325917989
9.0	53.90096113589152	pulse	2.0	t		28.0	male	east_asian	1.5563072025467568	smiling	005	sub-03	2.0	3.0	005_smiling	1.0	attractiveness	76.80730373928645	
9.0	54.60094160588551	pulse	2.0	t		28.0	male	east_asian	1.5563072025467568	smiling	005	sub-03	2.0	3.0	005_smiling	1.0	attractiveness	77.50728420928044	
9.0	55.30092388700814	pulse	2.0	t		28.0	male	east_asian	1.5563072025467568	smiling	005	sub-03	2.0	3.0	005_smiling	1.0	attractiveness	78.20726649040307	
9.0	56.00090737555047	pulse	2.0	t		28.0	male	east_asian	1.5563072025467568	smiling	005	sub-03	2.0	3.0	005_smiling	1.0	attractiveness	78.9072499789454	
9.0	56.017611416873024	response	2.0	d		28.0	male	east_asian	1.5563072025467568	smiling	005	sub-03	2.0	3.0	005_smiling	1.0	attractiveness	78.92395402026796	
9.0	56.25079485917104	fix	3.0		444	28.0	male	east_asian	1.5563072025467568	smiling	005	sub-03	2.0	3.0	005_smiling	1.0	attractiveness	79.15713746256597	3.7665753757109997
9.0	56.700895693769326	pulse	3.0	t		28.0	male	east_asian	1.5563072025467568	smiling	005	sub-03	2.0	3.0	005_smiling	1.0	attractiveness	79.60723829716426	
9.0	57.400878578601805	pulse	3.0	t		28.0	male	east_asian	1.5563072025467568	smiling	005	sub-03	2.0	3.0	005_smiling	1.0	attractiveness	80.30722118199674	
9.0	58.10085482262866	pulse	3.0	t		28.0	male	east_asian	1.5563072025467568	smiling	005	sub-03	2.0	3.0	005_smiling	1.0	attractiveness	81.0071974260236	
9.0	58.8008537057658	pulse	3.0	t		28.0	male	east_asian	1.5563072025467568	smiling	005	sub-03	2.0	3.0	005_smiling	1.0	attractiveness	81.70719630916074	
9.0	59.50083719430768	pulse	3.0	t		28.0	male	east_asian	1.5563072025467568	smiling	005	sub-03	2.0	3.0	005_smiling	1.0	attractiveness	82.40717979770261	
10.0	60.01737023488204	face	0.0		145	31.0	female	white	2.1822522881018704	neutral	102	sub-03	2.0	3.0	102_neutral	0.0		82.92371283827697	1.2333198806709333
10.0	60.200825210672065	pulse	0.0	t		31.0	female	white	2.1822522881018704	neutral	102	sub-03	2.0	3.0	102_neutral	0.0		83.107167814067	
10.0	60.900809001068865	pulse	0.0	t		31.0	female	white	2.1822522881018704	neutral	102	sub-03	2.0	3.0	102_neutral	0.0		83.8071516044638	
10.0	61.25069011555297	fix	1.0		444	31.0	female	white	2.1822522881018704	neutral	102	sub-03	2.0	3.0	102_neutral	0.0		84.1570327189479	3.7665723571631133
10.0	61.60079762114265	pulse	1.0	t		31.0	female	white	2.1822522881018704	neutral	102	sub-03	2.0	3.0	102_neutral	0.0		84.50714022453758	
10.0	62.30077084662116	pulse	1.0	t		31.0	female	white	2.1822522881018704	neutral	102	sub-03	2.0	3.0	102_neutral	0.0		85.2071134500161	
10.0	63.00076007040434	pulse	1.0	t		31.0	female	white	2.1822522881018704	neutral	102	sub-03	2.0	3.0	102_neutral	0.0		85.90710267379927	
10.0	63.700748086768726	pulse	1.0	t		31.0	female	white	2.1822522881018704	neutral	102	sub-03	2.0	3.0	102_neutral	0.0		86.60709069016366	
10.0	64.40070953990971	pulse	1.0	t		31.0	female	white	2.1822522881018704	neutral	102	sub-03	2.0	3.0	102_neutral	0.0		87.30705214330465	
11.0	65.01726247271608	face	0.0		145	32.0	male	white	2.389176283326701	smiling	092	sub-03	2.0	3.0	092_smiling	0.0		87.92360507611102	1.2333213899446491
11.0	65.10071174344966	pulse	0.0	t		32.0	male	white	2.389176283326701	smiling	092	sub-03	2.0	3.0	092_smiling	0.0		88.0070543468446	
11.0	65.80070308021686	pulse	0.0	t		32.0	male	white	2.389176283326701	smiling	092	sub-03	2.0	3.0	092_smiling	0.0		88.7070456836118	
11.0	66.25058386266073	fix	1.0		444	32.0	male	white	2.389176283326701	smiling	092	sub-03	2.0	3.0	092_smiling	0.0		89.15692646605567	3.7582221476304767
11.0	66.50069200214557	pulse	1.0	t		32.0	male	white	2.389176283326701	smiling	092	sub-03	2.0	3.0	092_smiling	0.0		89.4070346055405	
11.0	67.20067488697805	pulse	1.0	t		32.0	male	white	2.389176283326701	smiling	092	sub-03	2.0	3.0	092_smiling	0.0		90.10701749037298	
11.0	67.90064962173028	pulse	1.0	t		32.0	male	white	2.389176283326701	smiling	092	sub-03	2.0	3.0	092_smiling	0.0		90.80699222512521	
11.0	68.60064548631954	pulse	1.0	t		32.0	male	white	2.389176283326701	smiling	092	sub-03	2.0	3.0	092_smiling	0.0		91.50698808971447	
11.0	69.30063018228111	pulse	1.0	t		32.0	male	white	2.389176283326701	smiling	092	sub-03	2.0	3.0	092_smiling	0.0		92.20697278567604	
12.0	70.00880601029121	face	0.0		147	28.0	female	white	5.676880222841227	neutral	124	sub-03	2.0	3.0	124_neutral	0.0		92.91514861368614	1.2416712976223607
12.0	70.0027055246369	pulse	0.0	t		28.0	female	white	5.676880222841227	neutral	124	sub-03	2.0	3.0	124_neutral	0.0		92.90904812803183	
12.0	70.70059897049396	pulse	0.0	t		28.0	female	white	5.676880222841227	neutral	124	sub-03	2.0	3.0	124_neutral	0.0		93.60694157388889	
12.0	71.25047730791357	fix	1.0		443	28.0	female	white	5.676880222841227	neutral	124	sub-03	2.0	3.0	124_neutral	0.0		94.1568199113085	3.766579299823661
12.0	71.40058698685789	pulse	1.0	t		28.0	female	white	5.676880222841227	neutral	124	sub-03	2.0	3.0	124_neutral	0.0		94.30692959025282	
12.0	72.10056141975565	pulse	1.0	t		28.0	female	white	5.676880222841227	neutral	124	sub-03	2.0	3.0	124_neutral	0.0		95.00690402315058	
12.0	72.80055698248998	pulse	1.0	t		28.0	female	white	5.676880222841227	neutral	124	sub-03	2.0	3.0	124_neutral	0.0		95.70689958588491	
12.0	73.5005434895802	pulse	1.0	t		28.0	female	white	5.676880222841227	neutral	124	sub-03	2.0	3.0	124_neutral	0.0		96.40688609297513	
12.0	74.20052245030001	pulse	1.0	t		28.0	female	white	5.676880222841227	neutral	124	sub-03	2.0	3.0	124_neutral	0.0		97.10686505369495	
12.0	74.9004971850527	pulse	1.0	t		28.0	female	white	5.676880222841227	neutral	124	sub-03	2.0	3.0	124_neutral	0.0		97.80683978844763	
13.0	75.01705660773723	face	0.0		146	19.0	male	white	2.243931555909272	neutral	130	sub-03	2.0	3.0	130_neutral	1.0	attractiveness	97.92339921113216	1.2333171639775173
13.0	75.60049757746401	pulse	0.0	t		19.0	male	white	2.243931555909272	neutral	130	sub-03	2.0	3.0	130_neutral	1.0	attractiveness	98.50684018085894	
13.0	76.25037377171475	fix	1.0		176	19.0	male	white	2.243931555909272	neutral	130	sub-03	2.0	3.0	130_neutral	1.0	attractiveness	99.15671637510968	1.4999678524632145
13.0	76.30048800866689	pulse	1.0	t		19.0	male	white	2.243931555909272	neutral	130	sub-03	2.0	3.0	130_neutral	1.0	attractiveness	99.20683061206182	
13.0	77.00045459333933	pulse	1.0	t		19.0	male	white	2.243931555909272	neutral	130	sub-03	2.0	3.0	130_neutral	1.0	attractiveness	99.90679719673426	
13.0	77.70044623196145	pulse	1.0	t		19.0	male	white	2.243931555909272	neutral	130	sub-03	2.0	3.0	130_neutral	1.0	attractiveness	100.60678883535638	
13.0	77.75034162417796	rating	2.0		295	19.0	male	white	2.243931555909272	neutral	130	sub-03	2.0	3.0	130_neutral	1.0	attractiveness	100.6566842275729	2.4999452133524755
13.0	78.40044511509859	pulse	2.0	t		19.0	male	white	2.243931555909272	neutral	130	sub-03	2.0	3.0	130_neutral	1.0	attractiveness	101.30678771849352	
13.0	79.10042135912545	pulse	2.0	t		19.0	male	white	2.243931555909272	neutral	130	sub-03	2.0	3.0	130_neutral	1.0	attractiveness	102.00676396252038	
13.0	79.63681916270889	response	2.0	n		19.0	male	white	2.243931555909272	neutral	130	sub-03	2.0	3.0	130_neutral	1.0	attractiveness	102.54316176610382	
13.0	79.80039911242602	pulse	2.0	t		19.0	male	white	2.243931555909272	neutral	130	sub-03	2.0	3.0	130_neutral	1.0	attractiveness	102.70674171582095	
13.0	80.25028683753044	fix	3.0		444	19.0	male	white	2.243931555909272	neutral	130	sub-03	2.0	3.0	130_neutral	1.0	attractiveness	103.15662944092537	3.766566923776736
13.0	80.50039467516035	pulse	3.0	t		19.0	male	white	2.243931555909272	neutral	130	sub-03	2.0	3.0	130_neutral	1.0	attractiveness	103.40673727855528	
13.0	81.2003796729764	pulse	3.0	t		19.0	male	white	2.243931555909272	neutral	130	sub-03	2.0	3.0	130_neutral	1.0	attractiveness	104.10672227637133	
13.0	81.9003577281319	pulse	3.0	t		19.0	male	white	2.243931555909272	neutral	130	sub-03	2.0	3.0	130_neutral	1.0	attractiveness	104.80670033152683	
13.0	82.60034363151226	pulse	3.0	t		19.0	male	white	2.243931555909272	neutral	130	sub-03	2.0	3.0	130_neutral	1.0	attractiveness	105.50668623490719	
13.0	83.3003367794081	pulse	3.0	t		19.0	male	white	2.243931555909272	neutral	130	sub-03	2.0	3.0	130_neutral	1.0	attractiveness	106.20667938280303	
14.0	84.01685376130717	face	0.0		146	20.0	male	black	2.609629924393156	smiling	043	sub-03	2.0	3.0	043_smiling	0.0		106.92319636470211	1.2333274270408765
14.0	84.0032382983718	pulse	0.0	t		20.0	male	black	2.609629924393156	smiling	043	sub-03	2.0	3.0	043_smiling	0.0		106.90958090176673	
14.0	84.70030677504064	pulse	0.0	t		20.0	male	black	2.609629924393156	smiling	043	sub-03	2.0	3.0	043_smiling	0.0		107.60664937843558	
14.0	85.25018118834805	fix	1.0		443	20.0	male	black	2.609629924393156	smiling	043	sub-03	2.0	3.0	043_smiling	0.0		108.15652379174298	3.7665744701466792
14.0	85.40029267842101	pulse	1.0	t		20.0	male	black	2.609629924393156	smiling	043	sub-03	2.0	3.0	043_smiling	0.0		108.30663528181594	
14.0	86.10026711131877	pulse	1.0	t		20.0	male	black	2.609629924393156	smiling	043	sub-03	2.0	3.0	043_smiling	0.0		109.0066097147137	
14.0	86.80025392026391	pulse	1.0	t		20.0	male	black	2.609629924393156	smiling	043	sub-03	2.0	3.0	043_smiling	0.0		109.70659652365885	
14.0	87.50024918114332	pulse	1.0	t		20.0	male	black	2.609629924393156	smiling	043	sub-03	2.0	3.0	043_smiling	0.0		110.40659178453825	
14.0	88.2002163695256	pulse	1.0	t		20.0	male	black	2.609629924393156	smiling	043	sub-03	2.0	3.0	043_smiling	0.0		111.10655897292054	
14.0	88.9002077062928	pulse	1.0	t		20.0	male	black	2.609629924393156	smiling	043	sub-03	2.0	3.0	043_smiling	0.0		111.80655030968774	
15.0	89.01675565849473	face	0.0		146	27.0	female	white	3.504576203740549	neutral	144	sub-03	2.0	3.0	144_neutral	0.0		111.92309826188966	1.2333204843803287
15.0	89.6002053820107	pulse	0.0	t		27.0	female	white	3.504576203740549	neutral	144	sub-03	2.0	3.0	144_neutral	0.0		112.50654798540563	
15.0	90.25007614287506	fix	1.0		443	27.0	female	white	3.504576203740549	neutral	144	sub-03	2.0	3.0	144_neutral	0.0		113.15641874626999	3.7665723571631133
15.0	90.30018766313333	pulse	1.0	t		27.0	female	white	3.504576203740549	neutral	144	sub-03	2.0	3.0	144_neutral	0.0		113.20653026652826	
15.0	91.00016360530526	pulse	1.0	t		27.0	female	white	3.504576203740549	neutral	144	sub-03	2.0	3.0	144_neutral	0.0		113.9065062087002	
15.0	91.7001504142504	pulse	1.0	t		27.0	female	white	3.504576203740549	neutral	144	sub-03	2.0	3.0	144_neutral	0.0		114.60649301764533	
15.0	92.40013782690494	pulse	1.0	t		27.0	female	white	3.504576203740549	neutral	144	sub-03	2.0	3.0	144_neutral	0.0		115.30648043029987	
15.0	93.10012010802757	pulse	1.0	t		27.0	female	white	3.504576203740549	neutral	144	sub-03	2.0	3.0	144_neutral	0.0		116.0064627114225	
15.0	93.80011204850416	pulse	1.0	t		27.0	female	white	3.504576203740549	neutral	144	sub-03	2.0	3.0	144_neutral	0.0		116.7064546518991	
16.0	94.01664850003817	face	0.0		145	26.0	male	white	2.7966573816155993	neutral	117	sub-03	2.0	3.0	117_neutral	0.0		116.9229911034331	1.2333225973638946
16.0	94.5000994611587	pulse	0.0	t		26.0	male	white	2.7966573816155993	neutral	117	sub-03	2.0	3.0	117_neutral	0.0		117.40644206455363	
16.0	95.2000711773635	pulse	0.0	t		26.0	male	white	2.7966573816155993	neutral	117	sub-03	2.0	3.0	117_neutral	0.0		118.10641378075843	
16.0	95.24997109740207	fix	1.0		445	26.0	male	white	2.7966573816155993	neutral	117	sub-03	2.0	3.0	117_neutral	0.0		118.156313700797	3.7665720553081883
16.0	95.90006734380722	pulse	1.0	t		26.0	male	white	2.7966573816155993	neutral	117	sub-03	2.0	3.0	117_neutral	0.0		118.80640994720216	
16.0	96.6000502286397	pulse	1.0	t		26.0	male	white	2.7966573816155993	neutral	117	sub-03	2.0	3.0	117_neutral	0.0		119.50639283203463	
16.0	97.30002949121445	pulse	1.0	t		26.0	male	white	2.7966573816155993	neutral	117	sub-03	2.0	3.0	117_neutral	0.0		120.20637209460938	
16.0	98.00001328161125	pulse	1.0	t		26.0	male	white	2.7966573816155993	neutral	117	sub-03	2.0	3.0	117_neutral	0.0		120.90635588500618	
16.0	98.70000944805543	pulse	1.0	t		26.0	male	white	2.7966573816155993	neutral	117	sub-03	2.0	3.0	117_neutral	0.0		121.60635205145036	
17.0	99.01654315271026	face	0.0		145	20.0	female	white	3.9502586549940313	smiling	091	sub-03	2.0	3.0	091_smiling	0.0		121.92288575610519	1.2333222955094243
17.0	99.39999565329072	pulse	0.0	t		20.0	female	white	3.9502586549940313	smiling	091	sub-03	2.0	3.0	091_smiling	0.0		122.30633825668565	
17.0	100.09996887876923	pulse	0.0	t		20.0	female	white	3.9502586549940313	smiling	091	sub-03	2.0	3.0	091_smiling	0.0		123.00631148216416	
17.0	100.24986544821968	fix	1.0		444	20.0	female	white	3.9502586549940313	smiling	091	sub-03	2.0	3.0	091_smiling	0.0		123.15620805161461	3.7583114966532776
17.0	100.79996534706788	pulse	1.0	t		20.0	female	white	3.9502586549940313	smiling	091	sub-03	2.0	3.0	091_smiling	0.0		123.70630795046281	
17.0	101.49994732633604	pulse	1.0	t		20.0	female	white	3.9502586549940313	smiling	091	sub-03	2.0	3.0	091_smiling	0.0		124.40628992973097	
17.0	102.1999299093136	pulse	1.0	t		20.0	female	white	3.9502586549940313	smiling	091	sub-03	2.0	3.0	091_smiling	0.0		125.10627251270853	
17.0	102.89991702011321	pulse	1.0	t		20.0	female	white	3.9502586549940313	smiling	091	sub-03	2.0	3.0	091_smiling	0.0		125.80625962350814	
17.0	103.59990775317056	pulse	1.0	t		20.0	female	white	3.9502586549940313	smiling	091	sub-03	2.0	3.0	091_smiling	0.0		126.50625035656549	
18.0	104.00817694487296	face	0.0		146	27.0	female	white	4.181058495821727	smiling	039	sub-03	2.0	3.0	039_smiling	0.0		126.91451954826789	1.2415804393253893
18.0	104.29989124171288	pulse	0.0	t		27.0	female	white	4.181058495821727	smiling	039	sub-03	2.0	3.0	039_smiling	0.0		127.20623384510782	
18.0	104.99987382469044	pulse	0.0	t		27.0	female	white	4.181058495821727	smiling	039	sub-03	2.0	3.0	039_smiling	0.0		127.90621642808537	
18.0	105.24975738419835	fix	1.0		444	27.0	female	white	4.181058495821727	smiling	039	sub-03	2.0	3.0	039_smiling	0.0		128.15609998759328	3.758303044719014
18.0	105.69986395403839	pulse	1.0	t		27.0	female	white	4.181058495821727	smiling	039	sub-03	2.0	3.0	039_smiling	0.0		128.60620655743332	
18.0	106.39983929250047	pulse	1.0	t		27.0	female	white	4.181058495821727	smiling	039	sub-03	2.0	3.0	039_smiling	0.0		129.3061818958954	
18.0	107.09982519588084	pulse	1.0	t		27.0	female	white	4.181058495821727	smiling	039	sub-03	2.0	3.0	039_smiling	0.0		130.00616779927577	
18.0	107.79981592893819	pulse	1.0	t		27.0	female	white	4.181058495821727	smiling	039	sub-03	2.0	3.0	039_smiling	0.0		130.70615853233312	
18.0	108.4998042471575	pulse	1.0	t		27.0	female	white	4.181058495821727	smiling	039	sub-03	2.0	3.0	039_smiling	0.0		131.40614685055243	
19.0	109.00806042891736	face	0.0		146	36.0	female	white	2.7548746518105847	smiling	011	sub-03	2.0	3.0	011_smiling	1.0	trustworthiness	131.9144030323123	1.2415916079535236
19.0	109.19978894311862	pulse	0.0	t		36.0	female	white	2.7548746518105847	smiling	011	sub-03	2.0	3.0	011_smiling	1.0	trustworthiness	132.10613154651355	
19.0	109.8997636778713	pulse	0.0	t		36.0	female	white	2.7548746518105847	smiling	011	sub-03	2.0	3.0	011_smiling	1.0	trustworthiness	132.80610628126624	
19.0	110.24965203687088	fix	1.0		177	36.0	female	white	2.7548746518105847	smiling	011	sub-03	2.0	3.0	011_smiling	1.0	trustworthiness	133.15599464026582	1.4999708710111008
19.0	110.59975954246056	pulse	1.0	t		36.0	female	white	2.7548746518105847	smiling	011	sub-03	2.0	3.0	011_smiling	1.0	trustworthiness	133.5061021458555	
19.0	111.29973789947053	pulse	1.0	t		36.0	female	white	2.7548746518105847	smiling	011	sub-03	2.0	3.0	011_smiling	1.0	trustworthiness	134.20608050286546	
19.0	111.74962290788199	rating	2.0		294	36.0	female	white	2.7548746518105847	smiling	011	sub-03	2.0	3.0	011_smiling	1.0	trustworthiness	134.65596551127692	2.4999479300458916
19.0	111.99974493268792	pulse	2.0	t		36.0	female	white	2.7548746518105847	smiling	011	sub-03	2.0	3.0	011_smiling	1.0	trustworthiness	134.90608753608285	
19.0	112.69971302663453	pulse	2.0	t		36.0	female	white	2.7548746518105847	smiling	011	sub-03	2.0	3.0	011_smiling	1.0	trustworthiness	135.60605563002946	
19.0	113.25804239309264	response	2.0	e		36.0	female	white	2.7548746518105847	smiling	011	sub-03	2.0	3.0	011_smiling	1.0	trustworthiness	136.16438499648757	
19.0	113.39969621332193	pulse	2.0	t		36.0	female	white	2.7548746518105847	smiling	011	sub-03	2.0	3.0	011_smiling	1.0	trustworthiness	136.30603881671686	
19.0	114.09968302226662	pulse	2.0	t		36.0	female	white	2.7548746518105847	smiling	011	sub-03	2.0	3.0	011_smiling	1.0	trustworthiness	137.00602562566155	
19.0	114.24957083792788	fix	3.0		444	36.0	female	white	2.7548746518105847	smiling	011	sub-03	2.0	3.0	011_smiling	1.0	trustworthiness	137.1559134413228	3.7665726590175836
19.0	114.799671038631	pulse	3.0	t		36.0	female	white	2.7548746518105847	smiling	011	sub-03	2.0	3.0	011_smiling	1.0	trustworthiness	137.70601364202594	
19.0	115.49964939564143	pulse	3.0	t		36.0	female	white	2.7548746518105847	smiling	011	sub-03	2.0	3.0	011_smiling	1.0	trustworthiness	138.40599199903636	
19.0	116.19962896007064	pulse	3.0	t		36.0	female	white	2.7548746518105847	smiling	011	sub-03	2.0	3.0	011_smiling	1.0	trustworthiness	139.10597156346557	
19.0	116.89961697643503	pulse	3.0	t		36.0	female	white	2.7548746518105847	smiling	011	sub-03	2.0	3.0	011_smiling	1.0	trustworthiness	139.80595957982996	
19.0	117.59960650207313	pulse	3.0	t		36.0	female	white	2.7548746518105847	smiling	011	sub-03	2.0	3.0	011_smiling	1.0	trustworthiness	140.50594910546806	
20.0	118.01614349694546	face	0.0		145	30.0	female	black	2.7345801830481498	smiling	062	sub-03	2.0	3.0	062_smiling	0.0		140.9224861003404	1.2333195788160083
20.0	118.2995999518239	pulse	0.0	t		30.0	female	black	2.7345801830481498	smiling	062	sub-03	2.0	3.0	062_smiling	0.0		141.20594255521883	
20.0	118.99957830883432	pulse	0.0	t		30.0	female	black	2.7345801830481498	smiling	062	sub-03	2.0	3.0	062_smiling	0.0		141.90592091222925	
20.0	119.24946307576147	fix	1.0		1185	30.0	female	black	2.7345801830481498	smiling	062	sub-03	2.0	3.0	062_smiling	0.0		142.1558056791564	10.016444446188416
20.0	119.69956843818181	pulse	1.0	t		30.0	female	black	2.7345801830481498	smiling	062	sub-03	2.0	3.0	062_smiling	0.0		142.60591104157675	
20.0	120.39954407849882	pulse	1.0	t		30.0	female	black	2.7345801830481498	smiling	062	sub-03	2.0	3.0	062_smiling	0.0		143.30588668189375	
20.0	121.09952605776698	pulse	1.0	t		30.0	female	black	2.7345801830481498	smiling	062	sub-03	2.0	3.0	062_smiling	0.0		144.0058686611619	
20.0	121.7995164889694	pulse	1.0	t		30.0	female	black	2.7345801830481498	smiling	062	sub-03	2.0	3.0	062_smiling	0.0		144.70585909236434	
20.0	122.49949937380188	pulse	1.0	t		30.0	female	black	2.7345801830481498	smiling	062	sub-03	2.0	3.0	062_smiling	0.0		145.40584197719681	
20.0	123.19948739016627	pulse	1.0	t		30.0	female	black	2.7345801830481498	smiling	062	sub-03	2.0	3.0	062_smiling	0.0		146.1058299935612	
20.0	123.89947178427246	pulse	1.0	t		30.0	female	black	2.7345801830481498	smiling	062	sub-03	2.0	3.0	062_smiling	0.0		146.8058143876674	
20.0	124.59945708394343	pulse	1.0	t		30.0	female	black	2.7345801830481498	smiling	062	sub-03	2.0	3.0	062_smiling	0.0		147.50579968733837	
20.0	125.29943936506652	pulse	1.0	t		30.0	female	black	2.7345801830481498	smiling	062	sub-03	2.0	3.0	062_smiling	0.0		148.20578196846145	
20.0	125.99943251296236	pulse	1.0	t		30.0	female	black	2.7345801830481498	smiling	062	sub-03	2.0	3.0	062_smiling	0.0		148.9057751163573	
20.0	126.69941147368218	pulse	1.0	t		30.0	female	black	2.7345801830481498	smiling	062	sub-03	2.0	3.0	062_smiling	0.0		149.6057540770771	
20.0	127.39939647149822	pulse	1.0	t		30.0	female	black	2.7345801830481498	smiling	062	sub-03	2.0	3.0	062_smiling	0.0		150.30573907489315	
20.0	128.09937543221804	pulse	1.0	t		30.0	female	black	2.7345801830481498	smiling	062	sub-03	2.0	3.0	062_smiling	0.0		151.00571803561297	
20.0	128.79935620406695	pulse	1.0	t		30.0	female	black	2.7345801830481498	smiling	062	sub-03	2.0	3.0	062_smiling	0.0		151.70569880746189	
21.0	129.26590752194988	face	0.0		145	54.0	female	white	2.286908077994429	neutral	136	sub-03	2.0	3.0	136_neutral	0.0		152.17225012534482	1.2333168621225923
21.0	129.49935810575244	pulse	0.0	t		54.0	female	white	2.286908077994429	neutral	136	sub-03	2.0	3.0	136_neutral	0.0		152.40570070914737	
21.0	130.19934038687506	pulse	0.0	t		54.0	female	white	2.286908077994429	neutral	136	sub-03	2.0	3.0	136_neutral	0.0		153.10568299027	
21.0	130.49922438407248	fix	1.0		444	54.0	female	white	2.286908077994429	neutral	136	sub-03	2.0	3.0	136_neutral	0.0		153.4055669874674	3.7665744701466792
21.0	130.89932810138453	pulse	1.0	t		54.0	female	white	2.286908077994429	neutral	136	sub-03	2.0	3.0	136_neutral	0.0		153.80567070477946	
21.0	131.59931370290997	pulse	1.0	t		54.0	female	white	2.286908077994429	neutral	136	sub-03	2.0	3.0	136_neutral	0.0		154.5056563063049	
21.0	132.29930232298375	pulse	1.0	t		54.0	female	white	2.286908077994429	neutral	136	sub-03	2.0	3.0	136_neutral	0.0		155.20564492637868	
21.0	132.99927947257493	pulse	1.0	t		54.0	female	white	2.286908077994429	neutral	136	sub-03	2.0	3.0	136_neutral	0.0		155.90562207596986	
21.0	133.69927020563227	pulse	1.0	t		54.0	female	white	2.286908077994429	neutral	136	sub-03	2.0	3.0	136_neutral	0.0		156.6056128090272	
22.0	134.26579885421916	face	0.0		146	40.0	male	black	2.408674890569041	neutral	061	sub-03	2.0	3.0	061_neutral	0.0		157.1721414576141	1.2416543937533788
22.0	134.3992594294159	pulse	0.0	t		40.0	male	black	2.408674890569041	neutral	061	sub-03	2.0	3.0	061_neutral	0.0		157.30560203281084	
22.0	135.09922782521744	pulse	0.0	t		40.0	male	black	2.408674890569041	neutral	061	sub-03	2.0	3.0	061_neutral	0.0		158.00557042861237	
22.0	135.50745324797253	fix	1.0		444	40.0	male	black	2.408674890569041	neutral	061	sub-03	2.0	3.0	061_neutral	0.0		158.41379585136747	3.766571451598793
22.0	135.79922731206443	pulse	1.0	t		40.0	male	black	2.408674890569041	neutral	061	sub-03	2.0	3.0	061_neutral	0.0		158.70556991545936	
22.0	136.49920325423636	pulse	1.0	t		40.0	male	black	2.408674890569041	neutral	061	sub-03	2.0	3.0	061_neutral	0.0		159.4055458576313	
22.0	137.19918734648763	pulse	1.0	t		40.0	male	black	2.408674890569041	neutral	061	sub-03	2.0	3.0	061_neutral	0.0		160.10552994988257	
22.0	137.8991711368849	pulse	1.0	t		40.0	male	black	2.408674890569041	neutral	061	sub-03	2.0	3.0	061_neutral	0.0		160.80551374027982	
22.0	138.59916669961922	pulse	1.0	t		40.0	male	black	2.408674890569041	neutral	061	sub-03	2.0	3.0	061_neutral	0.0		161.50550930301415	
23.0	139.27402469957133	face	0.0		145	21.0	male	black	2.969757262236371	neutral	137	sub-03	2.0	3.0	137_neutral	0.0		162.18036730296626	1.2333222955089695
23.0	139.29916135678877	pulse	0.0	t		21.0	male	black	2.969757262236371	neutral	137	sub-03	2.0	3.0	137_neutral	0.0		162.2055039601837	
23.0	139.99912733775227	pulse	0.0	t		21.0	male	black	2.969757262236371	neutral	137	sub-03	2.0	3.0	137_neutral	0.0		162.9054699411472	
23.0	140.5073469950803	fix	1.0		443	21.0	male	black	2.969757262236371	neutral	137	sub-03	2.0	3.0	137_neutral	0.0		163.41368959847523	3.766574470147134
23.0	140.69912078750303	pulse	1.0	t		21.0	male	black	2.969757262236371	neutral	137	sub-03	2.0	3.0	137_neutral	0.0		163.60546339089797	
23.0	141.3991042760449	pulse	1.0	t		21.0	male	black	2.969757262236371	neutral	137	sub-03	2.0	3.0	137_neutral	0.0		164.30544687943984	
23.0	142.09908082192624	pulse	1.0	t		21.0	male	black	2.969757262236371	neutral	137	sub-03	2.0	3.0	137_neutral	0.0		165.00542342532117	
23.0	142.79907064941926	pulse	1.0	t		21.0	male	black	2.969757262236371	neutral	137	sub-03	2.0	3.0	137_neutral	0.0		165.7054132528142	
23.0	143.49906591029867	pulse	1.0	t		21.0	male	black	2.969757262236371	neutral	137	sub-03	2.0	3.0	137_neutral	0.0		166.4054085136936	
23.0	144.19904305988985	pulse	1.0	t		21.0	male	black	2.969757262236371	neutral	137	sub-03	2.0	3.0	137_neutral	0.0		167.10538566328478	
24.0	144.27392146522743	face	0.0		146	23.0	male	white	2.6275368085953046	smiling	141	sub-03	2.0	3.0	141_smiling	0.0		167.18026406862236	1.2333195788155535
24.0	144.89903349109272	pulse	0.0	t		23.0	male	white	2.6275368085953046	smiling	141	sub-03	2.0	3.0	141_smiling	0.0		167.80537609448766	
24.0	145.50724104404298	fix	1.0		443	23.0	male	white	2.6275368085953046	smiling	141	sub-03	2.0	3.0	141_smiling	0.0		168.41358364743792	3.7665780924044157
24.0	145.599019696328	pulse	1.0	t		23.0	male	white	2.6275368085953046	smiling	141	sub-03	2.0	3.0	141_smiling	0.0		168.50536229972295	
24.0	146.29899865704783	pulse	1.0	t		23.0	male	white	2.6275368085953046	smiling	141	sub-03	2.0	3.0	141_smiling	0.0		169.20534126044276	
24.0	146.9989815418803	pulse	1.0	t		23.0	male	white	2.6275368085953046	smiling	141	sub-03	2.0	3.0	141_smiling	0.0		169.90532414527524	
24.0	147.69896291743862	pulse	1.0	t		23.0	male	white	2.6275368085953046	smiling	141	sub-03	2.0	3.0	141_smiling	0.0		170.60530552083355	
24.0	148.39896149872084	pulse	1.0	t		23.0	male	white	2.6275368085953046	smiling	141	sub-03	2.0	3.0	141_smiling	0.0		171.30530410211577	
24.0	149.09892989452283	pulse	1.0	t		23.0	male	white	2.6275368085953046	smiling	141	sub-03	2.0	3.0	141_smiling	0.0		172.00527249791776	
25.0	149.2738191364474	face	0.0		146	20.0	male	black	3.1070433744528456	neutral	082	sub-03	2.0	3.0	082_neutral	1.0	dominance	172.18016173984233	1.2416492622219266
25.0	149.798942964836	pulse	0.0	t		20.0	male	black	3.1070433744528456	neutral	082	sub-03	2.0	3.0	082_neutral	1.0	dominance	172.70528556823092	
25.0	150.49891166249245	pulse	0.0	t		20.0	male	black	3.1070433744528456	neutral	082	sub-03	2.0	3.0	082_neutral	1.0	dominance	173.40525426588738	
25.0	150.51546839866933	fix	1.0		176	20.0	male	black	3.1070433744528456	neutral	082	sub-03	2.0	3.0	082_neutral	1.0	dominance	173.42181100206426	1.4916354523638802
25.0	151.1988999807113	pulse	1.0	t		20.0	male	black	3.1070433744528456	neutral	082	sub-03	2.0	3.0	082_neutral	1.0	dominance	174.10524258410624	
25.0	151.89887894143112	pulse	1.0	t		20.0	male	black	3.1070433744528456	neutral	082	sub-03	2.0	3.0	082_neutral	1.0	dominance	174.80522154482605	
25.0	152.0071038510332	rating	2.0		295	20.0	male	black	3.1070433744528456	neutral	082	sub-03	2.0	3.0	082_neutral	1.0	dominance	174.91344645442814	2.499951250448703
25.0	152.59890016182408	pulse	2.0	t		20.0	male	black	3.1070433744528456	neutral	082	sub-03	2.0	3.0	082_neutral	1.0	dominance	175.505242765219	
25.0	153.2988595019815	pulse	2.0	t		20.0	male	black	3.1070433744528456	neutral	082	sub-03	2.0	3.0	082_neutral	1.0	dominance	176.20520210537643	
25.0	153.68526987781797	response	2.0	b		20.0	male	black	3.1070433744528456	neutral	082	sub-03	2.0	3.0	082_neutral	1.0	dominance	176.5916124812129	
25.0	153.99882669036424	pulse	2.0	t		20.0	male	black	3.1070433744528456	neutral	082	sub-03	2.0	3.0	082_neutral	1.0	dominance	176.90516929375917	
25.0	154.5070551014819	fix	3.0		443	20.0	male	black	3.1070433744528456	neutral	082	sub-03	2.0	3.0	082_neutral	1.0	dominance	177.41339770487684	3.766568433050452
25.0	154.69882527164646	pulse	3.0	t		20.0	male	black	3.1070433744528456	neutral	082	sub-03	2.0	3.0	082_neutral	1.0	dominance	177.6051678750414	
25.0	155.39880936389818	pulse	3.0	t		20.0	male	black	3.1070433744528456	neutral	082	sub-03	2.0	3.0	082_neutral	1.0	dominance	178.3051519672931	
25.0	156.09878349494102	pulse	3.0	t		20.0	male	black	3.1070433744528456	neutral	082	sub-03	2.0	3.0	082_neutral	1.0	dominance	179.00512609833595	
25.0	156.7987745298533	pulse	3.0	t		20.0	male	black	3.1070433744528456	neutral	082	sub-03	2.0	3.0	082_neutral	1.0	dominance	179.70511713324822	
25.0	157.49875982952426	pulse	3.0	t		20.0	male	black	3.1070433744528456	neutral	082	sub-03	2.0	3.0	082_neutral	1.0	dominance	180.4051024329192	
25.0	158.19874180879242	pulse	3.0	t		20.0	male	black	3.1070433744528456	neutral	082	sub-03	2.0	3.0	082_neutral	1.0	dominance	181.10508441218735	
26.0	158.27362353453236	face	0.0		146	24.0	female	black	3.0955033824114606	smiling	099	sub-03	2.0	3.0	099_smiling	0.0		181.1799661379273	1.2333201825258584
26.0	158.89873586225258	pulse	0.0	t		24.0	female	black	3.0955033824114606	smiling	099	sub-03	2.0	3.0	099_smiling	0.0		181.8050784656475	
26.0	159.50694371705822	fix	1.0		443	24.0	female	black	3.0955033824114606	smiling	099	sub-03	2.0	3.0	099_smiling	0.0		182.41328632045315	3.7665753757109997
26.0	159.59874591401785	pulse	1.0	t		24.0	female	black	3.0955033824114606	smiling	099	sub-03	2.0	3.0	099_smiling	0.0		182.5050885174128	
26.0	160.29869619853116	pulse	1.0	t		24.0	female	black	3.0955033824114606	smiling	099	sub-03	2.0	3.0	099_smiling	0.0		183.2050388019261	
26.0	160.99868783715283	pulse	1.0	t		24.0	female	black	3.0955033824114606	smiling	099	sub-03	2.0	3.0	099_smiling	0.0		183.90503044054776	
26.0	161.69867192940455	pulse	1.0	t		24.0	female	black	3.0955033824114606	smiling	099	sub-03	2.0	3.0	099_smiling	0.0		184.6050145327995	
26.0	162.3986602476234	pulse	1.0	t		24.0	female	black	3.0955033824114606	smiling	099	sub-03	2.0	3.0	099_smiling	0.0		185.30500285101834	
26.0	163.0986437361653	pulse	1.0	t		24.0	female	black	3.0955033824114606	smiling	099	sub-03	2.0	3.0	099_smiling	0.0		186.00498633956022	
27.0	163.27351909276922	face	0.0		146	22.0	male	black	2.767608436132113	neutral	044	sub-03	2.0	3.0	044_neutral	0.0		186.17986169616415	1.2416546956078491
27.0	163.79863507293248	pulse	0.0	t		22.0	male	black	2.767608436132113	neutral	044	sub-03	2.0	3.0	044_neutral	0.0		186.70497767632742	
27.0	164.4986191651842	pulse	0.0	t		22.0	male	black	2.767608436132113	neutral	044	sub-03	2.0	3.0	044_neutral	0.0		187.40496176857914	
27.0	164.51517378837707	fix	1.0		443	22.0	male	black	2.767608436132113	neutral	044	sub-03	2.0	3.0	044_neutral	0.0		187.421516391772	3.7582399570642337
27.0	165.19860144630684	pulse	1.0	t		22.0	male	black	2.767608436132113	neutral	044	sub-03	2.0	3.0	044_neutral	0.0		188.10494404970177	
27.0	165.89856259759335	pulse	1.0	t		22.0	male	black	2.767608436132113	neutral	044	sub-03	2.0	3.0	044_neutral	0.0		188.8049052009883	
27.0	166.5985666122624	pulse	1.0	t		22.0	male	black	2.767608436132113	neutral	044	sub-03	2.0	3.0	044_neutral	0.0		189.50490921565734	
27.0	167.29854919523996	pulse	1.0	t		22.0	male	black	2.767608436132113	neutral	044	sub-03	2.0	3.0	044_neutral	0.0		190.2048917986349	
27.0	167.99855170063483	pulse	1.0	t		22.0	male	black	2.767608436132113	neutral	044	sub-03	2.0	3.0	044_neutral	0.0		190.90489430402977	
28.0	168.2734137454413	face	0.0		145	22.0	female	white	4.614007162753682	neutral	009	sub-03	2.0	3.0	009_neutral	0.0		191.17975634883624	1.2333204843803287
28.0	168.6985318687739	pulse	0.0	t		22.0	female	white	4.614007162753682	neutral	009	sub-03	2.0	3.0	009_neutral	0.0		191.60487447216883	
28.0	169.39851384804206	pulse	0.0	t		22.0	female	white	4.614007162753682	neutral	009	sub-03	2.0	3.0	009_neutral	0.0		192.304856451437	
28.0	169.50673422982163	fix	1.0		444	22.0	female	white	4.614007162753682	neutral	009	sub-03	2.0	3.0	009_neutral	0.0		192.41307683321656	3.7582197327924405
28.0	170.09850397738956	pulse	1.0	t		22.0	female	white	4.614007162753682	neutral	009	sub-03	2.0	3.0	009_neutral	0.0		193.0048465807845	
28.0	170.79847810843285	pulse	1.0	t		22.0	female	white	4.614007162753682	neutral	009	sub-03	2.0	3.0	009_neutral	0.0		193.70482071182778	
28.0	171.49846612479678	pulse	1.0	t		22.0	female	white	4.614007162753682	neutral	009	sub-03	2.0	3.0	009_neutral	0.0		194.4048087281917	
28.0	172.19844810406494	pulse	1.0	t		22.0	female	white	4.614007162753682	neutral	009	sub-03	2.0	3.0	009_neutral	0.0		195.10479070745987	
28.0	172.89843370559038	pulse	1.0	t		22.0	female	white	4.614007162753682	neutral	009	sub-03	2.0	3.0	009_neutral	0.0		195.8047763089853	
29.0	173.26495396261407	face	0.0		146	19.0	female	white	4.298846000795861	smiling	100	sub-03	2.0	3.0	100_smiling	0.0		196.171296566009	1.241674618025172
29.0	173.59843017388948	pulse	0.0	t		19.0	female	white	4.298846000795861	smiling	100	sub-03	2.0	3.0	100_smiling	0.0		196.50477277728442	
29.0	174.29840641791588	pulse	0.0	t		19.0	female	white	4.298846000795861	smiling	100	sub-03	2.0	3.0	100_smiling	0.0		197.20474902131082	
29.0	174.50662858063924	fix	1.0		444	19.0	female	white	4.298846000795861	smiling	100	sub-03	2.0	3.0	100_smiling	0.0		197.41297118403418	3.7665750738565293
29.0	174.99839956581172	pulse	1.0	t		19.0	female	white	4.298846000795861	smiling	100	sub-03	2.0	3.0	100_smiling	0.0		197.90474216920666	
29.0	175.69837188572592	pulse	1.0	t		19.0	female	white	4.298846000795861	smiling	100	sub-03	2.0	3.0	100_smiling	0.0		198.60471448912085	
29.0	176.39836744846025	pulse	1.0	t		19.0	female	white	4.298846000795861	smiling	100	sub-03	2.0	3.0	100_smiling	0.0		199.30471005185518	
29.0	177.09834278692279	pulse	1.0	t		19.0	female	white	4.298846000795861	smiling	100	sub-03	2.0	3.0	100_smiling	0.0		200.00468539031772	
29.0	177.79832446433602	pulse	1.0	t		19.0	female	white	4.298846000795861	smiling	100	sub-03	2.0	3.0	100_smiling	0.0		200.70466706773095	
30.0	178.27320365449577	face	0.0		145	34.0	male	white	2.651014723438122	neutral	121	sub-03	2.0	3.0	121_neutral	0.0		201.1795462578907	1.2333186732512331
30.0	178.4983245548924	pulse	0.0	t		34.0	male	white	2.651014723438122	neutral	121	sub-03	2.0	3.0	121_neutral	0.0		201.40466715828734	
30.0	179.1983050248864	pulse	0.0	t		34.0	male	white	2.651014723438122	neutral	121	sub-03	2.0	3.0	121_neutral	0.0		202.10464762828133	
30.0	179.506522327747	fix	1.0		444	34.0	male	white	2.651014723438122	neutral	121	sub-03	2.0	3.0	121_neutral	0.0		202.41286493114194	3.7665753757114544
30.0	179.89829364496018	pulse	1.0	t		34.0	male	white	2.651014723438122	neutral	121	sub-03	2.0	3.0	121_neutral	0.0		202.8046362483551	
30.0	180.59827290753492	pulse	1.0	t		34.0	male	white	2.651014723438122	neutral	121	sub-03	2.0	3.0	121_neutral	0.0		203.50461551092985	
30.0	181.29825518865755	pulse	1.0	t		34.0	male	white	2.651014723438122	neutral	121	sub-03	2.0	3.0	121_neutral	0.0		204.20459779205248	
30.0	181.99824079018344	pulse	1.0	t		34.0	male	white	2.651014723438122	neutral	121	sub-03	2.0	3.0	121_neutral	0.0		204.90458339357838	
30.0	182.69822820283798	pulse	1.0	t		34.0	male	white	2.651014723438122	neutral	121	sub-03	2.0	3.0	121_neutral	0.0		205.6045708062329	
31.0	183.27309770345846	face	0.0		145	31.0	male	west_asian	1.9538400318344609	neutral	070	sub-03	2.0	3.0	070_neutral	0.0		206.1794403068534	1.2333183713967628
31.0	183.3982077672672	pulse	0.0	t		31.0	male	west_asian	1.9538400318344609	neutral	070	sub-03	2.0	3.0	070_neutral	0.0		206.30455037066213	
31.0	184.0981933687931	pulse	0.0	t		31.0	male	west_asian	1.9538400318344609	neutral	070	sub-03	2.0	3.0	070_neutral	0.0		207.00453597218802	
31.0	184.50641607485522	fix	1.0		444	31.0	male	west_asian	1.9538400318344609	neutral	070	sub-03	2.0	3.0	070_neutral	0.0		207.41275867825016	3.766575979420395
31.0	184.79819285564008	pulse	1.0	t		31.0	male	west_asian	1.9538400318344609	neutral	070	sub-03	2.0	3.0	070_neutral	0.0		207.70453545903501	
31.0	185.49815249765197	pulse	1.0	t		31.0	male	west_asian	1.9538400318344609	neutral	070	sub-03	2.0	3.0	070_neutral	0.0		208.4044951010469	
31.0	186.1981556067567	pulse	1.0	t		31.0	male	west_asian	1.9538400318344609	neutral	070	sub-03	2.0	3.0	070_neutral	0.0		209.10449821015163	
31.0	186.8981469435239	pulse	1.0	t		31.0	male	west_asian	1.9538400318344609	neutral	070	sub-03	2.0	3.0	070_neutral	0.0		209.80448954691883	
31.0	187.5981192634381	pulse	1.0	t		31.0	male	west_asian	1.9538400318344609	neutral	070	sub-03	2.0	3.0	070_neutral	0.0		210.50446186683303	
32.0	188.27299205427562	face	0.0		145	34.0	male	white	2.651014723438122	smiling	121	sub-03	2.0	3.0	121_smiling	0.0		211.17933465767055	1.2333195788160083
32.0	188.2981226743973	pulse	0.0	t		34.0	male	white	2.651014723438122	smiling	121	sub-03	2.0	3.0	121_smiling	0.0		211.20446527779222	
32.0	188.99811370930956	pulse	0.0	t		34.0	male	white	2.651014723438122	smiling	121	sub-03	2.0	3.0	121_smiling	0.0		211.9044563127045	
32.0	189.50631163309163	fix	1.0		443	34.0	male	white	2.651014723438122	smiling	121	sub-03	2.0	3.0	121_smiling	0.0		212.41265423648656	3.76657688498517
32.0	189.69808602922376	pulse	1.0	t		34.0	male	white	2.651014723438122	smiling	121	sub-03	2.0	3.0	121_smiling	0.0		212.6044286326187	
32.0	190.39806951776563	pulse	1.0	t		34.0	male	white	2.651014723438122	smiling	121	sub-03	2.0	3.0	121_smiling	0.0		213.30441212116057	
32.0	191.0980463655019	pulse	1.0	t		34.0	male	white	2.651014723438122	smiling	121	sub-03	2.0	3.0	121_smiling	0.0		214.00438896889682	
32.0	191.79803377815642	pulse	1.0	t		34.0	male	white	2.651014723438122	smiling	121	sub-03	2.0	3.0	121_smiling	0.0		214.70437638155136	
32.0	192.4980223982302	pulse	1.0	t		34.0	male	white	2.651014723438122	smiling	121	sub-03	2.0	3.0	121_smiling	0.0		215.40436500162514	
32.0	193.19800679233686	pulse	1.0	t		34.0	male	white	2.651014723438122	smiling	121	sub-03	2.0	3.0	121_smiling	0.0		216.1043493957318	
33.0	193.2728885180768	face	0.0		146	32.0	male	white	2.389176283326701	neutral	092	sub-03	2.0	3.0	092_neutral	0.0		216.17923112147173	1.2333147491390264
33.0	193.89799873281345	pulse	0.0	t		32.0	male	white	2.389176283326701	neutral	092	sub-03	2.0	3.0	092_neutral	0.0		216.80434133620838	
33.0	194.50620326721582	fix	1.0		443	32.0	male	white	2.389176283326701	neutral	092	sub-03	2.0	3.0	092_neutral	0.0		217.41254587061076	3.7665750738565293
33.0	194.5979843343389	pulse	1.0	t		32.0	male	white	2.389176283326701	neutral	092	sub-03	2.0	3.0	092_neutral	0.0		217.50432693773382	
33.0	195.2979587672371	pulse	1.0	t		32.0	male	white	2.389176283326701	neutral	092	sub-03	2.0	3.0	092_neutral	0.0		218.20430137063204	
33.0	195.9979464817461	pulse	1.0	t		32.0	male	white	2.389176283326701	neutral	092	sub-03	2.0	3.0	092_neutral	0.0		218.90428908514104	
33.0	196.69793238512693	pulse	1.0	t		32.0	male	white	2.389176283326701	neutral	092	sub-03	2.0	3.0	092_neutral	0.0		219.60427498852187	
33.0	197.39792040149086	pulse	1.0	t		32.0	male	white	2.389176283326701	neutral	092	sub-03	2.0	3.0	092_neutral	0.0		220.3042630048858	
33.0	198.09789785293697	pulse	1.0	t		32.0	male	white	2.389176283326701	neutral	092	sub-03	2.0	3.0	092_neutral	0.0		221.0042404563319	
34.0	198.27277834107235	face	0.0		146	20.0	male	black	3.1070433744528456	smiling	082	sub-03	2.0	3.0	082_smiling	0.0		221.1791209444673	1.2416562048820197
34.0	198.79789462309054	pulse	0.0	t		20.0	male	black	3.1070433744528456	smiling	082	sub-03	2.0	3.0	082_smiling	0.0		221.70423722648547	
34.0	199.49787358381036	pulse	0.0	t		20.0	male	black	3.1070433744528456	smiling	082	sub-03	2.0	3.0	082_smiling	0.0		222.4042161872053	
34.0	199.51443454595437	fix	1.0		443	20.0	male	black	3.1070433744528456	smiling	082	sub-03	2.0	3.0	082_smiling	0.0		222.4207771493493	3.7582396552093087
34.0	200.19786250573907	pulse	1.0	t		20.0	male	black	3.1070433744528456	smiling	082	sub-03	2.0	3.0	082_smiling	0.0		223.104205109134	
34.0	200.89783935347532	pulse	1.0	t		20.0	male	black	3.1070433744528456	smiling	082	sub-03	2.0	3.0	082_smiling	0.0		223.80418195687025	
34.0	201.59783401064487	pulse	1.0	t		20.0	male	black	3.1070433744528456	smiling	082	sub-03	2.0	3.0	082_smiling	0.0		224.5041766140398	
34.0	202.29781448063886	pulse	1.0	t		20.0	male	black	3.1070433744528456	smiling	082	sub-03	2.0	3.0	082_smiling	0.0		225.2041570840338	
34.0	202.99780249700325	pulse	1.0	t		20.0	male	black	3.1070433744528456	smiling	082	sub-03	2.0	3.0	082_smiling	0.0		225.90414510039818	
35.0	203.27267420116368	face	0.0		145	40.0	female	west_asian	1.5777954635893354	neutral	038	sub-03	2.0	3.0	038_neutral	1.0	trustworthiness	226.17901680455861	1.2333207862352538
35.0	203.69779383377	pulse	0.0	t		40.0	female	west_asian	1.5777954635893354	neutral	038	sub-03	2.0	3.0	038_neutral	1.0	trustworthiness	226.60413643716493	
35.0	204.39777822787664	pulse	0.0	t		40.0	female	west_asian	1.5777954635893354	neutral	038	sub-03	2.0	3.0	038_neutral	1.0	trustworthiness	227.30412083127158	
35.0	204.50599498739894	fix	1.0		177	40.0	female	west_asian	1.5777954635893354	neutral	038	sub-03	2.0	3.0	038_neutral	1.0	trustworthiness	227.41233759079387	1.4999597023834212
35.0	205.09776382940254	pulse	1.0	t		40.0	female	west_asian	1.5777954635893354	neutral	038	sub-03	2.0	3.0	038_neutral	1.0	trustworthiness	228.00410643279747	
35.0	205.79773554560688	pulse	1.0	t		40.0	female	west_asian	1.5777954635893354	neutral	038	sub-03	2.0	3.0	038_neutral	1.0	trustworthiness	228.70407814900182	
35.0	206.00595468978236	rating	2.0		295	40.0	female	west_asian	1.5777954635893354	neutral	038	sub-03	2.0	3.0	038_neutral	1.0	trustworthiness	228.9122972931773	2.4999548727059846
35.0	206.49776038825757	pulse	2.0	t		40.0	female	west_asian	1.5777954635893354	neutral	038	sub-03	2.0	3.0	038_neutral	1.0	trustworthiness	229.4041029916525	
35.0	207.1257970853503	response	2.0	e		40.0	female	west_asian	1.5777954635893354	neutral	038	sub-03	2.0	3.0	038_neutral	1.0	trustworthiness	230.03213968874525	
35.0	207.19770433381973	pulse	2.0	t		40.0	female	west_asian	1.5777954635893354	neutral	038	sub-03	2.0	3.0	038_neutral	1.0	trustworthiness	230.10404693721466	
35.0	207.8976920483292	pulse	2.0	t		40.0	female	west_asian	1.5777954635893354	neutral	038	sub-03	2.0	3.0	038_neutral	1.0	trustworthiness	230.80403465172412	
35.0	208.50590956248834	fix	3.0		443	40.0	female	west_asian	1.5777954635893354	neutral	038	sub-03	2.0	3.0	038_neutral	1.0	trustworthiness	231.41225216588327	3.7665633015189997
35.0	208.597690025902	pulse	3.0	t		40.0	female	west_asian	1.5777954635893354	neutral	038	sub-03	2.0	3.0	038_neutral	1.0	trustworthiness	231.50403262929694	
35.0	209.29766596807394	pulse	3.0	t		40.0	female	west_asian	1.5777954635893354	neutral	038	sub-03	2.0	3.0	038_neutral	1.0	trustworthiness	232.20400857146888	
35.0	209.9976512677449	pulse	3.0	t		40.0	female	west_asian	1.5777954635893354	neutral	038	sub-03	2.0	3.0	038_neutral	1.0	trustworthiness	232.90399387113985	
35.0	210.69763203959337	pulse	3.0	t		40.0	female	west_asian	1.5777954635893354	neutral	038	sub-03	2.0	3.0	038_neutral	1.0	trustworthiness	233.6039746429883	
35.0	211.39762216894133	pulse	3.0	t		40.0	female	west_asian	1.5777954635893354	neutral	038	sub-03	2.0	3.0	038_neutral	1.0	trustworthiness	234.30396477233626	
35.0	212.09760414820948	pulse	3.0	t		40.0	female	west_asian	1.5777954635893354	neutral	038	sub-03	2.0	3.0	038_neutral	1.0	trustworthiness	235.00394675160442	
36.0	212.27247286400734	face	0.0		146	25.0	female	black	3.858336649423	smiling	126	sub-03	2.0	3.0	126_smiling	0.0		235.17881546740227	1.2416715994772858
36.0	212.7975997109438	pulse	0.0	t		25.0	female	black	3.858336649423	smiling	126	sub-03	2.0	3.0	126_smiling	0.0		235.70394231433875	
36.0	213.4975835013406	pulse	0.0	t		25.0	female	black	3.858336649423	smiling	126	sub-03	2.0	3.0	126_smiling	0.0		236.40392610473555	
36.0	213.51414446348463	fix	1.0		443	25.0	female	black	3.858336649423	smiling	126	sub-03	2.0	3.0	126_smiling	0.0		236.42048706687956	3.7582342218229314
36.0	214.19756849915666	pulse	1.0	t		25.0	female	black	3.858336649423	smiling	126	sub-03	2.0	3.0	126_smiling	0.0		237.1039111025516	
36.0	214.89754323390935	pulse	1.0	t		25.0	female	black	3.858336649423	smiling	126	sub-03	2.0	3.0	126_smiling	0.0		237.80388583730428	
36.0	215.59753336325684	pulse	1.0	t		25.0	female	black	3.858336649423	smiling	126	sub-03	2.0	3.0	126_smiling	0.0		238.50387596665178	
36.0	216.29751413510576	pulse	1.0	t		25.0	female	black	3.858336649423	smiling	126	sub-03	2.0	3.0	126_smiling	0.0		239.2038567385007	
36.0	216.99748856800352	pulse	1.0	t		25.0	female	black	3.858336649423	smiling	126	sub-03	2.0	3.0	126_smiling	0.0		239.90383117139845	
37.0	217.27237868530756	face	0.0		145	24.0	male	white	3.1153999204138483	smiling	012	sub-03	2.0	3.0	012_smiling	0.0		240.1787212887025	1.2333219936544992
37.0	217.69751069396125	pulse	0.0	t		24.0	male	white	3.1153999204138483	smiling	012	sub-03	2.0	3.0	012_smiling	0.0		240.60385329735618	
37.0	218.39748331572991	pulse	0.0	t		24.0	male	white	3.1153999204138483	smiling	012	sub-03	2.0	3.0	012_smiling	0.0		241.30382591912485	
37.0	218.50570067896206	fix	1.0		444	24.0	male	white	3.1153999204138483	smiling	012	sub-03	2.0	3.0	012_smiling	0.0		241.412043282357	3.7665732627274338
37.0	219.09746680427224	pulse	1.0	t		24.0	male	white	3.1153999204138483	smiling	012	sub-03	2.0	3.0	012_smiling	0.0		242.00380940766718	
37.0	219.79744817983055	pulse	1.0	t		24.0	male	white	3.1153999204138483	smiling	012	sub-03	2.0	3.0	012_smiling	0.0		242.7037907832255	
37.0	220.49747664473898	pulse	1.0	t		24.0	male	white	3.1153999204138483	smiling	012	sub-03	2.0	3.0	012_smiling	0.0		243.4038192481339	
37.0	221.19741274207627	pulse	1.0	t		24.0	male	white	3.1153999204138483	smiling	012	sub-03	2.0	3.0	012_smiling	0.0		244.1037553454712	
37.0	221.89739985287588	pulse	1.0	t		24.0	male	white	3.1153999204138483	smiling	012	sub-03	2.0	3.0	012_smiling	0.0		244.8037424562708	
38.0	222.2722739416895	face	0.0		145	22.0	female	west_asian	3.8205332272184642	neutral	066	sub-03	2.0	3.0	066_neutral	0.0		245.17861654508442	1.2333177676869127
38.0	222.59739149149755	pulse	0.0	t		22.0	female	west_asian	3.8205332272184642	neutral	066	sub-03	2.0	3.0	066_neutral	0.0		245.50373409489248	
38.0	223.2973758856042	pulse	0.0	t		22.0	female	west_asian	3.8205332272184642	neutral	066	sub-03	2.0	3.0	066_neutral	0.0		246.20371848899913	
38.0	223.5055917093764	fix	1.0		444	22.0	female	west_asian	3.8205332272184642	neutral	066	sub-03	2.0	3.0	066_neutral	0.0		246.41193431277134	3.758350134068678
38.0	223.99737175019345	pulse	1.0	t		22.0	female	west_asian	3.8205332272184642	neutral	066	sub-03	2.0	3.0	066_neutral	0.0		246.90371435358838	
38.0	224.69734195712363	pulse	1.0	t		22.0	female	west_asian	3.8205332272184642	neutral	066	sub-03	2.0	3.0	066_neutral	0.0		247.60368456051856	
38.0	225.39732816235892	pulse	1.0	t		22.0	female	west_asian	3.8205332272184642	neutral	066	sub-03	2.0	3.0	066_neutral	0.0		248.30367076575385	
38.0	226.09730501009517	pulse	1.0	t		22.0	female	west_asian	3.8205332272184642	neutral	066	sub-03	2.0	3.0	066_neutral	0.0		249.0036476134901	
38.0	226.79729272460463	pulse	1.0	t		22.0	female	west_asian	3.8205332272184642	neutral	066	sub-03	2.0	3.0	066_neutral	0.0		249.70363532799956	
39.0	227.26394184344508	face	0.0		146	31.0	female	west_asian	2.364902506963788	smiling	006	sub-03	2.0	3.0	006_smiling	0.0		250.17028444684001	1.2415439148940095
39.0	227.4972919095967	pulse	0.0	t		31.0	female	west_asian	2.364902506963788	smiling	006	sub-03	2.0	3.0	006_smiling	0.0		250.40363451299163	
39.0	228.19725879612452	pulse	0.0	t		31.0	female	west_asian	2.364902506963788	smiling	006	sub-03	2.0	3.0	006_smiling	0.0		251.10360139951945	
39.0	228.5054857583391	fix	1.0		444	31.0	female	west_asian	2.364902506963788	smiling	006	sub-03	2.0	3.0	006_smiling	0.0		251.41182836173402	3.7499241589798658
39.0	228.8972622070837	pulse	1.0	t		31.0	female	west_asian	2.364902506963788	smiling	006	sub-03	2.0	3.0	006_smiling	0.0		251.80360481047865	
39.0	229.59723845111057	pulse	1.0	t		31.0	female	west_asian	2.364902506963788	smiling	006	sub-03	2.0	3.0	006_smiling	0.0		252.5035810545055	
39.0	230.29722344892662	pulse	1.0	t		31.0	female	west_asian	2.364902506963788	smiling	006	sub-03	2.0	3.0	006_smiling	0.0		253.20356605232155	
39.0	230.9972096541619	pulse	1.0	t		31.0	female	west_asian	2.364902506963788	smiling	006	sub-03	2.0	3.0	006_smiling	0.0		253.90355225755684	
39.0	231.69718982230097	pulse	1.0	t		31.0	female	west_asian	2.364902506963788	smiling	006	sub-03	2.0	3.0	006_smiling	0.0		254.6035324256959	
40.0	232.25540991731896	fix	0.0		720													255.1617525207139	5.999871711706874
40.0	232.39718749801887	pulse	0.0	t														255.3035301014138	
40.0	233.09716313833587	pulse	0.0	t														256.0035057417308	
40.0	233.797149947281	pulse	0.0	t														256.70349255067595	
40.0	234.49713494509706	pulse	0.0	t														257.403477548492	
40.0	235.1971142076718	pulse	0.0	t														258.10345681106674	
40.0	235.89709920548785	pulse	0.0	t														258.8034418088828	
40.0	236.59708873112595	pulse	0.0	t														259.5034313345209	
40.0	237.29707161595843	pulse	0.0	t														260.20341421935336	
40.0	237.99705902861297	pulse	0.0	t														260.9034016320079	
