trial_nr	onset	event_type	phase	response	nr_frames	face_age	face_sex	face_eth	attractiveness	expression	face_id	sub_id	ses	run	trial_type	catch	rating_type	onset_abs	duration
-1.0	0.05857130308595515	fix	0.0		713													26.431649657652088	5.957944078982109
-1.0	0.7000577448243348	pulse	0.0	t														27.073136099390467	
-1.0	1.4000469686079668	pulse	0.0	t														27.7731253231741	
-1.0	2.100033173843258	pulse	0.0	t														28.47311152840939	
-1.0	2.800015454966342	pulse	0.0	t														29.173093809532475	
-1.0	3.4999974342345013	pulse	0.0	t														29.873075788800634	
-1.0	4.199972168986278	pulse	0.0	t														30.57305052355241	
-1.0	4.89996078906006	pulse	0.0	t														31.273039143626193	
-1.0	5.600059586138741	pulse	0.0	t														31.973137940704873	
0.0	6.016515382068064	face	0.0		144	30.0	female	black	2.7345801830481498	smiling	062	sub-03	2.0	6.0	062_smiling	0.0		32.3895937366342	1.2333023730916466
0.0	6.300092880724151	pulse	0.0	t		30.0	female	black	2.7345801830481498	smiling	062	sub-03	2.0	6.0	062_smiling	0.0		32.67317123529028	
0.0	6.99993630863537	pulse	0.0	t		30.0	female	black	2.7345801830481498	smiling	062	sub-03	2.0	6.0	062_smiling	0.0		33.3730146632015	
0.0	7.249817755159711	fix	1.0		445	30.0	female	black	2.7345801830481498	smiling	062	sub-03	2.0	6.0	062_smiling	0.0		33.62289610972584	3.7582399570646885
0.0	7.699919495323229	pulse	1.0	t		30.0	female	black	2.7345801830481498	smiling	062	sub-03	2.0	6.0	062_smiling	0.0		34.07299784988936	
0.0	8.399908417251027	pulse	1.0	t		30.0	female	black	2.7345801830481498	smiling	062	sub-03	2.0	6.0	062_smiling	0.0		34.77298677181716	
0.0	9.099878322326731	pulse	1.0	t		30.0	female	black	2.7345801830481498	smiling	062	sub-03	2.0	6.0	062_smiling	0.0		35.47295667689286	
0.0	9.799872375787345	pulse	1.0	t		30.0	female	black	2.7345801830481498	smiling	062	sub-03	2.0	6.0	062_smiling	0.0		36.17295073035348	
0.0	10.499854958765354	pulse	1.0	t		30.0	female	black	2.7345801830481498	smiling	062	sub-03	2.0	6.0	062_smiling	0.0		36.87293331333149	
1.0	11.0080577122244	face	0.0		146	28.0	male	east_asian	1.5563072025467568	neutral	005	sub-03	2.0	6.0	005_neutral	0.0		37.38113606679053	1.2416556011721696
1.0	11.199848710370134	pulse	0.0	t		28.0	male	east_asian	1.5563072025467568	neutral	005	sub-03	2.0	6.0	005_neutral	0.0		37.572927064936266	
1.0	11.899817106172122	pulse	0.0	t		28.0	male	east_asian	1.5563072025467568	neutral	005	sub-03	2.0	6.0	005_neutral	0.0		38.272895460738255	
1.0	12.249713313396569	fix	1.0		445	28.0	male	east_asian	1.5563072025467568	neutral	005	sub-03	2.0	6.0	005_neutral	0.0		38.6227916679627	3.758220336501836
1.0	12.599816894873584	pulse	1.0	t		28.0	male	east_asian	1.5563072025467568	neutral	005	sub-03	2.0	6.0	005_neutral	0.0		38.972895249439716	
1.0	13.299803703818725	pulse	1.0	t		28.0	male	east_asian	1.5563072025467568	neutral	005	sub-03	2.0	6.0	005_neutral	0.0		39.67288205838486	
1.0	13.99976364768554	pulse	1.0	t		28.0	male	east_asian	1.5563072025467568	neutral	005	sub-03	2.0	6.0	005_neutral	0.0		40.37284200225167	
1.0	14.699754380742888	pulse	1.0	t		28.0	male	east_asian	1.5563072025467568	neutral	005	sub-03	2.0	6.0	005_neutral	0.0		41.07283273530902	
1.0	15.399747226784712	pulse	1.0	t		28.0	male	east_asian	1.5563072025467568	neutral	005	sub-03	2.0	6.0	005_neutral	0.0		41.772825581350844	
2.0	16.007933649898405	face	0.0		146	40.0	male	white	1.868682849184242	neutral	172	sub-03	2.0	6.0	172_neutral	1.0	attractiveness	42.38101200446454	1.2416728068965313
2.0	16.099808593866328	pulse	0.0	t		40.0	male	white	1.868682849184242	neutral	172	sub-03	2.0	6.0	172_neutral	1.0	attractiveness	42.47288694843246	
2.0	16.79970937419148	pulse	0.0	t		40.0	male	white	1.868682849184242	neutral	172	sub-03	2.0	6.0	172_neutral	1.0	attractiveness	43.17278772875761	
2.0	17.249606456794936	fix	1.0		177	40.0	male	white	1.868682849184242	neutral	172	sub-03	2.0	6.0	172_neutral	1.0	attractiveness	43.62268481136107	1.508325004656399
2.0	17.49970433321596	pulse	1.0	t		40.0	male	white	1.868682849184242	neutral	172	sub-03	2.0	6.0	172_neutral	1.0	attractiveness	43.87278268778209	
2.0	18.199693255144666	pulse	1.0	t		40.0	male	white	1.868682849184242	neutral	172	sub-03	2.0	6.0	172_neutral	1.0	attractiveness	44.5727716097108	
2.0	18.757931461451335	rating	2.0		293	40.0	male	white	1.868682849184242	neutral	172	sub-03	2.0	6.0	172_neutral	1.0	attractiveness	45.13100981601747	2.4915738739828157
2.0	18.899691534572412	pulse	2.0	t		40.0	male	white	1.868682849184242	neutral	172	sub-03	2.0	6.0	172_neutral	1.0	attractiveness	45.272769889138544	
2.0	19.599658421099775	pulse	2.0	t		40.0	male	white	1.868682849184242	neutral	172	sub-03	2.0	6.0	172_neutral	1.0	attractiveness	45.97273677566591	
2.0	20.136197190879102	response	2.0	w		40.0	male	white	1.868682849184242	neutral	172	sub-03	2.0	6.0	172_neutral	1.0	attractiveness	46.509275545445234	
2.0	20.299629835450105	pulse	2.0	t		40.0	male	white	1.868682849184242	neutral	172	sub-03	2.0	6.0	172_neutral	1.0	attractiveness	46.67270819001624	
2.0	20.99962449261966	pulse	2.0	t		40.0	male	white	1.868682849184242	neutral	172	sub-03	2.0	6.0	172_neutral	1.0	attractiveness	47.37270284718579	
2.0	21.24950533543415	fix	3.0		444	40.0	male	white	1.868682849184242	neutral	172	sub-03	2.0	6.0	172_neutral	1.0	attractiveness	47.62258369000028	3.758255049804575
2.0	21.699614923822082	pulse	3.0	t		40.0	male	white	1.868682849184242	neutral	172	sub-03	2.0	6.0	172_neutral	1.0	attractiveness	48.072693278388215	
2.0	22.399610486556412	pulse	3.0	t		40.0	male	white	1.868682849184242	neutral	172	sub-03	2.0	6.0	172_neutral	1.0	attractiveness	48.772688841122545	
2.0	23.09959880477527	pulse	3.0	t		40.0	male	white	1.868682849184242	neutral	172	sub-03	2.0	6.0	172_neutral	1.0	attractiveness	49.4726771593414	
2.0	23.79957746364107	pulse	3.0	t		40.0	male	white	1.868682849184242	neutral	172	sub-03	2.0	6.0	172_neutral	1.0	attractiveness	50.172655818207204	
2.0	24.499562461456662	pulse	3.0	t		40.0	male	white	1.868682849184242	neutral	172	sub-03	2.0	6.0	172_neutral	1.0	attractiveness	50.872640816022795	
3.0	25.007760385238726	face	0.0		146	27.0	female	white	3.504576203740549	neutral	144	sub-03	2.0	6.0	144_neutral	0.0		51.38083873980486	1.2416562048829292
3.0	25.19955198709522	pulse	0.0	t		27.0	female	white	3.504576203740549	neutral	144	sub-03	2.0	6.0	144_neutral	0.0		51.57263034166135	
3.0	25.899532457088753	pulse	0.0	t		27.0	female	white	3.504576203740549	neutral	144	sub-03	2.0	6.0	144_neutral	0.0		52.272610811654886	
3.0	26.249416590121655	fix	1.0		445	27.0	female	white	3.504576203740549	neutral	144	sub-03	2.0	6.0	144_neutral	0.0		52.62249494468779	3.7665762812748653
3.0	26.59952137901746	pulse	1.0	t		27.0	female	white	3.504576203740549	neutral	144	sub-03	2.0	6.0	144_neutral	0.0		52.97259973358359	
3.0	27.299503056430694	pulse	1.0	t		27.0	female	white	3.504576203740549	neutral	144	sub-03	2.0	6.0	144_neutral	0.0		53.67258141099683	
3.0	28.00781894507145	pulse	1.0	t		27.0	female	white	3.504576203740549	neutral	144	sub-03	2.0	6.0	144_neutral	0.0		54.38089729963758	
3.0	28.699474863191426	pulse	1.0	t		27.0	female	white	3.504576203740549	neutral	144	sub-03	2.0	6.0	144_neutral	0.0		55.07255321775756	
3.0	29.399459559153	pulse	1.0	t		27.0	female	white	3.504576203740549	neutral	144	sub-03	2.0	6.0	144_neutral	0.0		55.772537913719134	
4.0	30.01599287139652	face	0.0		145	31.0	male	west_asian	1.9538400318344609	smiling	070	sub-03	2.0	6.0	070_smiling	0.0		56.38907122596265	1.233302071237631
4.0	30.099457536725822	pulse	0.0	t		31.0	male	west_asian	1.9538400318344609	smiling	070	sub-03	2.0	6.0	070_smiling	0.0		56.472535891291955	
4.0	30.79941989543113	pulse	0.0	t		31.0	male	west_asian	1.9538400318344609	smiling	070	sub-03	2.0	6.0	070_smiling	0.0		57.17249824999726	
4.0	31.24929494263415	fix	1.0		444	31.0	male	west_asian	1.9538400318344609	smiling	070	sub-03	2.0	6.0	070_smiling	0.0		57.622373297200284	3.7665651126471857
4.0	31.507748160119263	pulse	1.0	t		31.0	male	west_asian	1.9538400318344609	smiling	070	sub-03	2.0	6.0	070_smiling	0.0		57.880826514685396	
4.0	32.1993947207402	pulse	1.0	t		31.0	male	west_asian	1.9538400318344609	smiling	070	sub-03	2.0	6.0	070_smiling	0.0		58.572473075306334	
4.0	32.899378511137	pulse	1.0	t		31.0	male	west_asian	1.9538400318344609	smiling	070	sub-03	2.0	6.0	070_smiling	0.0		59.272456865703134	
4.0	33.607706775825136	pulse	1.0	t		31.0	male	west_asian	1.9538400318344609	smiling	070	sub-03	2.0	6.0	070_smiling	0.0		59.98078513039127	
4.0	34.30766883267643	pulse	1.0	t		31.0	male	west_asian	1.9538400318344609	smiling	070	sub-03	2.0	6.0	070_smiling	0.0		60.68074718724256	
5.0	35.01586005528134	face	0.0		146	37.0	male	white	3.898925586947871	neutral	101	sub-03	2.0	6.0	101_neutral	0.0		61.38893840984747	1.2333461420394087
5.0	35.00206015905951	pulse	0.0	t		37.0	male	white	3.898925586947871	neutral	101	sub-03	2.0	6.0	101_neutral	0.0		61.37513851362564	
5.0	35.70764667653293	pulse	0.0	t		37.0	male	white	3.898925586947871	neutral	101	sub-03	2.0	6.0	101_neutral	0.0		62.080725031099064	
5.0	36.249206197320746	fix	1.0		445	37.0	male	white	3.898925586947871	neutral	101	sub-03	2.0	6.0	101_neutral	0.0		62.62228455188688	3.774887853393011
5.0	36.40762080757668	pulse	1.0	t		37.0	male	white	3.898925586947871	neutral	101	sub-03	2.0	6.0	101_neutral	0.0		62.78069916214281	
5.0	37.107613955472516	pulse	1.0	t		37.0	male	white	3.898925586947871	neutral	101	sub-03	2.0	6.0	101_neutral	0.0		63.48069231003865	
5.0	37.80759804772333	pulse	1.0	t		37.0	male	white	3.898925586947871	neutral	101	sub-03	2.0	6.0	101_neutral	0.0		64.18067640228946	
5.0	38.50758485666847	pulse	1.0	t		37.0	male	white	3.898925586947871	neutral	101	sub-03	2.0	6.0	101_neutral	0.0		64.8806632112346	
5.0	39.20756925077512	pulse	1.0	t		37.0	male	white	3.898925586947871	neutral	101	sub-03	2.0	6.0	101_neutral	0.0		65.58064760534126	
5.0	39.89921913179933	pulse	1.0	t		37.0	male	white	3.898925586947871	neutral	101	sub-03	2.0	6.0	101_neutral	0.0		66.27229748636546	
6.0	40.02409405071376	face	0.0		146	28.0	male	white	3.9076800636689217	smiling	033	sub-03	2.0	6.0	033_smiling	1.0	dominance	66.39717240527989	1.2333364826845354
6.0	40.60754377422927	pulse	0.0	t		28.0	male	white	3.9076800636689217	smiling	033	sub-03	2.0	6.0	033_smiling	1.0	dominance	66.9806221287954	
6.0	41.25743053339829	fix	1.0		176	28.0	male	white	3.9076800636689217	smiling	033	sub-03	2.0	6.0	033_smiling	1.0	dominance	67.63050888796442	1.499974493269292
6.0	41.307538431399735	pulse	1.0	t		28.0	male	white	3.9076800636689217	smiling	033	sub-03	2.0	6.0	033_smiling	1.0	dominance	67.68061678596587	
6.0	42.00752554219889	pulse	1.0	t		28.0	male	white	3.9076800636689217	smiling	033	sub-03	2.0	6.0	033_smiling	1.0	dominance	68.38060389676502	
6.0	42.70750269179007	pulse	1.0	t		28.0	male	white	3.9076800636689217	smiling	033	sub-03	2.0	6.0	033_smiling	1.0	dominance	69.0805810463562	
6.0	42.757405026667584	rating	2.0		295	28.0	male	white	3.9076800636689217	smiling	033	sub-03	2.0	6.0	033_smiling	1.0	dominance	69.13048338123372	2.499926196499473
6.0	43.4023317076435	pulse	2.0	t		28.0	male	white	3.9076800636689217	smiling	033	sub-03	2.0	6.0	033_smiling	1.0	dominance	69.77541006220963	
6.0	44.102349003924246	pulse	2.0	t		28.0	male	white	3.9076800636689217	smiling	033	sub-03	2.0	6.0	033_smiling	1.0	dominance	70.47542735849038	
6.0	44.190784312364485	response	2.0	y		28.0	male	white	3.9076800636689217	smiling	033	sub-03	2.0	6.0	033_smiling	1.0	dominance	70.56386266693062	
6.0	44.807448025884696	pulse	2.0	t		28.0	male	white	3.9076800636689217	smiling	033	sub-03	2.0	6.0	033_smiling	1.0	dominance	71.18052638045083	
6.0	45.25733122316706	fix	3.0		444	28.0	male	white	3.9076800636689217	smiling	033	sub-03	2.0	6.0	033_smiling	1.0	dominance	71.63040957773319	3.7582514275463836
6.0	45.50744087192561	pulse	3.0	t		28.0	male	white	3.9076800636689217	smiling	033	sub-03	2.0	6.0	033_smiling	1.0	dominance	71.88051922649174	
6.0	46.207426171596126	pulse	3.0	t		28.0	male	white	3.9076800636689217	smiling	033	sub-03	2.0	6.0	033_smiling	1.0	dominance	72.58050452616226	
6.0	46.907400000784946	pulse	3.0	t		28.0	male	white	3.9076800636689217	smiling	033	sub-03	2.0	6.0	033_smiling	1.0	dominance	73.28047835535108	
6.0	47.6074097506953	pulse	3.0	t		28.0	male	white	3.9076800636689217	smiling	033	sub-03	2.0	6.0	033_smiling	1.0	dominance	73.98048810526143	
6.0	48.307379957625926	pulse	3.0	t		28.0	male	white	3.9076800636689217	smiling	033	sub-03	2.0	6.0	033_smiling	1.0	dominance	74.68045831219206	
7.0	49.01558265071344	face	0.0		147	24.0	male	white	3.1153999204138483	neutral	012	sub-03	2.0	6.0	012_neutral	0.0		75.38866100527957	1.241644734399415
7.0	49.00902213833342	pulse	0.0	t		24.0	male	white	3.1153999204138483	neutral	012	sub-03	2.0	6.0	012_neutral	0.0		75.38210049289955	
7.0	49.70734995325802	pulse	0.0	t		24.0	male	white	3.1153999204138483	neutral	012	sub-03	2.0	6.0	012_neutral	0.0		76.08042830782415	
7.0	50.257227385112856	fix	1.0		443	24.0	male	white	3.1153999204138483	neutral	012	sub-03	2.0	6.0	012_neutral	0.0		76.63030573967899	3.766572960873418
7.0	50.407351251233194	pulse	1.0	t		24.0	male	white	3.1153999204138483	neutral	012	sub-03	2.0	6.0	012_neutral	0.0		76.78042960579933	
7.0	51.10732900453422	pulse	1.0	t		24.0	male	white	3.1153999204138483	neutral	012	sub-03	2.0	6.0	012_neutral	0.0		77.48040735910035	
7.0	51.807319435736645	pulse	1.0	t		24.0	male	white	3.1153999204138483	neutral	012	sub-03	2.0	6.0	012_neutral	0.0		78.18039779030278	
7.0	52.50729960387616	pulse	1.0	t		24.0	male	white	3.1153999204138483	neutral	012	sub-03	2.0	6.0	012_neutral	0.0		78.8803779584423	
7.0	53.20727132008051	pulse	1.0	t		24.0	male	white	3.1153999204138483	neutral	012	sub-03	2.0	6.0	012_neutral	0.0		79.58034967464664	
7.0	53.90727744773267	pulse	1.0	t		24.0	male	white	3.1153999204138483	neutral	012	sub-03	2.0	6.0	012_neutral	0.0		80.2803558022988	
8.0	54.023800345986274	face	0.0		146	21.0	male	east_asian/white	3.501790688420215	neutral	036	sub-03	2.0	6.0	036_neutral	0.0		80.3968787005524	1.233318371396308
8.0	54.6072476546633	pulse	0.0	t		21.0	male	east_asian/white	3.501790688420215	neutral	036	sub-03	2.0	6.0	036_neutral	0.0		80.98032600922943	
8.0	55.25711871738258	fix	1.0		443	21.0	male	east_asian/white	3.501790688420215	neutral	036	sub-03	2.0	6.0	036_neutral	0.0		81.63019707194871	3.758260483191407
8.0	55.299442987324255	pulse	1.0	t		21.0	male	east_asian/white	3.501790688420215	neutral	036	sub-03	2.0	6.0	036_neutral	0.0		81.67252134189039	
8.0	56.007235157874675	pulse	1.0	t		21.0	male	east_asian/white	3.501790688420215	neutral	036	sub-03	2.0	6.0	036_neutral	0.0		82.38031351244081	
8.0	56.707197818434906	pulse	1.0	t		21.0	male	east_asian/white	3.501790688420215	neutral	036	sub-03	2.0	6.0	036_neutral	0.0		83.08027617300104	
8.0	57.40719941826501	pulse	1.0	t		21.0	male	east_asian/white	3.501790688420215	neutral	036	sub-03	2.0	6.0	036_neutral	0.0		83.78027777283114	
8.0	58.10717868083975	pulse	1.0	t		21.0	male	east_asian/white	3.501790688420215	neutral	036	sub-03	2.0	6.0	036_neutral	0.0		84.48025703540588	
8.0	58.807167904623384	pulse	1.0	t		21.0	male	east_asian/white	3.501790688420215	neutral	036	sub-03	2.0	6.0	036_neutral	0.0		85.18024625918952	
9.0	59.01537920057399	face	0.0		146	24.0	female	east_asian	4.409868682849185	smiling	030	sub-03	2.0	6.0	030_smiling	0.0		85.38845755514012	1.2416549974623194
9.0	59.50714445050471	pulse	0.0	t		24.0	female	east_asian	4.409868682849185	smiling	030	sub-03	2.0	6.0	030_smiling	0.0		85.88022280507084	
9.0	60.20714212622261	pulse	0.0	t		24.0	female	east_asian	4.409868682849185	smiling	030	sub-03	2.0	6.0	030_smiling	0.0		86.58022048078874	
9.0	60.25703419803631	fix	1.0		445	24.0	female	east_asian	4.409868682849185	smiling	030	sub-03	2.0	6.0	030_smiling	0.0		86.63011255260244	3.766573866437284
9.0	60.90711354057294	pulse	1.0	t		24.0	female	east_asian	4.409868682849185	smiling	030	sub-03	2.0	6.0	030_smiling	0.0		87.28019189513907	
9.0	61.60711091443591	pulse	1.0	t		24.0	female	east_asian	4.409868682849185	smiling	030	sub-03	2.0	6.0	030_smiling	0.0		87.98018926900204	
9.0	62.30707236757735	pulse	1.0	t		24.0	female	east_asian	4.409868682849185	smiling	030	sub-03	2.0	6.0	030_smiling	0.0		88.68015072214348	
9.0	63.007084834180205	pulse	1.0	t		24.0	female	east_asian	4.409868682849185	smiling	030	sub-03	2.0	6.0	030_smiling	0.0		89.38016318874634	
9.0	63.70707375610891	pulse	1.0	t		24.0	female	east_asian	4.409868682849185	smiling	030	sub-03	2.0	6.0	030_smiling	0.0		90.08015211067504	
10.0	64.02360806447359	face	0.0		145	40.0	male	white	1.868682849184242	smiling	172	sub-03	2.0	6.0	172_smiling	0.0		90.39668641903972	1.2333026749465716
10.0	64.40704275562075	pulse	0.0	t		40.0	male	white	1.868682849184242	smiling	172	sub-03	2.0	6.0	172_smiling	0.0		90.78012111018688	
10.0	65.10701477368002	pulse	0.0	t		40.0	male	white	1.868682849184242	smiling	172	sub-03	2.0	6.0	172_smiling	0.0		91.48009312824615	
10.0	65.25691073942016	fix	1.0		445	40.0	male	white	1.868682849184242	smiling	172	sub-03	2.0	6.0	172_smiling	0.0		91.6299890939863	3.766586846194514
10.0	65.80701094012329	pulse	1.0	t		40.0	male	white	1.868682849184242	smiling	172	sub-03	2.0	6.0	172_smiling	0.0		92.18008929468942	
10.0	66.50698507116704	pulse	1.0	t		40.0	male	white	1.868682849184242	smiling	172	sub-03	2.0	6.0	172_smiling	0.0		92.88006342573317	
10.0	67.20699542478633	pulse	1.0	t		40.0	male	white	1.868682849184242	smiling	172	sub-03	2.0	6.0	172_smiling	0.0		93.58007377935246	
10.0	67.90697710219956	pulse	1.0	t		40.0	male	white	1.868682849184242	smiling	172	sub-03	2.0	6.0	172_smiling	0.0		94.2800554567657	
10.0	68.60694579985648	pulse	1.0	t		40.0	male	white	1.868682849184242	smiling	172	sub-03	2.0	6.0	172_smiling	0.0		94.98002415442261	
11.0	69.02349758561468	face	0.0		145	40.0	male	black	2.408674890569041	neutral	061	sub-03	2.0	6.0	061_neutral	0.0		95.39657594018081	1.2333047879301375
11.0	69.30693834404246	pulse	0.0	t		40.0	male	black	2.408674890569041	neutral	061	sub-03	2.0	6.0	061_neutral	0.0		95.6800166986086	
11.0	70.00692666226132	pulse	0.0	t		40.0	male	black	2.408674890569041	neutral	061	sub-03	2.0	6.0	061_neutral	0.0		96.38000501682745	
11.0	70.25680237354482	fix	1.0		445	40.0	male	black	2.408674890569041	neutral	061	sub-03	2.0	6.0	061_neutral	0.0		96.62988072811095	3.7665726590175836
11.0	70.70691709346374	pulse	1.0	t		40.0	male	black	2.408674890569041	neutral	061	sub-03	2.0	6.0	061_neutral	0.0		97.07999544802988	
11.0	71.40690450611874	pulse	1.0	t		40.0	male	black	2.408674890569041	neutral	061	sub-03	2.0	6.0	061_neutral	0.0		97.77998286068487	
11.0	72.10688708909674	pulse	1.0	t		40.0	male	black	2.408674890569041	neutral	061	sub-03	2.0	6.0	061_neutral	0.0		98.47996544366288	
11.0	72.80686755909028	pulse	1.0	t		40.0	male	black	2.408674890569041	neutral	061	sub-03	2.0	6.0	061_neutral	0.0		99.17994591365641	
11.0	73.5068579902927	pulse	1.0	t		40.0	male	black	2.408674890569041	neutral	061	sub-03	2.0	6.0	061_neutral	0.0		99.87993634485883	
12.0	74.0233750325624	face	0.0		145	31.0	female	east_asian	3.395941106247513	neutral	087	sub-03	2.0	6.0	087_neutral	0.0		100.39645338712853	1.2333216917995742
12.0	74.20684057327071	pulse	0.0	t		31.0	female	east_asian	3.395941106247513	neutral	087	sub-03	2.0	6.0	087_neutral	0.0		100.57991892783684	
12.0	74.90680927092671	pulse	0.0	t		31.0	female	east_asian	3.395941106247513	neutral	087	sub-03	2.0	6.0	087_neutral	0.0		101.27988762549285	
12.0	75.25669672436197	fix	1.0		444	31.0	female	east_asian	3.395941106247513	neutral	087	sub-03	2.0	6.0	087_neutral	0.0		101.6297750789281	3.766573866437284
12.0	75.60681600228963	pulse	1.0	t		31.0	female	east_asian	3.395941106247513	neutral	087	sub-03	2.0	6.0	087_neutral	0.0		101.97989435685577	
12.0	76.30679013333247	pulse	1.0	t		31.0	female	east_asian	3.395941106247513	neutral	087	sub-03	2.0	6.0	087_neutral	0.0		102.6798684878986	
12.0	77.00677120703585	pulse	1.0	t		31.0	female	east_asian	3.395941106247513	neutral	087	sub-03	2.0	6.0	087_neutral	0.0		103.37984956160199	
12.0	77.70675228073924	pulse	1.0	t		31.0	female	east_asian	3.395941106247513	neutral	087	sub-03	2.0	6.0	087_neutral	0.0		104.07983063530537	
12.0	78.40674391936136	pulse	1.0	t		31.0	female	east_asian	3.395941106247513	neutral	087	sub-03	2.0	6.0	087_neutral	0.0		104.7798222739275	
13.0	79.02327059079926	face	0.0		145	25.0	female	black	3.858336649423	neutral	126	sub-03	2.0	6.0	126_neutral	0.0		105.39634894536539	1.2333222955094243
13.0	79.10682128474855	pulse	0.0	t		25.0	female	black	3.858336649423	neutral	126	sub-03	2.0	6.0	126_neutral	0.0		105.47989963931468	
13.0	79.80670636862305	pulse	0.0	t		25.0	female	black	3.858336649423	neutral	126	sub-03	2.0	6.0	126_neutral	0.0		106.17978472318919	
13.0	80.25659288630868	fix	1.0		444	25.0	female	black	3.858336649423	neutral	126	sub-03	2.0	6.0	126_neutral	0.0		106.62967124087481	3.766583223935413
13.0	80.49864784139118	pulse	1.0	t		25.0	female	black	3.858336649423	neutral	126	sub-03	2.0	6.0	126_neutral	0.0		106.87172619595731	
13.0	81.1986014463073	pulse	1.0	t		25.0	female	black	3.858336649423	neutral	126	sub-03	2.0	6.0	126_neutral	0.0		107.57167980087343	
13.0	81.89859912202519	pulse	1.0	t		25.0	female	black	3.858336649423	neutral	126	sub-03	2.0	6.0	126_neutral	0.0		108.27167747659132	
13.0	82.59858864766284	pulse	1.0	t		25.0	female	black	3.858336649423	neutral	126	sub-03	2.0	6.0	126_neutral	0.0		108.97166700222897	
13.0	83.30665520423372	pulse	1.0	t		25.0	female	black	3.858336649423	neutral	126	sub-03	2.0	6.0	126_neutral	0.0		109.67973355879985	
14.0	84.0231761102441	face	0.0		146	21.0	male	black	2.969757262236371	neutral	137	sub-03	2.0	6.0	137_neutral	1.0	trustworthiness	110.39625446481023	1.2333235029291245
14.0	84.00940851248652	pulse	0.0	t		21.0	male	black	2.969757262236371	neutral	137	sub-03	2.0	6.0	137_neutral	1.0	trustworthiness	110.38248686705265	
14.0	84.70662037018883	pulse	0.0	t		21.0	male	black	2.969757262236371	neutral	137	sub-03	2.0	6.0	137_neutral	1.0	trustworthiness	111.07969872475496	
14.0	85.25649961317322	fix	1.0		177	21.0	male	black	2.969757262236371	neutral	137	sub-03	2.0	6.0	137_neutral	1.0	trustworthiness	111.62957796773935	1.499957891253871
14.0	85.40661049953633	pulse	1.0	t		21.0	male	black	2.969757262236371	neutral	137	sub-03	2.0	6.0	137_neutral	1.0	trustworthiness	111.77968885410246	
14.0	86.09852782391954	pulse	1.0	t		21.0	male	black	2.969757262236371	neutral	137	sub-03	2.0	6.0	137_neutral	1.0	trustworthiness	112.47160617848567	
14.0	86.75645750442709	rating	2.0		294	21.0	male	black	2.969757262236371	neutral	137	sub-03	2.0	6.0	137_neutral	1.0	trustworthiness	113.12953585899322	2.499958796818646
14.0	86.80153770875859	pulse	2.0	t		21.0	male	black	2.969757262236371	neutral	137	sub-03	2.0	6.0	137_neutral	1.0	trustworthiness	113.17461606332472	
14.0	87.50140528505472	pulse	2.0	t		21.0	male	black	2.969757262236371	neutral	137	sub-03	2.0	6.0	137_neutral	1.0	trustworthiness	113.87448363962085	
14.0	87.86801821150402	response	2.0	y		21.0	male	black	2.969757262236371	neutral	137	sub-03	2.0	6.0	137_neutral	1.0	trustworthiness	114.24109656607015	
14.0	88.19850817317183	pulse	2.0	t		21.0	male	black	2.969757262236371	neutral	137	sub-03	2.0	6.0	137_neutral	1.0	trustworthiness	114.57158652773796	
14.0	88.90653548861701	pulse	2.0	t		21.0	male	black	2.969757262236371	neutral	137	sub-03	2.0	6.0	137_neutral	1.0	trustworthiness	115.27961384318314	
14.0	89.25641630124574	fix	3.0		444	21.0	male	black	2.969757262236371	neutral	137	sub-03	2.0	6.0	137_neutral	1.0	trustworthiness	115.62949465581187	3.7665581699875474
14.0	89.59851620250993	pulse	3.0	t		21.0	male	black	2.969757262236371	neutral	137	sub-03	2.0	6.0	137_neutral	1.0	trustworthiness	115.97159455707606	
14.0	90.29846316661951	pulse	3.0	t		21.0	male	black	2.969757262236371	neutral	137	sub-03	2.0	6.0	137_neutral	1.0	trustworthiness	116.67154152118565	
14.0	90.99842099750367	pulse	3.0	t		21.0	male	black	2.969757262236371	neutral	137	sub-03	2.0	6.0	137_neutral	1.0	trustworthiness	117.3714993520698	
14.0	91.70647004649436	pulse	3.0	t		21.0	male	black	2.969757262236371	neutral	137	sub-03	2.0	6.0	137_neutral	1.0	trustworthiness	118.07954840106049	
14.0	92.40645625172965	pulse	3.0	t		21.0	male	black	2.969757262236371	neutral	137	sub-03	2.0	6.0	137_neutral	1.0	trustworthiness	118.77953460629578	
15.0	93.02297447123328	face	0.0		145	27.0	female	white	3.504576203740549	smiling	144	sub-03	2.0	6.0	144_smiling	0.0		119.39605282579942	1.2333373882493106
15.0	93.09833373127822	pulse	0.0	t		27.0	female	white	3.504576203740549	smiling	144	sub-03	2.0	6.0	144_smiling	0.0		119.47141208584435	
15.0	93.8064319826035	pulse	0.0	t		27.0	female	white	3.504576203740549	smiling	144	sub-03	2.0	6.0	144_smiling	0.0		120.17951033716963	
15.0	94.2563118594826	fix	1.0		444	27.0	female	white	3.504576203740549	smiling	144	sub-03	2.0	6.0	144_smiling	0.0		120.62939021404873	3.7665633015194544
15.0	94.50641667856507	pulse	1.0	t		27.0	female	white	3.504576203740549	smiling	144	sub-03	2.0	6.0	144_smiling	0.0		120.8794950331312	
15.0	95.20639080960791	pulse	1.0	t		27.0	female	white	3.504576203740549	smiling	144	sub-03	2.0	6.0	144_smiling	0.0		121.57946916417404	
15.0	95.90637610927843	pulse	1.0	t		27.0	female	white	3.504576203740549	smiling	144	sub-03	2.0	6.0	144_smiling	0.0		122.27945446384456	
15.0	96.60636291822357	pulse	1.0	t		27.0	female	white	3.504576203740549	smiling	144	sub-03	2.0	6.0	144_smiling	0.0		122.9794412727897	
15.0	97.30634519934665	pulse	1.0	t		27.0	female	white	3.504576203740549	smiling	144	sub-03	2.0	6.0	144_smiling	0.0		123.67942355391278	
16.0	98.02287516100205	face	0.0		146	24.0	female	east_asian	2.9076800636689217	smiling	034	sub-03	2.0	6.0	034_smiling	0.0		124.39595351556818	1.2333301437338378
16.0	98.00894275051905	pulse	0.0	t		24.0	female	east_asian	2.9076800636689217	smiling	034	sub-03	2.0	6.0	034_smiling	0.0		124.38202110508519	
16.0	98.70633028771863	pulse	0.0	t		24.0	female	east_asian	2.9076800636689217	smiling	034	sub-03	2.0	6.0	034_smiling	0.0		125.07940864228476	
16.0	99.25620530473589	fix	1.0		443	24.0	female	east_asian	2.9076800636689217	smiling	034	sub-03	2.0	6.0	034_smiling	0.0		125.62928365930202	3.7665578681326224
16.0	99.40631558739005	pulse	1.0	t		24.0	female	east_asian	2.9076800636689217	smiling	034	sub-03	2.0	6.0	034_smiling	0.0		125.77939394195619	
16.0	100.09820966895313	pulse	1.0	t		24.0	female	east_asian	2.9076800636689217	smiling	034	sub-03	2.0	6.0	034_smiling	0.0		126.47128802351926	
16.0	100.79819406305887	pulse	1.0	t		24.0	female	east_asian	2.9076800636689217	smiling	034	sub-03	2.0	6.0	034_smiling	0.0		127.171272417625	
16.0	101.4981971721636	pulse	1.0	t		24.0	female	east_asian	2.9076800636689217	smiling	034	sub-03	2.0	6.0	034_smiling	0.0		127.87127552672973	
16.0	102.19810429143945	pulse	1.0	t		24.0	female	east_asian	2.9076800636689217	smiling	034	sub-03	2.0	6.0	034_smiling	0.0		128.57118264600558	
16.0	102.898093817078	pulse	1.0	t		24.0	female	east_asian	2.9076800636689217	smiling	034	sub-03	2.0	6.0	034_smiling	0.0		129.27117217164414	
17.0	103.02276317286851	face	0.0		146	22.0	male	black	2.767608436132113	smiling	044	sub-03	2.0	6.0	044_smiling	0.0		129.39584152743464	1.2333192769610832
17.0	103.59816967319057	pulse	0.0	t		22.0	male	black	2.767608436132113	smiling	044	sub-03	2.0	6.0	044_smiling	0.0		129.9712480277567	
17.0	104.25608244982959	fix	1.0		444	22.0	male	black	2.767608436132113	smiling	044	sub-03	2.0	6.0	044_smiling	0.0		130.62916080439572	3.766593185144302
17.0	104.29813897455733	pulse	1.0	t		22.0	male	black	2.767608436132113	smiling	044	sub-03	2.0	6.0	044_smiling	0.0		130.67121732912346	
17.0	104.99812336866307	pulse	1.0	t		22.0	male	black	2.767608436132113	smiling	044	sub-03	2.0	6.0	044_smiling	0.0		131.3712017232292	
17.0	105.6980884440618	pulse	1.0	t		22.0	male	black	2.767608436132113	smiling	044	sub-03	2.0	6.0	044_smiling	0.0		132.07116679862793	
17.0	106.39853890199083	pulse	1.0	t		22.0	male	black	2.767608436132113	smiling	044	sub-03	2.0	6.0	044_smiling	0.0		132.77161725655697	
17.0	107.09808711590085	pulse	1.0	t		22.0	male	black	2.767608436132113	smiling	044	sub-03	2.0	6.0	044_smiling	0.0		133.47116547046699	
17.0	107.79805913396012	pulse	1.0	t		22.0	male	black	2.767608436132113	smiling	044	sub-03	2.0	6.0	044_smiling	0.0		134.17113748852626	
18.0	108.0226756349739	face	0.0		145	22.0	female	west_asian	3.8205332272184642	neutral	066	sub-03	2.0	6.0	066_neutral	0.0		134.39575398954003	1.2333171639775173
18.0	108.49800247581334	pulse	0.0	t		22.0	female	west_asian	3.8205332272184642	neutral	066	sub-03	2.0	6.0	066_neutral	0.0		134.87108083037947	
18.0	109.20611249947524	pulse	0.0	t		22.0	female	west_asian	3.8205332272184642	neutral	066	sub-03	2.0	6.0	066_neutral	0.0		135.57919085404137	
18.0	109.25599279895141	fix	1.0		445	22.0	female	west_asian	3.8205332272184642	neutral	066	sub-03	2.0	6.0	066_neutral	0.0		135.62907115351754	3.7665605848260384
18.0	109.89795254902765	pulse	1.0	t		22.0	female	west_asian	3.8205332272184642	neutral	066	sub-03	2.0	6.0	066_neutral	0.0		136.27103090359378	
18.0	110.59793452829581	pulse	1.0	t		22.0	female	west_asian	3.8205332272184642	neutral	066	sub-03	2.0	6.0	066_neutral	0.0		136.97101288286194	
18.0	111.29791077232221	pulse	1.0	t		22.0	female	west_asian	3.8205332272184642	neutral	066	sub-03	2.0	6.0	066_neutral	0.0		137.67098912688834	
18.0	111.99795765037379	pulse	1.0	t		22.0	female	west_asian	3.8205332272184642	neutral	066	sub-03	2.0	6.0	066_neutral	0.0		138.37103600493992	
18.0	112.69793781851331	pulse	1.0	t		22.0	female	west_asian	3.8205332272184642	neutral	066	sub-03	2.0	6.0	066_neutral	0.0		139.07101617307944	
19.0	113.02255338377745	face	0.0		145	32.0	male	white	2.389176283326701	neutral	092	sub-03	2.0	6.0	092_neutral	0.0		139.39563173834358	1.2333361808305199
19.0	113.39782320424274	pulse	0.0	t		32.0	male	white	2.389176283326701	neutral	092	sub-03	2.0	6.0	092_neutral	0.0		139.77090155880887	
19.0	114.09789664551772	pulse	0.0	t		32.0	male	white	2.389176283326701	neutral	092	sub-03	2.0	6.0	092_neutral	0.0		140.47097500008385	
19.0	114.25588956460797	fix	1.0		444	32.0	male	white	2.389176283326701	neutral	092	sub-03	2.0	6.0	092_neutral	0.0		140.6289679191741	3.7665744701462245
19.0	114.79785326898218	pulse	1.0	t		32.0	male	white	2.389176283326701	neutral	092	sub-03	2.0	6.0	092_neutral	0.0		141.1709316235483	
19.0	115.49781774067105	pulse	1.0	t		32.0	male	white	2.389176283326701	neutral	092	sub-03	2.0	6.0	092_neutral	0.0		141.87089609523719	
19.0	116.19782024606593	pulse	1.0	t		32.0	male	white	2.389176283326701	neutral	092	sub-03	2.0	6.0	092_neutral	0.0		142.57089860063206	
19.0	116.89785837032832	pulse	1.0	t		32.0	male	white	2.389176283326701	neutral	092	sub-03	2.0	6.0	092_neutral	0.0		143.27093672489445	
19.0	117.59779537322993	pulse	1.0	t		32.0	male	white	2.389176283326701	neutral	092	sub-03	2.0	6.0	092_neutral	0.0		143.97087372779606	
20.0	118.0224640347542	face	0.0		145	36.0	female	white	2.7548746518105847	neutral	011	sub-03	2.0	6.0	011_neutral	1.0	dominance	144.39554238932033	1.2333189751061582
20.0	118.2977939545126	pulse	0.0	t		36.0	female	white	2.7548746518105847	neutral	011	sub-03	2.0	6.0	011_neutral	1.0	dominance	144.67087230907873	
20.0	118.99780098772953	pulse	0.0	t		36.0	female	white	2.7548746518105847	neutral	011	sub-03	2.0	6.0	011_neutral	1.0	dominance	145.37087934229567	
20.0	119.25578300986035	fix	1.0		177	36.0	female	white	2.7548746518105847	neutral	011	sub-03	2.0	6.0	011_neutral	1.0	dominance	145.62886136442648	1.4999530615777985
20.0	119.6976196635469	pulse	1.0	t		36.0	female	white	2.7548746518105847	neutral	011	sub-03	2.0	6.0	011_neutral	1.0	dominance	146.07069801811303	
20.0	120.39758987047662	pulse	1.0	t		36.0	female	white	2.7548746518105847	neutral	011	sub-03	2.0	6.0	011_neutral	1.0	dominance	146.77066822504275	
20.0	120.75573607143815	rating	2.0		294	36.0	female	white	2.7548746518105847	neutral	011	sub-03	2.0	6.0	011_neutral	1.0	dominance	147.12881442600428	2.4999488356097572
20.0	121.09758482950201	pulse	2.0	t		36.0	female	white	2.7548746518105847	neutral	011	sub-03	2.0	6.0	011_neutral	1.0	dominance	147.47066318406814	
20.0	121.79756892175374	pulse	2.0	t		36.0	female	white	2.7548746518105847	neutral	011	sub-03	2.0	6.0	011_neutral	1.0	dominance	148.17064727631987	
20.0	121.964146893416	response	2.0	y		36.0	female	white	2.7548746518105847	neutral	011	sub-03	2.0	6.0	011_neutral	1.0	dominance	148.33722524798213	
20.0	122.49754244908672	pulse	2.0	t		36.0	female	white	2.7548746518105847	neutral	011	sub-03	2.0	6.0	011_neutral	1.0	dominance	148.87062080365286	
20.0	123.19753891738583	pulse	2.0	t		36.0	female	white	2.7548746518105847	neutral	011	sub-03	2.0	6.0	011_neutral	1.0	dominance	149.57061727195196	
20.0	123.25568490704791	fix	3.0		1185	36.0	female	white	2.7548746518105847	neutral	011	sub-03	2.0	6.0	011_neutral	1.0	dominance	149.62876326161404	10.0082451640601
20.0	123.89757402309988	pulse	3.0	t		36.0	female	white	2.7548746518105847	neutral	011	sub-03	2.0	6.0	011_neutral	1.0	dominance	150.270652377666	
20.0	124.59756596357602	pulse	3.0	t		36.0	female	white	2.7548746518105847	neutral	011	sub-03	2.0	6.0	011_neutral	1.0	dominance	150.97064431814215	
20.0	125.29748576075417	pulse	3.0	t		36.0	female	white	2.7548746518105847	neutral	011	sub-03	2.0	6.0	011_neutral	1.0	dominance	151.6705641153203	
20.0	125.99759995242766	pulse	3.0	t		36.0	female	white	2.7548746518105847	neutral	011	sub-03	2.0	6.0	011_neutral	1.0	dominance	152.3706783069938	
20.0	126.69744156921024	pulse	3.0	t		36.0	female	white	2.7548746518105847	neutral	011	sub-03	2.0	6.0	011_neutral	1.0	dominance	153.07051992377637	
20.0	127.39745765807129	pulse	3.0	t		36.0	female	white	2.7548746518105847	neutral	011	sub-03	2.0	6.0	011_neutral	1.0	dominance	153.77053601263742	
20.0	128.09755736071475	pulse	3.0	t		36.0	female	white	2.7548746518105847	neutral	011	sub-03	2.0	6.0	011_neutral	1.0	dominance	154.47063571528088	
20.0	128.79754990490073	pulse	3.0	t		36.0	female	white	2.7548746518105847	neutral	011	sub-03	2.0	6.0	011_neutral	1.0	dominance	155.17062825946687	
20.0	129.4973900124096	pulse	3.0	t		36.0	female	white	2.7548746518105847	neutral	011	sub-03	2.0	6.0	011_neutral	1.0	dominance	155.87046836697573	
20.0	130.1973677657097	pulse	3.0	t		36.0	female	white	2.7548746518105847	neutral	011	sub-03	2.0	6.0	011_neutral	1.0	dominance	156.57044612027585	
20.0	130.89735065054265	pulse	3.0	t		36.0	female	white	2.7548746518105847	neutral	011	sub-03	2.0	6.0	011_neutral	1.0	dominance	157.27042900510878	
20.0	131.59749200914848	pulse	3.0	t		36.0	female	white	2.7548746518105847	neutral	011	sub-03	2.0	6.0	011_neutral	1.0	dominance	157.97057036371461	
20.0	132.29731309980434	pulse	3.0	t		36.0	female	white	2.7548746518105847	neutral	011	sub-03	2.0	6.0	011_neutral	1.0	dominance	158.67039145437047	
20.0	132.9974650233289	pulse	3.0	t		36.0	female	white	2.7548746518105847	neutral	011	sub-03	2.0	6.0	011_neutral	1.0	dominance	159.37054337789505	
21.0	133.263930071108	face	0.0		146	20.0	female	white	3.9502586549940313	smiling	091	sub-03	2.0	6.0	091_smiling	0.0		159.63700842567414	1.2415300295724592
21.0	133.69731479019083	pulse	0.0	t		20.0	female	white	3.9502586549940313	smiling	091	sub-03	2.0	6.0	091_smiling	0.0		160.07039314475696	
21.0	134.39730974921622	pulse	0.0	t		20.0	female	white	3.9502586549940313	smiling	091	sub-03	2.0	6.0	091_smiling	0.0		160.77038810378235	
21.0	134.50546010068047	fix	1.0		445	20.0	female	white	3.9502586549940313	smiling	091	sub-03	2.0	6.0	091_smiling	0.0		160.8785384552466	3.766576281275775
21.0	135.09725882631028	pulse	1.0	t		20.0	female	white	3.9502586549940313	smiling	091	sub-03	2.0	6.0	091_smiling	0.0		161.4703371808764	
21.0	135.7972136386452	pulse	1.0	t		20.0	female	white	3.9502586549940313	smiling	091	sub-03	2.0	6.0	091_smiling	0.0		162.17029199321132	
21.0	136.49719924017063	pulse	1.0	t		20.0	female	white	3.9502586549940313	smiling	091	sub-03	2.0	6.0	091_smiling	0.0		162.87027759473676	
21.0	137.19737591578996	pulse	1.0	t		20.0	female	white	3.9502586549940313	smiling	091	sub-03	2.0	6.0	091_smiling	0.0		163.5704542703561	
21.0	137.89735427279993	pulse	1.0	t		20.0	female	white	3.9502586549940313	smiling	091	sub-03	2.0	6.0	091_smiling	0.0		164.27043262736606	
22.0	138.27203638195624	face	0.0		145	25.0	female	west_asian	2.6756864305610826	smiling	064	sub-03	2.0	6.0	064_smiling	0.0		164.64511473652237	1.233318371396308
22.0	138.59716449668304	pulse	0.0	t		25.0	female	west_asian	2.6756864305610826	smiling	064	sub-03	2.0	6.0	064_smiling	0.0		164.97024285124917	
22.0	139.29720775247642	pulse	0.0	t		25.0	female	west_asian	2.6756864305610826	smiling	064	sub-03	2.0	6.0	064_smiling	0.0		165.67028610704256	
22.0	139.50535475335255	fix	1.0		444	25.0	female	west_asian	2.6756864305610826	smiling	064	sub-03	2.0	6.0	064_smiling	0.0		165.87843310791868	3.7665581699875474
22.0	139.99714747207145	pulse	1.0	t		25.0	female	west_asian	2.6756864305610826	smiling	064	sub-03	2.0	6.0	064_smiling	0.0		166.37022582663758	
22.0	140.69708809723124	pulse	1.0	t		25.0	female	west_asian	2.6756864305610826	smiling	064	sub-03	2.0	6.0	064_smiling	0.0		167.07016645179738	
22.0	141.3970930174646	pulse	1.0	t		25.0	female	west_asian	2.6756864305610826	smiling	064	sub-03	2.0	6.0	064_smiling	0.0		167.77017137203075	
22.0	142.09706956334594	pulse	1.0	t		25.0	female	west_asian	2.6756864305610826	smiling	064	sub-03	2.0	6.0	064_smiling	0.0		168.47014791791207	
22.0	142.79707750212765	pulse	1.0	t		25.0	female	west_asian	2.6756864305610826	smiling	064	sub-03	2.0	6.0	064_smiling	0.0		169.17015585669378	
23.0	143.2719129233401	face	0.0		145	34.0	male	white	2.651014723438122	smiling	121	sub-03	2.0	6.0	121_smiling	0.0		169.64499127790623	1.2333358789755948
23.0	143.49704227567145	pulse	0.0	t		34.0	male	white	2.651014723438122	smiling	121	sub-03	2.0	6.0	121_smiling	0.0		169.87012063023758	
23.0	144.19702636792317	pulse	0.0	t		34.0	male	white	2.651014723438122	smiling	121	sub-03	2.0	6.0	121_smiling	0.0		170.5701047224893	
23.0	144.5052488023157	fix	1.0		444	34.0	male	white	2.651014723438122	smiling	121	sub-03	2.0	6.0	121_smiling	0.0		170.87832715688182	3.7582248643238927
23.0	144.89701981767394	pulse	1.0	t		34.0	male	white	2.651014723438122	smiling	121	sub-03	2.0	6.0	121_smiling	0.0		171.27009817224007	
23.0	145.59700360807074	pulse	1.0	t		34.0	male	white	2.651014723438122	smiling	121	sub-03	2.0	6.0	121_smiling	0.0		171.97008196263687	
23.0	146.29697351314644	pulse	1.0	t		34.0	male	white	2.651014723438122	smiling	121	sub-03	2.0	6.0	121_smiling	0.0		172.67005186771257	
23.0	146.996963340639	pulse	1.0	t		34.0	male	white	2.651014723438122	smiling	121	sub-03	2.0	6.0	121_smiling	0.0		173.37004169520515	
23.0	147.69694018837527	pulse	1.0	t		34.0	male	white	2.651014723438122	smiling	121	sub-03	2.0	6.0	121_smiling	0.0		174.0700185429414	
24.0	148.26347366663958	face	0.0		146	28.0	male	east_asian	1.5563072025467568	smiling	005	sub-03	2.0	6.0	005_smiling	0.0		174.63655202120572	1.241671599476831
24.0	148.39693756223824	pulse	0.0	t		28.0	male	east_asian	1.5563072025467568	smiling	005	sub-03	2.0	6.0	005_smiling	0.0		174.77001591680437	
24.0	149.0969614993246	pulse	0.0	t		28.0	male	east_asian	1.5563072025467568	smiling	005	sub-03	2.0	6.0	005_smiling	0.0		175.47003985389074	
24.0	149.50514526611641	fix	1.0		444	28.0	male	east_asian	1.5563072025467568	smiling	005	sub-03	2.0	6.0	005_smiling	0.0		175.87822362068255	3.766554245874431
24.0	149.79696309915562	pulse	1.0	t		28.0	male	east_asian	1.5563072025467568	smiling	005	sub-03	2.0	6.0	005_smiling	0.0		176.17004145372175	
24.0	150.49690040391215	pulse	1.0	t		28.0	male	east_asian	1.5563072025467568	smiling	005	sub-03	2.0	6.0	005_smiling	0.0		176.86997875847828	
24.0	151.19686034777897	pulse	1.0	t		28.0	male	east_asian	1.5563072025467568	smiling	005	sub-03	2.0	6.0	005_smiling	0.0		177.5699387023451	
24.0	151.89685047712646	pulse	1.0	t		28.0	male	east_asian	1.5563072025467568	smiling	005	sub-03	2.0	6.0	005_smiling	0.0		178.2699288316926	
24.0	152.59683819163638	pulse	1.0	t		28.0	male	east_asian	1.5563072025467568	smiling	005	sub-03	2.0	6.0	005_smiling	0.0		178.9699165462025	
25.0	153.27169951199085	face	0.0		145	24.0	female	black	3.0955033824114606	smiling	099	sub-03	2.0	6.0	099_smiling	1.0	trustworthiness	179.64477786655698	1.2333210880906336
25.0	153.29683556549935	pulse	0.0	t		24.0	female	black	3.0955033824114606	smiling	099	sub-03	2.0	6.0	099_smiling	1.0	trustworthiness	179.66991392006548	
25.0	153.99683324121725	pulse	0.0	t		24.0	female	black	3.0955033824114606	smiling	099	sub-03	2.0	6.0	099_smiling	1.0	trustworthiness	180.36991159578338	
25.0	154.50502060008148	fix	1.0		177	24.0	female	black	3.0955033824114606	smiling	099	sub-03	2.0	6.0	099_smiling	1.0	trustworthiness	180.8780989546476	1.4999720784298916
25.0	154.69680314629295	pulse	1.0	t		24.0	female	black	3.0955033824114606	smiling	099	sub-03	2.0	6.0	099_smiling	1.0	trustworthiness	181.06988150085908	
25.0	155.3967772773358	pulse	1.0	t		24.0	female	black	3.0955033824114606	smiling	099	sub-03	2.0	6.0	099_smiling	1.0	trustworthiness	181.76985563190192	
25.0	156.00499267851137	rating	2.0		294	24.0	female	black	3.0955033824114606	smiling	099	sub-03	2.0	6.0	099_smiling	1.0	trustworthiness	182.3780710330775	2.4999427985139846
25.0	156.09680211998693	pulse	2.0	t		24.0	female	black	3.0955033824114606	smiling	099	sub-03	2.0	6.0	099_smiling	1.0	trustworthiness	182.46988047455307	
25.0	156.7967765528847	pulse	2.0	t		24.0	female	black	3.0955033824114606	smiling	099	sub-03	2.0	6.0	099_smiling	1.0	trustworthiness	183.16985490745083	
25.0	157.27173875311655	response	2.0	y		24.0	female	black	3.0955033824114606	smiling	099	sub-03	2.0	6.0	099_smiling	1.0	trustworthiness	183.64481710768268	
25.0	157.496719894737	pulse	2.0	t		24.0	female	black	3.0955033824114606	smiling	099	sub-03	2.0	6.0	099_smiling	1.0	trustworthiness	183.86979824930313	
25.0	158.19671817416474	pulse	2.0	t		24.0	female	black	3.0955033824114606	smiling	099	sub-03	2.0	6.0	099_smiling	1.0	trustworthiness	184.56979652873088	
25.0	158.50493547702536	fix	3.0		444	24.0	female	black	3.0955033824114606	smiling	099	sub-03	2.0	6.0	099_smiling	1.0	trustworthiness	184.8780138315915	3.7665753757109997
25.0	158.89673335746193	pulse	3.0	t		24.0	female	black	3.0955033824114606	smiling	099	sub-03	2.0	6.0	099_smiling	1.0	trustworthiness	185.26981171202806	
25.0	159.59671714785873	pulse	3.0	t		24.0	female	black	3.0955033824114606	smiling	099	sub-03	2.0	6.0	099_smiling	1.0	trustworthiness	185.96979550242486	
25.0	160.29668524180488	pulse	3.0	t		24.0	female	black	3.0955033824114606	smiling	099	sub-03	2.0	6.0	099_smiling	1.0	trustworthiness	186.669763596371	
25.0	160.9966654099444	pulse	3.0	t		24.0	female	black	3.0955033824114606	smiling	099	sub-03	2.0	6.0	099_smiling	1.0	trustworthiness	187.36974376451053	
25.0	161.6966516151797	pulse	3.0	t		24.0	female	black	3.0955033824114606	smiling	099	sub-03	2.0	6.0	099_smiling	1.0	trustworthiness	188.06972996974582	
26.0	162.27151085273636	face	0.0		145	27.0	female	white	4.181058495821727	neutral	039	sub-03	2.0	6.0	039_neutral	0.0		188.6445892073025	1.2333210880906336
26.0	162.3966495927525	pulse	0.0	t		27.0	female	white	4.181058495821727	neutral	039	sub-03	2.0	6.0	039_neutral	0.0		188.76972794731864	
26.0	163.0966650779037	pulse	0.0	t		27.0	female	white	4.181058495821727	neutral	039	sub-03	2.0	6.0	039_neutral	0.0		189.46974343246984	
26.0	163.504831940827	fix	1.0		444	27.0	female	white	4.181058495821727	neutral	039	sub-03	2.0	6.0	039_neutral	0.0		189.87791029539312	3.7583356450377323
26.0	163.79661264572405	pulse	1.0	t		27.0	female	white	4.181058495821727	neutral	039	sub-03	2.0	6.0	039_neutral	0.0		190.1696910002902	
26.0	164.4965879841866	pulse	1.0	t		27.0	female	white	4.181058495821727	neutral	039	sub-03	2.0	6.0	039_neutral	0.0		190.86966633875272	
26.0	165.19660256377392	pulse	1.0	t		27.0	female	white	4.181058495821727	neutral	039	sub-03	2.0	6.0	039_neutral	0.0		191.56968091834005	
26.0	165.89655405570556	pulse	1.0	t		27.0	female	white	4.181058495821727	neutral	039	sub-03	2.0	6.0	039_neutral	0.0		192.2696324102717	
26.0	166.59653241271644	pulse	1.0	t		27.0	female	white	4.181058495821727	neutral	039	sub-03	2.0	6.0	039_neutral	0.0		192.96961076728257	
27.0	167.26316758586472	face	0.0		146	28.0	male	white	3.9076800636689217	neutral	033	sub-03	2.0	6.0	033_neutral	0.0		193.63624594043085	1.2415587057794255
27.0	167.29653823851368	pulse	0.0	t		28.0	male	white	3.9076800636689217	neutral	033	sub-03	2.0	6.0	033_neutral	0.0		193.6696165930798	
27.0	167.9965564403592	pulse	0.0	t		28.0	male	white	3.9076800636689217	neutral	033	sub-03	2.0	6.0	033_neutral	0.0		194.36963479492533	
27.0	168.50472629164415	fix	1.0		443	28.0	male	white	3.9076800636689217	neutral	033	sub-03	2.0	6.0	033_neutral	0.0		194.87780464621028	3.7665723571626586
27.0	168.69655622906066	pulse	1.0	t		28.0	male	white	3.9076800636689217	neutral	033	sub-03	2.0	6.0	033_neutral	0.0		195.0696345836268	
27.0	169.39651043768663	pulse	1.0	t		28.0	male	white	3.9076800636689217	neutral	033	sub-03	2.0	6.0	033_neutral	0.0		195.76958879225276	
27.0	170.09653920444907	pulse	1.0	t		28.0	male	white	3.9076800636689217	neutral	033	sub-03	2.0	6.0	033_neutral	0.0		196.4696175590152	
27.0	170.7964762073516	pulse	1.0	t		28.0	male	white	3.9076800636689217	neutral	033	sub-03	2.0	6.0	033_neutral	0.0		197.16955456191772	
27.0	171.49645848847376	pulse	1.0	t		28.0	male	white	3.9076800636689217	neutral	033	sub-03	2.0	6.0	033_neutral	0.0		197.8695368430399	
27.0	172.19641813048656	pulse	1.0	t		28.0	male	white	3.9076800636689217	neutral	033	sub-03	2.0	6.0	033_neutral	0.0		198.5694964850527	
28.0	172.2712986488068	face	0.0		146	23.0	male	white	2.6275368085953046	smiling	141	sub-03	2.0	6.0	141_smiling	0.0		198.64437700337294	1.2333388975239359
28.0	172.89642244701008	pulse	0.0	t		23.0	male	white	2.6275368085953046	smiling	141	sub-03	2.0	6.0	141_smiling	0.0		199.2695008015762	
28.0	173.50463754633074	fix	1.0		443	23.0	male	white	2.6275368085953046	smiling	141	sub-03	2.0	6.0	141_smiling	0.0		199.87771590089687	3.758345304391696
28.0	173.59642857466224	pulse	1.0	t		23.0	male	white	2.6275368085953046	smiling	141	sub-03	2.0	6.0	141_smiling	0.0		199.96950692922837	
28.0	174.2963839907079	pulse	1.0	t		23.0	male	white	2.6275368085953046	smiling	141	sub-03	2.0	6.0	141_smiling	0.0		200.66946234527404	
28.0	174.9963677811047	pulse	1.0	t		23.0	male	white	2.6275368085953046	smiling	141	sub-03	2.0	6.0	141_smiling	0.0		201.36944613567084	
28.0	175.6963425158574	pulse	1.0	t		23.0	male	white	2.6275368085953046	smiling	141	sub-03	2.0	6.0	141_smiling	0.0		202.06942087042353	
28.0	176.39632841923776	pulse	1.0	t		23.0	male	white	2.6275368085953046	smiling	141	sub-03	2.0	6.0	141_smiling	0.0		202.7694067738039	
28.0	177.09631220963456	pulse	1.0	t		23.0	male	white	2.6275368085953046	smiling	141	sub-03	2.0	6.0	141_smiling	0.0		203.4693905642007	
29.0	177.26298285072244	face	0.0		147	22.0	female	white	4.614007162753682	neutral	009	sub-03	2.0	6.0	009_neutral	0.0		203.63606120528857	1.2498841632177573
29.0	177.79631501688436	pulse	0.0	t		22.0	female	white	4.614007162753682	neutral	009	sub-03	2.0	6.0	009_neutral	0.0		204.1693933714505	
29.0	178.49628944978213	pulse	0.0	t		22.0	female	white	4.614007162753682	neutral	009	sub-03	2.0	6.0	009_neutral	0.0		204.86936780434826	
29.0	178.5128670139402	fix	1.0		444	22.0	female	white	4.614007162753682	neutral	009	sub-03	2.0	6.0	009_neutral	0.0		204.88594536850633	3.7582381459360477
29.0	179.19627716429113	pulse	1.0	t		22.0	female	white	4.614007162753682	neutral	009	sub-03	2.0	6.0	009_neutral	0.0		205.56935551885726	
29.0	179.89625371017246	pulse	1.0	t		22.0	female	white	4.614007162753682	neutral	009	sub-03	2.0	6.0	009_neutral	0.0		206.2693320647386	
29.0	180.5962556118584	pulse	1.0	t		22.0	female	white	4.614007162753682	neutral	009	sub-03	2.0	6.0	009_neutral	0.0		206.96933396642453	
29.0	181.29624604306082	pulse	1.0	t		22.0	female	white	4.614007162753682	neutral	009	sub-03	2.0	6.0	009_neutral	0.0		207.66932439762695	
29.0	181.9962307390224	pulse	1.0	t		22.0	female	white	4.614007162753682	neutral	009	sub-03	2.0	6.0	009_neutral	0.0		208.36930909358853	
30.0	182.27110515987624	face	0.0		145	24.0	female	east_asian	4.409868682849185	neutral	030	sub-03	2.0	6.0	030_neutral	0.0		208.64418351444237	1.2333032786555123
30.0	182.6962196609502	pulse	0.0	t		24.0	female	east_asian	4.409868682849185	neutral	030	sub-03	2.0	6.0	030_neutral	0.0		209.06929801551632	
30.0	183.39619681054137	pulse	0.0	t		24.0	female	east_asian	4.409868682849185	neutral	030	sub-03	2.0	6.0	030_neutral	0.0		209.7692751651075	
30.0	183.50440843853175	fix	1.0		444	24.0	female	east_asian	4.409868682849185	neutral	030	sub-03	2.0	6.0	030_neutral	0.0		209.8774867930979	3.7665913740165706
30.0	184.09619297698555	pulse	1.0	t		24.0	female	east_asian	4.409868682849185	neutral	030	sub-03	2.0	6.0	030_neutral	0.0		210.46927133155168	
30.0	184.79616046722276	pulse	1.0	t		24.0	female	east_asian	4.409868682849185	neutral	030	sub-03	2.0	6.0	030_neutral	0.0		211.1692388217889	
30.0	185.49614425761956	pulse	1.0	t		24.0	female	east_asian	4.409868682849185	neutral	030	sub-03	2.0	6.0	030_neutral	0.0		211.8692226121857	
30.0	186.1961283498713	pulse	1.0	t		24.0	female	east_asian	4.409868682849185	neutral	030	sub-03	2.0	6.0	030_neutral	0.0		212.56920670443742	
30.0	186.8961275348638	pulse	1.0	t		24.0	female	east_asian	4.409868682849185	neutral	030	sub-03	2.0	6.0	030_neutral	0.0		213.26920588942994	
31.0	187.27099981254833	face	0.0		145	30.0	female	black	2.7345801830481498	neutral	062	sub-03	2.0	6.0	062_neutral	0.0		213.64407816711446	1.233321088089724
31.0	187.5961200790498	pulse	0.0	t		30.0	female	black	2.7345801830481498	neutral	062	sub-03	2.0	6.0	062_neutral	0.0		213.96919843361593	
31.0	188.29611262323579	pulse	0.0	t		30.0	female	black	2.7345801830481498	neutral	062	sub-03	2.0	6.0	062_neutral	0.0		214.66919097780192	
31.0	188.50432090063805	fix	1.0		444	30.0	female	black	2.7345801830481498	neutral	062	sub-03	2.0	6.0	062_neutral	0.0		214.87739925520418	3.766556057003072
31.0	188.99607830234436	pulse	1.0	t		30.0	female	black	2.7345801830481498	neutral	062	sub-03	2.0	6.0	062_neutral	0.0		215.3691566569105	
31.0	189.6960563574994	pulse	1.0	t		30.0	female	black	2.7345801830481498	neutral	062	sub-03	2.0	6.0	062_neutral	0.0		216.06913471206553	
31.0	190.3960464868478	pulse	1.0	t		30.0	female	black	2.7345801830481498	neutral	062	sub-03	2.0	6.0	062_neutral	0.0		216.76912484141394	
31.0	191.09603088095446	pulse	1.0	t		30.0	female	black	2.7345801830481498	neutral	062	sub-03	2.0	6.0	062_neutral	0.0		217.4691092355206	
31.0	191.79601557691512	pulse	1.0	t		30.0	female	black	2.7345801830481498	neutral	062	sub-03	2.0	6.0	062_neutral	0.0		218.16909393148126	
32.0	192.27087695764112	face	0.0		145	36.0	female	white	2.7548746518105847	smiling	011	sub-03	2.0	6.0	011_smiling	0.0		218.64395531220725	1.2333216917995742
32.0	192.4960041969889	pulse	0.0	t		36.0	female	white	2.7548746518105847	smiling	011	sub-03	2.0	6.0	011_smiling	0.0		218.86908255155504	
32.0	193.19599221335375	pulse	0.0	t		36.0	female	white	2.7548746518105847	smiling	011	sub-03	2.0	6.0	011_smiling	0.0		219.56907056791988	
32.0	193.5041986494407	fix	1.0		444	36.0	female	white	2.7548746518105847	smiling	011	sub-03	2.0	6.0	011_smiling	0.0		219.87727700400683	3.7665913740165706
32.0	193.8959856631036	pulse	1.0	t		36.0	female	white	2.7548746518105847	smiling	011	sub-03	2.0	6.0	011_smiling	0.0		220.26906401766973	
32.0	194.59596583124312	pulse	1.0	t		36.0	female	white	2.7548746518105847	smiling	011	sub-03	2.0	6.0	011_smiling	0.0		220.96904418580925	
32.0	195.29594781051128	pulse	1.0	t		36.0	female	white	2.7548746518105847	smiling	011	sub-03	2.0	6.0	011_smiling	0.0		221.6690261650774	
32.0	195.99591741373206	pulse	1.0	t		36.0	female	white	2.7548746518105847	smiling	011	sub-03	2.0	6.0	011_smiling	0.0		222.3689957682982	
32.0	196.6959030152575	pulse	1.0	t		36.0	female	white	2.7548746518105847	smiling	011	sub-03	2.0	6.0	011_smiling	0.0		223.06898136982363	
33.0	197.27079002345727	face	0.0		145	54.0	female	white	2.286908077994429	neutral	136	sub-03	2.0	6.0	136_neutral	0.0		223.6438683780234	1.2333020712367215
33.0	197.39591367073263	pulse	0.0	t		54.0	female	white	2.286908077994429	neutral	136	sub-03	2.0	6.0	136_neutral	0.0		223.76899202529876	
33.0	198.09587150161587	pulse	0.0	t		54.0	female	white	2.286908077994429	neutral	136	sub-03	2.0	6.0	136_neutral	0.0		224.468949856182	
33.0	198.504092094694	fix	1.0		444	54.0	female	white	2.286908077994429	neutral	136	sub-03	2.0	6.0	136_neutral	0.0		224.87717044926012	3.7665756775659247
33.0	198.79588638305813	pulse	1.0	t		54.0	female	white	2.286908077994429	neutral	136	sub-03	2.0	6.0	136_neutral	0.0		225.16896473762426	
33.0	199.49586051410097	pulse	1.0	t		54.0	female	white	2.286908077994429	neutral	136	sub-03	2.0	6.0	136_neutral	0.0		225.8689388686671	
33.0	200.195833437725	pulse	1.0	t		54.0	female	white	2.286908077994429	neutral	136	sub-03	2.0	6.0	136_neutral	0.0		226.56891179229115	
33.0	200.89582296336266	pulse	1.0	t		54.0	female	white	2.286908077994429	neutral	136	sub-03	2.0	6.0	136_neutral	0.0		227.2689013179288	
33.0	201.59585505052928	pulse	1.0	t		54.0	female	white	2.286908077994429	neutral	136	sub-03	2.0	6.0	136_neutral	0.0		227.9689334050954	
34.0	202.2706677722599	face	0.0		145	31.0	female	white	2.1822522881018704	smiling	102	sub-03	2.0	6.0	102_smiling	0.0		228.64374612682604	1.2333192769610832
34.0	202.29580442947736	pulse	0.0	t		31.0	female	white	2.1822522881018704	smiling	102	sub-03	2.0	6.0	102_smiling	0.0		228.6688827840435	
34.0	202.99578791802014	pulse	0.0	t		31.0	female	white	2.1822522881018704	smiling	102	sub-03	2.0	6.0	102_smiling	0.0		229.36886627258627	
34.0	203.503987049221	fix	1.0		443	31.0	female	white	2.1822522881018704	smiling	102	sub-03	2.0	6.0	102_smiling	0.0		229.87706540378713	3.766574772002059
34.0	203.69577412325543	pulse	1.0	t		31.0	female	white	2.1822522881018704	smiling	102	sub-03	2.0	6.0	102_smiling	0.0		230.06885247782157	
34.0	204.39576032849072	pulse	1.0	t		31.0	female	white	2.1822522881018704	smiling	102	sub-03	2.0	6.0	102_smiling	0.0		230.76883868305686	
34.0	205.09573959106547	pulse	1.0	t		31.0	female	white	2.1822522881018704	smiling	102	sub-03	2.0	6.0	102_smiling	0.0		231.4688179456316	
34.0	205.795720061059	pulse	1.0	t		31.0	female	white	2.1822522881018704	smiling	102	sub-03	2.0	6.0	102_smiling	0.0		232.16879841562513	
34.0	206.49571411451961	pulse	1.0	t		31.0	female	white	2.1822522881018704	smiling	102	sub-03	2.0	6.0	102_smiling	0.0		232.86879246908575	
34.0	207.19568583072396	pulse	1.0	t		31.0	female	white	2.1822522881018704	smiling	102	sub-03	2.0	6.0	102_smiling	0.0		233.5687641852901	
35.0	207.27056182122305	face	0.0		146	26.0	female	white	4.854755272582572	smiling	027	sub-03	2.0	6.0	027_smiling	0.0		233.6436401757892	1.233317767686458
35.0	207.89567716749116	pulse	0.0	t		26.0	female	white	4.854755272582572	smiling	027	sub-03	2.0	6.0	027_smiling	0.0		234.2687555220573	
35.0	208.5038795889095	fix	1.0		443	26.0	female	white	4.854755272582572	smiling	027	sub-03	2.0	6.0	027_smiling	0.0		234.87695794347565	3.766574772002059
35.0	208.59566307087152	pulse	1.0	t		26.0	female	white	4.854755272582572	smiling	027	sub-03	2.0	6.0	027_smiling	0.0		234.96874142543766	
35.0	209.29565591691244	pulse	1.0	t		26.0	female	white	4.854755272582572	smiling	027	sub-03	2.0	6.0	027_smiling	0.0		235.66873427147857	
35.0	209.9956418202928	pulse	1.0	t		26.0	female	white	4.854755272582572	smiling	027	sub-03	2.0	6.0	027_smiling	0.0		236.36872017485894	
35.0	210.69562138472247	pulse	1.0	t		26.0	female	white	4.854755272582572	smiling	027	sub-03	2.0	6.0	027_smiling	0.0		237.0686997392886	
35.0	211.39560577882912	pulse	1.0	t		26.0	female	white	4.854755272582572	smiling	027	sub-03	2.0	6.0	027_smiling	0.0		237.76868413339525	
35.0	212.09558111729166	pulse	1.0	t		26.0	female	white	4.854755272582572	smiling	027	sub-03	2.0	6.0	027_smiling	0.0		238.4686594718578	
36.0	212.27045436091157	face	0.0		146	21.0	male	black	2.969757262236371	smiling	137	sub-03	2.0	6.0	137_smiling	0.0		238.6435327154777	1.2416583178655856
36.0	212.79557607631614	pulse	0.0	t		21.0	male	black	2.969757262236371	smiling	137	sub-03	2.0	6.0	137_smiling	0.0		239.16865443088227	
36.0	213.49557224276032	pulse	0.0	t		21.0	male	black	2.969757262236371	smiling	137	sub-03	2.0	6.0	137_smiling	0.0		239.86865059732645	
36.0	213.51211267877716	fix	1.0		443	21.0	male	black	2.969757262236371	smiling	137	sub-03	2.0	6.0	137_smiling	0.0		239.8851910333433	3.758240862628554
36.0	214.1955442608196	pulse	1.0	t		21.0	male	black	2.969757262236371	smiling	137	sub-03	2.0	6.0	137_smiling	0.0		240.56862261538572	
36.0	214.89551839186242	pulse	1.0	t		21.0	male	black	2.969757262236371	smiling	137	sub-03	2.0	6.0	137_smiling	0.0		241.26859674642856	
36.0	215.595508219355	pulse	1.0	t		21.0	male	black	2.969757262236371	smiling	137	sub-03	2.0	6.0	137_smiling	0.0		241.96858657392113	
36.0	216.2954868782208	pulse	1.0	t		21.0	male	black	2.969757262236371	smiling	137	sub-03	2.0	6.0	137_smiling	0.0		242.66856523278693	
36.0	216.99547730942322	pulse	1.0	t		21.0	male	black	2.969757262236371	smiling	137	sub-03	2.0	6.0	137_smiling	0.0		243.36855566398935	
37.0	217.2703535414057	face	0.0		145	21.0	male	east_asian/white	3.501790688420215	smiling	036	sub-03	2.0	6.0	036_smiling	0.0		243.64343189597184	1.2333153528488765
37.0	217.69546894804535	pulse	0.0	t		21.0	male	east_asian/white	3.501790688420215	smiling	036	sub-03	2.0	6.0	036_smiling	0.0		244.06854730261148	
37.0	218.395453644006	pulse	0.0	t		21.0	male	east_asian/white	3.501790688420215	smiling	036	sub-03	2.0	6.0	036_smiling	0.0		244.76853199857214	
37.0	218.5036688942546	fix	1.0		444	21.0	male	east_asian/white	3.501790688420215	smiling	036	sub-03	2.0	6.0	036_smiling	0.0		244.87674724882072	3.766593788854152
37.0	219.09545464012717	pulse	1.0	t		21.0	male	east_asian/white	3.501790688420215	smiling	036	sub-03	2.0	6.0	036_smiling	0.0		245.4685329946933	
37.0	219.79542394149303	pulse	1.0	t		21.0	male	east_asian/white	3.501790688420215	smiling	036	sub-03	2.0	6.0	036_smiling	0.0		246.16850229605916	
37.0	220.4954502934179	pulse	1.0	t		21.0	male	east_asian/white	3.501790688420215	smiling	036	sub-03	2.0	6.0	036_smiling	0.0		246.86852864798402	
37.0	221.1954011816406	pulse	1.0	t		21.0	male	east_asian/white	3.501790688420215	smiling	036	sub-03	2.0	6.0	036_smiling	0.0		247.56847953620672	
37.0	221.89538678316603	pulse	1.0	t		21.0	male	east_asian/white	3.501790688420215	smiling	036	sub-03	2.0	6.0	036_smiling	0.0		248.26846513773216	
38.0	222.27026268310874	face	0.0		145	32.0	male	white	2.389176283326701	smiling	092	sub-03	2.0	6.0	092_smiling	0.0		248.64334103767487	1.233301467527781
38.0	222.5953726865473	pulse	0.0	t		32.0	male	white	2.389176283326701	smiling	092	sub-03	2.0	6.0	092_smiling	0.0		248.96845104111344	
38.0	223.29536492887837	pulse	0.0	t		32.0	male	white	2.389176283326701	smiling	092	sub-03	2.0	6.0	092_smiling	0.0		249.6684432834445	
38.0	223.50356415063652	fix	1.0		444	32.0	male	white	2.389176283326701	smiling	092	sub-03	2.0	6.0	092_smiling	0.0		249.87664250520265	3.7582553516595
38.0	223.99535083225874	pulse	1.0	t		32.0	male	white	2.389176283326701	smiling	092	sub-03	2.0	6.0	092_smiling	0.0		250.36842918682487	
38.0	224.69532707628514	pulse	1.0	t		32.0	male	white	2.389176283326701	smiling	092	sub-03	2.0	6.0	092_smiling	0.0		251.06840543085127	
38.0	225.39531086668285	pulse	1.0	t		32.0	male	white	2.389176283326701	smiling	092	sub-03	2.0	6.0	092_smiling	0.0		251.76838922124898	
38.0	226.09529495893366	pulse	1.0	t		32.0	male	white	2.389176283326701	smiling	092	sub-03	2.0	6.0	092_smiling	0.0		252.4683733134998	
38.0	226.79528056046001	pulse	1.0	t		32.0	male	white	2.389176283326701	smiling	092	sub-03	2.0	6.0	092_smiling	0.0		253.16835891502615	
39.0	227.26181950229602	face	0.0		146	27.0	male	black	3.5523278949462798	neutral	042	sub-03	2.0	6.0	042_neutral	0.0		253.63489785686215	1.2416374898839422
39.0	227.49527491577464	pulse	0.0	t		27.0	male	black	3.5523278949462798	neutral	042	sub-03	2.0	6.0	042_neutral	0.0		253.86835327034078	
39.0	228.19523968931844	pulse	0.0	t		27.0	male	black	3.5523278949462798	neutral	042	sub-03	2.0	6.0	042_neutral	0.0		254.56831804388457	
39.0	228.50345699217996	fix	1.0		444	27.0	male	black	3.5523278949462798	neutral	042	sub-03	2.0	6.0	042_neutral	0.0		254.8765353467461	3.74992114043107
39.0	228.8952458169715	pulse	1.0	t		27.0	male	black	3.5523278949462798	neutral	042	sub-03	2.0	6.0	042_neutral	0.0		255.26832417153764	
39.0	229.5952154201923	pulse	1.0	t		27.0	male	black	3.5523278949462798	neutral	042	sub-03	2.0	6.0	042_neutral	0.0		255.96829377475842	
39.0	230.29520796437828	pulse	1.0	t		27.0	male	black	3.5523278949462798	neutral	042	sub-03	2.0	6.0	042_neutral	0.0		256.6682863189444	
39.0	230.99518390655066	pulse	1.0	t		27.0	male	black	3.5523278949462798	neutral	042	sub-03	2.0	6.0	042_neutral	0.0		257.3682622611168	
39.0	231.6951643765442	pulse	1.0	t		27.0	male	black	3.5523278949462798	neutral	042	sub-03	2.0	6.0	042_neutral	0.0		258.06824273111033	
40.0	232.25337813261103	fix	0.0		720													258.62645648717717	5.999872919126574
40.0	232.39516356153672	pulse	0.0	t														258.76824191610285	
40.0	233.09513739072463	pulse	0.0	t														259.46821574529076	
40.0	233.79511031434868	pulse	0.0	t														260.1681886689148	
40.0	234.49512942175807	pulse	0.0	t														260.8682077763242	
40.0	235.1950920823183	pulse	0.0	t														261.56817043688443	
40.0	235.89509790811553	pulse	0.0	t														262.26817626268166	
40.0	236.59506570020767	pulse	0.0	t														262.9681440547738	
40.0	237.29504677391196	pulse	0.0	t														263.6681251284781	
40.0	237.99503177172755	pulse	0.0	t														264.3681101262937	
