trial_nr	onset	event_type	phase	response	nr_frames	face_age	face_sex	face_eth	attractiveness	expression	face_id	sub_id	ses	run	trial_type	catch	onset_abs	duration
-1.0	0.05717794129577669	fix	0.0		714												40.66531968989875	5.963916276343298
-1.0	0.7046749159562751	pulse	0.0	t													41.31281666455925	
-1.0	1.4046565933695092	pulse	0.0	t													42.012798341972484	
-1.0	2.10463012070295	pulse	0.0	t													42.712771869305925	
-1.0	2.804617835211957	pulse	0.0	t													43.41275958381493	
-1.0	3.5046161146397026	pulse	0.0	t													44.11275786324268	
-1.0	4.204595679069371	pulse	0.0	t													44.812737427672346	
-1.0	4.904577658337075	pulse	0.0	t													45.51271940694005	
-1.0	5.604559033895839	pulse	0.0	t													46.212700782498814	
0.0	6.0210942176390745	face	0.0		144	40.0	male	black	2.408674890569041	neutral	061	sub-02	1.0	3.0	061_neutral	0.0	46.62923596624205	1.233296637850799
0.0	6.304512336957032	pulse	0.0	t		40.0	male	black	2.408674890569041	neutral	061	sub-02	1.0	3.0	061_neutral	0.0	46.91265408556001	
0.0	7.004650073305584	pulse	0.0	t		40.0	male	black	2.408674890569041	neutral	061	sub-02	1.0	3.0	061_neutral	0.0	47.61279182190856	
0.0	7.2543908554898735	fix	1.0		444	40.0	male	black	2.408674890569041	neutral	061	sub-02	1.0	3.0	061_neutral	0.0	47.86253260409285	3.75828010375335
0.0	7.704527912665071	pulse	1.0	t		40.0	male	black	2.408674890569041	neutral	061	sub-02	1.0	3.0	061_neutral	0.0	48.312669661268046	
0.0	8.404500534434192	pulse	1.0	t		40.0	male	black	2.408674890569041	neutral	061	sub-02	1.0	3.0	061_neutral	0.0	49.01264228303717	
0.0	9.10449066378169	pulse	1.0	t		40.0	male	black	2.408674890569041	neutral	061	sub-02	1.0	3.0	061_neutral	0.0	49.712632412384664	
0.0	9.804482302403812	pulse	1.0	t		40.0	male	black	2.408674890569041	neutral	061	sub-02	1.0	3.0	061_neutral	0.0	50.41262405100679	
0.0	10.504453113043837	pulse	1.0	t		40.0	male	black	2.408674890569041	neutral	061	sub-02	1.0	3.0	061_neutral	0.0	51.11259486164681	
1.0	11.012670959243223	face	0.0		146	20.0	male	black	2.609629924393156	neutral	043	sub-02	1.0	3.0	043_neutral	0.0	51.6208127078462	1.2416136433544125
1.0	11.20445682585796	pulse	0.0	t		20.0	male	black	2.609629924393156	neutral	043	sub-02	1.0	3.0	043_neutral	0.0	51.812598574460935	
1.0	11.904483479637292	pulse	0.0	t		20.0	male	black	2.609629924393156	neutral	043	sub-02	1.0	3.0	043_neutral	0.0	52.51262522824027	
1.0	12.254284602597636	fix	1.0		444	20.0	male	black	2.609629924393156	neutral	043	sub-02	1.0	3.0	043_neutral	0.0	52.86242635120061	3.7666103908686637
1.0	12.604426821490051	pulse	1.0	t		20.0	male	black	2.609629924393156	neutral	043	sub-02	1.0	3.0	043_neutral	0.0	53.212568570093026	
1.0	13.30440578220987	pulse	1.0	t		20.0	male	black	2.609629924393156	neutral	043	sub-02	1.0	3.0	043_neutral	0.0	53.912547530812844	
1.0	14.004394402283651	pulse	1.0	t		20.0	male	black	2.609629924393156	neutral	043	sub-02	1.0	3.0	043_neutral	0.0	54.612536150886626	
1.0	14.704386040905774	pulse	1.0	t		20.0	male	black	2.609629924393156	neutral	043	sub-02	1.0	3.0	043_neutral	0.0	55.31252778950875	
1.0	15.404364397915742	pulse	1.0	t		20.0	male	black	2.609629924393156	neutral	043	sub-02	1.0	3.0	043_neutral	0.0	56.01250614651872	
2.0	16.0208949934663	face	0.0		145	24.0	female	east_asian	2.9076800636689217	neutral	034	sub-02	1.0	3.0	034_neutral	0.0	56.629036742069275	1.2332706783372487
2.0	16.10432041767035	pulse	0.0	t		24.0	female	east_asian	2.9076800636689217	neutral	034	sub-02	1.0	3.0	034_neutral	0.0	56.712462166273326	
2.0	16.804318395243172	pulse	0.0	t		24.0	female	east_asian	2.9076800636689217	neutral	034	sub-02	1.0	3.0	034_neutral	0.0	57.41246014384615	
2.0	17.25416567180355	fix	1.0		444	24.0	female	east_asian	2.9076800636689217	neutral	034	sub-02	1.0	3.0	034_neutral	0.0	57.86230742040652	3.758290366817164
2.0	17.50432301362207	pulse	1.0	t		24.0	female	east_asian	2.9076800636689217	neutral	034	sub-02	1.0	3.0	034_neutral	0.0	58.112464762225045	
2.0	18.20430952071183	pulse	1.0	t		24.0	female	east_asian	2.9076800636689217	neutral	034	sub-02	1.0	3.0	034_neutral	0.0	58.812451269314806	
2.0	18.90429391481848	pulse	1.0	t		24.0	female	east_asian	2.9076800636689217	neutral	034	sub-02	1.0	3.0	034_neutral	0.0	59.512435663421456	
2.0	19.604273177393225	pulse	1.0	t		24.0	female	east_asian	2.9076800636689217	neutral	034	sub-02	1.0	3.0	034_neutral	0.0	60.2124149259962	
2.0	20.30425726964495	pulse	1.0	t		24.0	female	east_asian	2.9076800636689217	neutral	034	sub-02	1.0	3.0	034_neutral	0.0	60.912399018247925	
3.0	21.012456038620712	face	0.0		147	32.0	male	white	2.389176283326701	neutral	092	sub-02	1.0	3.0	092_neutral	1.0	61.62059778722369	1.2416559030270946
3.0	21.00657530326589	pulse	0.0	t		32.0	male	white	2.389176283326701	neutral	092	sub-02	1.0	3.0	092_neutral	1.0	61.614717051868865	
3.0	21.70422666156719	pulse	0.0	t		32.0	male	white	2.389176283326701	neutral	092	sub-02	1.0	3.0	092_neutral	1.0	62.312368410170166	
3.0	22.254111941647807	fix	1.0		236	32.0	male	white	2.389176283326701	neutral	092	sub-02	1.0	3.0	092_neutral	1.0	62.86225369025078	2.0083218351805954
3.0	22.404224940994936	pulse	1.0	t		32.0	male	white	2.389176283326701	neutral	092	sub-02	1.0	3.0	092_neutral	1.0	63.01236668959791	
3.0	23.104199072038227	pulse	1.0	t		32.0	male	white	2.389176283326701	neutral	092	sub-02	1.0	3.0	092_neutral	1.0	63.7123408206412	
3.0	23.804201879287575	pulse	1.0	t		32.0	male	white	2.389176283326701	neutral	092	sub-02	1.0	3.0	092_neutral	1.0	64.41234362789055	
3.0	24.262433776828402	rating	2.0		234	32.0	male	white	2.389176283326701	neutral	092	sub-02	1.0	3.0	092_neutral	1.0	64.87057552543138	1.9915806657168105
3.0	24.50418265113649	pulse	2.0	t		32.0	male	white	2.389176283326701	neutral	092	sub-02	1.0	3.0	092_neutral	1.0	65.11232439973946	
3.0	24.82916134773359	response	2.0	w		32.0	male	white	2.389176283326701	neutral	092	sub-02	1.0	3.0	092_neutral	1.0	65.43730309633656	
3.0	25.20413082266623	pulse	2.0	t		32.0	male	white	2.389176283326701	neutral	092	sub-02	1.0	3.0	092_neutral	1.0	65.8122725712692	
3.0	25.90415657088124	pulse	2.0	t		32.0	male	white	2.389176283326701	neutral	092	sub-02	1.0	3.0	092_neutral	1.0	66.51229831948422	
3.0	26.254014442545213	fix	3.0		444	32.0	male	white	2.389176283326701	neutral	092	sub-02	1.0	3.0	092_neutral	1.0	66.86215619114819	3.7665880536128498
3.0	26.60412224998936	pulse	3.0	t		32.0	male	white	2.389176283326701	neutral	092	sub-02	1.0	3.0	092_neutral	1.0	67.21226399859233	
3.0	27.30410664409601	pulse	3.0	t		32.0	male	white	2.389176283326701	neutral	092	sub-02	1.0	3.0	092_neutral	1.0	67.91224839269898	
3.0	28.004106734652396	pulse	3.0	t		32.0	male	white	2.389176283326701	neutral	092	sub-02	1.0	3.0	092_neutral	1.0	68.61224848325537	
3.0	28.70425262108074	pulse	3.0	t		32.0	male	white	2.389176283326701	neutral	092	sub-02	1.0	3.0	092_neutral	1.0	69.31239436968372	
3.0	29.404070693188714	pulse	3.0	t		32.0	male	white	2.389176283326701	neutral	092	sub-02	1.0	3.0	092_neutral	1.0	70.01221244179169	
4.0	30.020602496158062	face	0.0		145	26.0	male	white	2.7966573816155993	neutral	117	sub-02	1.0	3.0	117_neutral	0.0	70.62874424476104	1.233296939705724
4.0	30.104066255923044	pulse	0.0	t		26.0	male	white	2.7966573816155993	neutral	117	sub-02	1.0	3.0	117_neutral	0.0	70.71220800452602	
4.0	30.804165354856195	pulse	0.0	t		26.0	male	white	2.7966573816155993	neutral	117	sub-02	1.0	3.0	117_neutral	0.0	71.41230710345917	
4.0	31.253899435863786	fix	1.0		444	26.0	male	white	2.7966573816155993	neutral	117	sub-02	1.0	3.0	117_neutral	0.0	71.86204118446676	3.7665949962733976
4.0	31.504030214458908	pulse	1.0	t		26.0	male	white	2.7966573816155993	neutral	117	sub-02	1.0	3.0	117_neutral	0.0	72.11217196306188	
4.0	32.20401249558154	pulse	1.0	t		26.0	male	white	2.7966573816155993	neutral	117	sub-02	1.0	3.0	117_neutral	0.0	72.81215424418451	
4.0	32.9041610987033	pulse	1.0	t		26.0	male	white	2.7966573816155993	neutral	117	sub-02	1.0	3.0	117_neutral	0.0	73.51230284730627	
4.0	33.6039915468582	pulse	1.0	t		26.0	male	white	2.7966573816155993	neutral	117	sub-02	1.0	3.0	117_neutral	0.0	74.21213329546117	
4.0	34.303961150078976	pulse	1.0	t		26.0	male	white	2.7966573816155993	neutral	117	sub-02	1.0	3.0	117_neutral	0.0	74.91210289868195	
5.0	35.020494432137184	face	0.0		146	19.0	male	white	3.2522881018702745	neutral	018	sub-02	1.0	3.0	018_neutral	0.0	75.62863618074016	1.2333250122023856
5.0	35.00663899463052	pulse	0.0	t		19.0	male	white	3.2522881018702745	neutral	018	sub-02	1.0	3.0	018_neutral	0.0	75.6147807432335	
5.0	35.70406909335816	pulse	0.0	t		19.0	male	white	3.2522881018702745	neutral	018	sub-02	1.0	3.0	018_neutral	0.0	76.31221084196113	
5.0	36.25381944433957	fix	1.0		443	19.0	male	white	3.2522881018702745	neutral	018	sub-02	1.0	3.0	018_neutral	0.0	76.86196119294254	3.7665575662776973
5.0	36.4039457252984	pulse	1.0	t		19.0	male	white	3.2522881018702745	neutral	018	sub-02	1.0	3.0	018_neutral	0.0	77.01208747390137	
5.0	37.10389419868261	pulse	1.0	t		19.0	male	white	3.2522881018702745	neutral	018	sub-02	1.0	3.0	018_neutral	0.0	77.71203594728559	
5.0	37.803892478110356	pulse	1.0	t		19.0	male	white	3.2522881018702745	neutral	018	sub-02	1.0	3.0	018_neutral	0.0	78.41203422671333	
5.0	38.50387355181374	pulse	1.0	t		19.0	male	white	3.2522881018702745	neutral	018	sub-02	1.0	3.0	018_neutral	0.0	79.11201530041672	
5.0	39.203870321967315	pulse	1.0	t		19.0	male	white	3.2522881018702745	neutral	018	sub-02	1.0	3.0	018_neutral	0.0	79.81201207057029	
5.0	39.903841132607795	pulse	1.0	t		19.0	male	white	3.2522881018702745	neutral	018	sub-02	1.0	3.0	018_neutral	0.0	80.51198288121077	
6.0	40.02037701061727	face	0.0		146	23.0	male	white	2.6275368085953046	smiling	141	sub-02	1.0	3.0	141_smiling	0.0	80.62851875922024	1.2335000879907057
6.0	40.60379685050748	pulse	0.0	t		23.0	male	white	2.6275368085953046	smiling	141	sub-02	1.0	3.0	141_smiling	0.0	81.21193859911045	
6.0	41.25387709860797	fix	1.0		443	23.0	male	white	2.6275368085953046	smiling	141	sub-02	1.0	3.0	141_smiling	0.0	81.86201884721095	3.7663957721006227
6.0	41.30382954138304	pulse	1.0	t		23.0	male	white	2.6275368085953046	smiling	141	sub-02	1.0	3.0	141_smiling	0.0	81.91197128998601	
6.0	42.00379733347518	pulse	1.0	t		23.0	male	white	2.6275368085953046	smiling	141	sub-02	1.0	3.0	141_smiling	0.0	82.61193908207815	
6.0	42.70378444427479	pulse	1.0	t		23.0	male	white	2.6275368085953046	smiling	141	sub-02	1.0	3.0	141_smiling	0.0	83.31192619287776	
6.0	43.40376974394576	pulse	1.0	t		23.0	male	white	2.6275368085953046	smiling	141	sub-02	1.0	3.0	141_smiling	0.0	84.01191149254873	
6.0	44.10375926958386	pulse	1.0	t		23.0	male	white	2.6275368085953046	smiling	141	sub-02	1.0	3.0	141_smiling	0.0	84.71190101818684	
6.0	44.80374577667408	pulse	1.0	t		23.0	male	white	2.6275368085953046	smiling	141	sub-02	1.0	3.0	141_smiling	0.0	85.41188752527705	
7.0	45.020272870708595	face	0.0		145	24.0	female	east_asian	2.9076800636689217	smiling	034	sub-02	1.0	3.0	034_smiling	0.0	85.62841461931157	1.2333038823662719
7.0	45.5038527238321	pulse	0.0	t		24.0	female	east_asian	2.9076800636689217	smiling	034	sub-02	1.0	3.0	034_smiling	0.0	86.11199447243507	
7.0	46.20384436245422	pulse	0.0	t		24.0	female	east_asian	2.9076800636689217	smiling	034	sub-02	1.0	3.0	034_smiling	0.0	86.8119861110572	
7.0	46.25357675307487	fix	1.0		445	24.0	female	east_asian	2.9076800636689217	smiling	034	sub-02	1.0	3.0	034_smiling	0.0	86.86171850167784	3.766608881594493
7.0	46.90371012762125	pulse	1.0	t		24.0	female	east_asian	2.9076800636689217	smiling	034	sub-02	1.0	3.0	034_smiling	0.0	87.51185187622423	
7.0	47.60369482358237	pulse	1.0	t		24.0	female	east_asian	2.9076800636689217	smiling	034	sub-02	1.0	3.0	034_smiling	0.0	88.21183657218535	
7.0	48.30367861397917	pulse	1.0	t		24.0	female	east_asian	2.9076800636689217	smiling	034	sub-02	1.0	3.0	034_smiling	0.0	88.91182036258215	
7.0	49.003681421228976	pulse	1.0	t		24.0	female	east_asian	2.9076800636689217	smiling	034	sub-02	1.0	3.0	034_smiling	0.0	89.61182316983195	
7.0	49.7036464966277	pulse	1.0	t		24.0	female	east_asian	2.9076800636689217	smiling	034	sub-02	1.0	3.0	034_smiling	0.0	90.31178824523067	
8.0	50.02018563466936	face	0.0		145	36.0	female	white	2.7548746518105847	neutral	011	sub-02	1.0	3.0	011_neutral	0.0	90.62832738327234	1.2332718857564942
8.0	50.40363421113716	pulse	0.0	t		36.0	female	white	2.7548746518105847	neutral	011	sub-02	1.0	3.0	011_neutral	0.0	91.01177595974013	
8.0	51.103627359033	pulse	0.0	t		36.0	female	white	2.7548746518105847	neutral	011	sub-02	1.0	3.0	011_neutral	0.0	91.71176910763597	
8.0	51.253457520425854	fix	1.0		444	36.0	female	white	2.7548746518105847	neutral	011	sub-02	1.0	3.0	011_neutral	0.0	91.86159926902883	3.7582936872199753
8.0	51.80359756596363	pulse	1.0	t		36.0	female	white	2.7548746518105847	neutral	011	sub-02	1.0	3.0	011_neutral	0.0	92.4117393145666	
8.0	52.503576526683446	pulse	1.0	t		36.0	female	white	2.7548746518105847	neutral	011	sub-02	1.0	3.0	011_neutral	0.0	93.11171827528642	
8.0	53.20357842836893	pulse	1.0	t		36.0	female	white	2.7548746518105847	neutral	011	sub-02	1.0	3.0	011_neutral	0.0	93.8117201769719	
8.0	53.903554974250255	pulse	1.0	t		36.0	female	white	2.7548746518105847	neutral	011	sub-02	1.0	3.0	011_neutral	0.0	94.51169672285323	
8.0	54.603552046258756	pulse	1.0	t		36.0	female	white	2.7548746518105847	neutral	011	sub-02	1.0	3.0	011_neutral	0.0	95.21169379486173	
9.0	55.01175120764583	face	0.0		146	20.0	female	white	3.9502586549940313	smiling	091	sub-02	1.0	3.0	091_smiling	0.0	95.6198929562488	1.2416531863341334
9.0	55.30365386188532	pulse	0.0	t		20.0	female	white	3.9502586549940313	smiling	091	sub-02	1.0	3.0	091_smiling	0.0	95.9117956104883	
9.0	56.00363885970137	pulse	0.0	t		20.0	female	white	3.9502586549940313	smiling	091	sub-02	1.0	3.0	091_smiling	0.0	96.61178060830434	
9.0	56.25340439397996	fix	1.0		444	20.0	female	white	3.9502586549940313	smiling	091	sub-02	1.0	3.0	091_smiling	0.0	96.86154614258294	3.7665548495838266
9.0	56.70349617293368	pulse	1.0	t		20.0	female	white	3.9502586549940313	smiling	091	sub-02	1.0	3.0	091_smiling	0.0	97.31163792153666	
9.0	57.403471209541294	pulse	1.0	t		20.0	female	white	3.9502586549940313	smiling	091	sub-02	1.0	3.0	091_smiling	0.0	98.01161295814427	
9.0	58.103470696388285	pulse	1.0	t		20.0	female	white	3.9502586549940313	smiling	091	sub-02	1.0	3.0	091_smiling	0.0	98.71161244499126	
9.0	58.803456901623576	pulse	1.0	t		20.0	female	white	3.9502586549940313	smiling	091	sub-02	1.0	3.0	091_smiling	0.0	99.41159865022655	
9.0	59.50343284379551	pulse	1.0	t		20.0	female	white	3.9502586549940313	smiling	091	sub-02	1.0	3.0	091_smiling	0.0	100.11157459239848	
10.0	60.01995924356379	face	0.0		145	36.0	female	white	2.7548746518105847	smiling	011	sub-02	1.0	3.0	011_smiling	0.0	100.62810099216676	1.2333407086525767
10.0	60.203547639178396	pulse	0.0	t		36.0	female	white	2.7548746518105847	smiling	011	sub-02	1.0	3.0	011_smiling	0.0	100.81168938778137	
10.0	60.903527807317914	pulse	0.0	t		36.0	female	white	2.7548746518105847	smiling	011	sub-02	1.0	3.0	011_smiling	0.0	101.51166955592089	
10.0	61.253299952216366	fix	1.0		444	36.0	female	white	2.7548746518105847	smiling	011	sub-02	1.0	3.0	011_smiling	0.0	101.86144170081934	3.7665720553081883
10.0	61.60339387433987	pulse	1.0	t		36.0	female	white	2.7548746518105847	smiling	011	sub-02	1.0	3.0	011_smiling	0.0	102.21153562294285	
10.0	62.30339728529907	pulse	1.0	t		36.0	female	white	2.7548746518105847	smiling	011	sub-02	1.0	3.0	011_smiling	0.0	102.91153903390205	
10.0	63.00337413303532	pulse	1.0	t		36.0	female	white	2.7548746518105847	smiling	011	sub-02	1.0	3.0	011_smiling	0.0	103.6115158816383	
10.0	63.70335822528705	pulse	1.0	t		36.0	female	white	2.7548746518105847	smiling	011	sub-02	1.0	3.0	011_smiling	0.0	104.31149997389002	
10.0	64.40333778971672	pulse	1.0	t		36.0	female	white	2.7548746518105847	smiling	011	sub-02	1.0	3.0	011_smiling	0.0	105.01147953831969	
11.0	65.01987200752455	face	0.0		145	31.0	male	west_asian	1.9538400318344609	smiling	070	sub-02	1.0	3.0	070_smiling	1.0	105.62801375612753	1.2333256159122357
11.0	65.103336069144	pulse	0.0	t		31.0	male	west_asian	1.9538400318344609	smiling	070	sub-02	1.0	3.0	070_smiling	1.0	105.71147781774698	
11.0	65.80343577178701	pulse	0.0	t		31.0	male	west_asian	1.9538400318344609	smiling	070	sub-02	1.0	3.0	070_smiling	1.0	106.41157752038998	
11.0	66.25319762343679	fix	1.0		236	31.0	male	west_asian	1.9538400318344609	smiling	070	sub-02	1.0	3.0	070_smiling	1.0	106.86133937203977	1.9999604570202791
11.0	66.50330334808314	pulse	1.0	t		31.0	male	west_asian	1.9538400318344609	smiling	070	sub-02	1.0	3.0	070_smiling	1.0	107.11144509668611	
11.0	67.20328472364145	pulse	1.0	t		31.0	male	west_asian	1.9538400318344609	smiling	070	sub-02	1.0	3.0	070_smiling	1.0	107.81142647224442	
11.0	67.9032691177481	pulse	1.0	t		31.0	male	west_asian	1.9538400318344609	smiling	070	sub-02	1.0	3.0	070_smiling	1.0	108.51141086635107	
11.0	68.25315808045707	rating	2.0		235	31.0	male	west_asian	1.9538400318344609	smiling	070	sub-02	1.0	3.0	070_smiling	1.0	108.86129982906004	1.9999544199240518
11.0	68.60324958774208	pulse	2.0	t		31.0	male	west_asian	1.9538400318344609	smiling	070	sub-02	1.0	3.0	070_smiling	1.0	109.21139133634506	
11.0	69.12823063880614	response	2.0	w		31.0	male	west_asian	1.9538400318344609	smiling	070	sub-02	1.0	3.0	070_smiling	1.0	109.73637238740912	
11.0	69.30322794475205	pulse	2.0	t		31.0	male	west_asian	1.9538400318344609	smiling	070	sub-02	1.0	3.0	070_smiling	1.0	109.91136969335503	
11.0	70.00322743159904	pulse	2.0	t		31.0	male	west_asian	1.9538400318344609	smiling	070	sub-02	1.0	3.0	070_smiling	1.0	110.61136918020202	
11.0	70.25311250038112	fix	3.0		444	31.0	male	west_asian	1.9538400318344609	smiling	070	sub-02	1.0	3.0	070_smiling	1.0	110.8612542489841	3.7665569625678472
11.0	70.70321393868926	pulse	3.0	t		31.0	male	west_asian	1.9538400318344609	smiling	070	sub-02	1.0	3.0	070_smiling	1.0	111.31135568729223	
11.0	71.40319410682832	pulse	3.0	t		31.0	male	west_asian	1.9538400318344609	smiling	070	sub-02	1.0	3.0	070_smiling	1.0	112.0113358554313	
11.0	72.10317668980588	pulse	3.0	t		31.0	male	west_asian	1.9538400318344609	smiling	070	sub-02	1.0	3.0	070_smiling	1.0	112.71131843840885	
11.0	72.80316953584679	pulse	3.0	t		31.0	male	west_asian	1.9538400318344609	smiling	070	sub-02	1.0	3.0	070_smiling	1.0	113.41131128444977	
11.0	73.5031445724544	pulse	3.0	t		31.0	male	west_asian	1.9538400318344609	smiling	070	sub-02	1.0	3.0	070_smiling	1.0	114.11128632105738	
12.0	74.01966946294897	face	0.0		145	22.0	female	white	4.614007162753682	smiling	009	sub-02	1.0	3.0	009_smiling	0.0	114.62781121155194	1.2333216917995742
12.0	74.20310693116016	pulse	0.0	t		22.0	female	white	4.614007162753682	smiling	009	sub-02	1.0	3.0	009_smiling	0.0	114.81124867976314	
12.0	74.90311275695785	pulse	0.0	t		22.0	female	white	4.614007162753682	smiling	009	sub-02	1.0	3.0	009_smiling	0.0	115.51125450556083	
12.0	75.25299115474854	fix	1.0		444	22.0	female	white	4.614007162753682	smiling	009	sub-02	1.0	3.0	009_smiling	0.0	115.86113290335152	3.7665723571631133
12.0	75.60310258445088	pulse	1.0	t		22.0	female	white	4.614007162753682	smiling	009	sub-02	1.0	3.0	009_smiling	0.0	116.21124433305386	
12.0	76.30308999710542	pulse	1.0	t		22.0	female	white	4.614007162753682	smiling	009	sub-02	1.0	3.0	009_smiling	0.0	116.91123174570839	
12.0	77.00309280435476	pulse	1.0	t		22.0	female	white	4.614007162753682	smiling	009	sub-02	1.0	3.0	009_smiling	0.0	117.61123455295774	
12.0	77.70305938902766	pulse	1.0	t		22.0	female	white	4.614007162753682	smiling	009	sub-02	1.0	3.0	009_smiling	0.0	118.31120113763063	
12.0	78.40304831095636	pulse	1.0	t		22.0	female	white	4.614007162753682	smiling	009	sub-02	1.0	3.0	009_smiling	0.0	119.01119005955934	
13.0	79.01956351191166	face	0.0		145	25.0	female	black	3.858336649423	neutral	126	sub-02	1.0	3.0	126_neutral	0.0	119.62770526051463	1.233328634460122
13.0	79.10314529690595	pulse	0.0	t		25.0	female	black	3.858336649423	neutral	126	sub-02	1.0	3.0	126_neutral	0.0	119.71128704550893	
13.0	79.80298057473783	pulse	0.0	t		25.0	female	black	3.858336649423	neutral	126	sub-02	1.0	3.0	126_neutral	0.0	120.4111223233408	
13.0	80.25289214637178	fix	1.0		444	25.0	female	black	3.858336649423	neutral	126	sub-02	1.0	3.0	126_neutral	0.0	120.86103389497475	3.7665811109527567
13.0	80.50301356746832	pulse	1.0	t		25.0	female	black	3.858336649423	neutral	126	sub-02	1.0	3.0	126_neutral	0.0	121.11115531607129	
13.0	81.20299011334964	pulse	1.0	t		25.0	female	black	3.858336649423	neutral	126	sub-02	1.0	3.0	126_neutral	0.0	121.81113186195262	
13.0	81.9029720926178	pulse	1.0	t		25.0	female	black	3.858336649423	neutral	126	sub-02	1.0	3.0	126_neutral	0.0	122.51111384122078	
13.0	82.60295769414324	pulse	1.0	t		25.0	female	black	3.858336649423	neutral	126	sub-02	1.0	3.0	126_neutral	0.0	123.21109944274622	
13.0	83.30295054018416	pulse	1.0	t		25.0	female	black	3.858336649423	neutral	126	sub-02	1.0	3.0	126_neutral	0.0	123.91109228878713	
14.0	84.01947325732453	face	0.0		146	24.0	female	black	3.0955033824114606	smiling	099	sub-02	1.0	3.0	099_smiling	1.0	124.62761500592751	1.2333271251859514
14.0	84.00580678092683	pulse	0.0	t		24.0	female	black	3.0955033824114606	smiling	099	sub-02	1.0	3.0	099_smiling	1.0	124.61394852952981	
14.0	84.70304218330375	pulse	0.0	t		24.0	female	black	3.0955033824114606	smiling	099	sub-02	1.0	3.0	099_smiling	1.0	125.31118393190673	
14.0	85.25280038251049	fix	1.0		236	24.0	female	black	3.0955033824114606	smiling	099	sub-02	1.0	3.0	099_smiling	1.0	125.86094213111346	1.9999595514559587
14.0	85.40290975959988	pulse	1.0	t		24.0	female	black	3.0955033824114606	smiling	099	sub-02	1.0	3.0	099_smiling	1.0	126.01105150820285	
14.0	86.10288389064272	pulse	1.0	t		24.0	female	black	3.0955033824114606	smiling	099	sub-02	1.0	3.0	099_smiling	1.0	126.71102563924569	
14.0	86.8028643606367	pulse	1.0	t		24.0	female	black	3.0955033824114606	smiling	099	sub-02	1.0	3.0	099_smiling	1.0	127.41100610923968	
14.0	87.25275993396644	rating	2.0		235	24.0	female	black	3.0955033824114606	smiling	099	sub-02	1.0	3.0	099_smiling	1.0	127.86090168256942	1.9999393271837107
14.0	87.50286928087007	pulse	2.0	t		24.0	female	black	3.0955033824114606	smiling	099	sub-02	1.0	3.0	099_smiling	1.0	128.11101102947305	
14.0	87.86419280553218	response	2.0	b		24.0	female	black	3.0955033824114606	smiling	099	sub-02	1.0	3.0	099_smiling	1.0	128.47233455413516	
14.0	88.20283224328523	pulse	2.0	t		24.0	female	black	3.0955033824114606	smiling	099	sub-02	1.0	3.0	099_smiling	1.0	128.8109739918882	
14.0	88.90282237263318	pulse	2.0	t		24.0	female	black	3.0955033824114606	smiling	099	sub-02	1.0	3.0	099_smiling	1.0	129.51096412123616	
14.0	89.25269926115016	fix	3.0		444	24.0	female	black	3.0955033824114606	smiling	099	sub-02	1.0	3.0	099_smiling	1.0	129.86084100975313	3.7665672256312064
14.0	89.60280767230415	pulse	3.0	t		24.0	female	black	3.0955033824114606	smiling	099	sub-02	1.0	3.0	099_smiling	1.0	130.21094942090713	
14.0	90.30278663302397	pulse	3.0	t		24.0	female	black	3.0955033824114606	smiling	099	sub-02	1.0	3.0	099_smiling	1.0	130.91092838162695	
14.0	91.0027903458381	pulse	3.0	t		24.0	female	black	3.0955033824114606	smiling	099	sub-02	1.0	3.0	099_smiling	1.0	131.61093209444107	
14.0	91.702771117687	pulse	3.0	t		24.0	female	black	3.0955033824114606	smiling	099	sub-02	1.0	3.0	099_smiling	1.0	132.31091286628998	
14.0	92.40274615429416	pulse	3.0	t		24.0	female	black	3.0955033824114606	smiling	099	sub-02	1.0	3.0	099_smiling	1.0	133.01088790289714	
15.0	93.01926648678136	face	0.0		145	28.0	male	white	3.9076800636689217	smiling	033	sub-02	1.0	3.0	033_smiling	0.0	133.62740823538434	1.233346443893879
15.0	93.10269372211451	pulse	0.0	t		28.0	male	white	3.9076800636689217	smiling	033	sub-02	1.0	3.0	033_smiling	0.0	133.71083547071748	
15.0	93.80272520557082	pulse	0.0	t		28.0	male	white	3.9076800636689217	smiling	033	sub-02	1.0	3.0	033_smiling	0.0	134.4108669541738	
15.0	94.25261293067524	fix	1.0		444	28.0	male	white	3.9076800636689217	smiling	033	sub-02	1.0	3.0	033_smiling	0.0	134.86075467927822	3.7665696404696973
15.0	94.50271956088591	pulse	1.0	t		28.0	male	white	3.9076800636689217	smiling	033	sub-02	1.0	3.0	033_smiling	0.0	135.11086130948888	
15.0	95.2027000308799	pulse	1.0	t		28.0	male	white	3.9076800636689217	smiling	033	sub-02	1.0	3.0	033_smiling	0.0	135.81084177948287	
15.0	95.90268865095368	pulse	1.0	t		28.0	male	white	3.9076800636689217	smiling	033	sub-02	1.0	3.0	033_smiling	0.0	136.51083039955665	
15.0	96.60266670610918	pulse	1.0	t		28.0	male	white	3.9076800636689217	smiling	033	sub-02	1.0	3.0	033_smiling	0.0	137.21080845471215	
15.0	97.3026571373116	pulse	1.0	t		28.0	male	white	3.9076800636689217	smiling	033	sub-02	1.0	3.0	033_smiling	0.0	137.91079888591457	
16.0	98.01918257114494	face	0.0		146	28.0	male	east_asian	1.5563072025467568	smiling	005	sub-02	1.0	3.0	005_smiling	0.0	138.6273243197479	1.233278526562117
16.0	98.00551277434442	pulse	0.0	t		28.0	male	east_asian	1.5563072025467568	smiling	005	sub-02	1.0	3.0	005_smiling	0.0	138.6136545229474	
16.0	98.70262773665354	pulse	0.0	t		28.0	male	east_asian	1.5563072025467568	smiling	005	sub-02	1.0	3.0	005_smiling	0.0	139.31076948525651	
16.0	99.25246109770706	fix	1.0		443	28.0	male	east_asian	1.5563072025467568	smiling	005	sub-02	1.0	3.0	005_smiling	0.0	139.86060284631003	3.7666197483677024
16.0	99.40261333817898	pulse	1.0	t		28.0	male	east_asian	1.5563072025467568	smiling	005	sub-02	1.0	3.0	005_smiling	0.0	140.01075508678196	
16.0	100.10259863784995	pulse	1.0	t		28.0	male	east_asian	1.5563072025467568	smiling	005	sub-02	1.0	3.0	005_smiling	0.0	140.71074038645293	
16.0	100.80257367445756	pulse	1.0	t		28.0	male	east_asian	1.5563072025467568	smiling	005	sub-02	1.0	3.0	005_smiling	0.0	141.41071542306054	
16.0	101.50255716299944	pulse	1.0	t		28.0	male	east_asian	1.5563072025467568	smiling	005	sub-02	1.0	3.0	005_smiling	0.0	142.1106989116024	
16.0	102.20255332944362	pulse	1.0	t		28.0	male	east_asian	1.5563072025467568	smiling	005	sub-02	1.0	3.0	005_smiling	0.0	142.8106950780466	
16.0	102.90253561056625	pulse	1.0	t		28.0	male	east_asian	1.5563072025467568	smiling	005	sub-02	1.0	3.0	005_smiling	0.0	143.51067735916922	
17.0	103.01908084607476	face	0.0		146	37.0	male	white	3.898925586947871	neutral	101	sub-02	1.0	3.0	101_neutral	0.0	143.62722259467773	1.2333072027690832
17.0	103.60263863361206	pulse	0.0	t		37.0	male	white	3.898925586947871	neutral	101	sub-02	1.0	3.0	101_neutral	0.0	144.21078038221503	
17.0	104.25238804884384	fix	1.0		443	37.0	male	white	3.898925586947871	neutral	101	sub-02	1.0	3.0	101_neutral	0.0	144.86052979744682	3.7665678293410565
17.0	104.30250681361758	pulse	1.0	t		37.0	male	white	3.898925586947871	neutral	101	sub-02	1.0	3.0	101_neutral	0.0	144.91064856222056	
17.0	105.00248094466087	pulse	1.0	t		37.0	male	white	3.898925586947871	neutral	101	sub-02	1.0	3.0	101_neutral	0.0	145.61062269326385	
17.0	105.70246473505767	pulse	1.0	t		37.0	male	white	3.898925586947871	neutral	101	sub-02	1.0	3.0	101_neutral	0.0	146.31060648366065	
17.0	106.40246059964693	pulse	1.0	t		37.0	male	white	3.898925586947871	neutral	101	sub-02	1.0	3.0	101_neutral	0.0	147.0106023482499	
17.0	107.10244861601086	pulse	1.0	t		37.0	male	white	3.898925586947871	neutral	101	sub-02	1.0	3.0	101_neutral	0.0	147.71059036461384	
17.0	107.80242486003772	pulse	1.0	t		37.0	male	white	3.898925586947871	neutral	101	sub-02	1.0	3.0	101_neutral	0.0	148.4105666086407	
18.0	108.0189558781849	face	0.0		145	20.0	male	black	2.609629924393156	smiling	043	sub-02	1.0	3.0	043_smiling	0.0	148.62709762678787	1.2332966378503443
18.0	108.5024174042237	pulse	0.0	t		20.0	male	black	2.609629924393156	smiling	043	sub-02	1.0	3.0	043_smiling	0.0	149.11055915282668	
18.0	109.20241085397447	pulse	0.0	t		20.0	male	black	2.609629924393156	smiling	043	sub-02	1.0	3.0	043_smiling	0.0	149.81055260257745	
18.0	109.25225251603524	fix	1.0		444	20.0	male	black	2.609629924393156	smiling	043	sub-02	1.0	3.0	043_smiling	0.0	149.86039426463822	3.7666001278053045
18.0	109.90239675735484	pulse	1.0	t		20.0	male	black	2.609629924393156	smiling	043	sub-02	1.0	3.0	043_smiling	0.0	150.5105385059578	
18.0	110.60237601992958	pulse	1.0	t		20.0	male	black	2.609629924393156	smiling	043	sub-02	1.0	3.0	043_smiling	0.0	151.21051776853255	
18.0	111.30235407508508	pulse	1.0	t		20.0	male	black	2.609629924393156	smiling	043	sub-02	1.0	3.0	043_smiling	0.0	151.91049582368805	
18.0	112.00233635620816	pulse	1.0	t		20.0	male	black	2.609629924393156	smiling	043	sub-02	1.0	3.0	043_smiling	0.0	152.61047810481114	
18.0	112.70231833547587	pulse	1.0	t		20.0	male	black	2.609629924393156	smiling	043	sub-02	1.0	3.0	043_smiling	0.0	153.31046008407884	
19.0	113.01885264384055	face	0.0		145	26.0	male	white	2.7966573816155993	smiling	117	sub-02	1.0	3.0	117_smiling	1.0	153.62699439244352	1.2333404067976517
19.0	113.40245003472864	pulse	0.0	t		26.0	male	white	2.7966573816155993	smiling	117	sub-02	1.0	3.0	117_smiling	1.0	154.01059178333162	
19.0	114.10242567504565	pulse	0.0	t		26.0	male	white	2.7966573816155993	smiling	117	sub-02	1.0	3.0	117_smiling	1.0	154.71056742364863	
19.0	114.2521930506382	fix	1.0		236	26.0	male	white	2.7966573816155993	smiling	117	sub-02	1.0	3.0	117_smiling	1.0	154.86033479924117	1.999945062425013
19.0	114.80229687359906	pulse	1.0	t		26.0	male	white	2.7966573816155993	smiling	117	sub-02	1.0	3.0	117_smiling	1.0	155.41043862220204	
19.0	115.50228730480194	pulse	1.0	t		26.0	male	white	2.7966573816155993	smiling	117	sub-02	1.0	3.0	117_smiling	1.0	156.1104290534049	
19.0	116.20225328576498	pulse	1.0	t		26.0	male	white	2.7966573816155993	smiling	117	sub-02	1.0	3.0	117_smiling	1.0	156.81039503436796	
19.0	116.25213811306321	rating	2.0		236	26.0	male	white	2.7966573816155993	smiling	117	sub-02	1.0	3.0	117_smiling	1.0	156.86027986166619	1.9999746441962998
19.0	116.83856804909146	response	2.0	g		26.0	male	white	2.7966573816155993	smiling	117	sub-02	1.0	3.0	117_smiling	1.0	157.44670979769444	
19.0	116.90224311325801	pulse	2.0	t		26.0	male	white	2.7966573816155993	smiling	117	sub-02	1.0	3.0	117_smiling	1.0	157.51038486186098	
19.0	117.60221664059145	pulse	2.0	t		26.0	male	white	2.7966573816155993	smiling	117	sub-02	1.0	3.0	117_smiling	1.0	158.21035838919443	
19.0	118.25211275725951	fix	3.0		443	26.0	male	white	2.7966573816155993	smiling	117	sub-02	1.0	3.0	117_smiling	1.0	158.86025450586249	3.7665756775659247
19.0	118.30222276824406	pulse	3.0	t		26.0	male	white	2.7966573816155993	smiling	117	sub-02	1.0	3.0	117_smiling	1.0	158.91036451684704	
19.0	119.00219478630333	pulse	3.0	t		26.0	male	white	2.7966573816155993	smiling	117	sub-02	1.0	3.0	117_smiling	1.0	159.6103365349063	
19.0	119.70218521750621	pulse	3.0	t		26.0	male	white	2.7966573816155993	smiling	117	sub-02	1.0	3.0	117_smiling	1.0	160.3103269661092	
19.0	120.40216025411337	pulse	3.0	t		26.0	male	white	2.7966573816155993	smiling	117	sub-02	1.0	3.0	117_smiling	1.0	161.01030200271634	
19.0	121.102161552089	pulse	3.0	t		26.0	male	white	2.7966573816155993	smiling	117	sub-02	1.0	3.0	117_smiling	1.0	161.71030330069198	
19.0	121.80214322950224	pulse	3.0	t		26.0	male	white	2.7966573816155993	smiling	117	sub-02	1.0	3.0	117_smiling	1.0	162.4102849781052	
20.0	122.01868843482544	face	0.0		145	24.0	female	east_asian	4.409868682849185	neutral	030	sub-02	1.0	3.0	030_neutral	0.0	162.6268301834284	1.233281545110458
20.0	122.50225410077292	pulse	0.0	t		24.0	female	east_asian	4.409868682849185	neutral	030	sub-02	1.0	3.0	030_neutral	0.0	163.1103958493759	
20.0	123.20224000415374	pulse	0.0	t		24.0	female	east_asian	4.409868682849185	neutral	030	sub-02	1.0	3.0	030_neutral	0.0	163.8103817527567	
20.0	123.2519699799359	fix	1.0		444	24.0	female	east_asian	4.409868682849185	neutral	030	sub-02	1.0	3.0	030_neutral	0.0	163.86011172853887	3.7582574646430658
20.0	123.90209490254756	pulse	1.0	t		24.0	female	east_asian	4.409868682849185	neutral	030	sub-02	1.0	3.0	030_neutral	0.0	164.51023665115054	
20.0	124.60207688181572	pulse	1.0	t		24.0	female	east_asian	4.409868682849185	neutral	030	sub-02	1.0	3.0	030_neutral	0.0	165.2102186304187	
20.0	125.30207335011437	pulse	1.0	t		24.0	female	east_asian	4.409868682849185	neutral	030	sub-02	1.0	3.0	030_neutral	0.0	165.91021509871734	
20.0	126.00205291454404	pulse	1.0	t		24.0	female	east_asian	4.409868682849185	neutral	030	sub-02	1.0	3.0	030_neutral	0.0	166.610194663147	
20.0	126.70203066784461	pulse	1.0	t		24.0	female	east_asian	4.409868682849185	neutral	030	sub-02	1.0	3.0	030_neutral	0.0	167.31017241644759	
21.0	127.01022744457896	face	0.0		146	22.0	male	black	2.767608436132113	smiling	044	sub-02	1.0	3.0	044_smiling	0.0	167.61836919318193	1.2416214915792807
21.0	127.40202321203105	pulse	0.0	t		22.0	male	black	2.767608436132113	smiling	044	sub-02	1.0	3.0	044_smiling	0.0	168.01016496063403	
21.0	128.10200851170202	pulse	0.0	t		22.0	male	black	2.767608436132113	smiling	044	sub-02	1.0	3.0	044_smiling	0.0	168.710150260305	
21.0	128.25184893615824	fix	1.0		444	22.0	male	black	2.767608436132113	smiling	044	sub-02	1.0	3.0	044_smiling	0.0	168.85999068476121	3.766611900142834
21.0	128.80201554491896	pulse	1.0	t		22.0	male	black	2.767608436132113	smiling	044	sub-02	1.0	3.0	044_smiling	0.0	169.41015729352193	
21.0	129.50198182773693	pulse	1.0	t		22.0	male	black	2.767608436132113	smiling	044	sub-02	1.0	3.0	044_smiling	0.0	170.1101235763399	
21.0	130.20196742926282	pulse	1.0	t		22.0	male	black	2.767608436132113	smiling	044	sub-02	1.0	3.0	044_smiling	0.0	170.8101091778658	
21.0	130.90201068505667	pulse	1.0	t		22.0	male	black	2.767608436132113	smiling	044	sub-02	1.0	3.0	044_smiling	0.0	171.51015243365964	
21.0	131.60192987852452	pulse	1.0	t		22.0	male	black	2.767608436132113	smiling	044	sub-02	1.0	3.0	044_smiling	0.0	172.2100716271275	
22.0	132.01846083630107	face	0.0		145	31.0	female	west_asian	2.364902506963788	neutral	006	sub-02	1.0	3.0	006_neutral	0.0	172.62660258490405	1.2333367845399152
22.0	132.30188197416692	pulse	0.0	t		31.0	female	west_asian	2.364902506963788	neutral	006	sub-02	1.0	3.0	006_neutral	0.0	172.9100237227699	
22.0	133.00187331093366	pulse	0.0	t		31.0	female	west_asian	2.364902506963788	neutral	006	sub-02	1.0	3.0	006_neutral	0.0	173.61001505953664	
22.0	133.251797620841	fix	1.0		444	31.0	female	west_asian	2.364902506963788	neutral	006	sub-02	1.0	3.0	006_neutral	0.0	173.85993936944396	3.7582242606140426
22.0	133.70189966285852	pulse	1.0	t		31.0	female	west_asian	2.364902506963788	neutral	006	sub-02	1.0	3.0	006_neutral	0.0	174.3100414114615	
22.0	134.40187952914266	pulse	1.0	t		31.0	female	west_asian	2.364902506963788	neutral	006	sub-02	1.0	3.0	006_neutral	0.0	175.01002127774564	
22.0	135.10186663994273	pulse	1.0	t		31.0	female	west_asian	2.364902506963788	neutral	006	sub-02	1.0	3.0	006_neutral	0.0	175.7100083885457	
22.0	135.8018449969527	pulse	1.0	t		31.0	female	west_asian	2.364902506963788	neutral	006	sub-02	1.0	3.0	006_neutral	0.0	176.40998674555567	
22.0	136.50182607065653	pulse	1.0	t		31.0	female	west_asian	2.364902506963788	neutral	006	sub-02	1.0	3.0	006_neutral	0.0	177.1099678192595	
23.0	137.01002188145503	face	0.0		146	40.0	male	white	1.868682849184242	smiling	172	sub-02	1.0	3.0	172_smiling	0.0	177.618163630058	1.2416725050416062
23.0	137.20177816629848	pulse	0.0	t		40.0	male	white	1.868682849184242	smiling	172	sub-02	1.0	3.0	172_smiling	0.0	177.80991991490146	
23.0	137.9019174119212	pulse	0.0	t		40.0	male	white	1.868682849184242	smiling	172	sub-02	1.0	3.0	172_smiling	0.0	178.51005916052418	
23.0	138.25169438649664	fix	1.0		1185	40.0	male	white	1.868682849184242	smiling	172	sub-02	1.0	3.0	172_smiling	0.0	178.8598361350996	10.0164429369147
23.0	138.60178800676522	pulse	1.0	t		40.0	male	white	1.868682849184242	smiling	172	sub-02	1.0	3.0	172_smiling	0.0	179.2099297553682	
23.0	139.3017657600658	pulse	1.0	t		40.0	male	white	1.868682849184242	smiling	172	sub-02	1.0	3.0	172_smiling	0.0	179.90990750866877	
23.0	140.0017513615917	pulse	1.0	t		40.0	male	white	1.868682849184242	smiling	172	sub-02	1.0	3.0	172_smiling	0.0	180.60989311019466	
23.0	140.70173937795562	pulse	1.0	t		40.0	male	white	1.868682849184242	smiling	172	sub-02	1.0	3.0	172_smiling	0.0	181.3098811265586	
23.0	141.40173192214206	pulse	1.0	t		40.0	male	white	1.868682849184242	smiling	172	sub-02	1.0	3.0	172_smiling	0.0	182.00987367074504	
23.0	142.10171239213605	pulse	1.0	t		40.0	male	white	1.868682849184242	smiling	172	sub-02	1.0	3.0	172_smiling	0.0	182.70985414073903	
23.0	142.8017049363225	pulse	1.0	t		40.0	male	white	1.868682849184242	smiling	172	sub-02	1.0	3.0	172_smiling	0.0	183.40984668492547	
23.0	143.5016869155902	pulse	1.0	t		40.0	male	white	1.868682849184242	smiling	172	sub-02	1.0	3.0	172_smiling	0.0	184.10982866419317	
23.0	144.20167493195459	pulse	1.0	t		40.0	male	white	1.868682849184242	smiling	172	sub-02	1.0	3.0	172_smiling	0.0	184.80981668055756	
23.0	144.9016481574331	pulse	1.0	t		40.0	male	white	1.868682849184242	smiling	172	sub-02	1.0	3.0	172_smiling	0.0	185.50978990603608	
23.0	145.6016343626684	pulse	1.0	t		40.0	male	white	1.868682849184242	smiling	172	sub-02	1.0	3.0	172_smiling	0.0	186.20977611127137	
23.0	146.30162298274217	pulse	1.0	t		40.0	male	white	1.868682849184242	smiling	172	sub-02	1.0	3.0	172_smiling	0.0	186.90976473134515	
23.0	147.0016158287831	pulse	1.0	t		40.0	male	white	1.868682849184242	smiling	172	sub-02	1.0	3.0	172_smiling	0.0	187.60975757738606	
23.0	147.70160203401838	pulse	1.0	t		40.0	male	white	1.868682849184242	smiling	172	sub-02	1.0	3.0	172_smiling	0.0	188.30974378262135	
24.0	148.26813732341134	face	0.0		145	27.0	female	white	3.504576203740549	neutral	144	sub-02	1.0	3.0	144_neutral	0.0	188.8762790720143	1.2332682634987577
24.0	148.4015499036932	pulse	0.0	t		27.0	female	white	3.504576203740549	neutral	144	sub-02	1.0	3.0	144_neutral	0.0	189.00969165229617	
24.0	149.1016858289131	pulse	0.0	t		27.0	female	white	3.504576203740549	neutral	144	sub-02	1.0	3.0	144_neutral	0.0	189.70982757751608	
24.0	149.5014055869101	fix	1.0		444	27.0	female	white	3.504576203740549	neutral	144	sub-02	1.0	3.0	144_neutral	0.0	190.10954733551307	3.7666278984474957
24.0	149.8015669886754	pulse	1.0	t		27.0	female	white	3.504576203740549	neutral	144	sub-02	1.0	3.0	144_neutral	0.0	190.40970873727838	
24.0	150.50154383641166	pulse	1.0	t		27.0	female	white	3.504576203740549	neutral	144	sub-02	1.0	3.0	144_neutral	0.0	191.10968558501463	
24.0	151.20152943793755	pulse	1.0	t		27.0	female	white	3.504576203740549	neutral	144	sub-02	1.0	3.0	144_neutral	0.0	191.80967118654053	
24.0	151.90151534131792	pulse	1.0	t		27.0	female	white	3.504576203740549	neutral	144	sub-02	1.0	3.0	144_neutral	0.0	192.5096570899209	
24.0	152.6015006409889	pulse	1.0	t		27.0	female	white	3.504576203740549	neutral	144	sub-02	1.0	3.0	144_neutral	0.0	193.20964238959186	
25.0	153.2680334853576	face	0.0		145	23.0	male	white	2.6275368085953046	neutral	141	sub-02	1.0	3.0	141_neutral	0.0	193.87617523396057	1.233268867208153
25.0	153.30161543637178	pulse	0.0	t		23.0	male	white	2.6275368085953046	neutral	141	sub-02	1.0	3.0	141_neutral	0.0	193.90975718497475	
25.0	154.00142867880277	pulse	0.0	t		23.0	male	white	2.6275368085953046	neutral	141	sub-02	1.0	3.0	141_neutral	0.0	194.60957042740574	
25.0	154.50130235256574	fix	1.0		443	23.0	male	white	2.6275368085953046	neutral	141	sub-02	1.0	3.0	141_neutral	0.0	195.10944410116872	3.7666097871592683
25.0	154.70144989919572	pulse	1.0	t		23.0	male	white	2.6275368085953046	neutral	141	sub-02	1.0	3.0	141_neutral	0.0	195.3095916477987	
25.0	155.40144183967232	pulse	1.0	t		23.0	male	white	2.6275368085953046	neutral	141	sub-02	1.0	3.0	141_neutral	0.0	196.0095835882753	
25.0	156.10142925232685	pulse	1.0	t		23.0	male	white	2.6275368085953046	neutral	141	sub-02	1.0	3.0	141_neutral	0.0	196.70957100092983	
25.0	156.80140942046592	pulse	1.0	t		23.0	male	white	2.6275368085953046	neutral	141	sub-02	1.0	3.0	141_neutral	0.0	197.4095511690689	
25.0	157.50139713497538	pulse	1.0	t		23.0	male	white	2.6275368085953046	neutral	141	sub-02	1.0	3.0	141_neutral	0.0	198.10953888357835	
25.0	158.201379416098	pulse	1.0	t		23.0	male	white	2.6275368085953046	neutral	141	sub-02	1.0	3.0	141_neutral	0.0	198.80952116470098	
26.0	158.267912139725	face	0.0		146	19.0	male	white	3.2522881018702745	smiling	018	sub-02	1.0	3.0	018_smiling	0.0	198.876053888328	1.2332854692226647
26.0	158.90132668206343	pulse	0.0	t		19.0	male	white	3.2522881018702745	smiling	018	sub-02	1.0	3.0	018_smiling	0.0	199.5094684306664	
26.0	159.50119760894768	fix	1.0		443	19.0	male	white	3.2522881018702745	smiling	018	sub-02	1.0	3.0	018_smiling	0.0	200.10933935755065	3.766611900142834
26.0	159.60134941173055	pulse	1.0	t		19.0	male	white	3.2522881018702745	smiling	018	sub-02	1.0	3.0	018_smiling	0.0	200.20949116033353	
26.0	160.30132807059545	pulse	1.0	t		19.0	male	white	3.2522881018702745	smiling	018	sub-02	1.0	3.0	018_smiling	0.0	200.90946981919842	
26.0	161.00132091663636	pulse	1.0	t		19.0	male	white	3.2522881018702745	smiling	018	sub-02	1.0	3.0	018_smiling	0.0	201.60946266523933	
26.0	161.70130410332376	pulse	1.0	t		19.0	male	white	3.2522881018702745	smiling	018	sub-02	1.0	3.0	018_smiling	0.0	202.30944585192674	
26.0	162.4012824603342	pulse	1.0	t		19.0	male	white	3.2522881018702745	smiling	018	sub-02	1.0	3.0	018_smiling	0.0	203.00942420893716	
26.0	163.10128496572906	pulse	1.0	t		19.0	male	white	3.2522881018702745	smiling	018	sub-02	1.0	3.0	018_smiling	0.0	203.70942671433204	
27.0	163.2678095090905	face	0.0		146	21.0	male	east_asian/white	3.501790688420215	neutral	036	sub-02	1.0	3.0	036_neutral	0.0	203.8759512576935	1.2333232010737447
27.0	163.80126392644888	pulse	0.0	t		21.0	male	east_asian/white	3.501790688420215	neutral	036	sub-02	1.0	3.0	036_neutral	0.0	204.40940567505186	
27.0	164.50113271016426	fix	1.0		444	21.0	male	east_asian/white	3.501790688420215	neutral	036	sub-02	1.0	3.0	036_neutral	0.0	205.10927445876723	3.7665753757109997
27.0	164.50872345300195	pulse	1.0	t		21.0	male	east_asian/white	3.501790688420215	neutral	036	sub-02	1.0	3.0	036_neutral	0.0	205.11686520160492	
27.0	165.201231205388	pulse	1.0	t		21.0	male	east_asian/white	3.501790688420215	neutral	036	sub-02	1.0	3.0	036_neutral	0.0	205.809372953991	
27.0	165.90121590134913	pulse	1.0	t		21.0	male	east_asian/white	3.501790688420215	neutral	036	sub-02	1.0	3.0	036_neutral	0.0	206.5093576499521	
27.0	166.6011930509403	pulse	1.0	t		21.0	male	east_asian/white	3.501790688420215	neutral	036	sub-02	1.0	3.0	036_neutral	0.0	207.20933479954329	
27.0	167.30118468956198	pulse	1.0	t		21.0	male	east_asian/white	3.501790688420215	neutral	036	sub-02	1.0	3.0	036_neutral	0.0	207.90932643816495	
27.0	168.00117270592636	pulse	1.0	t		21.0	male	east_asian/white	3.501790688420215	neutral	036	sub-02	1.0	3.0	036_neutral	0.0	208.60931445452934	
28.0	168.26770808587526	face	0.0		145	30.0	female	black	2.7345801830481498	neutral	062	sub-02	1.0	3.0	062_neutral	0.0	208.87584983447823	1.2332981471245148
28.0	168.70115951487105	pulse	0.0	t		30.0	female	black	2.7345801830481498	neutral	062	sub-02	1.0	3.0	062_neutral	0.0	209.30930126347403	
28.0	169.40110949752943	pulse	0.0	t		30.0	female	black	2.7345801830481498	neutral	062	sub-02	1.0	3.0	062_neutral	0.0	210.0092512461324	
28.0	169.50100623299977	fix	1.0		444	30.0	female	black	2.7345801830481498	neutral	062	sub-02	1.0	3.0	062_neutral	0.0	210.10914798160275	3.76662578546393
28.0	170.10114460324348	pulse	1.0	t		30.0	female	black	2.7345801830481498	neutral	062	sub-02	1.0	3.0	062_neutral	0.0	210.70928635184646	
28.0	170.80111330089994	pulse	1.0	t		30.0	female	black	2.7345801830481498	neutral	062	sub-02	1.0	3.0	062_neutral	0.0	211.40925504950292	
28.0	171.50109799686152	pulse	1.0	t		30.0	female	black	2.7345801830481498	neutral	062	sub-02	1.0	3.0	062_neutral	0.0	212.1092397454645	
28.0	172.201080881694	pulse	1.0	t		30.0	female	black	2.7345801830481498	neutral	062	sub-02	1.0	3.0	062_neutral	0.0	212.80922263029697	
28.0	172.90106497394527	pulse	1.0	t		30.0	female	black	2.7345801830481498	neutral	062	sub-02	1.0	3.0	062_neutral	0.0	213.50920672254824	
29.0	173.2676320184637	face	0.0		145	20.0	male	black	3.1070433744528456	neutral	082	sub-02	1.0	3.0	082_neutral	0.0	213.87577376706668	1.2332697727729283
29.0	173.60118037303846	pulse	0.0	t		20.0	male	black	3.1070433744528456	neutral	082	sub-02	1.0	3.0	082_neutral	0.0	214.20932212164143	
29.0	174.301167785693	pulse	0.0	t		20.0	male	black	3.1070433744528456	neutral	082	sub-02	1.0	3.0	082_neutral	0.0	214.90930953429597	
29.0	174.50090179123663	fix	1.0		444	20.0	male	black	3.1070433744528456	neutral	082	sub-02	1.0	3.0	082_neutral	0.0	215.1090435398396	3.766594090709077
29.0	175.0010293248929	pulse	1.0	t		20.0	male	black	3.1070433744528456	neutral	082	sub-02	1.0	3.0	082_neutral	0.0	215.60917107349587	
29.0	175.70102398206245	pulse	1.0	t		20.0	male	black	3.1070433744528456	neutral	082	sub-02	1.0	3.0	082_neutral	0.0	216.30916573066543	
29.0	176.4010050557663	pulse	1.0	t		20.0	male	black	3.1070433744528456	neutral	082	sub-02	1.0	3.0	082_neutral	0.0	217.00914680436927	
29.0	177.1009888461631	pulse	1.0	t		20.0	male	black	3.1070433744528456	neutral	082	sub-02	1.0	3.0	082_neutral	0.0	217.70913059476607	
29.0	177.80096237349653	pulse	1.0	t		20.0	male	black	3.1070433744528456	neutral	082	sub-02	1.0	3.0	082_neutral	0.0	218.4091041220995	
30.0	178.2674958819457	face	0.0		145	54.0	female	white	2.286908077994429	smiling	136	sub-02	1.0	3.0	136_smiling	0.0	218.87563763054868	1.2333228992188197
30.0	178.50107837629912	pulse	0.0	t		54.0	female	white	2.286908077994429	smiling	136	sub-02	1.0	3.0	136_smiling	0.0	219.1092201249021	
30.0	179.20105643145462	pulse	0.0	t		54.0	female	white	2.286908077994429	smiling	136	sub-02	1.0	3.0	136_smiling	0.0	219.8091981800576	
30.0	179.50081878116453	fix	1.0		444	54.0	female	white	2.286908077994429	smiling	136	sub-02	1.0	3.0	136_smiling	0.0	220.1089605297675	3.7665729608729634
30.0	179.9009261207343	pulse	1.0	t		54.0	female	white	2.286908077994429	smiling	136	sub-02	1.0	3.0	136_smiling	0.0	220.5090678693373	
30.0	180.60091202411468	pulse	1.0	t		54.0	female	white	2.286908077994429	smiling	136	sub-02	1.0	3.0	136_smiling	0.0	221.20905377271765	
30.0	181.30089128668942	pulse	1.0	t		54.0	female	white	2.286908077994429	smiling	136	sub-02	1.0	3.0	136_smiling	0.0	221.9090330352924	
30.0	182.0008780956341	pulse	1.0	t		54.0	female	white	2.286908077994429	smiling	136	sub-02	1.0	3.0	136_smiling	0.0	222.60901984423708	
30.0	182.70086490457925	pulse	1.0	t		54.0	female	white	2.286908077994429	smiling	136	sub-02	1.0	3.0	136_smiling	0.0	223.30900665318222	
31.0	183.2673917420375	face	0.0		145	27.0	male	black	3.5523278949462798	neutral	042	sub-02	1.0	3.0	042_neutral	1.0	223.87553349064046	1.2333349734108197
31.0	183.40085412836243	pulse	0.0	t		27.0	male	black	3.5523278949462798	neutral	042	sub-02	1.0	3.0	042_neutral	1.0	224.0089958769654	
31.0	184.1008330890827	pulse	0.0	t		27.0	male	black	3.5523278949462798	neutral	042	sub-02	1.0	3.0	042_neutral	1.0	224.70897483768567	
31.0	184.5007267154483	fix	1.0		236	27.0	male	black	3.5523278949462798	neutral	042	sub-02	1.0	3.0	042_neutral	1.0	225.10886846405128	1.9999462698447132
31.0	184.80083589633205	pulse	1.0	t		27.0	male	black	3.5523278949462798	neutral	042	sub-02	1.0	3.0	042_neutral	1.0	225.40897764493502	
31.0	185.50081304592322	pulse	1.0	t		27.0	male	black	3.5523278949462798	neutral	042	sub-02	1.0	3.0	042_neutral	1.0	226.1089547945262	
31.0	186.20078808253083	pulse	1.0	t		27.0	male	black	3.5523278949462798	neutral	042	sub-02	1.0	3.0	042_neutral	1.0	226.8089298311338	
31.0	186.50067298529302	rating	2.0		235	27.0	male	black	3.5523278949462798	neutral	042	sub-02	1.0	3.0	042_neutral	1.0	227.108814733896	1.999957136617013
31.0	186.90077881558818	pulse	2.0	t		27.0	male	black	3.5523278949462798	neutral	042	sub-02	1.0	3.0	042_neutral	1.0	227.50892056419116	
31.0	187.18410094507726	response	2.0	y		27.0	male	black	3.5523278949462798	neutral	042	sub-02	1.0	3.0	042_neutral	1.0	227.79224269368024	
31.0	187.60076502082347	pulse	2.0	t		27.0	male	black	3.5523278949462798	neutral	042	sub-02	1.0	3.0	042_neutral	1.0	228.20890676942645	
31.0	188.30074639638178	pulse	2.0	t		27.0	male	black	3.5523278949462798	neutral	042	sub-02	1.0	3.0	042_neutral	1.0	228.90888814498476	
31.0	188.50063012191004	fix	3.0		444	27.0	male	black	3.5523278949462798	neutral	042	sub-02	1.0	3.0	042_neutral	1.0	229.108771870513	3.7665726590180384
31.0	189.00073984613255	pulse	3.0	t		27.0	male	black	3.5523278949462798	neutral	042	sub-02	1.0	3.0	042_neutral	1.0	229.60888159473552	
31.0	189.70072695693216	pulse	3.0	t		27.0	male	black	3.5523278949462798	neutral	042	sub-02	1.0	3.0	042_neutral	1.0	230.30886870553513	
31.0	190.4006980694271	pulse	3.0	t		27.0	male	black	3.5523278949462798	neutral	042	sub-02	1.0	3.0	042_neutral	1.0	231.00883981803008	
31.0	191.1006888024849	pulse	3.0	t		27.0	male	black	3.5523278949462798	neutral	042	sub-02	1.0	3.0	042_neutral	1.0	231.70883055108789	
31.0	191.80067017804322	pulse	3.0	t		27.0	male	black	3.5523278949462798	neutral	042	sub-02	1.0	3.0	042_neutral	1.0	232.4088119266462	
32.0	192.26720278092807	face	0.0		145	31.0	female	white	2.1822522881018704	neutral	102	sub-02	1.0	3.0	102_neutral	0.0	232.87534452953105	1.233275809868701
32.0	192.50062559408798	pulse	0.0	t		31.0	female	white	2.1822522881018704	neutral	102	sub-02	1.0	3.0	102_neutral	0.0	233.10876734269095	
32.0	193.20062206238663	pulse	0.0	t		31.0	female	white	2.1822522881018704	neutral	102	sub-02	1.0	3.0	102_neutral	0.0	233.8087638109896	
32.0	193.50047859079677	fix	1.0		444	31.0	female	white	2.1822522881018704	neutral	102	sub-02	1.0	3.0	102_neutral	0.0	234.10862033939975	3.7583320227804506
32.0	193.9006315104425	pulse	1.0	t		31.0	female	white	2.1822522881018704	neutral	102	sub-02	1.0	3.0	102_neutral	0.0	234.50877325904548	
32.0	194.60062496019282	pulse	1.0	t		31.0	female	white	2.1822522881018704	neutral	102	sub-02	1.0	3.0	102_neutral	0.0	235.2087667087958	
32.0	195.3006078450253	pulse	1.0	t		31.0	female	white	2.1822522881018704	neutral	102	sub-02	1.0	3.0	102_neutral	0.0	235.90874959362827	
32.0	196.0005910317127	pulse	1.0	t		31.0	female	white	2.1822522881018704	neutral	102	sub-02	1.0	3.0	102_neutral	0.0	236.60873278031568	
32.0	196.70056848315835	pulse	1.0	t		31.0	female	white	2.1822522881018704	neutral	102	sub-02	1.0	3.0	102_neutral	0.0	237.30871023176132	
33.0	197.25881061357723	face	0.0		146	30.0	female	black	2.7345801830481498	smiling	062	sub-02	1.0	3.0	062_smiling	0.0	237.8669523621802	1.2416133414994874
33.0	197.4005619329091	pulse	0.0	t		30.0	female	black	2.7345801830481498	smiling	062	sub-02	1.0	3.0	062_smiling	0.0	238.0087036815121	
33.0	198.10065710773006	pulse	0.0	t		30.0	female	black	2.7345801830481498	smiling	062	sub-02	1.0	3.0	062_smiling	0.0	238.70879885633303	
33.0	198.5004239550767	fix	1.0		444	30.0	female	black	2.7345801830481498	smiling	062	sub-02	1.0	3.0	062_smiling	0.0	239.1085657036797	3.766570847888943
33.0	198.80054702128155	pulse	1.0	t		30.0	female	black	2.7345801830481498	smiling	062	sub-02	1.0	3.0	062_smiling	0.0	239.40868876988452	
33.0	199.5005238690178	pulse	1.0	t		30.0	female	black	2.7345801830481498	smiling	062	sub-02	1.0	3.0	062_smiling	0.0	240.10866561762077	
33.0	200.20050252788315	pulse	1.0	t		30.0	female	black	2.7345801830481498	smiling	062	sub-02	1.0	3.0	062_smiling	0.0	240.80864427648612	
33.0	200.9004869219898	pulse	1.0	t		30.0	female	black	2.7345801830481498	smiling	062	sub-02	1.0	3.0	062_smiling	0.0	241.50862867059277	
33.0	201.60046920311243	pulse	1.0	t		30.0	female	black	2.7345801830481498	smiling	062	sub-02	1.0	3.0	062_smiling	0.0	242.2086109517154	
34.0	202.26699480296566	face	0.0		145	31.0	female	west_asian	2.364902506963788	smiling	006	sub-02	1.0	3.0	006_smiling	0.0	242.87513655156863	1.2333210880901788
34.0	202.300583092931	pulse	0.0	t		31.0	female	west_asian	2.364902506963788	smiling	006	sub-02	1.0	3.0	006_smiling	0.0	242.90872484153397	
34.0	203.00056658147332	pulse	0.0	t		31.0	female	west_asian	2.364902506963788	smiling	006	sub-02	1.0	3.0	006_smiling	0.0	243.6087083300763	
34.0	203.50031589105583	fix	1.0		443	31.0	female	west_asian	2.364902506963788	smiling	006	sub-02	1.0	3.0	006_smiling	0.0	244.1084576396588	3.766603146353191
34.0	203.7004296299474	pulse	1.0	t		31.0	female	west_asian	2.364902506963788	smiling	006	sub-02	1.0	3.0	006_smiling	0.0	244.30857137855037	
34.0	204.40040647768365	pulse	1.0	t		31.0	female	west_asian	2.364902506963788	smiling	006	sub-02	1.0	3.0	006_smiling	0.0	245.00854822628662	
34.0	205.1003920792091	pulse	1.0	t		31.0	female	west_asian	2.364902506963788	smiling	006	sub-02	1.0	3.0	006_smiling	0.0	245.70853382781206	
34.0	205.80037949186362	pulse	1.0	t		31.0	female	west_asian	2.364902506963788	smiling	006	sub-02	1.0	3.0	006_smiling	0.0	246.4085212404666	
34.0	206.5003762620172	pulse	1.0	t		31.0	female	west_asian	2.364902506963788	smiling	006	sub-02	1.0	3.0	006_smiling	0.0	247.10851801062017	
34.0	207.20036095797877	pulse	1.0	t		31.0	female	west_asian	2.364902506963788	smiling	006	sub-02	1.0	3.0	006_smiling	0.0	247.80850270658175	
35.0	207.26691903740902	face	0.0		146	27.0	female	white	4.181058495821727	neutral	039	sub-02	1.0	3.0	039_neutral	0.0	247.875060786012	1.2333111268817447
35.0	207.9003070165245	pulse	0.0	t		27.0	female	white	4.181058495821727	neutral	039	sub-02	1.0	3.0	039_neutral	0.0	248.50844876512747	
35.0	208.50023016429077	fix	1.0		443	27.0	female	white	4.181058495821727	neutral	039	sub-02	1.0	3.0	039_neutral	0.0	249.10837191289374	3.7665729608725087
35.0	208.60034182038362	pulse	1.0	t		27.0	female	white	4.181058495821727	neutral	039	sub-02	1.0	3.0	039_neutral	0.0	249.2084835689866	
35.0	209.3003084050565	pulse	1.0	t		27.0	female	white	4.181058495821727	neutral	039	sub-02	1.0	3.0	039_neutral	0.0	249.9084501536595	
35.0	210.00029159174392	pulse	1.0	t		27.0	female	white	4.181058495821727	neutral	039	sub-02	1.0	3.0	039_neutral	0.0	250.6084333403469	
35.0	210.70029439899372	pulse	1.0	t		27.0	female	white	4.181058495821727	neutral	039	sub-02	1.0	3.0	039_neutral	0.0	251.3084361475967	
35.0	211.4002730578586	pulse	1.0	t		27.0	female	white	4.181058495821727	neutral	039	sub-02	1.0	3.0	039_neutral	0.0	252.0084148064616	
35.0	212.10022726648458	pulse	1.0	t		27.0	female	white	4.181058495821727	neutral	039	sub-02	1.0	3.0	039_neutral	0.0	252.70836901508756	
36.0	212.26680312516328	face	0.0		146	19.0	female	white	4.298846000795861	neutral	100	sub-02	1.0	3.0	100_neutral	0.0	252.87494487376625	1.2333069009141582
36.0	212.80024667574844	pulse	0.0	t		19.0	female	white	4.298846000795861	neutral	100	sub-02	1.0	3.0	100_neutral	0.0	253.40838842435141	
36.0	213.50011002607744	fix	1.0		444	19.0	female	white	4.298846000795861	neutral	100	sub-02	1.0	3.0	100_neutral	0.0	254.1082517746804	3.766570847888943
36.0	213.50780490882335	pulse	1.0	t		19.0	female	white	4.298846000795861	neutral	100	sub-02	1.0	3.0	100_neutral	0.0	254.11594665742632	
36.0	214.2002067101721	pulse	1.0	t		19.0	female	white	4.298846000795861	neutral	100	sub-02	1.0	3.0	100_neutral	0.0	254.80834845877507	
36.0	214.90078998421586	pulse	1.0	t		19.0	female	white	4.298846000795861	neutral	100	sub-02	1.0	3.0	100_neutral	0.0	255.50893173281884	
36.0	215.60022530442802	pulse	1.0	t		19.0	female	white	4.298846000795861	neutral	100	sub-02	1.0	3.0	100_neutral	0.0	256.208367053031	
36.0	216.300160496201	pulse	1.0	t		19.0	female	white	4.298846000795861	neutral	100	sub-02	1.0	3.0	100_neutral	0.0	256.90830224480396	
36.0	217.00014609772688	pulse	1.0	t		19.0	female	white	4.298846000795861	neutral	100	sub-02	1.0	3.0	100_neutral	0.0	257.60828784632986	
37.0	217.26668087396638	face	0.0		145	40.0	female	west_asian	1.5777954635893354	smiling	038	sub-02	1.0	3.0	038_smiling	0.0	257.87482262256935	1.2333395012333312
37.0	217.70010000449793	pulse	0.0	t		40.0	female	west_asian	1.5777954635893354	smiling	038	sub-02	1.0	3.0	038_smiling	0.0	258.3082417531009	
37.0	218.40009405795809	pulse	0.0	t		40.0	female	west_asian	1.5777954635893354	smiling	038	sub-02	1.0	3.0	038_smiling	0.0	259.00823580656106	
37.0	218.5000203751997	fix	1.0		444	40.0	female	west_asian	1.5777954635893354	smiling	038	sub-02	1.0	3.0	038_smiling	0.0	259.1081621238027	3.7665554532936767
37.0	219.1001092412548	pulse	1.0	t		40.0	female	west_asian	1.5777954635893354	smiling	038	sub-02	1.0	3.0	038_smiling	0.0	259.7082509898578	
37.0	219.80008578713614	pulse	1.0	t		40.0	female	west_asian	1.5777954635893354	smiling	038	sub-02	1.0	3.0	038_smiling	0.0	260.4082275357391	
37.0	220.50007319979068	pulse	1.0	t		40.0	female	west_asian	1.5777954635893354	smiling	038	sub-02	1.0	3.0	038_smiling	0.0	261.10821494839365	
37.0	221.20006151801	pulse	1.0	t		40.0	female	west_asian	1.5777954635893354	smiling	038	sub-02	1.0	3.0	038_smiling	0.0	261.80820326661296	
37.0	221.90005859001803	pulse	1.0	t		40.0	female	west_asian	1.5777954635893354	smiling	038	sub-02	1.0	3.0	038_smiling	0.0	262.508200338621	
38.0	222.2665758284934	face	0.0		145	22.0	female	west_asian	3.8205332272184642	smiling	066	sub-02	1.0	3.0	066_smiling	0.0	262.87471757709636	1.2333035805113468
38.0	222.60003634331906	pulse	0.0	t		22.0	female	west_asian	3.8205332272184642	smiling	066	sub-02	1.0	3.0	066_smiling	0.0	263.20817809192204	
38.0	223.30015144055687	pulse	0.0	t		22.0	female	west_asian	3.8205332272184642	smiling	066	sub-02	1.0	3.0	066_smiling	0.0	263.90829318915985	
38.0	223.49987940900473	fix	1.0		444	22.0	female	west_asian	3.8205332272184642	smiling	066	sub-02	1.0	3.0	066_smiling	0.0	264.1080211576077	3.7665931851447567
38.0	224.0000163001596	pulse	1.0	t		22.0	female	west_asian	3.8205332272184642	smiling	066	sub-02	1.0	3.0	066_smiling	0.0	264.60815804876256	
38.0	224.69999495902493	pulse	1.0	t		22.0	female	west_asian	3.8205332272184642	smiling	066	sub-02	1.0	3.0	066_smiling	0.0	265.3081367076279	
38.0	225.39998206982455	pulse	1.0	t		22.0	female	west_asian	3.8205332272184642	smiling	066	sub-02	1.0	3.0	066_smiling	0.0	266.0081238184275	
38.0	226.09997310473682	pulse	1.0	t		22.0	female	west_asian	3.8205332272184642	smiling	066	sub-02	1.0	3.0	066_smiling	0.0	266.7081148533398	
38.0	226.79995115989232	pulse	1.0	t		22.0	female	west_asian	3.8205332272184642	smiling	066	sub-02	1.0	3.0	066_smiling	0.0	267.4080929084953	
39.0	227.2664725941495	face	0.0		145	20.0	male	black	3.1070433744528456	smiling	082	sub-02	1.0	3.0	082_smiling	0.0	267.87461434275247	1.23332320107329
39.0	227.49989661472864	pulse	0.0	t		20.0	male	black	3.1070433744528456	smiling	082	sub-02	1.0	3.0	082_smiling	0.0	268.1080383633316	
39.0	228.19987225504565	pulse	0.0	t		20.0	male	black	3.1070433744528456	smiling	082	sub-02	1.0	3.0	082_smiling	0.0	268.8080140036486	
39.0	228.49979579522278	fix	1.0		444	20.0	male	black	3.1070433744528456	smiling	082	sub-02	1.0	3.0	082_smiling	0.0	269.10793754382576	3.749919933012734
39.0	228.8999182275329	pulse	1.0	t		20.0	male	black	3.1070433744528456	smiling	082	sub-02	1.0	3.0	082_smiling	0.0	269.5080599761359	
39.0	229.599888736318	pulse	1.0	t		20.0	male	black	3.1070433744528456	smiling	082	sub-02	1.0	3.0	082_smiling	0.0	270.208030484921	
39.0	230.29988520461666	pulse	1.0	t		20.0	male	black	3.1070433744528456	smiling	082	sub-02	1.0	3.0	082_smiling	0.0	270.90802695321963	
39.0	230.99987020243316	pulse	1.0	t		20.0	male	black	3.1070433744528456	smiling	082	sub-02	1.0	3.0	082_smiling	0.0	271.60801195103613	
39.0	231.69984463533092	pulse	1.0	t		20.0	male	black	3.1070433744528456	smiling	082	sub-02	1.0	3.0	082_smiling	0.0	272.3079863839339	
40.0	232.24971572823551	fix	0.0		720												272.8578574768385	5.9998910304143465
40.0	232.39983265169485	pulse	0.0	t													273.0079744002978	
40.0	233.0998285162841	pulse	0.0	t													273.7079702648871	
40.0	233.7998089862781	pulse	0.0	t													274.40795073488107	
40.0	234.49979066369133	pulse	0.0	t													275.1079324122943	
40.0	235.19978018932943	pulse	0.0	t													275.8079219379324	
40.0	235.8997654890004	pulse	0.0	t													276.5079072376034	
40.0	236.599738412624	pulse	0.0	t													277.20788016122697	
40.0	237.29972522156913	pulse	0.0	t													277.9078669701721	
40.0	237.9997105212401	pulse	0.0	t													278.6078522698431	
