trial_nr	onset	event_type	phase	response	nr_frames	face_age	face_sex	face_eth	attractiveness	expression	face_id	sub_id	ses	run	trial_type	catch	rating_type	onset_abs	duration
-1.0	0.05953029580996372	fix	0.0		713													91.59236862750731	5.957932608498595
-1.0	0.7010300191595888	pulse	0.0	t														92.23386835085694	
-1.0	1.4010847454355826	pulse	0.0	t														92.93392307713293	
-1.0	2.1009870350353594	pulse	0.0	t														93.63382536673271	
-1.0	2.8009641846256272	pulse	0.0	t														94.33380251632298	
-1.0	3.500952804699409	pulse	0.0	t														95.03379113639676	
-1.0	4.200939311789625	pulse	0.0	t														95.73377764348697	
-1.0	4.900925818879841	pulse	0.0	t														96.43376415057719	
-1.0	5.6009135333897575	pulse	0.0	t														97.1337518650871	
0.0	6.017462904308559	face	0.0		144	27.0	male	black	3.5523278949462798	neutral	042	sub-06	1.0	1.0	042_neutral	0.0		97.55030123600591	1.233302071237631
0.0	6.300900342333989	pulse	0.0	t		27.0	male	black	3.5523278949462798	neutral	042	sub-06	1.0	1.0	042_neutral	0.0		97.83373867403134	
0.0	7.000882925311089	pulse	0.0	t		27.0	male	black	3.5523278949462798	neutral	042	sub-06	1.0	1.0	042_neutral	0.0		98.53372125700844	
0.0	7.25076497554619	fix	1.0		445	27.0	male	black	3.5523278949462798	neutral	042	sub-06	1.0	1.0	042_neutral	0.0		98.78360330724354	3.7665895628870203
0.0	7.700870036111155	pulse	1.0	t		27.0	male	black	3.5523278949462798	neutral	042	sub-06	1.0	1.0	042_neutral	0.0		99.2337083678085	
0.0	8.400852015378405	pulse	1.0	t		27.0	male	black	3.5523278949462798	neutral	042	sub-06	1.0	1.0	042_neutral	0.0		99.93369034707575	
0.0	9.10088802665814	pulse	1.0	t		27.0	male	black	3.5523278949462798	neutral	042	sub-06	1.0	1.0	042_neutral	0.0		100.63372635835549	
0.0	9.800825331414671	pulse	1.0	t		27.0	male	black	3.5523278949462798	neutral	042	sub-06	1.0	1.0	042_neutral	0.0		101.33366366311202	
0.0	10.500803386570624	pulse	1.0	t		27.0	male	black	3.5523278949462798	neutral	042	sub-06	1.0	1.0	042_neutral	0.0		102.03364171826797	
1.0	11.01735453843321	face	0.0		145	19.0	male	white	3.2522881018702745	neutral	018	sub-06	1.0	1.0	018_neutral	0.0		102.55019287013056	1.2333032786555123
1.0	11.200798647449119	pulse	0.0	t		19.0	male	white	3.2522881018702745	neutral	018	sub-06	1.0	1.0	018_neutral	0.0		102.73363697914647	
1.0	11.900774891475521	pulse	0.0	t		19.0	male	white	3.2522881018702745	neutral	018	sub-06	1.0	1.0	018_neutral	0.0		103.43361322317287	
1.0	12.250657817088722	fix	1.0		444	19.0	male	white	3.2522881018702745	neutral	018	sub-06	1.0	1.0	018_neutral	0.0		103.78349614878607	3.766594392564002
1.0	12.600767737516435	pulse	1.0	t		19.0	male	white	3.2522881018702745	neutral	018	sub-06	1.0	1.0	018_neutral	0.0		104.13360606921378	
1.0	13.300749716785504	pulse	1.0	t		19.0	male	white	3.2522881018702745	neutral	018	sub-06	1.0	1.0	018_neutral	0.0		104.83358804848285	
1.0	14.000735318310035	pulse	1.0	t		19.0	male	white	3.2522881018702745	neutral	018	sub-06	1.0	1.0	018_neutral	0.0		105.53357365000738	
1.0	14.700716995723269	pulse	1.0	t		19.0	male	white	3.2522881018702745	neutral	018	sub-06	1.0	1.0	018_neutral	0.0		106.23355532742062	
1.0	15.40071557700685	pulse	1.0	t		19.0	male	white	3.2522881018702745	neutral	018	sub-06	1.0	1.0	018_neutral	0.0		106.9335539087042	
2.0	16.017252209652725	face	0.0		145	20.0	male	black	3.1070433744528456	neutral	082	sub-06	1.0	1.0	082_neutral	0.0		107.55009054135007	1.2333017693817965
2.0	16.10070238595108	pulse	0.0	t		20.0	male	black	3.1070433744528456	neutral	082	sub-06	1.0	1.0	082_neutral	0.0		107.63354071764843	
2.0	16.8006762151399	pulse	0.0	t		20.0	male	black	3.1070433744528456	neutral	082	sub-06	1.0	1.0	082_neutral	0.0		108.33351454683725	
2.0	17.25055397903452	fix	1.0		445	20.0	male	black	3.1070433744528456	neutral	082	sub-06	1.0	1.0	082_neutral	0.0		108.78339231073187	3.758250823837443
2.0	17.50066936303483	pulse	1.0	t		20.0	male	black	3.1070433744528456	neutral	082	sub-06	1.0	1.0	082_neutral	0.0		109.03350769473218	
2.0	18.200653455287465	pulse	1.0	t		20.0	male	black	3.1070433744528456	neutral	082	sub-06	1.0	1.0	082_neutral	0.0		109.73349178698481	
2.0	18.9006351327007	pulse	1.0	t		20.0	male	black	3.1070433744528456	neutral	082	sub-06	1.0	1.0	082_neutral	0.0		110.43347346439805	
2.0	19.600619224951515	pulse	1.0	t		20.0	male	black	3.1070433744528456	neutral	082	sub-06	1.0	1.0	082_neutral	0.0		111.13345755664886	
2.0	20.300609052444997	pulse	1.0	t		20.0	male	black	3.1070433744528456	neutral	082	sub-06	1.0	1.0	082_neutral	0.0		111.83344738414235	
3.0	21.008804802871964	face	0.0		146	34.0	male	white	2.651014723438122	smiling	121	sub-06	1.0	1.0	121_smiling	1.0	attractiveness	112.54164313456931	1.2416465455280559
3.0	21.002281418634084	pulse	0.0	t		34.0	male	white	2.651014723438122	smiling	121	sub-06	1.0	1.0	121_smiling	1.0	attractiveness	112.53511975033143	
3.0	21.700578746222163	pulse	0.0	t		34.0	male	white	2.651014723438122	smiling	121	sub-06	1.0	1.0	121_smiling	1.0	attractiveness	113.23341707791951	
3.0	22.25045134840002	fix	1.0		177	34.0	male	white	2.651014723438122	smiling	121	sub-06	1.0	1.0	121_smiling	1.0	attractiveness	113.78328968009737	1.5083343621554377
3.0	22.40055589581425	pulse	1.0	t		34.0	male	white	2.651014723438122	smiling	121	sub-06	1.0	1.0	121_smiling	1.0	attractiveness	113.9333942275116	
3.0	23.100557193789427	pulse	1.0	t		34.0	male	white	2.651014723438122	smiling	121	sub-06	1.0	1.0	121_smiling	1.0	attractiveness	114.63339552548678	
3.0	23.758785710555458	rating	2.0		294	34.0	male	white	2.651014723438122	smiling	121	sub-06	1.0	1.0	121_smiling	1.0	attractiveness	115.2916240422528	2.491581420354123
3.0	23.80054279531396	pulse	2.0	t		34.0	male	white	2.651014723438122	smiling	121	sub-06	1.0	1.0	121_smiling	1.0	attractiveness	115.33338112701131	
3.0	24.500522963453477	pulse	2.0	t		34.0	male	white	2.651014723438122	smiling	121	sub-06	1.0	1.0	121_smiling	1.0	attractiveness	116.03336129515083	
3.0	25.200510677963393	pulse	2.0	t		34.0	male	white	2.651014723438122	smiling	121	sub-06	1.0	1.0	121_smiling	1.0	attractiveness	116.73334900966074	
3.0	25.90049778876346	pulse	2.0	t		34.0	male	white	2.651014723438122	smiling	121	sub-06	1.0	1.0	121_smiling	1.0	attractiveness	117.43333612046081	
3.0	26.25036713090958	fix	3.0		443	34.0	male	white	2.651014723438122	smiling	121	sub-06	1.0	1.0	121_smiling	1.0	attractiveness	117.78320546260693	3.758322967136337
3.0	26.383818046751912	response	3.0	r		34.0	male	white	2.651014723438122	smiling	121	sub-06	1.0	1.0	121_smiling	1.0	attractiveness	117.91665637844926	
3.0	26.600460147468766	pulse	3.0	t		34.0	male	white	2.651014723438122	smiling	121	sub-06	1.0	1.0	121_smiling	1.0	attractiveness	118.13329847916611	
3.0	27.30045540834726	pulse	3.0	t		34.0	male	white	2.651014723438122	smiling	121	sub-06	1.0	1.0	121_smiling	1.0	attractiveness	118.83329374004461	
3.0	28.00047451575665	pulse	3.0	t		34.0	male	white	2.651014723438122	smiling	121	sub-06	1.0	1.0	121_smiling	1.0	attractiveness	119.533312847454	
3.0	28.700428724383528	pulse	3.0	t		34.0	male	white	2.651014723438122	smiling	121	sub-06	1.0	1.0	121_smiling	1.0	attractiveness	120.23326705608088	
3.0	29.40041674074746	pulse	3.0	t		34.0	male	white	2.651014723438122	smiling	121	sub-06	1.0	1.0	121_smiling	1.0	attractiveness	120.93325507244481	
4.0	30.008690098045918	face	0.0		146	27.0	male	black	3.5523278949462798	smiling	042	sub-06	1.0	1.0	042_smiling	1.0	trustworthiness	121.54152842974327	1.241574402229162
4.0	30.100408681224508	pulse	0.0	t		27.0	male	black	3.5523278949462798	smiling	042	sub-06	1.0	1.0	042_smiling	1.0	trustworthiness	121.63324701292186	
4.0	30.800385830814776	pulse	0.0	t		27.0	male	black	3.5523278949462798	smiling	042	sub-06	1.0	1.0	042_smiling	1.0	trustworthiness	122.33322416251212	
4.0	31.25026450027508	fix	1.0		177	27.0	male	black	3.5523278949462798	smiling	042	sub-06	1.0	1.0	042_smiling	1.0	trustworthiness	122.78310283197243	1.4999699654472352
4.0	31.50037294161484	pulse	1.0	t		27.0	male	black	3.5523278949462798	smiling	042	sub-06	1.0	1.0	042_smiling	1.0	trustworthiness	123.03321127331219	
4.0	32.20035552459194	pulse	1.0	t		27.0	male	black	3.5523278949462798	smiling	042	sub-06	1.0	1.0	042_smiling	1.0	trustworthiness	123.73319385628929	
4.0	32.750234465722315	rating	2.0		294	27.0	male	black	3.5523278949462798	smiling	042	sub-06	1.0	1.0	042_smiling	1.0	trustworthiness	124.28307279741966	2.4999464207721758
4.0	32.90035289845582	pulse	2.0	t		27.0	male	black	3.5523278949462798	smiling	042	sub-06	1.0	1.0	042_smiling	1.0	trustworthiness	124.43319123015317	
4.0	33.60034121667377	pulse	2.0	t		27.0	male	black	3.5523278949462798	smiling	042	sub-06	1.0	1.0	042_smiling	1.0	trustworthiness	125.13317954837112	
4.0	34.30031866811987	pulse	2.0	t		27.0	male	black	3.5523278949462798	smiling	042	sub-06	1.0	1.0	042_smiling	1.0	trustworthiness	125.83315699981722	
4.0	34.570107137327795	response	2.0	n		27.0	male	black	3.5523278949462798	smiling	042	sub-06	1.0	1.0	042_smiling	1.0	trustworthiness	126.10294546902514	
4.0	35.00029551585612	pulse	2.0	t		27.0	male	black	3.5523278949462798	smiling	042	sub-06	1.0	1.0	042_smiling	1.0	trustworthiness	126.53313384755347	
4.0	35.25018088649449	fix	3.0		444	27.0	male	black	3.5523278949462798	smiling	042	sub-06	1.0	1.0	042_smiling	1.0	trustworthiness	126.78301921819184	3.7582565590782906
4.0	35.70028745633317	pulse	3.0	t		27.0	male	black	3.5523278949462798	smiling	042	sub-06	1.0	1.0	042_smiling	1.0	trustworthiness	127.23312578803052	
4.0	36.400266115198974	pulse	3.0	t		27.0	male	black	3.5523278949462798	smiling	042	sub-06	1.0	1.0	042_smiling	1.0	trustworthiness	127.93310444689632	
4.0	37.10025322599904	pulse	3.0	t		27.0	male	black	3.5523278949462798	smiling	042	sub-06	1.0	1.0	042_smiling	1.0	trustworthiness	128.6330915576964	
4.0	37.80024395905639	pulse	3.0	t		27.0	male	black	3.5523278949462798	smiling	042	sub-06	1.0	1.0	042_smiling	1.0	trustworthiness	129.33308229075374	
4.0	38.50022473090394	pulse	3.0	t		27.0	male	black	3.5523278949462798	smiling	042	sub-06	1.0	1.0	042_smiling	1.0	trustworthiness	130.0330630626013	
5.0	39.00843744557278	face	0.0		146	26.0	female	white	4.854755272582572	smiling	027	sub-06	1.0	1.0	027_smiling	0.0		130.54127577727013	1.2416380935937923
5.0	39.200218482510536	pulse	0.0	t		26.0	female	white	4.854755272582572	smiling	027	sub-06	1.0	1.0	027_smiling	0.0		130.73305681420788	
5.0	39.90019774508437	pulse	0.0	t		26.0	female	white	4.854755272582572	smiling	027	sub-06	1.0	1.0	027_smiling	0.0		131.43303607678172	
5.0	40.25007553916657	fix	1.0		445	26.0	female	white	4.854755272582572	smiling	027	sub-06	1.0	1.0	027_smiling	0.0		131.78291387086392	3.7583709620503214
5.0	40.6002008541891	pulse	1.0	t		26.0	female	white	4.854755272582572	smiling	027	sub-06	1.0	1.0	027_smiling	0.0		132.13303918588645	
5.0	41.30014872386346	pulse	1.0	t		26.0	female	white	4.854755272582572	smiling	027	sub-06	1.0	1.0	027_smiling	0.0		132.8329870555608	
5.0	42.0001533422419	pulse	1.0	t		26.0	female	white	4.854755272582572	smiling	027	sub-06	1.0	1.0	027_smiling	0.0		133.53299167393925	
5.0	42.700132604817554	pulse	1.0	t		26.0	female	white	4.854755272582572	smiling	027	sub-06	1.0	1.0	027_smiling	0.0		134.2329709365149	
5.0	43.40012363972892	pulse	1.0	t		26.0	female	white	4.854755272582572	smiling	027	sub-06	1.0	1.0	027_smiling	0.0		134.93296197142627	
6.0	44.008446501216895	face	0.0		146	31.0	female	west_asian	2.364902506963788	neutral	006	sub-06	1.0	1.0	006_neutral	0.0		135.54128483291424	1.2415270110250276
6.0	44.1001158820618	pulse	0.0	t		31.0	female	west_asian	2.364902506963788	neutral	006	sub-06	1.0	1.0	006_neutral	0.0		135.63295421375915	
6.0	44.80009906874875	pulse	0.0	t		31.0	female	west_asian	2.364902506963788	neutral	006	sub-06	1.0	1.0	006_neutral	0.0		136.3329374004461	
6.0	45.24997351224192	fix	1.0		445	31.0	female	west_asian	2.364902506963788	neutral	006	sub-06	1.0	1.0	006_neutral	0.0		136.78281184393927	3.7582490127078927
6.0	45.50008648140283	pulse	1.0	t		31.0	female	west_asian	2.364902506963788	neutral	006	sub-06	1.0	1.0	006_neutral	0.0		137.03292481310018	
6.0	46.20006785696023	pulse	1.0	t		31.0	female	west_asian	2.364902506963788	neutral	006	sub-06	1.0	1.0	006_neutral	0.0		137.73290618865758	
6.0	46.90005043993915	pulse	1.0	t		31.0	female	west_asian	2.364902506963788	neutral	006	sub-06	1.0	1.0	006_neutral	0.0		138.4328887716365	
6.0	47.60003724888338	pulse	1.0	t		31.0	female	west_asian	2.364902506963788	neutral	006	sub-06	1.0	1.0	006_neutral	0.0		139.13287558058073	
6.0	48.30002103928018	pulse	1.0	t		31.0	female	west_asian	2.364902506963788	neutral	006	sub-06	1.0	1.0	006_neutral	0.0		139.83285937097753	
7.0	49.008222524949815	face	0.0		147	31.0	female	white	2.1822522881018704	neutral	102	sub-06	1.0	1.0	102_neutral	0.0		140.54106085664716	1.2416462436740403
7.0	49.00198288422871	pulse	0.0	t		31.0	female	white	2.1822522881018704	neutral	102	sub-06	1.0	1.0	102_neutral	0.0		140.53482121592606	
7.0	49.69999677015403	pulse	0.0	t		31.0	female	white	2.1822522881018704	neutral	102	sub-06	1.0	1.0	102_neutral	0.0		141.23283510185138	
7.0	50.249868768623855	fix	1.0		443	31.0	female	white	2.1822522881018704	neutral	102	sub-06	1.0	1.0	102_neutral	0.0		141.7827071003212	3.766591675870586
7.0	50.399983880954096	pulse	1.0	t		31.0	female	white	2.1822522881018704	neutral	102	sub-06	1.0	1.0	102_neutral	0.0		141.93282221265144	
7.0	51.099961030544364	pulse	1.0	t		31.0	female	white	2.1822522881018704	neutral	102	sub-06	1.0	1.0	102_neutral	0.0		142.6327993622417	
7.0	51.79995115989186	pulse	1.0	t		31.0	female	white	2.1822522881018704	neutral	102	sub-06	1.0	1.0	102_neutral	0.0		143.3327894915892	
7.0	52.49992830948395	pulse	1.0	t		31.0	female	white	2.1822522881018704	neutral	102	sub-06	1.0	1.0	102_neutral	0.0		144.0327666411813	
7.0	53.19992447592813	pulse	1.0	t		31.0	female	white	2.1822522881018704	neutral	102	sub-06	1.0	1.0	102_neutral	0.0		144.73276280762548	
7.0	53.89990434221181	pulse	1.0	t		31.0	female	white	2.1822522881018704	neutral	102	sub-06	1.0	1.0	102_neutral	0.0		145.43274267390916	
8.0	54.01646044449444	face	0.0		146	22.0	female	west_asian	3.8205332272184642	smiling	066	sub-06	1.0	1.0	066_smiling	0.0		145.5492987761918	1.2333032786555123
8.0	54.59989688639871	pulse	0.0	t		22.0	female	west_asian	3.8205332272184642	smiling	066	sub-06	1.0	1.0	066_smiling	0.0		146.13273521809606	
8.0	55.249763723149954	fix	1.0		443	22.0	female	west_asian	3.8205332272184642	smiling	066	sub-06	1.0	1.0	066_smiling	0.0		146.7826020548473	3.7583703583404713
8.0	55.29988007308566	pulse	1.0	t		22.0	female	west_asian	3.8205332272184642	smiling	066	sub-06	1.0	1.0	066_smiling	0.0		146.832718404783	
8.0	55.99986446719231	pulse	1.0	t		22.0	female	west_asian	3.8205332272184642	smiling	066	sub-06	1.0	1.0	066_smiling	0.0		147.53270279888966	
8.0	56.69984644645956	pulse	1.0	t		22.0	female	west_asian	3.8205332272184642	smiling	066	sub-06	1.0	1.0	066_smiling	0.0		148.2326847781569	
8.0	57.39982661459908	pulse	1.0	t		22.0	female	west_asian	3.8205332272184642	smiling	066	sub-06	1.0	1.0	066_smiling	0.0		148.93266494629643	
8.0	58.099818555076126	pulse	1.0	t		22.0	female	west_asian	3.8205332272184642	smiling	066	sub-06	1.0	1.0	066_smiling	0.0		149.63265688677347	
8.0	58.799802345472926	pulse	1.0	t		22.0	female	west_asian	3.8205332272184642	smiling	066	sub-06	1.0	1.0	066_smiling	0.0		150.33264067717028	
9.0	59.008134081490425	face	0.0		146	28.0	male	white	3.9076800636689217	neutral	033	sub-06	1.0	1.0	033_neutral	0.0		150.54097241318777	1.2415255017513118
9.0	59.499806058287504	pulse	0.0	t		28.0	male	white	3.9076800636689217	neutral	033	sub-06	1.0	1.0	033_neutral	0.0		151.03264438998485	
9.0	60.19978833940877	pulse	0.0	t		28.0	male	white	3.9076800636689217	neutral	033	sub-06	1.0	1.0	033_neutral	0.0		151.73262667110612	
9.0	60.24965958324174	fix	1.0		445	28.0	male	white	3.9076800636689217	neutral	033	sub-06	1.0	1.0	033_neutral	0.0		151.78249791493909	3.766590468450886
9.0	60.899761263033724	pulse	1.0	t		28.0	male	white	3.9076800636689217	neutral	033	sub-06	1.0	1.0	033_neutral	0.0		152.43259959473107	
9.0	61.59974716641409	pulse	1.0	t		28.0	male	white	3.9076800636689217	neutral	033	sub-06	1.0	1.0	033_neutral	0.0		153.13258549811144	
9.0	62.29972401415034	pulse	1.0	t		28.0	male	white	3.9076800636689217	neutral	033	sub-06	1.0	1.0	033_neutral	0.0		153.8325623458477	
9.0	62.99974191414003	pulse	1.0	t		28.0	male	white	3.9076800636689217	neutral	033	sub-06	1.0	1.0	033_neutral	0.0		154.53258024583738	
9.0	63.69970155615192	pulse	1.0	t		28.0	male	white	3.9076800636689217	neutral	033	sub-06	1.0	1.0	033_neutral	0.0		155.23253988784927	
10.0	64.01625005169262	face	0.0		145	24.0	male	white	3.1153999204138483	smiling	012	sub-06	1.0	1.0	012_smiling	0.0		155.54908838338997	1.2333053916408971
10.0	64.39968836509797	pulse	0.0	t		24.0	male	white	3.1153999204138483	smiling	012	sub-06	1.0	1.0	012_smiling	0.0		155.93252669679532	
10.0	65.09967457033235	pulse	0.0	t		24.0	male	white	3.1153999204138483	smiling	012	sub-06	1.0	1.0	012_smiling	0.0		156.6325129020297	
10.0	65.24955544333352	fix	1.0		445	24.0	male	white	3.1153999204138483	smiling	012	sub-06	1.0	1.0	012_smiling	0.0		156.78239377503087	3.758343493262146
10.0	65.79966198298644	pulse	1.0	t		24.0	male	white	3.1153999204138483	smiling	012	sub-06	1.0	1.0	012_smiling	0.0		157.33250031468378	
10.0	66.49963158620812	pulse	1.0	t		24.0	male	white	3.1153999204138483	smiling	012	sub-06	1.0	1.0	012_smiling	0.0		158.03246991790547	
10.0	67.19962986563587	pulse	1.0	t		24.0	male	white	3.1153999204138483	smiling	012	sub-06	1.0	1.0	012_smiling	0.0		158.73246819733322	
10.0	67.89961576901624	pulse	1.0	t		24.0	male	white	3.1153999204138483	smiling	012	sub-06	1.0	1.0	012_smiling	0.0		159.43245410071358	
10.0	68.59960318167032	pulse	1.0	t		24.0	male	white	3.1153999204138483	smiling	012	sub-06	1.0	1.0	012_smiling	0.0		160.13244151336767	
11.0	69.00789893659567	face	0.0		146	25.0	female	west_asian	2.6756864305610826	neutral	064	sub-06	1.0	1.0	064_neutral	0.0		160.54073726829301	1.241553272393503
11.0	69.29958817948682	pulse	0.0	t		25.0	female	west_asian	2.6756864305610826	neutral	064	sub-06	1.0	1.0	064_neutral	0.0		160.83242651118417	
11.0	69.99957196988362	pulse	0.0	t		25.0	female	west_asian	2.6756864305610826	neutral	064	sub-06	1.0	1.0	064_neutral	0.0		161.53241030158097	
11.0	70.24945220898917	fix	1.0		445	25.0	female	west_asian	2.6756864305610826	neutral	064	sub-06	1.0	1.0	064_neutral	0.0		161.78229054068652	3.766590468450886
11.0	70.69955817511982	pulse	1.0	t		25.0	female	west_asian	2.6756864305610826	neutral	064	sub-06	1.0	1.0	064_neutral	0.0		162.23239650681717	
11.0	71.39953864511335	pulse	1.0	t		25.0	female	west_asian	2.6756864305610826	neutral	064	sub-06	1.0	1.0	064_neutral	0.0		162.9323769768107	
11.0	72.09952786889698	pulse	1.0	t		25.0	female	west_asian	2.6756864305610826	neutral	064	sub-06	1.0	1.0	064_neutral	0.0		163.63236620059433	
11.0	72.79951165929378	pulse	1.0	t		25.0	female	west_asian	2.6756864305610826	neutral	064	sub-06	1.0	1.0	064_neutral	0.0		164.33234999099113	
11.0	73.499498166384	pulse	1.0	t		25.0	female	west_asian	2.6756864305610826	neutral	064	sub-06	1.0	1.0	064_neutral	0.0		165.03233649808135	
12.0	74.01604267744005	face	0.0		145	26.0	male	white	2.7966573816155993	neutral	117	sub-06	1.0	1.0	117_neutral	0.0		165.5488810091374	1.233334067846954
12.0	74.19948618274793	pulse	0.0	t		26.0	male	white	2.7966573816155993	neutral	117	sub-06	1.0	1.0	117_neutral	0.0		165.73232451444528	
12.0	74.89947570838558	pulse	0.0	t		26.0	male	white	2.7966573816155993	neutral	117	sub-06	1.0	1.0	117_neutral	0.0		166.43231404008293	
12.0	75.24937674528701	fix	1.0		444	26.0	male	white	2.7966573816155993	neutral	117	sub-06	1.0	1.0	117_neutral	0.0		166.78221507698436	3.7582816130270658
12.0	75.59948243974759	pulse	1.0	t		26.0	male	white	2.7966573816155993	neutral	117	sub-06	1.0	1.0	117_neutral	0.0		167.13232077144494	
12.0	76.29942819643838	pulse	1.0	t		26.0	male	white	2.7966573816155993	neutral	117	sub-06	1.0	1.0	117_neutral	0.0		167.83226652813573	
12.0	76.99942526844825	pulse	1.0	t		26.0	male	white	2.7966573816155993	neutral	117	sub-06	1.0	1.0	117_neutral	0.0		168.5322636001456	
12.0	77.69941056811876	pulse	1.0	t		26.0	male	white	2.7966573816155993	neutral	117	sub-06	1.0	1.0	117_neutral	0.0		169.2322488998161	
12.0	78.399397377063	pulse	1.0	t		26.0	male	white	2.7966573816155993	neutral	117	sub-06	1.0	1.0	117_neutral	0.0		169.93223570876035	
13.0	79.00765835831407	face	0.0		146	20.0	male	black	3.1070433744528456	smiling	082	sub-06	1.0	1.0	082_smiling	0.0		170.54049669001142	1.24158315601926
13.0	79.09946055527507	pulse	0.0	t		20.0	male	black	3.1070433744528456	smiling	082	sub-06	1.0	1.0	082_smiling	0.0		170.63229888697242	
13.0	79.79937793761383	pulse	0.0	t		20.0	male	black	3.1070433744528456	smiling	082	sub-06	1.0	1.0	082_smiling	0.0		171.33221626931117	
13.0	80.24924151433333	fix	1.0		445	20.0	male	black	3.1070433744528456	smiling	082	sub-06	1.0	1.0	082_smiling	0.0		171.78207984603068	3.766586242483754
13.0	80.49935267236651	pulse	1.0	t		20.0	male	black	3.1070433744528456	smiling	082	sub-06	1.0	1.0	082_smiling	0.0		172.03219100406386	
13.0	81.19933102937648	pulse	1.0	t		20.0	male	black	3.1070433744528456	smiling	082	sub-06	1.0	1.0	082_smiling	0.0		172.73216936107383	
13.0	81.89931783832071	pulse	1.0	t		20.0	male	black	3.1070433744528456	smiling	082	sub-06	1.0	1.0	082_smiling	0.0		173.43215617001806	
13.0	82.59930585468646	pulse	1.0	t		20.0	male	black	3.1070433744528456	smiling	082	sub-06	1.0	1.0	082_smiling	0.0		174.1321441863838	
13.0	83.29929628588798	pulse	1.0	t		20.0	male	black	3.1070433744528456	smiling	082	sub-06	1.0	1.0	082_smiling	0.0		174.83213461758533	
14.0	84.01582775681709	face	0.0		146	37.0	male	white	3.898925586947871	neutral	101	sub-06	1.0	1.0	101_neutral	0.0		175.54866608851444	1.233310221317879
14.0	84.00213803760016	pulse	0.0	t		37.0	male	white	3.898925586947871	neutral	101	sub-06	1.0	1.0	101_neutral	0.0		175.5349763692975	
14.0	84.69926628152098	pulse	0.0	t		37.0	male	white	3.898925586947871	neutral	101	sub-06	1.0	1.0	101_neutral	0.0		176.23210461321833	
14.0	85.24913797813497	fix	1.0		444	37.0	male	white	3.898925586947871	neutral	101	sub-06	1.0	1.0	101_neutral	0.0		176.78197630983232	3.766646915300953
14.0	85.39925459973892	pulse	1.0	t		37.0	male	white	3.898925586947871	neutral	101	sub-06	1.0	1.0	101_neutral	0.0		176.93209293143627	
14.0	86.09923446602443	pulse	1.0	t		37.0	male	white	3.898925586947871	neutral	101	sub-06	1.0	1.0	101_neutral	0.0		177.63207279772178	
14.0	86.79921735085554	pulse	1.0	t		37.0	male	white	3.898925586947871	neutral	101	sub-06	1.0	1.0	101_neutral	0.0		178.3320556825529	
14.0	87.49919902826878	pulse	1.0	t		37.0	male	white	3.898925586947871	neutral	101	sub-06	1.0	1.0	101_neutral	0.0		179.03203735996613	
14.0	88.19919428914909	pulse	1.0	t		37.0	male	white	3.898925586947871	neutral	101	sub-06	1.0	1.0	101_neutral	0.0		179.73203262084644	
14.0	88.89917536285247	pulse	1.0	t		37.0	male	white	3.898925586947871	neutral	101	sub-06	1.0	1.0	101_neutral	0.0		180.43201369454982	
15.0	89.01578489343592	face	0.0		147	28.0	male	white	3.9076800636689217	smiling	033	sub-06	1.0	1.0	033_smiling	0.0		180.54862322513327	1.2415834578732756
15.0	89.5991657940558	pulse	0.0	t		28.0	male	white	3.9076800636689217	smiling	033	sub-06	1.0	1.0	033_smiling	0.0		181.13200412575316	
15.0	90.2573683513092	fix	1.0		444	28.0	male	white	3.9076800636689217	smiling	033	sub-06	1.0	1.0	033_smiling	0.0		181.79020668300655	3.7665895628870203
15.0	90.2991471696132	pulse	1.0	t		28.0	male	white	3.9076800636689217	smiling	033	sub-06	1.0	1.0	033_smiling	0.0		181.83198550131056	
15.0	90.99913699710669	pulse	1.0	t		28.0	male	white	3.9076800636689217	smiling	033	sub-06	1.0	1.0	033_smiling	0.0		182.53197532880404	
15.0	91.69913920064573	pulse	1.0	t		28.0	male	white	3.9076800636689217	smiling	033	sub-06	1.0	1.0	033_smiling	0.0		183.23197753234308	
15.0	92.39909129628904	pulse	1.0	t		28.0	male	white	3.9076800636689217	smiling	033	sub-06	1.0	1.0	033_smiling	0.0		183.9319296279864	
15.0	93.09909168870036	pulse	1.0	t		28.0	male	white	3.9076800636689217	smiling	033	sub-06	1.0	1.0	033_smiling	0.0		184.6319300203977	
15.0	93.79907457353329	pulse	1.0	t		28.0	male	white	3.9076800636689217	smiling	033	sub-06	1.0	1.0	033_smiling	0.0		185.33191290523064	
16.0	94.02395791419622	face	0.0		145	24.0	female	black	3.0955033824114606	smiling	099	sub-06	1.0	1.0	099_smiling	0.0		185.55679624589357	1.2333099194620445
16.0	94.49906409917094	pulse	0.0	t		24.0	female	black	3.0955033824114606	smiling	099	sub-06	1.0	1.0	099_smiling	0.0		186.03190243086829	
16.0	95.19904788956774	pulse	0.0	t		24.0	female	black	3.0955033824114606	smiling	099	sub-06	1.0	1.0	099_smiling	0.0		186.73188622126509	
16.0	95.25726783365826	fix	1.0		445	24.0	female	black	3.0955033824114606	smiling	099	sub-06	1.0	1.0	099_smiling	0.0		186.7901061653556	3.7583920918859803
16.0	95.89903590593167	pulse	1.0	t		24.0	female	black	3.0955033824114606	smiling	099	sub-06	1.0	1.0	099_smiling	0.0		187.43187423762902	
16.0	96.59902482785947	pulse	1.0	t		24.0	female	black	3.0955033824114606	smiling	099	sub-06	1.0	1.0	099_smiling	0.0		188.13186315955681	
16.0	97.29900982567597	pulse	1.0	t		24.0	female	black	3.0955033824114606	smiling	099	sub-06	1.0	1.0	099_smiling	0.0		188.83184815737332	
16.0	97.99900478470045	pulse	1.0	t		24.0	female	black	3.0955033824114606	smiling	099	sub-06	1.0	1.0	099_smiling	0.0		189.5318431163978	
16.0	98.69897046380902	pulse	1.0	t		24.0	female	black	3.0955033824114606	smiling	099	sub-06	1.0	1.0	099_smiling	0.0		190.23180879550637	
17.0	99.01565992554424	face	0.0		146	36.0	female	white	2.7548746518105847	neutral	011	sub-06	1.0	1.0	011_neutral	0.0		190.5484982572416	1.2415004478025367
17.0	99.39896481912365	pulse	0.0	t		36.0	female	white	2.7548746518105847	neutral	011	sub-06	1.0	1.0	011_neutral	0.0		190.931803150821	
17.0	100.09894649653688	pulse	0.0	t		36.0	female	white	2.7548746518105847	neutral	011	sub-06	1.0	1.0	011_neutral	0.0		191.63178482823423	
17.0	100.25716037334678	fix	1.0		445	36.0	female	white	2.7548746518105847	neutral	011	sub-06	1.0	1.0	011_neutral	0.0		191.78999870504413	3.7665901665968704
17.0	100.79893360733695	pulse	1.0	t		36.0	female	white	2.7548746518105847	neutral	011	sub-06	1.0	1.0	011_neutral	0.0		192.3317719390343	
17.0	101.49890985136335	pulse	1.0	t		36.0	female	white	2.7548746518105847	neutral	011	sub-06	1.0	1.0	011_neutral	0.0		193.0317481830607	
17.0	102.19889696216342	pulse	1.0	t		36.0	female	white	2.7548746518105847	neutral	011	sub-06	1.0	1.0	011_neutral	0.0		193.73173529386077	
17.0	102.89888377110947	pulse	1.0	t		36.0	female	white	2.7548746518105847	neutral	011	sub-06	1.0	1.0	011_neutral	0.0		194.43172210280682	
17.0	103.59887601344053	pulse	1.0	t		36.0	female	white	2.7548746518105847	neutral	011	sub-06	1.0	1.0	011_neutral	0.0		195.13171434513788	
18.0	104.02375053994365	face	0.0		145	31.0	female	west_asian	2.364902506963788	smiling	006	sub-06	1.0	1.0	006_smiling	0.0		195.556588871641	1.2333053916390782
18.0	104.29886101125703	pulse	0.0	t		31.0	female	west_asian	2.364902506963788	smiling	006	sub-06	1.0	1.0	006_smiling	0.0		195.83169934295438	
18.0	104.9988457072177	pulse	0.0	t		31.0	female	west_asian	2.364902506963788	smiling	006	sub-06	1.0	1.0	006_smiling	0.0		196.53168403891505	
18.0	105.25705593158273	fix	1.0		444	31.0	female	west_asian	2.364902506963788	smiling	006	sub-06	1.0	1.0	006_smiling	0.0		196.78989426328008	3.758254144240709
18.0	105.69883191245208	pulse	1.0	t		31.0	female	west_asian	2.364902506963788	smiling	006	sub-06	1.0	1.0	006_smiling	0.0		197.23167024414943	
18.0	106.39880121381975	pulse	1.0	t		31.0	female	west_asian	2.364902506963788	smiling	006	sub-06	1.0	1.0	006_smiling	0.0		197.9316395455171	
18.0	107.09879104131142	pulse	1.0	t		31.0	female	west_asian	2.364902506963788	smiling	006	sub-06	1.0	1.0	006_smiling	0.0		198.63162937300876	
18.0	107.79878177436876	pulse	1.0	t		31.0	female	west_asian	2.364902506963788	smiling	006	sub-06	1.0	1.0	006_smiling	0.0		199.3316201060661	
18.0	108.4987709981524	pulse	1.0	t		31.0	female	west_asian	2.364902506963788	smiling	006	sub-06	1.0	1.0	006_smiling	0.0		200.03160932984974	
19.0	109.01531007582344	face	0.0		146	30.0	female	black	2.7345801830481498	smiling	062	sub-06	1.0	1.0	062_smiling	0.0		200.54814840752078	1.2416429232707742
19.0	109.19876414604914	pulse	0.0	t		30.0	female	black	2.7345801830481498	smiling	062	sub-06	1.0	1.0	062_smiling	0.0		200.7316024777465	
19.0	109.8987615199112	pulse	0.0	t		30.0	female	black	2.7345801830481498	smiling	062	sub-06	1.0	1.0	062_smiling	0.0		201.43159985160855	
19.0	110.25695299909421	fix	1.0		444	30.0	female	black	2.7345801830481498	smiling	062	sub-06	1.0	1.0	062_smiling	0.0		201.78979133079156	3.758231203273681
19.0	110.59872659530993	pulse	1.0	t		30.0	female	black	2.7345801830481498	smiling	062	sub-06	1.0	1.0	062_smiling	0.0		202.13156492700728	
19.0	111.29931922685319	pulse	1.0	t		30.0	female	black	2.7345801830481498	smiling	062	sub-06	1.0	1.0	062_smiling	0.0		202.83215755855053	
19.0	111.99871319295744	pulse	1.0	t		30.0	female	black	2.7345801830481498	smiling	062	sub-06	1.0	1.0	062_smiling	0.0		203.5315515246548	
19.0	112.69868158875943	pulse	1.0	t		30.0	female	black	2.7345801830481498	smiling	062	sub-06	1.0	1.0	062_smiling	0.0		204.23151992045678	
19.0	113.39866719028396	pulse	1.0	t		30.0	female	black	2.7345801830481498	smiling	062	sub-06	1.0	1.0	062_smiling	0.0		204.9315055219813	
20.0	114.01518420236789	face	0.0		146	19.0	male	white	2.243931555909272	smiling	130	sub-06	1.0	1.0	130_smiling	0.0		205.54802253406524	1.2416848810898955
20.0	114.09867965688863	pulse	0.0	t		19.0	male	white	2.243931555909272	smiling	130	sub-06	1.0	1.0	130_smiling	0.0		205.63151798858598	
20.0	114.79864231744796	pulse	0.0	t		19.0	male	white	2.243931555909272	smiling	130	sub-06	1.0	1.0	130_smiling	0.0		206.3314806491453	
20.0	115.25686908345779	fix	1.0		1185	19.0	male	white	2.243931555909272	smiling	130	sub-06	1.0	1.0	130_smiling	0.0		206.78970741515514	10.00813196850686
20.0	115.49862399486119	pulse	1.0	t		19.0	male	white	2.243931555909272	smiling	130	sub-06	1.0	1.0	130_smiling	0.0		207.03146232655854	
20.0	116.19860718154814	pulse	1.0	t		19.0	male	white	2.243931555909272	smiling	130	sub-06	1.0	1.0	130_smiling	0.0		207.7314455132455	
20.0	116.89859519791389	pulse	1.0	t		19.0	male	white	2.243931555909272	smiling	130	sub-06	1.0	1.0	130_smiling	0.0		208.43143352961124	
20.0	117.59857778089099	pulse	1.0	t		19.0	male	white	2.243931555909272	smiling	130	sub-06	1.0	1.0	130_smiling	0.0		209.13141611258834	
20.0	118.29856217499764	pulse	1.0	t		19.0	male	white	2.243931555909272	smiling	130	sub-06	1.0	1.0	130_smiling	0.0		209.831400506695	
20.0	118.99854717281232	pulse	1.0	t		19.0	male	white	2.243931555909272	smiling	130	sub-06	1.0	1.0	130_smiling	0.0		210.53138550450967	
20.0	119.69853247248466	pulse	1.0	t		19.0	male	white	2.243931555909272	smiling	130	sub-06	1.0	1.0	130_smiling	0.0		211.231370804182	
20.0	120.39851445175191	pulse	1.0	t		19.0	male	white	2.243931555909272	smiling	130	sub-06	1.0	1.0	130_smiling	0.0		211.93135278344926	
20.0	121.09850639222896	pulse	1.0	t		19.0	male	white	2.243931555909272	smiling	130	sub-06	1.0	1.0	130_smiling	0.0		212.6313447239263	
20.0	121.79849048447977	pulse	1.0	t		19.0	male	white	2.243931555909272	smiling	130	sub-06	1.0	1.0	130_smiling	0.0		213.33132881617712	
20.0	122.49847155818316	pulse	1.0	t		19.0	male	white	2.243931555909272	smiling	130	sub-06	1.0	1.0	130_smiling	0.0		214.0313098898805	
20.0	123.19846319680619	pulse	1.0	t		19.0	male	white	2.243931555909272	smiling	130	sub-06	1.0	1.0	130_smiling	0.0		214.73130152850354	
20.0	123.89844668534715	pulse	1.0	t		19.0	male	white	2.243931555909272	smiling	130	sub-06	1.0	1.0	130_smiling	0.0		215.4312850170445	
20.0	124.59843319243737	pulse	1.0	t		19.0	male	white	2.243931555909272	smiling	130	sub-06	1.0	1.0	130_smiling	0.0		216.13127152413472	
21.0	125.26500105196465	face	0.0		146	54.0	female	white	2.286908077994429	smiling	136	sub-06	1.0	1.0	136_smiling	1.0	dominance	216.797839383662	1.241612435935167
21.0	125.29842754775382	pulse	0.0	t		54.0	female	white	2.286908077994429	smiling	136	sub-06	1.0	1.0	136_smiling	1.0	dominance	216.83126587945117	
21.0	125.99839745282952	pulse	0.0	t		54.0	female	white	2.286908077994429	smiling	136	sub-06	1.0	1.0	136_smiling	1.0	dominance	217.53123578452687	
21.0	126.50661348789981	fix	1.0		177	54.0	female	white	2.286908077994429	smiling	136	sub-06	1.0	1.0	136_smiling	1.0	dominance	218.03945181959716	1.4999744932683825
21.0	126.69839844894886	pulse	1.0	t		54.0	female	white	2.286908077994429	smiling	136	sub-06	1.0	1.0	136_smiling	1.0	dominance	218.2312367806462	
21.0	127.3983698633001	pulse	1.0	t		54.0	female	white	2.286908077994429	smiling	136	sub-06	1.0	1.0	136_smiling	1.0	dominance	218.93120819499745	
21.0	128.0065879811682	rating	2.0		294	54.0	female	white	2.286908077994429	smiling	136	sub-06	1.0	1.0	136_smiling	1.0	dominance	219.53942631286554	2.4999424966590595
21.0	128.09836723716217	pulse	2.0	t		54.0	female	white	2.286908077994429	smiling	136	sub-06	1.0	1.0	136_smiling	1.0	dominance	219.6312055688595	
21.0	128.79834710344767	pulse	2.0	t		54.0	female	white	2.286908077994429	smiling	136	sub-06	1.0	1.0	136_smiling	1.0	dominance	220.33118543514502	
21.0	129.49832938456893	pulse	2.0	t		54.0	female	white	2.286908077994429	smiling	136	sub-06	1.0	1.0	136_smiling	1.0	dominance	221.03116771626628	
21.0	129.88998961921425	response	2.0	r		54.0	female	white	2.286908077994429	smiling	136	sub-06	1.0	1.0	136_smiling	1.0	dominance	221.4228279509116	
21.0	130.19830955270845	pulse	2.0	t		54.0	female	white	2.286908077994429	smiling	136	sub-06	1.0	1.0	136_smiling	1.0	dominance	221.7311478844058	
21.0	130.50653047782725	fix	3.0		444	54.0	female	white	2.286908077994429	smiling	136	sub-06	1.0	1.0	136_smiling	1.0	dominance	222.0393688095246	3.7582281847262493
21.0	130.89830722842635	pulse	3.0	t		54.0	female	white	2.286908077994429	smiling	136	sub-06	1.0	1.0	136_smiling	1.0	dominance	222.4311455601237	
21.0	131.59828558543813	pulse	3.0	t		54.0	female	white	2.286908077994429	smiling	136	sub-06	1.0	1.0	136_smiling	1.0	dominance	223.13112391713548	
21.0	132.29826454615795	pulse	3.0	t		54.0	female	white	2.286908077994429	smiling	136	sub-06	1.0	1.0	136_smiling	1.0	dominance	223.8311028778553	
21.0	132.9982706738101	pulse	3.0	t		54.0	female	white	2.286908077994429	smiling	136	sub-06	1.0	1.0	136_smiling	1.0	dominance	224.53110900550746	
21.0	133.6982568790445	pulse	3.0	t		54.0	female	white	2.286908077994429	smiling	136	sub-06	1.0	1.0	136_smiling	1.0	dominance	225.23109521074184	
22.0	134.2647586625535	face	0.0		145	40.0	female	west_asian	1.5777954635893354	smiling	038	sub-06	1.0	1.0	038_smiling	0.0		225.79759699425085	1.2416664679458336
22.0	134.39823251936286	pulse	0.0	t		40.0	female	west_asian	1.5777954635893354	smiling	038	sub-06	1.0	1.0	038_smiling	0.0		225.9310708510602	
22.0	135.09821389492026	pulse	0.0	t		40.0	female	west_asian	1.5777954635893354	smiling	038	sub-06	1.0	1.0	038_smiling	0.0		226.6310522266176	
22.0	135.15652167876033	response	0.0	y		40.0	female	west_asian	1.5777954635893354	smiling	038	sub-06	1.0	1.0	038_smiling	0.0		226.68936001045768	
22.0	135.50642513049934	fix	1.0		444	40.0	female	west_asian	1.5777954635893354	smiling	038	sub-06	1.0	1.0	038_smiling	0.0		227.0392634621967	3.758258370207841
22.0	135.79820251499405	pulse	1.0	t		40.0	female	west_asian	1.5777954635893354	smiling	038	sub-06	1.0	1.0	038_smiling	0.0		227.3310408466914	
22.0	136.49817362748945	pulse	1.0	t		40.0	female	west_asian	1.5777954635893354	smiling	038	sub-06	1.0	1.0	038_smiling	0.0		228.0310119591868	
22.0	137.19816768095006	pulse	1.0	t		40.0	female	west_asian	1.5777954635893354	smiling	038	sub-06	1.0	1.0	038_smiling	0.0		228.7310060126474	
22.0	137.89815750844173	pulse	1.0	t		40.0	female	west_asian	1.5777954635893354	smiling	038	sub-06	1.0	1.0	038_smiling	0.0		229.43099584013908	
22.0	138.5981446192418	pulse	1.0	t		40.0	female	west_asian	1.5777954635893354	smiling	038	sub-06	1.0	1.0	038_smiling	0.0		230.13098295093914	
23.0	139.26468350070718	face	0.0		146	34.0	male	white	2.651014723438122	neutral	121	sub-06	1.0	1.0	121_neutral	0.0		230.79752183240453	1.2416386973036424
23.0	139.29813384302543	pulse	0.0	t		34.0	male	white	2.651014723438122	neutral	121	sub-06	1.0	1.0	121_neutral	0.0		230.83097217472277	
23.0	139.9981197464058	pulse	0.0	t		34.0	male	white	2.651014723438122	neutral	121	sub-06	1.0	1.0	121_neutral	0.0		231.53095807810314	
23.0	140.50632219801082	fix	1.0		443	34.0	male	white	2.651014723438122	neutral	121	sub-06	1.0	1.0	121_neutral	0.0		232.03916052970817	3.758256860932306
23.0	140.6981122905927	pulse	1.0	t		34.0	male	white	2.651014723438122	neutral	121	sub-06	1.0	1.0	121_neutral	0.0		232.23095062229004	
23.0	141.39807706413558	pulse	1.0	t		34.0	male	white	2.651014723438122	neutral	121	sub-06	1.0	1.0	121_neutral	0.0		232.93091539583293	
23.0	142.0980886251764	pulse	1.0	t		34.0	male	white	2.651014723438122	neutral	121	sub-06	1.0	1.0	121_neutral	0.0		233.63092695687374	
23.0	142.79805430428314	pulse	1.0	t		34.0	male	white	2.651014723438122	neutral	121	sub-06	1.0	1.0	121_neutral	0.0		234.3308926359805	
23.0	143.49803175572924	pulse	1.0	t		34.0	male	white	2.651014723438122	neutral	121	sub-06	1.0	1.0	121_neutral	0.0		235.0308700874266	
23.0	144.19802067765886	pulse	1.0	t		34.0	male	white	2.651014723438122	neutral	121	sub-06	1.0	1.0	121_neutral	0.0		235.7308590093562	
24.0	144.26457905894313	face	0.0		147	24.0	female	east_asian	2.9076800636689217	neutral	034	sub-06	1.0	1.0	034_neutral	0.0		235.79741739064048	1.241639602869327
24.0	144.89801563668334	pulse	0.0	t		24.0	female	east_asian	2.9076800636689217	neutral	034	sub-06	1.0	1.0	034_neutral	0.0		236.4308539683807	
24.0	145.50621866181245	fix	1.0		443	24.0	female	east_asian	2.9076800636689217	neutral	034	sub-06	1.0	1.0	034_neutral	0.0		237.0390569935098	3.758301837298859
24.0	145.59809119094098	pulse	1.0	t		24.0	female	east_asian	2.9076800636689217	neutral	034	sub-06	1.0	1.0	034_neutral	0.0		237.13092952263833	
24.0	146.29797295441313	pulse	1.0	t		24.0	female	east_asian	2.9076800636689217	neutral	034	sub-06	1.0	1.0	034_neutral	0.0		237.83081128611047	
24.0	146.99796368747047	pulse	1.0	t		24.0	female	east_asian	2.9076800636689217	neutral	034	sub-06	1.0	1.0	034_neutral	0.0		238.53080201916782	
24.0	147.6979526094001	pulse	1.0	t		24.0	female	east_asian	2.9076800636689217	neutral	034	sub-06	1.0	1.0	034_neutral	0.0		239.23079094109744	
24.0	148.3979354942312	pulse	1.0	t		24.0	female	east_asian	2.9076800636689217	neutral	034	sub-06	1.0	1.0	034_neutral	0.0		239.93077382592855	
24.0	149.097919284628	pulse	1.0	t		24.0	female	east_asian	2.9076800636689217	neutral	034	sub-06	1.0	1.0	034_neutral	0.0		240.63075761632535	
25.0	149.2645204991113	face	0.0		147	21.0	male	east_asian/white	3.501790688420215	smiling	036	sub-06	1.0	1.0	036_smiling	0.0		240.79735883080866	1.249930347003101
25.0	149.79791424365249	pulse	0.0	t		21.0	male	east_asian/white	3.501790688420215	smiling	036	sub-06	1.0	1.0	036_smiling	0.0		241.33075257534983	
25.0	150.4978877709873	pulse	0.0	t		21.0	male	east_asian/white	3.501790688420215	smiling	036	sub-06	1.0	1.0	036_smiling	0.0		242.03072610268464	
25.0	150.5144508461144	fix	1.0		444	21.0	male	east_asian/white	3.501790688420215	smiling	036	sub-06	1.0	1.0	036_smiling	0.0		242.04728917781176	3.7499769835703773
25.0	151.19788303186579	pulse	1.0	t		21.0	male	east_asian/white	3.501790688420215	smiling	036	sub-06	1.0	1.0	036_smiling	0.0		242.73072136356313	
25.0	151.897864407425	pulse	1.0	t		21.0	male	east_asian/white	3.501790688420215	smiling	036	sub-06	1.0	1.0	036_smiling	0.0		243.43070273912235	
25.0	152.59784517927437	pulse	1.0	t		21.0	male	east_asian/white	3.501790688420215	smiling	036	sub-06	1.0	1.0	036_smiling	0.0		244.13068351097172	
25.0	153.2978371197496	pulse	1.0	t		21.0	male	east_asian/white	3.501790688420215	smiling	036	sub-06	1.0	1.0	036_smiling	0.0		244.83067545144695	
25.0	153.9978218157121	pulse	1.0	t		21.0	male	east_asian/white	3.501790688420215	smiling	036	sub-06	1.0	1.0	036_smiling	0.0		245.53066014740944	
26.0	154.2644278296848	face	0.0		146	24.0	female	east_asian	4.409868682849185	smiling	030	sub-06	1.0	1.0	030_smiling	0.0		245.79726616138214	1.2415810430356942
26.0	154.6978083228023	pulse	0.0	t		24.0	female	east_asian	4.409868682849185	smiling	030	sub-06	1.0	1.0	030_smiling	0.0		246.23064665449965	
26.0	155.39779543360055	pulse	0.0	t		24.0	female	east_asian	4.409868682849185	smiling	030	sub-06	1.0	1.0	030_smiling	0.0		246.9306337652979	
26.0	155.50600887272049	fix	1.0		445	24.0	female	east_asian	4.409868682849185	smiling	030	sub-06	1.0	1.0	030_smiling	0.0		247.03884720441783	3.758239957063779
26.0	156.09778284625645	pulse	1.0	t		24.0	female	east_asian	4.409868682849185	smiling	030	sub-06	1.0	1.0	030_smiling	0.0		247.6306211779538	
26.0	156.79776331624998	pulse	1.0	t		24.0	female	east_asian	4.409868682849185	smiling	030	sub-06	1.0	1.0	030_smiling	0.0		248.33060164794733	
26.0	157.49774288067965	pulse	1.0	t		24.0	female	east_asian	4.409868682849185	smiling	030	sub-06	1.0	1.0	030_smiling	0.0		249.030581212377	
26.0	158.19773602857458	pulse	1.0	t		24.0	female	east_asian	4.409868682849185	smiling	030	sub-06	1.0	1.0	030_smiling	0.0		249.73057436027193	
26.0	158.89771468744038	pulse	1.0	t		24.0	female	east_asian	4.409868682849185	smiling	030	sub-06	1.0	1.0	030_smiling	0.0		250.43055301913773	
27.0	159.26424882978426	face	0.0		146	25.0	female	west_asian	2.6756864305610826	smiling	064	sub-06	1.0	1.0	064_smiling	0.0		250.7970871614816	1.24165801601157
27.0	159.59771417428783	pulse	0.0	t		25.0	female	west_asian	2.6756864305610826	smiling	064	sub-06	1.0	1.0	064_smiling	0.0		251.13055250598518	
27.0	160.29769192758795	pulse	0.0	t		25.0	female	west_asian	2.6756864305610826	smiling	064	sub-06	1.0	1.0	064_smiling	0.0		251.8305302592853	
27.0	160.50590684579583	fix	1.0		444	25.0	female	west_asian	2.6756864305610826	smiling	064	sub-06	1.0	1.0	064_smiling	0.0		252.03874517749318	3.7582770852059184
27.0	160.99768084951575	pulse	1.0	t		25.0	female	west_asian	2.6756864305610826	smiling	064	sub-06	1.0	1.0	064_smiling	0.0		252.5305191812131	
27.0	161.69766101765526	pulse	1.0	t		25.0	female	west_asian	2.6756864305610826	smiling	064	sub-06	1.0	1.0	064_smiling	0.0		253.2304993493526	
27.0	162.39764329877835	pulse	1.0	t		25.0	female	west_asian	2.6756864305610826	smiling	064	sub-06	1.0	1.0	064_smiling	0.0		253.9304816304757	
27.0	163.09765153941407	pulse	1.0	t		25.0	female	west_asian	2.6756864305610826	smiling	064	sub-06	1.0	1.0	064_smiling	0.0		254.63048987111142	
27.0	163.79761752037848	pulse	1.0	t		25.0	female	west_asian	2.6756864305610826	smiling	064	sub-06	1.0	1.0	064_smiling	0.0		255.33045585207583	
28.0	164.26418393100175	face	0.0		146	31.0	male	west_asian	1.9538400318344609	smiling	070	sub-06	1.0	1.0	070_smiling	0.0		255.7970222626991	1.2416432251247898
28.0	164.4976067441621	pulse	0.0	t		31.0	male	west_asian	1.9538400318344609	smiling	070	sub-06	1.0	1.0	070_smiling	0.0		256.03044507585946	
28.0	165.19760411802417	pulse	0.0	t		31.0	male	west_asian	1.9538400318344609	smiling	070	sub-06	1.0	1.0	070_smiling	0.0		256.7304424497215	
28.0	165.50582715612654	fix	1.0		444	31.0	male	west_asian	1.9538400318344609	smiling	070	sub-06	1.0	1.0	070_smiling	0.0		257.0386654878239	3.7582309014196653
28.0	165.89757885277686	pulse	1.0	t		31.0	male	west_asian	1.9538400318344609	smiling	070	sub-06	1.0	1.0	070_smiling	0.0		257.4304171844742	
28.0	166.59755751164266	pulse	1.0	t		31.0	male	west_asian	1.9538400318344609	smiling	070	sub-06	1.0	1.0	070_smiling	0.0		258.13039584334	
28.0	167.29753858534605	pulse	1.0	t		31.0	male	west_asian	1.9538400318344609	smiling	070	sub-06	1.0	1.0	070_smiling	0.0		258.8303769170434	
28.0	167.9975305258231	pulse	1.0	t		31.0	male	west_asian	1.9538400318344609	smiling	070	sub-06	1.0	1.0	070_smiling	0.0		259.53036885752044	
28.0	168.69753122008842	pulse	1.0	t		31.0	male	west_asian	1.9538400318344609	smiling	070	sub-06	1.0	1.0	070_smiling	0.0		260.23036955178577	
29.0	169.2640580575462	face	0.0		146	24.0	male	white	3.1153999204138483	neutral	012	sub-06	1.0	1.0	012_neutral	1.0	attractiveness	260.79689638924356	1.2416383954496268
29.0	169.39750746411482	pulse	0.0	t		24.0	male	white	3.1153999204138483	neutral	012	sub-06	1.0	1.0	012_neutral	1.0	attractiveness	260.9303457958122	
29.0	170.0974858211248	pulse	0.0	t		24.0	male	white	3.1153999204138483	neutral	012	sub-06	1.0	1.0	012_neutral	1.0	attractiveness	261.63032415282214	
29.0	170.50569645299583	fix	1.0		177	24.0	male	white	3.1153999204138483	neutral	012	sub-06	1.0	1.0	012_neutral	1.0	attractiveness	262.0385347846932	1.4999744932683825
29.0	170.79747504490842	pulse	1.0	t		24.0	male	white	3.1153999204138483	neutral	012	sub-06	1.0	1.0	012_neutral	1.0	attractiveness	262.3303133766058	
29.0	171.49745189264468	pulse	1.0	t		24.0	male	white	3.1153999204138483	neutral	012	sub-06	1.0	1.0	012_neutral	1.0	attractiveness	263.030290224342	
29.0	172.00567094626422	rating	2.0		294	24.0	male	white	3.1153999204138483	neutral	012	sub-06	1.0	1.0	012_neutral	1.0	attractiveness	263.53850927796157	2.499943402222925
29.0	172.19744926650856	pulse	2.0	t		24.0	male	white	3.1153999204138483	neutral	012	sub-06	1.0	1.0	012_neutral	1.0	attractiveness	263.7302875982059	
29.0	172.89743305690536	pulse	2.0	t		24.0	male	white	3.1153999204138483	neutral	012	sub-06	1.0	1.0	012_neutral	1.0	attractiveness	264.4302713886027	
29.0	173.50575289984408	response	2.0	e		24.0	male	white	3.1153999204138483	neutral	012	sub-06	1.0	1.0	012_neutral	1.0	attractiveness	265.03859123154143	
29.0	173.59742711036597	pulse	2.0	t		24.0	male	white	3.1153999204138483	neutral	012	sub-06	1.0	1.0	012_neutral	1.0	attractiveness	265.1302654420633	
29.0	174.29738946907128	pulse	2.0	t		24.0	male	white	3.1153999204138483	neutral	012	sub-06	1.0	1.0	012_neutral	1.0	attractiveness	265.8302278007686	
29.0	174.50561434848714	fix	3.0		444	24.0	male	white	3.1153999204138483	neutral	012	sub-06	1.0	1.0	012_neutral	1.0	attractiveness	266.0384526801845	3.758359793422642
29.0	174.99738805035304	pulse	3.0	t		24.0	male	white	3.1153999204138483	neutral	012	sub-06	1.0	1.0	012_neutral	1.0	attractiveness	266.5302263820504	
29.0	175.69737093518597	pulse	3.0	t		24.0	male	white	3.1153999204138483	neutral	012	sub-06	1.0	1.0	012_neutral	1.0	attractiveness	267.2302092668833	
29.0	176.3973450662288	pulse	3.0	t		24.0	male	white	3.1153999204138483	neutral	012	sub-06	1.0	1.0	012_neutral	1.0	attractiveness	267.93018339792616	
29.0	177.0973729274283	pulse	3.0	t		24.0	male	white	3.1153999204138483	neutral	012	sub-06	1.0	1.0	012_neutral	1.0	attractiveness	268.63021125912564	
29.0	177.79732562677964	pulse	3.0	t		24.0	male	white	3.1153999204138483	neutral	012	sub-06	1.0	1.0	012_neutral	1.0	attractiveness	269.330163958477	
30.0	178.26397414190978	face	0.0		146	19.0	male	white	2.243931555909272	neutral	130	sub-06	1.0	1.0	130_neutral	0.0		269.79681247360713	1.2415363685249758
30.0	178.4973151524173	pulse	0.0	t		19.0	male	white	2.243931555909272	neutral	130	sub-06	1.0	1.0	130_neutral	0.0		270.03015348411463	
30.0	179.19729320757324	pulse	0.0	t		19.0	male	white	2.243931555909272	neutral	130	sub-06	1.0	1.0	130_neutral	0.0		270.7301315392706	
30.0	179.50551051043476	fix	1.0		444	19.0	male	white	2.243931555909272	neutral	130	sub-06	1.0	1.0	130_neutral	0.0		271.0383488421321	3.758228486580265
30.0	179.89728575176014	pulse	1.0	t		19.0	male	white	2.243931555909272	neutral	130	sub-06	1.0	1.0	130_neutral	0.0		271.4301240834575	
30.0	180.59726501433397	pulse	1.0	t		19.0	male	white	2.243931555909272	neutral	130	sub-06	1.0	1.0	130_neutral	0.0		272.1301033460313	
30.0	181.29725091771434	pulse	1.0	t		19.0	male	white	2.243931555909272	neutral	130	sub-06	1.0	1.0	130_neutral	0.0		272.8300892494117	
30.0	181.9972368210947	pulse	1.0	t		19.0	male	white	2.243931555909272	neutral	130	sub-06	1.0	1.0	130_neutral	0.0		273.53007515279205	
30.0	182.69722000778165	pulse	1.0	t		19.0	male	white	2.243931555909272	neutral	130	sub-06	1.0	1.0	130_neutral	0.0		274.230058339479	
31.0	183.26373899701503	face	0.0		146	22.0	female	white	4.614007162753682	neutral	009	sub-06	1.0	1.0	009_neutral	0.0		274.7965773287124	1.2416679772195494
31.0	183.39721406124227	pulse	0.0	t		22.0	female	white	4.614007162753682	neutral	009	sub-06	1.0	1.0	009_neutral	0.0		274.9300523929396	
31.0	184.09719362567193	pulse	0.0	t		22.0	female	white	4.614007162753682	neutral	009	sub-06	1.0	1.0	009_neutral	0.0		275.6300319573693	
31.0	184.50540697423457	fix	1.0		444	22.0	female	white	4.614007162753682	neutral	009	sub-06	1.0	1.0	009_neutral	0.0		276.0382453059319	3.7582369385163474
31.0	184.79718918840626	pulse	1.0	t		22.0	female	white	4.614007162753682	neutral	009	sub-06	1.0	1.0	009_neutral	0.0		276.3300275201036	
31.0	185.49716814912608	pulse	1.0	t		22.0	female	white	4.614007162753682	neutral	009	sub-06	1.0	1.0	009_neutral	0.0		277.03000648082343	
31.0	186.19714771355575	pulse	1.0	t		22.0	female	white	4.614007162753682	neutral	009	sub-06	1.0	1.0	009_neutral	0.0		277.7299860452531	
31.0	186.89712939096898	pulse	1.0	t		22.0	female	white	4.614007162753682	neutral	009	sub-06	1.0	1.0	009_neutral	0.0		278.42996772266633	
31.0	187.59711982217232	pulse	1.0	t		22.0	female	white	4.614007162753682	neutral	009	sub-06	1.0	1.0	009_neutral	0.0		279.12995815386967	
32.0	188.26364391275092	face	0.0		146	31.0	female	east_asian	3.395941106247513	neutral	087	sub-06	1.0	1.0	087_neutral	1.0	dominance	279.79648224444827	1.2416589215754357
32.0	188.29718662263986	pulse	0.0	t		31.0	female	east_asian	3.395941106247513	neutral	087	sub-06	1.0	1.0	087_neutral	1.0	dominance	279.8300249543372	
32.0	188.99709434562646	pulse	0.0	t		31.0	female	east_asian	3.395941106247513	neutral	087	sub-06	1.0	1.0	087_neutral	1.0	dominance	280.5299326773238	
32.0	189.50530283432636	fix	1.0		177	31.0	female	east_asian	3.395941106247513	neutral	087	sub-06	1.0	1.0	087_neutral	1.0	dominance	281.0381411660237	1.499969361737385
32.0	189.69708175828055	pulse	1.0	t		31.0	female	east_asian	3.395941106247513	neutral	087	sub-06	1.0	1.0	087_neutral	1.0	dominance	281.2299200899779	
32.0	190.3970637375478	pulse	1.0	t		31.0	female	east_asian	3.395941106247513	neutral	087	sub-06	1.0	1.0	087_neutral	1.0	dominance	281.92990206924514	
32.0	191.00527219606374	rating	2.0		294	31.0	female	east_asian	3.395941106247513	neutral	087	sub-06	1.0	1.0	087_neutral	1.0	dominance	282.5381105277611	2.499947024482026
32.0	191.0970577910084	pulse	2.0	t		31.0	female	east_asian	3.395941106247513	neutral	087	sub-06	1.0	1.0	087_neutral	1.0	dominance	282.62989612270576	
32.0	191.79703795914793	pulse	2.0	t		31.0	female	east_asian	3.395941106247513	neutral	087	sub-06	1.0	1.0	087_neutral	1.0	dominance	283.3298762908453	
32.0	192.4970226551086	pulse	2.0	t		31.0	female	east_asian	3.395941106247513	neutral	087	sub-06	1.0	1.0	087_neutral	1.0	dominance	284.02986098680594	
32.0	193.07201742547477	response	2.0	b		31.0	female	east_asian	3.395941106247513	neutral	087	sub-06	1.0	1.0	087_neutral	1.0	dominance	284.6048557571721	
32.0	193.1970013139744	pulse	2.0	t		31.0	female	east_asian	3.395941106247513	neutral	087	sub-06	1.0	1.0	087_neutral	1.0	dominance	284.72983964567175	
32.0	193.50521922054577	fix	3.0		444	31.0	female	east_asian	3.395941106247513	neutral	087	sub-06	1.0	1.0	087_neutral	1.0	dominance	285.0380575522431	3.758230297709815
32.0	193.89699114146788	pulse	3.0	t		31.0	female	east_asian	3.395941106247513	neutral	087	sub-06	1.0	1.0	087_neutral	1.0	dominance	285.4298294731652	
32.0	194.596969196622	pulse	3.0	t		31.0	female	east_asian	3.395941106247513	neutral	087	sub-06	1.0	1.0	087_neutral	1.0	dominance	286.12980752831936	
32.0	195.29696325008263	pulse	3.0	t		31.0	female	east_asian	3.395941106247513	neutral	087	sub-06	1.0	1.0	087_neutral	1.0	dominance	286.82980158178	
32.0	195.99694583306155	pulse	3.0	t		31.0	female	east_asian	3.395941106247513	neutral	087	sub-06	1.0	1.0	087_neutral	1.0	dominance	287.5297841647589	
32.0	196.69693384942548	pulse	3.0	t		31.0	female	east_asian	3.395941106247513	neutral	087	sub-06	1.0	1.0	087_neutral	1.0	dominance	288.2297721811228	
33.0	197.26344951825558	face	0.0		146	24.0	female	east_asian	2.9076800636689217	smiling	034	sub-06	1.0	1.0	034_smiling	0.0		288.79628784995293	1.2416637512524176
33.0	197.39692246949926	pulse	0.0	t		24.0	female	east_asian	2.9076800636689217	smiling	034	sub-06	1.0	1.0	034_smiling	0.0		288.9297608011966	
33.0	198.0969032413468	pulse	0.0	t		24.0	female	east_asian	2.9076800636689217	smiling	034	sub-06	1.0	1.0	034_smiling	0.0		289.62974157304416	
33.0	198.505113269508	fix	1.0		444	24.0	female	east_asian	2.9076800636689217	smiling	034	sub-06	1.0	1.0	034_smiling	0.0		290.03795160120535	3.758233014403231
33.0	198.79690423746797	pulse	1.0	t		24.0	female	east_asian	2.9076800636689217	smiling	034	sub-06	1.0	1.0	034_smiling	0.0		290.3297425691653	
33.0	199.49686387947986	pulse	1.0	t		24.0	female	east_asian	2.9076800636689217	smiling	034	sub-06	1.0	1.0	034_smiling	0.0		291.0297022111772	
33.0	200.19686034777988	pulse	1.0	t		24.0	female	east_asian	2.9076800636689217	smiling	034	sub-06	1.0	1.0	034_smiling	0.0		291.7296986794772	
33.0	200.8968405159194	pulse	1.0	t		24.0	female	east_asian	2.9076800636689217	smiling	034	sub-06	1.0	1.0	034_smiling	0.0		292.42967884761674	
33.0	201.5968294378472	pulse	1.0	t		24.0	female	east_asian	2.9076800636689217	smiling	034	sub-06	1.0	1.0	034_smiling	0.0		293.12966776954454	
34.0	202.26334628391123	face	0.0		146	21.0	male	east_asian/white	3.501790688420215	neutral	036	sub-06	1.0	1.0	036_neutral	0.0		293.7961846156086	1.2416646568162832
34.0	202.2968310376782	pulse	0.0	t		21.0	male	east_asian/white	3.501790688420215	neutral	036	sub-06	1.0	1.0	036_neutral	0.0		293.82966936937555	
34.0	202.9968045650112	pulse	0.0	t		21.0	male	east_asian/white	3.501790688420215	neutral	036	sub-06	1.0	1.0	036_neutral	0.0		294.52964289670854	
34.0	203.50501094072752	fix	1.0		443	21.0	male	east_asian/white	3.501790688420215	neutral	036	sub-06	1.0	1.0	036_neutral	0.0		295.03784927242486	3.758252936821009
34.0	203.69678895911784	pulse	1.0	t		21.0	male	east_asian/white	3.501790688420215	neutral	036	sub-06	1.0	1.0	036_neutral	0.0		295.2296272908152	
34.0	204.3967609771771	pulse	1.0	t		21.0	male	east_asian/white	3.501790688420215	neutral	036	sub-06	1.0	1.0	036_neutral	0.0		295.92959930887446	
34.0	205.09675895474902	pulse	1.0	t		21.0	male	east_asian/white	3.501790688420215	neutral	036	sub-06	1.0	1.0	036_neutral	0.0		296.62959728644637	
34.0	205.79674666925894	pulse	1.0	t		21.0	male	east_asian/white	3.501790688420215	neutral	036	sub-06	1.0	1.0	036_neutral	0.0		297.3295850009563	
34.0	206.49671446135108	pulse	1.0	t		21.0	male	east_asian/white	3.501790688420215	neutral	036	sub-06	1.0	1.0	036_neutral	0.0		298.0295527930484	
34.0	207.19670670368214	pulse	1.0	t		21.0	male	east_asian/white	3.501790688420215	neutral	036	sub-06	1.0	1.0	036_neutral	0.0		298.7295450353795	
35.0	207.26326387754852	face	0.0		147	25.0	female	black	3.858336649423	neutral	126	sub-06	1.0	1.0	126_neutral	0.0		298.7961022092459	1.2416426214167586
35.0	207.89670075714275	pulse	0.0	t		25.0	female	black	3.858336649423	neutral	126	sub-06	1.0	1.0	126_neutral	0.0		299.4295390888401	
35.0	208.50490649896528	fix	1.0		443	25.0	female	black	3.858336649423	neutral	126	sub-06	1.0	1.0	126_neutral	0.0		300.03774483066263	3.7582538423848746
35.0	208.59680076164113	pulse	1.0	t		25.0	female	black	3.858336649423	neutral	126	sub-06	1.0	1.0	126_neutral	0.0		300.1296390933385	
35.0	209.29666350825937	pulse	1.0	t		25.0	female	black	3.858336649423	neutral	126	sub-06	1.0	1.0	126_neutral	0.0		300.8295018399567	
35.0	209.99665635430028	pulse	1.0	t		25.0	female	black	3.858336649423	neutral	126	sub-06	1.0	1.0	126_neutral	0.0		301.52949468599763	
35.0	210.69664044655292	pulse	1.0	t		25.0	female	black	3.858336649423	neutral	126	sub-06	1.0	1.0	126_neutral	0.0		302.22947877825027	
35.0	211.39661850170705	pulse	1.0	t		25.0	female	black	3.858336649423	neutral	126	sub-06	1.0	1.0	126_neutral	0.0		302.9294568334044	
35.0	212.09661557371692	pulse	1.0	t		25.0	female	black	3.858336649423	neutral	126	sub-06	1.0	1.0	126_neutral	0.0		303.62945390541427	
36.0	212.26316034135016	face	0.0		147	27.0	female	white	4.181058495821727	neutral	039	sub-06	1.0	1.0	039_neutral	0.0		303.7959986730475	1.2499780400630698
36.0	212.79660117524145	pulse	0.0	t		27.0	female	white	4.181058495821727	neutral	039	sub-06	1.0	1.0	039_neutral	0.0		304.3294395069388	
36.0	213.49658285265468	pulse	0.0	t		27.0	female	white	4.181058495821727	neutral	039	sub-06	1.0	1.0	039_neutral	0.0		305.02942118435203	
36.0	213.51313838141323	fix	1.0		443	27.0	female	white	4.181058495821727	neutral	039	sub-06	1.0	1.0	039_neutral	0.0		305.0459767131106	3.749926271962977
36.0	214.19658867845283	pulse	1.0	t		27.0	female	white	4.181058495821727	neutral	039	sub-06	1.0	1.0	039_neutral	0.0		305.7294270101502	
36.0	214.89655375385155	pulse	1.0	t		27.0	female	white	4.181058495821727	neutral	039	sub-06	1.0	1.0	039_neutral	0.0		306.4293920855489	
36.0	215.59654388319905	pulse	1.0	t		27.0	female	white	4.181058495821727	neutral	039	sub-06	1.0	1.0	039_neutral	0.0		307.1293822148964	
36.0	216.2965131845649	pulse	1.0	t		27.0	female	white	4.181058495821727	neutral	039	sub-06	1.0	1.0	039_neutral	0.0		307.82935151626225	
36.0	216.99650663431566	pulse	1.0	t		27.0	female	white	4.181058495821727	neutral	039	sub-06	1.0	1.0	039_neutral	0.0		308.529344966013	
37.0	217.2630646533762	face	0.0		146	22.0	male	black	2.767608436132113	smiling	044	sub-06	1.0	1.0	044_smiling	0.0		308.79590298507355	1.2416338676266605
37.0	217.6964985747927	pulse	0.0	t		22.0	male	black	2.767608436132113	smiling	044	sub-06	1.0	1.0	044_smiling	0.0		309.22933690649006	
37.0	218.39647723365852	pulse	0.0	t		22.0	male	black	2.767608436132113	smiling	044	sub-06	1.0	1.0	044_smiling	0.0		309.92931556535586	
37.0	218.50469852100287	fix	1.0		444	22.0	male	black	2.767608436132113	smiling	044	sub-06	1.0	1.0	044_smiling	0.0		310.0375368527002	3.7582547479487403
37.0	219.096467363006	pulse	1.0	t		22.0	male	black	2.767608436132113	smiling	044	sub-06	1.0	1.0	044_smiling	0.0		310.62930569470336	
37.0	219.79645387009623	pulse	1.0	t		22.0	male	black	2.767608436132113	smiling	044	sub-06	1.0	1.0	044_smiling	0.0		311.3292922017936	
37.0	220.49642679371937	pulse	1.0	t		22.0	male	black	2.767608436132113	smiling	044	sub-06	1.0	1.0	044_smiling	0.0		312.0292651254167	
37.0	221.19641692306686	pulse	1.0	t		22.0	male	black	2.767608436132113	smiling	044	sub-06	1.0	1.0	044_smiling	0.0		312.7292552547642	
37.0	221.89641731547817	pulse	1.0	t		22.0	male	black	2.767608436132113	smiling	044	sub-06	1.0	1.0	044_smiling	0.0		313.4292556471755	
38.0	222.2629532689516	face	0.0		146	47.0	male	east_asian	2.171110226820533	smiling	024	sub-06	1.0	1.0	024_smiling	0.0		313.79579160064895	1.241639602867508
38.0	222.59639778547353	pulse	0.0	t		47.0	male	east_asian	2.171110226820533	smiling	024	sub-06	1.0	1.0	024_smiling	0.0		314.1292361171709	
38.0	223.29637825546706	pulse	0.0	t		47.0	male	east_asian	2.171110226820533	smiling	024	sub-06	1.0	1.0	024_smiling	0.0		314.8292165871644	
38.0	223.5045928718191	fix	1.0		444	47.0	male	east_asian	2.171110226820533	smiling	024	sub-06	1.0	1.0	024_smiling	0.0		315.03743120351646	3.7582580683538254
38.0	223.99636808296054	pulse	1.0	t		47.0	male	east_asian	2.171110226820533	smiling	024	sub-06	1.0	1.0	024_smiling	0.0		315.5292064146579	
38.0	224.69634342142126	pulse	1.0	t		47.0	male	east_asian	2.171110226820533	smiling	024	sub-06	1.0	1.0	024_smiling	0.0		316.2291817531186	
38.0	225.3963338526246	pulse	1.0	t		47.0	male	east_asian	2.171110226820533	smiling	024	sub-06	1.0	1.0	024_smiling	0.0		316.92917218432194	
38.0	226.09632096342466	pulse	1.0	t		47.0	male	east_asian	2.171110226820533	smiling	024	sub-06	1.0	1.0	024_smiling	0.0		317.629159295122	
38.0	226.7963014334182	pulse	1.0	t		47.0	male	east_asian	2.171110226820533	smiling	024	sub-06	1.0	1.0	024_smiling	0.0		318.32913976511554	
39.0	227.26285094017294	face	0.0		146	24.0	female	black	3.0955033824114606	neutral	099	sub-06	1.0	1.0	099_neutral	0.0		318.7956892718703	1.241636886174092
39.0	227.49629488316896	pulse	0.0	t		24.0	female	black	3.0955033824114606	neutral	099	sub-06	1.0	1.0	099_neutral	0.0		319.0291332148663	
39.0	228.1962753531625	pulse	0.0	t		24.0	female	black	3.0955033824114606	neutral	099	sub-06	1.0	1.0	099_neutral	0.0		319.72911368485984	
39.0	228.50448782634703	fix	1.0		444	24.0	female	black	3.0955033824114606	neutral	099	sub-06	1.0	1.0	099_neutral	0.0		320.0373261580444	3.749922649705695
39.0	228.89626548251	pulse	1.0	t		24.0	female	black	3.0955033824114606	neutral	099	sub-06	1.0	1.0	099_neutral	0.0		320.42910381420734	
39.0	229.59624746177906	pulse	1.0	t		24.0	female	black	3.0955033824114606	neutral	099	sub-06	1.0	1.0	099_neutral	0.0		321.1290857934764	
39.0	230.29623396886927	pulse	1.0	t		24.0	female	black	3.0955033824114606	neutral	099	sub-06	1.0	1.0	099_neutral	0.0		321.8290723005666	
39.0	230.9962207778135	pulse	1.0	t		24.0	female	black	3.0955033824114606	neutral	099	sub-06	1.0	1.0	099_neutral	0.0		322.52905910951085	
39.0	231.69620577563	pulse	1.0	t		24.0	female	black	3.0955033824114606	neutral	099	sub-06	1.0	1.0	099_neutral	0.0		323.22904410732735	
40.0	232.25441047605273	fix	0.0		720													323.7872488077501	5.999873220980589
40.0	232.39619288643007	pulse	0.0	t														323.9290312181274	
40.0	233.09617637497104	pulse	0.0	t														324.6290147066684	
40.0	233.79615895794996	pulse	0.0	t														325.3289972896473	
40.0	234.4961370131041	pulse	0.0	t														326.02897534480144	
40.0	235.1961319721304	pulse	0.0	t														326.72897030382774	
40.0	235.89611998849432	pulse	0.0	t														327.42895832019167	
40.0	236.59610287332544	pulse	0.0	t														328.1289412050228	
40.0	237.29608455073867	pulse	0.0	t														328.828922882436	
40.0	237.99606773742744	pulse	0.0	t														329.5289060691248	
