trial_nr	onset	event_type	phase	response	nr_frames	face_age	face_sex	face_eth	attractiveness	expression	face_id	sub_id	ses	run	trial_type	catch	rating_type	onset_abs	duration
-1.0	0.058926194349623984	fix	0.0		713													19.15092773982815	5.957839529836747
-1.0	0.7003945195883716	pulse	0.0	t														19.792396065066896	
-1.0	1.4004008584647636	pulse	0.0	t														20.492402403943288	
-1.0	2.1003438085776907	pulse	0.0	t														21.192345354056215	
-1.0	2.800328716014974	pulse	0.0	t														21.8923302614935	
-1.0	3.5003027568072866	pulse	0.0	t														22.59230430228581	
-1.0	4.200274986491877	pulse	0.0	t														23.2922765319704	
-1.0	4.900260799483021	pulse	0.0	t														23.992262344961546	
-1.0	5.600227293994067	pulse	0.0	t														24.69222883947259	
0.0	6.016765724186371	face	0.0		144	47.0	male	east_asian	2.171110226820533	smiling	024	sub-07	1.0	2.0	024_smiling	0.0		25.108767269664895	1.2332914766261638
0.0	6.3002131069847565	pulse	0.0	t		47.0	male	east_asian	2.171110226820533	smiling	024	sub-07	1.0	2.0	024_smiling	0.0		25.39221465246328	
0.0	7.000187147777069	pulse	0.0	t		47.0	male	east_asian	2.171110226820533	smiling	024	sub-07	1.0	2.0	024_smiling	0.0		26.092188693255594	
0.0	7.250057200812535	fix	1.0		445	47.0	male	east_asian	2.171110226820533	smiling	024	sub-07	1.0	2.0	024_smiling	0.0		26.34205874629106	3.7582089957709286
0.0	7.700160886718095	pulse	1.0	t		47.0	male	east_asian	2.171110226820533	smiling	024	sub-07	1.0	2.0	024_smiling	0.0		26.79216243219662	
0.0	8.400159981164506	pulse	1.0	t		47.0	male	east_asian	2.171110226820533	smiling	024	sub-07	1.0	2.0	024_smiling	0.0		27.49216152664303	
0.0	9.100096894252147	pulse	1.0	t		47.0	male	east_asian	2.171110226820533	smiling	024	sub-07	1.0	2.0	024_smiling	0.0		28.19209843973067	
0.0	9.800086631309568	pulse	1.0	t		47.0	male	east_asian	2.171110226820533	smiling	024	sub-07	1.0	2.0	024_smiling	0.0		28.892088176788093	
0.0	10.500068520234436	pulse	1.0	t		47.0	male	east_asian	2.171110226820533	smiling	024	sub-07	1.0	2.0	024_smiling	0.0		29.59207006571296	
1.0	11.008266196583463	face	0.0		146	31.0	female	west_asian	2.364902506963788	neutral	006	sub-07	1.0	2.0	006_neutral	1.0	trustworthiness	30.100267742061988	1.2416461156271907
1.0	11.200049805456729	pulse	0.0	t		31.0	female	west_asian	2.364902506963788	neutral	006	sub-07	1.0	2.0	006_neutral	1.0	trustworthiness	30.292051350935253	
1.0	11.900034712894012	pulse	0.0	t		31.0	female	west_asian	2.364902506963788	neutral	006	sub-07	1.0	2.0	006_neutral	1.0	trustworthiness	30.992036258372536	
1.0	12.249912312210654	fix	1.0		177	31.0	female	west_asian	2.364902506963788	neutral	006	sub-07	1.0	2.0	006_neutral	1.0	trustworthiness	31.34191385768918	1.5082969854115618
1.0	12.600009961091018	pulse	1.0	t		31.0	female	west_asian	2.364902506963788	neutral	006	sub-07	1.0	2.0	006_neutral	1.0	trustworthiness	31.692011506569543	
1.0	13.299971625981925	pulse	1.0	t		31.0	female	west_asian	2.364902506963788	neutral	006	sub-07	1.0	2.0	006_neutral	1.0	trustworthiness	32.39197317146045	
1.0	13.758209297622216	rating	2.0		293	31.0	female	west_asian	2.364902506963788	neutral	006	sub-07	1.0	2.0	006_neutral	1.0	trustworthiness	32.85021084310074	2.4915557111767157
1.0	13.999966192659485	pulse	2.0	t		31.0	female	west_asian	2.364902506963788	neutral	006	sub-07	1.0	2.0	006_neutral	1.0	trustworthiness	33.09196773813801	
1.0	14.699942346410353	pulse	2.0	t		31.0	female	west_asian	2.364902506963788	neutral	006	sub-07	1.0	2.0	006_neutral	1.0	trustworthiness	33.79194389188888	
1.0	15.38630651787389	response	2.0	b		31.0	female	west_asian	2.364902506963788	neutral	006	sub-07	1.0	2.0	006_neutral	1.0	trustworthiness	34.478308063352415	
1.0	15.402353534225313	pulse	2.0	t		31.0	female	west_asian	2.364902506963788	neutral	006	sub-07	1.0	2.0	006_neutral	1.0	trustworthiness	34.49435507970384	
1.0	16.099883787267117	pulse	2.0	t		31.0	female	west_asian	2.364902506963788	neutral	006	sub-07	1.0	2.0	006_neutral	1.0	trustworthiness	35.19188533274564	
1.0	16.24976500879893	fix	3.0		444	31.0	female	west_asian	2.364902506963788	neutral	006	sub-07	1.0	2.0	006_neutral	1.0	trustworthiness	35.341766554277456	3.758215938349622
1.0	16.808222428151566	pulse	3.0	t		31.0	female	west_asian	2.364902506963788	neutral	006	sub-07	1.0	2.0	006_neutral	1.0	trustworthiness	35.90022397363009	
1.0	17.499837000322714	pulse	3.0	t		31.0	female	west_asian	2.364902506963788	neutral	006	sub-07	1.0	2.0	006_neutral	1.0	trustworthiness	36.59183854580124	
1.0	18.199819492950155	pulse	3.0	t		31.0	female	west_asian	2.364902506963788	neutral	006	sub-07	1.0	2.0	006_neutral	1.0	trustworthiness	37.29182103842868	
1.0	18.908132174626644	pulse	3.0	t		31.0	female	west_asian	2.364902506963788	neutral	006	sub-07	1.0	2.0	006_neutral	1.0	trustworthiness	38.00013372010517	
1.0	19.599772404154464	pulse	3.0	t		31.0	female	west_asian	2.364902506963788	neutral	006	sub-07	1.0	2.0	006_neutral	1.0	trustworthiness	38.69177394963299	
2.0	20.007980947148553	face	0.0		146	21.0	male	east_asian/white	3.501790688420215	smiling	036	sub-07	1.0	2.0	036_smiling	0.0		39.09998249262708	1.2416301175107947
2.0	20.30808750064125	pulse	0.0	t		21.0	male	east_asian/white	3.501790688420215	smiling	036	sub-07	1.0	2.0	036_smiling	0.0		39.400089046119774	
2.0	21.00805520255699	pulse	0.0	t		21.0	male	east_asian/white	3.501790688420215	smiling	036	sub-07	1.0	2.0	036_smiling	0.0		40.10005674803551	
2.0	21.249611064659348	fix	1.0		444	21.0	male	east_asian/white	3.501790688420215	smiling	036	sub-07	1.0	2.0	036_smiling	0.0		40.34161261013787	3.758197827274671
2.0	21.708061843284668	pulse	1.0	t		21.0	male	east_asian/white	3.501790688420215	smiling	036	sub-07	1.0	2.0	036_smiling	0.0		40.80006338876319	
2.0	22.39971263760617	pulse	1.0	t		21.0	male	east_asian/white	3.501790688420215	smiling	036	sub-07	1.0	2.0	036_smiling	0.0		41.491714183084696	
2.0	23.10800358599272	pulse	1.0	t		21.0	male	east_asian/white	3.501790688420215	smiling	036	sub-07	1.0	2.0	036_smiling	0.0		42.200005131471244	
2.0	23.807958610155765	pulse	1.0	t		21.0	male	east_asian/white	3.501790688420215	smiling	036	sub-07	1.0	2.0	036_smiling	0.0		42.89996015563429	
2.0	24.507942310188355	pulse	1.0	t		21.0	male	east_asian/white	3.501790688420215	smiling	036	sub-07	1.0	2.0	036_smiling	0.0		43.59994385566688	
3.0	25.00780889193402	face	0.0		146	31.0	female	white	2.1822522881018704	smiling	102	sub-07	1.0	2.0	102_smiling	0.0		44.09981043741254	1.2416418897096264
3.0	25.199601556344987	pulse	0.0	t		31.0	female	white	2.1822522881018704	smiling	102	sub-07	1.0	2.0	102_smiling	0.0		44.29160310182351	
3.0	25.90789823990508	pulse	0.0	t		31.0	female	white	2.1822522881018704	smiling	102	sub-07	1.0	2.0	102_smiling	0.0		44.999899785383604	
3.0	26.249450781643645	fix	1.0		444	31.0	female	white	2.1822522881018704	smiling	102	sub-07	1.0	2.0	102_smiling	0.0		45.34145232712217	3.758197525423384
3.0	26.60788556215266	pulse	1.0	t		31.0	female	white	2.1822522881018704	smiling	102	sub-07	1.0	2.0	102_smiling	0.0		45.699887107631184	
3.0	27.30784481223327	pulse	1.0	t		31.0	female	white	2.1822522881018704	smiling	102	sub-07	1.0	2.0	102_smiling	0.0		46.399846357711795	
3.0	28.00782277709186	pulse	1.0	t		31.0	female	white	2.1822522881018704	smiling	102	sub-07	1.0	2.0	102_smiling	0.0		47.099824322570385	
3.0	28.707804062314153	pulse	1.0	t		31.0	female	white	2.1822522881018704	smiling	102	sub-07	1.0	2.0	102_smiling	0.0		47.79980560779268	
3.0	29.407771764229892	pulse	1.0	t		31.0	female	white	2.1822522881018704	smiling	102	sub-07	1.0	2.0	102_smiling	0.0		48.49977330970842	
4.0	30.00764830706703	face	0.0		146	31.0	female	east_asian	3.395941106247513	neutral	087	sub-07	1.0	2.0	087_neutral	0.0		49.099649852545554	1.241624986039369
4.0	30.107770858676304	pulse	0.0	t		31.0	female	east_asian	3.395941106247513	neutral	087	sub-07	1.0	2.0	087_neutral	0.0		49.19977240415483	
4.0	30.807762406840993	pulse	0.0	t		31.0	female	east_asian	3.395941106247513	neutral	087	sub-07	1.0	2.0	087_neutral	0.0		49.89976395231952	
4.0	31.2492732931064	fix	1.0		445	31.0	female	east_asian	3.395941106247513	neutral	087	sub-07	1.0	2.0	087_neutral	0.0		50.34127483858492	3.7581896772908294
4.0	31.507717129152752	pulse	1.0	t		31.0	female	east_asian	3.395941106247513	neutral	087	sub-07	1.0	2.0	087_neutral	0.0		50.599718674631276	
4.0	32.199586463782	pulse	1.0	t		31.0	female	east_asian	3.395941106247513	neutral	087	sub-07	1.0	2.0	087_neutral	0.0		51.29158800926052	
4.0	32.907670040357516	pulse	1.0	t		31.0	female	east_asian	3.395941106247513	neutral	087	sub-07	1.0	2.0	087_neutral	0.0		51.99967158583604	
4.0	33.607648608918225	pulse	1.0	t		31.0	female	east_asian	3.395941106247513	neutral	087	sub-07	1.0	2.0	087_neutral	0.0		52.69965015439675	
4.0	34.3076178200904	pulse	1.0	t		31.0	female	east_asian	3.395941106247513	neutral	087	sub-07	1.0	2.0	087_neutral	0.0		53.399619365568924	
5.0	35.00746297039723	face	0.0		148	28.0	male	white	3.9076800636689217	neutral	033	sub-07	1.0	2.0	033_neutral	0.0		54.09946451587575	1.2499811342968314
5.0	35.00162818566241	pulse	0.0	t		28.0	male	white	3.9076800636689217	neutral	033	sub-07	1.0	2.0	033_neutral	0.0		54.093629731140936	
5.0	35.707579484981125	pulse	0.0	t		28.0	male	white	3.9076800636689217	neutral	033	sub-07	1.0	2.0	033_neutral	0.0		54.79958103045965	
5.0	36.25744410469406	fix	1.0		443	28.0	male	white	3.9076800636689217	neutral	033	sub-07	1.0	2.0	033_neutral	0.0		55.349445650172584	3.758276610451958
5.0	36.399432821493974	pulse	1.0	t		28.0	male	white	3.9076800636689217	neutral	033	sub-07	1.0	2.0	033_neutral	0.0		55.4914343669725	
5.0	37.09938422344203	pulse	1.0	t		28.0	male	white	3.9076800636689217	neutral	033	sub-07	1.0	2.0	033_neutral	0.0		56.191385768920554	
5.0	37.79936460311092	pulse	1.0	t		28.0	male	white	3.9076800636689217	neutral	033	sub-07	1.0	2.0	033_neutral	0.0		56.89136614858944	
5.0	38.499348906845626	pulse	1.0	t		28.0	male	white	3.9076800636689217	neutral	033	sub-07	1.0	2.0	033_neutral	0.0		57.59135045232415	
5.0	39.19935101980445	pulse	1.0	t		28.0	male	white	3.9076800636689217	neutral	033	sub-07	1.0	2.0	033_neutral	0.0		58.29135256528298	
5.0	39.899316306909896	pulse	1.0	t		28.0	male	white	3.9076800636689217	neutral	033	sub-07	1.0	2.0	033_neutral	0.0		58.99131785238842	
6.0	40.01572071514602	face	0.0		147	31.0	female	white	2.1822522881018704	neutral	102	sub-07	1.0	2.0	102_neutral	0.0		59.10772226062454	1.24157035096232
6.0	40.60741557975052	pulse	0.0	t		31.0	female	white	2.1822522881018704	neutral	102	sub-07	1.0	2.0	102_neutral	0.0		59.69941712522905	
6.0	41.25729106610834	fix	1.0		444	31.0	female	white	2.1822522881018704	neutral	102	sub-07	1.0	2.0	102_neutral	0.0		60.34929261158686	3.766527714472886
6.0	41.299261369982105	pulse	1.0	t		31.0	female	white	2.1822522881018704	neutral	102	sub-07	1.0	2.0	102_neutral	0.0		60.39126291546063	
6.0	41.99924839037794	pulse	1.0	t		31.0	female	white	2.1822522881018704	neutral	102	sub-07	1.0	2.0	102_neutral	0.0		61.09124993585647	
6.0	42.699240844096494	pulse	1.0	t		31.0	female	white	2.1822522881018704	neutral	102	sub-07	1.0	2.0	102_neutral	0.0		61.79124238957502	
6.0	43.3992468811216	pulse	1.0	t		31.0	female	white	2.1822522881018704	neutral	102	sub-07	1.0	2.0	102_neutral	0.0		62.49124842660012	
6.0	44.0991677960933	pulse	1.0	t		31.0	female	white	2.1822522881018704	neutral	102	sub-07	1.0	2.0	102_neutral	0.0		63.19116934157182	
6.0	44.799137610968046	pulse	1.0	t		31.0	female	white	2.1822522881018704	neutral	102	sub-07	1.0	2.0	102_neutral	0.0		63.89113915644657	
7.0	45.02381878058122	face	0.0		145	19.0	female	white	4.298846000795861	neutral	100	sub-07	1.0	2.0	100_neutral	0.0		64.11582032605975	1.233297815502283
7.0	45.50726405042087	pulse	0.0	t		19.0	female	white	4.298846000795861	neutral	100	sub-07	1.0	2.0	100_neutral	0.0		64.5992655958994	
7.0	46.19905943149297	pulse	0.0	t		19.0	female	white	4.298846000795861	neutral	100	sub-07	1.0	2.0	100_neutral	0.0		65.2910609769715	
7.0	46.257116596083506	fix	1.0		445	19.0	female	white	4.298846000795861	neutral	100	sub-07	1.0	2.0	100_neutral	0.0		65.34911814156203	3.766540392225579
7.0	46.89921428118623	pulse	1.0	t		19.0	female	white	4.298846000795861	neutral	100	sub-07	1.0	2.0	100_neutral	0.0		65.99121582666476	
7.0	47.59907542960946	pulse	1.0	t		19.0	female	white	4.298846000795861	neutral	100	sub-07	1.0	2.0	100_neutral	0.0		66.69107697508798	
7.0	48.299021398235254	pulse	1.0	t		19.0	female	white	4.298846000795861	neutral	100	sub-07	1.0	2.0	100_neutral	0.0		67.39102294371378	
7.0	48.99900509826739	pulse	1.0	t		19.0	female	white	4.298846000795861	neutral	100	sub-07	1.0	2.0	100_neutral	0.0		68.09100664374591	
7.0	49.69897853535713	pulse	1.0	t		19.0	female	white	4.298846000795861	neutral	100	sub-07	1.0	2.0	100_neutral	0.0		68.79098008083565	
8.0	50.023656988309085	face	0.0		145	26.0	male	white	2.7966573816155993	smiling	117	sub-07	1.0	2.0	117_smiling	0.0		69.11565853378761	1.2332929858825992
8.0	50.398897639221104	pulse	0.0	t		26.0	male	white	2.7966573816155993	smiling	117	sub-07	1.0	2.0	117_smiling	0.0		69.49089918469963	
8.0	51.09886051151716	pulse	0.0	t		26.0	male	white	2.7966573816155993	smiling	117	sub-07	1.0	2.0	117_smiling	0.0		70.19086205699568	
8.0	51.256949974191684	fix	1.0		444	26.0	male	white	2.7966573816155993	smiling	117	sub-07	1.0	2.0	117_smiling	0.0		70.34895151967021	3.766542505184134
8.0	51.79892450398256	pulse	1.0	t		26.0	male	white	2.7966573816155993	smiling	117	sub-07	1.0	2.0	117_smiling	0.0		70.89092604946109	
8.0	52.49889522441117	pulse	1.0	t		26.0	male	white	2.7966573816155993	smiling	117	sub-07	1.0	2.0	117_smiling	0.0		71.5908967698897	
8.0	53.19887982999717	pulse	1.0	t		26.0	male	white	2.7966573816155993	smiling	117	sub-07	1.0	2.0	117_smiling	0.0		72.29088137547569	
8.0	53.89884360784663	pulse	1.0	t		26.0	male	white	2.7966573816155993	smiling	117	sub-07	1.0	2.0	117_smiling	0.0		72.99084515332515	
8.0	54.598824591217635	pulse	1.0	t		26.0	male	white	2.7966573816155993	smiling	117	sub-07	1.0	2.0	117_smiling	0.0		73.69082613669616	
9.0	55.02349247937582	face	0.0		145	25.0	female	west_asian	2.6756864305610826	smiling	064	sub-07	1.0	2.0	064_smiling	0.0		74.11549402485434	1.2333071728912728
9.0	55.29874761914789	pulse	0.0	t		25.0	female	west_asian	2.6756864305610826	smiling	064	sub-07	1.0	2.0	064_smiling	0.0		74.39074916462641	
9.0	55.99869932294769	pulse	0.0	t		25.0	female	west_asian	2.6756864305610826	smiling	064	sub-07	1.0	2.0	064_smiling	0.0		75.09070086842621	
9.0	56.25679965226709	fix	1.0		444	25.0	female	west_asian	2.6756864305610826	smiling	064	sub-07	1.0	2.0	064_smiling	0.0		75.34880119774562	3.7665301292831828
9.0	56.69875878764424	pulse	1.0	t		25.0	female	west_asian	2.6756864305610826	smiling	064	sub-07	1.0	2.0	064_smiling	0.0		75.79076033312276	
9.0	57.3987180377253	pulse	1.0	t		25.0	female	west_asian	2.6756864305610826	smiling	064	sub-07	1.0	2.0	064_smiling	0.0		76.49071958320383	
9.0	58.09870173775744	pulse	1.0	t		25.0	female	west_asian	2.6756864305610826	smiling	064	sub-07	1.0	2.0	064_smiling	0.0		77.19070328323596	
9.0	58.798696606286285	pulse	1.0	t		25.0	female	west_asian	2.6756864305610826	smiling	064	sub-07	1.0	2.0	064_smiling	0.0		77.89069815176481	
9.0	59.49866913782216	pulse	1.0	t		25.0	female	west_asian	2.6756864305610826	smiling	064	sub-07	1.0	2.0	064_smiling	0.0		78.59067068330069	
10.0	60.023329781550274	face	0.0		145	36.0	female	white	2.7548746518105847	neutral	011	sub-07	1.0	2.0	011_neutral	0.0		79.1153313270288	1.2332941932872927
10.0	60.19859518426483	pulse	0.0	t		36.0	female	white	2.7548746518105847	neutral	011	sub-07	1.0	2.0	011_neutral	0.0		79.29059672974336	
10.0	60.89854718991546	pulse	0.0	t		36.0	female	white	2.7548746518105847	neutral	011	sub-07	1.0	2.0	011_neutral	0.0		79.99054873539399	
10.0	61.25662397483757	fix	1.0		444	36.0	female	white	2.7548746518105847	neutral	011	sub-07	1.0	2.0	011_neutral	0.0		80.34862552031609	3.7665412977794404
10.0	61.59858341206609	pulse	1.0	t		36.0	female	white	2.7548746518105847	neutral	011	sub-07	1.0	2.0	011_neutral	0.0		80.69058495754462	
10.0	62.2985677158008	pulse	1.0	t		36.0	female	white	2.7548746518105847	neutral	011	sub-07	1.0	2.0	011_neutral	0.0		81.39056926127932	
10.0	62.99857073431349	pulse	1.0	t		36.0	female	white	2.7548746518105847	neutral	011	sub-07	1.0	2.0	011_neutral	0.0		82.09057227979201	
10.0	63.69852183441026	pulse	1.0	t		36.0	female	white	2.7548746518105847	neutral	011	sub-07	1.0	2.0	011_neutral	0.0		82.79052337988878	
10.0	64.39849617705386	pulse	1.0	t		36.0	female	white	2.7548746518105847	neutral	011	sub-07	1.0	2.0	011_neutral	0.0		83.49049772253238	
11.0	65.023165272617	face	0.0		145	22.0	female	west_asian	3.8205332272184642	smiling	066	sub-07	1.0	2.0	066_smiling	0.0		84.11516681809553	1.2333095877011147
11.0	65.09842675126538	pulse	0.0	t		22.0	female	west_asian	3.8205332272184642	smiling	066	sub-07	1.0	2.0	066_smiling	0.0		84.1904282967439	
11.0	65.79843973086918	pulse	0.0	t		22.0	female	west_asian	3.8205332272184642	smiling	066	sub-07	1.0	2.0	066_smiling	0.0		84.8904412763477	
11.0	66.25647486031812	fix	1.0		445	22.0	female	west_asian	3.8205332272184642	smiling	066	sub-07	1.0	2.0	066_smiling	0.0		85.34847640579665	3.7665198663403316
11.0	66.49844365493573	pulse	1.0	t		22.0	female	west_asian	3.8205332272184642	smiling	066	sub-07	1.0	2.0	066_smiling	0.0		85.59044520041425	
11.0	67.19840290501634	pulse	1.0	t		22.0	female	west_asian	3.8205332272184642	smiling	066	sub-07	1.0	2.0	066_smiling	0.0		86.29040445049486	
11.0	67.89838328468477	pulse	1.0	t		22.0	female	west_asian	3.8205332272184642	smiling	066	sub-07	1.0	2.0	066_smiling	0.0		86.9903848301633	
11.0	68.59836094769207	pulse	1.0	t		22.0	female	west_asian	3.8205332272184642	smiling	066	sub-07	1.0	2.0	066_smiling	0.0		87.6903624931706	
11.0	69.29833438478181	pulse	1.0	t		22.0	female	west_asian	3.8205332272184642	smiling	066	sub-07	1.0	2.0	066_smiling	0.0		88.39033593026033	
12.0	70.02299472665845	face	0.0		145	27.0	female	white	3.504576203740549	smiling	144	sub-07	1.0	2.0	144_smiling	1.0	trustworthiness	89.11499627213698	1.2333186432388175
12.0	70.00912586895402	pulse	0.0	t		27.0	female	white	3.504576203740549	smiling	144	sub-07	1.0	2.0	144_smiling	1.0	trustworthiness	89.10112741443254	
12.0	70.69824533866176	pulse	0.0	t		27.0	female	white	3.504576203740549	smiling	144	sub-07	1.0	2.0	144_smiling	1.0	trustworthiness	89.79024688414029	
12.0	71.25631336989727	fix	1.0		177	27.0	female	white	3.504576203740549	smiling	144	sub-07	1.0	2.0	144_smiling	1.0	trustworthiness	90.3483149153758	1.4999465723280991
12.0	71.39828397562223	pulse	1.0	t		27.0	female	white	3.504576203740549	smiling	144	sub-07	1.0	2.0	144_smiling	1.0	trustworthiness	90.49028552110076	
12.0	72.09825047013328	pulse	1.0	t		27.0	female	white	3.504576203740549	smiling	144	sub-07	1.0	2.0	144_smiling	1.0	trustworthiness	91.1902520156118	
12.0	72.75625994222537	rating	2.0		294	27.0	female	white	3.504576203740549	smiling	144	sub-07	1.0	2.0	144_smiling	1.0	trustworthiness	91.8482614877039	2.4999218205252873
12.0	72.8011195662998	pulse	2.0	t		27.0	female	white	3.504576203740549	smiling	144	sub-07	1.0	2.0	144_smiling	1.0	trustworthiness	91.89312111177833	
12.0	73.49807569825725	pulse	2.0	t		27.0	female	white	3.504576203740549	smiling	144	sub-07	1.0	2.0	144_smiling	1.0	trustworthiness	92.59007724373578	
12.0	74.20105376272659	pulse	2.0	t		27.0	female	white	3.504576203740549	smiling	144	sub-07	1.0	2.0	144_smiling	1.0	trustworthiness	93.29305530820511	
12.0	74.89798272807093	response	2.0	b		27.0	female	white	3.504576203740549	smiling	144	sub-07	1.0	2.0	144_smiling	1.0	trustworthiness	93.98998427354945	
12.0	74.89810829819271	pulse	2.0	t		27.0	female	white	3.504576203740549	smiling	144	sub-07	1.0	2.0	144_smiling	1.0	trustworthiness	93.99010984367123	
12.0	75.25618176275066	fix	3.0		444	27.0	female	white	3.504576203740549	smiling	144	sub-07	1.0	2.0	144_smiling	1.0	trustworthiness	94.34818330822918	3.766523488555322
12.0	75.59815025551688	pulse	3.0	t		27.0	female	white	3.504576203740549	smiling	144	sub-07	1.0	2.0	144_smiling	1.0	trustworthiness	94.69015180099541	
12.0	76.29796522069819	pulse	3.0	t		27.0	female	white	3.504576203740549	smiling	144	sub-07	1.0	2.0	144_smiling	1.0	trustworthiness	95.38996676617671	
12.0	76.9979051522987	pulse	3.0	t		27.0	female	white	3.504576203740549	smiling	144	sub-07	1.0	2.0	144_smiling	1.0	trustworthiness	96.08990669777722	
12.0	77.69786621348703	pulse	3.0	t		27.0	female	white	3.504576203740549	smiling	144	sub-07	1.0	2.0	144_smiling	1.0	trustworthiness	96.78986775896556	
12.0	78.39784930981705	pulse	3.0	t		27.0	female	white	3.504576203740549	smiling	144	sub-07	1.0	2.0	144_smiling	1.0	trustworthiness	97.48985085529557	
13.0	79.02270525130598	face	0.0		145	26.0	female	white	4.854755272582572	neutral	027	sub-07	1.0	2.0	027_neutral	0.0		98.1147067967845	1.2332972118001635
13.0	79.09785534684215	pulse	0.0	t		26.0	female	white	4.854755272582572	neutral	027	sub-07	1.0	2.0	027_neutral	0.0		98.18985689232068	
13.0	79.79780523953377	pulse	0.0	t		26.0	female	white	4.854755272582572	neutral	027	sub-07	1.0	2.0	027_neutral	0.0		98.8898067850123	
13.0	80.25600246310614	fix	1.0		444	26.0	female	white	4.854755272582572	neutral	027	sub-07	1.0	2.0	027_neutral	0.0		99.34800400858467	3.766543410737995
13.0	80.49779195807878	pulse	1.0	t		26.0	female	white	4.854755272582572	neutral	027	sub-07	1.0	2.0	027_neutral	0.0		99.5897935035573	
13.0	81.19775271741582	pulse	1.0	t		26.0	female	white	4.854755272582572	neutral	027	sub-07	1.0	2.0	027_neutral	0.0		100.28975426289435	
13.0	81.89774094521681	pulse	1.0	t		26.0	female	white	4.854755272582572	neutral	027	sub-07	1.0	2.0	027_neutral	0.0		100.98974249069533	
13.0	82.59771589156298	pulse	1.0	t		26.0	female	white	4.854755272582572	neutral	027	sub-07	1.0	2.0	027_neutral	0.0		101.68971743704151	
13.0	83.29780403212908	pulse	1.0	t		26.0	female	white	4.854755272582572	neutral	027	sub-07	1.0	2.0	027_neutral	0.0		102.3898055776076	
13.0	83.99766367129587	pulse	1.0	t		26.0	female	white	4.854755272582572	neutral	027	sub-07	1.0	2.0	027_neutral	0.0		103.08966521677439	
14.0	84.02254587384414	face	0.0		146	25.0	female	black	3.858336649423	smiling	126	sub-07	1.0	2.0	126_smiling	0.0		103.11454741932266	1.2332960043950152
14.0	84.69763529727788	pulse	0.0	t		25.0	female	black	3.858336649423	smiling	126	sub-07	1.0	2.0	126_smiling	0.0		103.78963684275641	
14.0	85.25584187823915	fix	1.0		443	25.0	female	black	3.858336649423	smiling	126	sub-07	1.0	2.0	126_smiling	0.0		104.34784342371768	3.7583387918102744
14.0	85.397643447262	pulse	1.0	t		25.0	female	black	3.858336649423	smiling	126	sub-07	1.0	2.0	126_smiling	0.0		104.48964499274052	
14.0	86.0975845862672	pulse	1.0	t		25.0	female	black	3.858336649423	smiling	126	sub-07	1.0	2.0	126_smiling	0.0		105.18958613174573	
14.0	86.79755862705952	pulse	1.0	t		25.0	female	black	3.858336649423	smiling	126	sub-07	1.0	2.0	126_smiling	0.0		105.88956017253804	
14.0	87.49753417710781	pulse	1.0	t		25.0	female	black	3.858336649423	smiling	126	sub-07	1.0	2.0	126_smiling	0.0		106.58953572258633	
14.0	88.19751968824767	pulse	1.0	t		25.0	female	black	3.858336649423	smiling	126	sub-07	1.0	2.0	126_smiling	0.0		107.28952123372619	
14.0	88.89751334937137	pulse	1.0	t		25.0	female	black	3.858336649423	smiling	126	sub-07	1.0	2.0	126_smiling	0.0		107.98951489484989	
15.0	89.01418067004943	face	0.0		147	30.0	female	black	2.7345801830481498	smiling	062	sub-07	1.0	2.0	062_smiling	0.0		108.10618221552795	1.2415075659014292
15.0	89.59747501426227	pulse	0.0	t		30.0	female	black	2.7345801830481498	smiling	062	sub-07	1.0	2.0	062_smiling	0.0		108.6894765597408	
15.0	90.25568823595086	fix	1.0		443	30.0	female	black	2.7345801830481498	smiling	062	sub-07	1.0	2.0	062_smiling	0.0		109.34768978142938	3.7581745847282946
15.0	90.29746565687356	pulse	1.0	t		30.0	female	black	2.7345801830481498	smiling	062	sub-07	1.0	2.0	062_smiling	0.0		109.38946720235208	
15.0	90.99742943472302	pulse	1.0	t		30.0	female	black	2.7345801830481498	smiling	062	sub-07	1.0	2.0	062_smiling	0.0		110.08943098020154	
15.0	91.69742037918559	pulse	1.0	t		30.0	female	black	2.7345801830481498	smiling	062	sub-07	1.0	2.0	062_smiling	0.0		110.78942192466411	
15.0	92.39743003842568	pulse	1.0	t		30.0	female	black	2.7345801830481498	smiling	062	sub-07	1.0	2.0	062_smiling	0.0		111.4894315839042	
15.0	93.09737872371215	pulse	1.0	t		30.0	female	black	2.7345801830481498	smiling	062	sub-07	1.0	2.0	062_smiling	0.0		112.18938026919068	
15.0	93.79733706823936	pulse	1.0	t		30.0	female	black	2.7345801830481498	smiling	062	sub-07	1.0	2.0	062_smiling	0.0		112.88933861371788	
16.0	94.01386282067915	face	0.0		146	32.0	male	white	2.389176283326701	smiling	092	sub-07	1.0	2.0	092_smiling	0.0		113.10586436615768	1.241640078601904
16.0	94.49733133306563	pulse	0.0	t		32.0	male	white	2.389176283326701	smiling	092	sub-07	1.0	2.0	092_smiling	0.0		113.58933287854416	
16.0	95.19729994053523	pulse	0.0	t		32.0	male	white	2.389176283326701	smiling	092	sub-07	1.0	2.0	092_smiling	0.0		114.28930148601376	
16.0	95.25550289928105	fix	1.0		444	32.0	male	white	2.389176283326701	smiling	092	sub-07	1.0	2.0	092_smiling	0.0		114.34750444475958	3.758270875277958
16.0	95.89728997944394	pulse	1.0	t		32.0	male	white	2.389176283326701	smiling	092	sub-07	1.0	2.0	092_smiling	0.0		114.98929152492246	
16.0	96.59723806102829	pulse	1.0	t		32.0	male	white	2.389176283326701	smiling	092	sub-07	1.0	2.0	092_smiling	0.0		115.68923960650682	
16.0	97.29721361107659	pulse	1.0	t		32.0	male	white	2.389176283326701	smiling	092	sub-07	1.0	2.0	092_smiling	0.0		116.38921515655511	
16.0	97.99720878145672	pulse	1.0	t		32.0	male	white	2.389176283326701	smiling	092	sub-07	1.0	2.0	092_smiling	0.0		117.08921032693524	
16.0	98.69717738892632	pulse	1.0	t		32.0	male	white	2.389176283326701	smiling	092	sub-07	1.0	2.0	092_smiling	0.0		117.78917893440484	
17.0	99.01377377455901	face	0.0		146	24.0	female	east_asian	4.409868682849185	neutral	030	sub-07	1.0	2.0	030_neutral	0.0		118.10577532003754	1.2415860472278837
17.0	99.39718885927368	pulse	0.0	t		24.0	female	east_asian	4.409868682849185	neutral	030	sub-07	1.0	2.0	030_neutral	0.0		118.48919040475221	
17.0	100.09711158535265	pulse	0.0	t		24.0	female	east_asian	4.409868682849185	neutral	030	sub-07	1.0	2.0	030_neutral	0.0		119.18911313083117	
17.0	100.2553598217869	fix	1.0		444	24.0	female	east_asian	4.409868682849185	neutral	030	sub-07	1.0	2.0	030_neutral	0.0		119.34736136726542	3.766529525580154
17.0	100.79712124459274	pulse	1.0	t		24.0	female	east_asian	4.409868682849185	neutral	030	sub-07	1.0	2.0	030_neutral	0.0		119.88912279007127	
17.0	101.49708683354993	pulse	1.0	t		24.0	female	east_asian	4.409868682849185	neutral	030	sub-07	1.0	2.0	030_neutral	0.0		120.58908837902845	
17.0	102.19704608363054	pulse	1.0	t		24.0	female	east_asian	4.409868682849185	neutral	030	sub-07	1.0	2.0	030_neutral	0.0		121.28904762910906	
17.0	102.89708260763246	pulse	1.0	t		24.0	female	east_asian	4.409868682849185	neutral	030	sub-07	1.0	2.0	030_neutral	0.0		121.98908415311098	
17.0	103.59702193553039	pulse	1.0	t		24.0	female	east_asian	4.409868682849185	neutral	030	sub-07	1.0	2.0	030_neutral	0.0		122.68902348100892	
18.0	104.02188934736705	face	0.0		145	23.0	male	white	2.6275368085953046	neutral	141	sub-07	1.0	2.0	141_neutral	0.0		123.11389089284557	1.2333071728917275
18.0	104.29699658002528	pulse	0.0	t		23.0	male	white	2.6275368085953046	neutral	141	sub-07	1.0	2.0	141_neutral	0.0		123.3889981255038	
18.0	104.99696337638716	pulse	0.0	t		23.0	male	white	2.6275368085953046	neutral	141	sub-07	1.0	2.0	141_neutral	0.0		124.08896492186568	
18.0	105.25519652025878	fix	1.0		444	23.0	male	white	2.6275368085953046	neutral	141	sub-07	1.0	2.0	141_neutral	0.0		124.3471980657373	3.766529223728867
18.0	105.69694979308088	pulse	1.0	t		23.0	male	white	2.6275368085953046	neutral	141	sub-07	1.0	2.0	141_neutral	0.0		124.7889513385594	
18.0	106.39695371714697	pulse	1.0	t		23.0	male	white	2.6275368085953046	neutral	141	sub-07	1.0	2.0	141_neutral	0.0		125.4889552626255	
18.0	107.09692202276528	pulse	1.0	t		23.0	male	white	2.6275368085953046	neutral	141	sub-07	1.0	2.0	141_neutral	0.0		126.18892356824381	
18.0	107.79686587843207	pulse	1.0	t		23.0	male	white	2.6275368085953046	neutral	141	sub-07	1.0	2.0	141_neutral	0.0		126.8888674239106	
18.0	108.49687433026747	pulse	1.0	t		23.0	male	white	2.6275368085953046	neutral	141	sub-07	1.0	2.0	141_neutral	0.0		127.588875875746	
19.0	109.02172574398764	face	0.0		145	31.0	female	east_asian	3.395941106247513	smiling	087	sub-07	1.0	2.0	087_smiling	0.0		128.11372728946617	1.2333062673374116
19.0	109.19684867291062	pulse	0.0	t		31.0	female	east_asian	3.395941106247513	smiling	087	sub-07	1.0	2.0	087_smiling	0.0		128.28885021838914	
19.0	109.89682029889309	pulse	0.0	t		31.0	female	east_asian	3.395941106247513	smiling	087	sub-07	1.0	2.0	087_smiling	0.0		128.9888218443716	
19.0	110.25503201132506	fix	1.0		444	31.0	female	east_asian	3.395941106247513	smiling	087	sub-07	1.0	2.0	087_smiling	0.0		129.34703355680358	3.758195714316116
19.0	110.59680339522265	pulse	1.0	t		31.0	female	east_asian	3.395941106247513	smiling	087	sub-07	1.0	2.0	087_smiling	0.0		129.68880494070117	
19.0	111.29676445641098	pulse	1.0	t		31.0	female	east_asian	3.395941106247513	smiling	087	sub-07	1.0	2.0	087_smiling	0.0		130.3887660018895	
19.0	111.99673638424429	pulse	1.0	t		31.0	female	east_asian	3.395941106247513	smiling	087	sub-07	1.0	2.0	087_smiling	0.0		131.0887379297228	
19.0	112.69671434910288	pulse	1.0	t		31.0	female	east_asian	3.395941106247513	smiling	087	sub-07	1.0	2.0	087_smiling	0.0		131.7887158945814	
19.0	113.39671917872283	pulse	1.0	t		31.0	female	east_asian	3.395941106247513	smiling	087	sub-07	1.0	2.0	087_smiling	0.0		132.48872072420136	
20.0	114.01322772564117	face	0.0		146	21.0	male	black	2.969757262236371	smiling	137	sub-07	1.0	2.0	137_smiling	0.0		133.1052292711197	1.2416292119569334
20.0	114.09668023991117	pulse	0.0	t		21.0	male	black	2.969757262236371	smiling	137	sub-07	1.0	2.0	137_smiling	0.0		133.1886817853897	
20.0	114.79665307329833	pulse	0.0	t		21.0	male	black	2.969757262236371	smiling	137	sub-07	1.0	2.0	137_smiling	0.0		133.88865461877685	
20.0	115.2548569375981	fix	1.0		1185	21.0	male	black	2.969757262236371	smiling	137	sub-07	1.0	2.0	137_smiling	0.0		134.34685848307663	10.016336491703441
20.0	115.4966201715115	pulse	1.0	t		21.0	male	black	2.969757262236371	smiling	137	sub-07	1.0	2.0	137_smiling	0.0		134.58862171699002	
20.0	116.19659843822137	pulse	1.0	t		21.0	male	black	2.969757262236371	smiling	137	sub-07	1.0	2.0	137_smiling	0.0		135.2885999836999	
20.0	116.8965779123364	pulse	1.0	t		21.0	male	black	2.969757262236371	smiling	137	sub-07	1.0	2.0	137_smiling	0.0		135.98857945781492	
20.0	117.59656644198867	pulse	1.0	t		21.0	male	black	2.969757262236371	smiling	137	sub-07	1.0	2.0	137_smiling	0.0		136.6885679874672	
20.0	118.29653655871425	pulse	1.0	t		21.0	male	black	2.969757262236371	smiling	137	sub-07	1.0	2.0	137_smiling	0.0		137.38853810419278	
20.0	118.99651241061429	pulse	1.0	t		21.0	male	black	2.969757262236371	smiling	137	sub-07	1.0	2.0	137_smiling	0.0		138.0885139560928	
20.0	119.69649912915884	pulse	1.0	t		21.0	male	black	2.969757262236371	smiling	137	sub-07	1.0	2.0	137_smiling	0.0		138.78850067463736	
20.0	120.39647890512515	pulse	1.0	t		21.0	male	black	2.969757262236371	smiling	137	sub-07	1.0	2.0	137_smiling	0.0		139.48848045060367	
20.0	121.09646471811584	pulse	1.0	t		21.0	male	black	2.969757262236371	smiling	137	sub-07	1.0	2.0	137_smiling	0.0		140.18846626359436	
20.0	121.7963968015838	pulse	1.0	t		21.0	male	black	2.969757262236371	smiling	137	sub-07	1.0	2.0	137_smiling	0.0		140.88839834706232	
20.0	122.49640646082389	pulse	1.0	t		21.0	male	black	2.969757262236371	smiling	137	sub-07	1.0	2.0	137_smiling	0.0		141.58840800630242	
20.0	123.19638834974876	pulse	1.0	t		21.0	male	black	2.969757262236371	smiling	137	sub-07	1.0	2.0	137_smiling	0.0		142.28838989522728	
20.0	123.8963491090858	pulse	1.0	t		21.0	male	black	2.969757262236371	smiling	137	sub-07	1.0	2.0	137_smiling	0.0		142.98835065456433	
20.0	124.59632918690295	pulse	1.0	t		21.0	male	black	2.969757262236371	smiling	137	sub-07	1.0	2.0	137_smiling	0.0		143.68833073238147	
21.0	125.27119342930155	face	0.0		145	19.0	male	white	3.2522881018702745	neutral	018	sub-07	1.0	2.0	018_neutral	0.0		144.36319497478007	1.2333071728917275
21.0	125.2963240554318	pulse	0.0	t		19.0	male	white	3.2522881018702745	neutral	018	sub-07	1.0	2.0	018_neutral	0.0		144.38832560091032	
21.0	125.99629024809155	pulse	0.0	t		19.0	male	white	3.2522881018702745	neutral	018	sub-07	1.0	2.0	018_neutral	0.0		145.08829179357008	
21.0	126.50450060219327	fix	1.0		443	19.0	male	white	3.2522881018702745	neutral	018	sub-07	1.0	2.0	018_neutral	0.0		145.5965021476718	3.7582518586486913
21.0	126.69626428888341	pulse	1.0	t		19.0	male	white	3.2522881018702745	neutral	018	sub-07	1.0	2.0	018_neutral	0.0		145.78826583436194	
21.0	127.3962356130146	pulse	1.0	t		19.0	male	white	3.2522881018702745	neutral	018	sub-07	1.0	2.0	018_neutral	0.0		146.48823715849312	
21.0	128.09623108524556	pulse	1.0	t		19.0	male	white	3.2522881018702745	neutral	018	sub-07	1.0	2.0	018_neutral	0.0		147.1882326307241	
21.0	128.79618912792148	pulse	1.0	t		19.0	male	white	3.2522881018702745	neutral	018	sub-07	1.0	2.0	018_neutral	0.0		147.8881906734	
21.0	129.4961604520522	pulse	1.0	t		19.0	male	white	3.2522881018702745	neutral	018	sub-07	1.0	2.0	018_neutral	0.0		148.58816199753073	
21.0	130.19615260391947	pulse	1.0	t		19.0	male	white	3.2522881018702745	neutral	018	sub-07	1.0	2.0	018_neutral	0.0		149.288154149398	
22.0	130.26275246084197	face	0.0		147	22.0	male	black	2.767608436132113	smiling	044	sub-07	1.0	2.0	044_smiling	0.0		149.3547540063205	1.241586952781745
22.0	130.89615411317573	pulse	0.0	t		22.0	male	black	2.767608436132113	smiling	044	sub-07	1.0	2.0	044_smiling	0.0		149.98815565865425	
22.0	131.5043394136237	fix	1.0		443	22.0	male	black	2.767608436132113	smiling	044	sub-07	1.0	2.0	044_smiling	0.0		150.59634095910224	3.758270271575384
22.0	131.5961061188268	pulse	1.0	t		22.0	male	black	2.767608436132113	smiling	044	sub-07	1.0	2.0	044_smiling	0.0		150.68810766430533	
22.0	132.29611064659548	pulse	1.0	t		22.0	male	black	2.767608436132113	smiling	044	sub-07	1.0	2.0	044_smiling	0.0		151.388112192074	
22.0	132.99606536890724	pulse	1.0	t		22.0	male	black	2.767608436132113	smiling	044	sub-07	1.0	2.0	044_smiling	0.0		152.08806691438576	
22.0	133.69604544672438	pulse	1.0	t		22.0	male	black	2.767608436132113	smiling	044	sub-07	1.0	2.0	044_smiling	0.0		152.7880469922029	
22.0	134.39602341158297	pulse	1.0	t		22.0	male	black	2.767608436132113	smiling	044	sub-07	1.0	2.0	044_smiling	0.0		153.4880249570615	
22.0	135.09599775422657	pulse	1.0	t		22.0	male	black	2.767608436132113	smiling	044	sub-07	1.0	2.0	044_smiling	0.0		154.1879992997051	
23.0	135.2626096851991	face	0.0		147	27.0	male	black	3.5523278949462798	smiling	042	sub-07	1.0	2.0	042_smiling	0.0		154.35461123067762	1.249896615945545
23.0	135.7959660598449	pulse	0.0	t		27.0	male	black	3.5523278949462798	smiling	042	sub-07	1.0	2.0	042_smiling	0.0		154.8879676053234	
23.0	136.49594945802573	pulse	0.0	t		27.0	male	black	3.5523278949462798	smiling	042	sub-07	1.0	2.0	042_smiling	0.0		155.58795100350426	
23.0	136.51250630114464	fix	1.0		444	27.0	male	black	3.5523278949462798	smiling	042	sub-07	1.0	2.0	042_smiling	0.0		155.60450784662316	3.758195714316116
23.0	137.19592681918175	pulse	1.0	t		27.0	male	black	3.5523278949462798	smiling	042	sub-07	1.0	2.0	042_smiling	0.0		156.28792836466027	
23.0	137.89588667296493	pulse	1.0	t		27.0	male	black	3.5523278949462798	smiling	042	sub-07	1.0	2.0	042_smiling	0.0		156.98788821844346	
23.0	138.59588848407247	pulse	1.0	t		27.0	male	black	3.5523278949462798	smiling	042	sub-07	1.0	2.0	042_smiling	0.0		157.687890029551	
23.0	139.29585980820366	pulse	1.0	t		27.0	male	black	3.5523278949462798	smiling	042	sub-07	1.0	2.0	042_smiling	0.0		158.38786135368218	
23.0	139.99583173603696	pulse	1.0	t		27.0	male	black	3.5523278949462798	smiling	042	sub-07	1.0	2.0	042_smiling	0.0		159.0878332815155	
24.0	140.27070201546076	face	0.0		145	40.0	male	white	1.868682849184242	smiling	172	sub-07	1.0	2.0	172_smiling	0.0		159.36270356093928	1.2333053617835503
24.0	140.69581271940797	pulse	0.0	t		40.0	male	white	1.868682849184242	smiling	172	sub-07	1.0	2.0	172_smiling	0.0		159.7878142648865	
24.0	141.3957804213237	pulse	0.0	t		40.0	male	white	1.868682849184242	smiling	172	sub-07	1.0	2.0	172_smiling	0.0		160.48778196680223	
24.0	141.5040073772443	fix	1.0		445	40.0	male	white	1.868682849184242	smiling	172	sub-07	1.0	2.0	172_smiling	0.0		160.59600892272283	3.7665325440930246
24.0	142.09576291395115	pulse	1.0	t		40.0	male	white	1.868682849184242	smiling	172	sub-07	1.0	2.0	172_smiling	0.0		161.18776445942967	
24.0	142.7957327288259	pulse	1.0	t		40.0	male	white	1.868682849184242	smiling	172	sub-07	1.0	2.0	172_smiling	0.0		161.88773427430442	
24.0	143.4957203529243	pulse	1.0	t		40.0	male	white	1.868682849184242	smiling	172	sub-07	1.0	2.0	172_smiling	0.0		162.58772189840283	
24.0	144.19570888257658	pulse	1.0	t		40.0	male	white	1.868682849184242	smiling	172	sub-07	1.0	2.0	172_smiling	0.0		163.2877104280551	
24.0	144.8956771881949	pulse	1.0	t		40.0	male	white	1.868682849184242	smiling	172	sub-07	1.0	2.0	172_smiling	0.0		163.98767873367342	
25.0	145.27053992133733	face	0.0		145	28.0	male	east_asian	1.5563072025467568	neutral	005	sub-07	1.0	2.0	005_neutral	1.0	dominance	164.36254146681586	1.2333062673374116
25.0	145.59565243639236	pulse	0.0	t		28.0	male	east_asian	1.5563072025467568	neutral	005	sub-07	1.0	2.0	005_neutral	1.0	dominance	164.68765398187088	
25.0	146.29563009939966	pulse	0.0	t		28.0	male	east_asian	1.5563072025467568	neutral	005	sub-07	1.0	2.0	005_neutral	1.0	dominance	165.38763164487818	
25.0	146.50384618867474	fix	1.0		177	28.0	male	east_asian	1.5563072025467568	neutral	005	sub-07	1.0	2.0	005_neutral	1.0	dominance	165.59584773415327	1.4999447612208314
25.0	146.9955978013154	pulse	1.0	t		28.0	male	east_asian	1.5563072025467568	neutral	005	sub-07	1.0	2.0	005_neutral	1.0	dominance	166.08759934679392	
25.0	147.69557365321498	pulse	1.0	t		28.0	male	east_asian	1.5563072025467568	neutral	005	sub-07	1.0	2.0	005_neutral	1.0	dominance	166.7875751986935	
25.0	148.00379094989557	rating	2.0		295	28.0	male	east_asian	1.5563072025467568	neutral	005	sub-07	1.0	2.0	005_neutral	1.0	dominance	167.0957924953741	2.5082369170118
25.0	148.3955540328834	pulse	2.0	t		28.0	male	east_asian	1.5563072025467568	neutral	005	sub-07	1.0	2.0	005_neutral	1.0	dominance	167.48755557836193	
25.0	149.09555644769353	pulse	2.0	t		28.0	male	east_asian	1.5563072025467568	neutral	005	sub-07	1.0	2.0	005_neutral	1.0	dominance	168.18755799317205	
25.0	149.795510868154	pulse	2.0	t		28.0	male	east_asian	1.5563072025467568	neutral	005	sub-07	1.0	2.0	005_neutral	1.0	dominance	168.88751241363252	
25.0	150.03715939859148	response	2.0	n		28.0	male	east_asian	1.5563072025467568	neutral	005	sub-07	1.0	2.0	005_neutral	1.0	dominance	169.12916094407	
25.0	150.49555856065217	pulse	2.0	t		28.0	male	east_asian	1.5563072025467568	neutral	005	sub-07	1.0	2.0	005_neutral	1.0	dominance	169.5875601061307	
25.0	150.51202786690737	fix	3.0		443	28.0	male	east_asian	1.5563072025467568	neutral	005	sub-07	1.0	2.0	005_neutral	1.0	dominance	169.6040294123859	3.7500067916535045
25.0	151.1954722311939	pulse	3.0	t		28.0	male	east_asian	1.5563072025467568	neutral	005	sub-07	1.0	2.0	005_neutral	1.0	dominance	170.2874737766724	
25.0	151.89544898864733	pulse	3.0	t		28.0	male	east_asian	1.5563072025467568	neutral	005	sub-07	1.0	2.0	005_neutral	1.0	dominance	170.98745053412586	
25.0	152.59540884243052	pulse	3.0	t		28.0	male	east_asian	1.5563072025467568	neutral	005	sub-07	1.0	2.0	005_neutral	1.0	dominance	171.68741038790904	
25.0	153.29539224061136	pulse	3.0	t		28.0	male	east_asian	1.5563072025467568	neutral	005	sub-07	1.0	2.0	005_neutral	1.0	dominance	172.3873937860899	
25.0	153.9953747332388	pulse	3.0	t		28.0	male	east_asian	1.5563072025467568	neutral	005	sub-07	1.0	2.0	005_neutral	1.0	dominance	173.08737627871733	
26.0	154.26203465856088	face	0.0		146	40.0	male	black	2.408674890569041	smiling	061	sub-07	1.0	2.0	061_smiling	0.0		173.3540362040394	1.241516621439132
26.0	154.6953596406761	pulse	0.0	t		40.0	male	black	2.408674890569041	smiling	061	sub-07	1.0	2.0	061_smiling	0.0		173.7873611861546	
26.0	155.3953303611047	pulse	0.0	t		40.0	male	black	2.408674890569041	smiling	061	sub-07	1.0	2.0	061_smiling	0.0		174.48733190658322	
26.0	155.50355128	fix	1.0		444	40.0	male	black	2.408674890569041	smiling	061	sub-07	1.0	2.0	061_smiling	0.0		174.59555282547853	3.7665298274318957
26.0	156.09530047783028	pulse	1.0	t		40.0	male	black	2.408674890569041	smiling	061	sub-07	1.0	2.0	061_smiling	0.0		175.1873020233088	
26.0	156.79527300936616	pulse	1.0	t		40.0	male	black	2.408674890569041	smiling	061	sub-07	1.0	2.0	061_smiling	0.0		175.88727455484468	
26.0	157.49525127607603	pulse	1.0	t		40.0	male	black	2.408674890569041	smiling	061	sub-07	1.0	2.0	061_smiling	0.0		176.58725282155456	
26.0	158.19523890017445	pulse	1.0	t		40.0	male	black	2.408674890569041	smiling	061	sub-07	1.0	2.0	061_smiling	0.0		177.28724044565297	
26.0	158.89520720579276	pulse	1.0	t		40.0	male	black	2.408674890569041	smiling	061	sub-07	1.0	2.0	061_smiling	0.0		177.98720875127128	
27.0	159.2700811074319	face	0.0		145	22.0	male	black	2.767608436132113	neutral	044	sub-07	1.0	2.0	044_neutral	0.0		178.36208265291043	1.233295400692441
27.0	159.59520690394174	pulse	0.0	t		22.0	male	black	2.767608436132113	neutral	044	sub-07	1.0	2.0	044_neutral	0.0		178.68720844942027	
27.0	160.29515317441837	pulse	0.0	t		22.0	male	black	2.767608436132113	neutral	044	sub-07	1.0	2.0	044_neutral	0.0		179.3871547198969	
27.0	160.50337650812435	fix	1.0		444	22.0	male	black	2.767608436132113	neutral	044	sub-07	1.0	2.0	044_neutral	0.0		179.59537805360287	3.7582747993442354
27.0	160.99514019481467	pulse	1.0	t		22.0	male	black	2.767608436132113	neutral	044	sub-07	1.0	2.0	044_neutral	0.0		180.0871417402932	
27.0	161.69512480040066	pulse	1.0	t		22.0	male	black	2.767608436132113	neutral	044	sub-07	1.0	2.0	044_neutral	0.0		180.7871263458792	
27.0	162.39512721521078	pulse	1.0	t		22.0	male	black	2.767608436132113	neutral	044	sub-07	1.0	2.0	044_neutral	0.0		181.4871287606893	
27.0	163.09508193752254	pulse	1.0	t		22.0	male	black	2.767608436132113	neutral	044	sub-07	1.0	2.0	044_neutral	0.0		182.18708348300106	
27.0	163.79503605613218	pulse	1.0	t		22.0	male	black	2.767608436132113	neutral	044	sub-07	1.0	2.0	044_neutral	0.0		182.8870376016107	
28.0	164.26165130746858	face	0.0		146	31.0	male	west_asian	1.9538400318344609	smiling	070	sub-07	1.0	2.0	070_smiling	1.0	attractiveness	183.3536528529471	1.2415748787311713
28.0	164.49502971725587	pulse	0.0	t		31.0	male	west_asian	1.9538400318344609	smiling	070	sub-07	1.0	2.0	070_smiling	1.0	attractiveness	183.5870312627344	
28.0	165.1949953062126	pulse	0.0	t		31.0	male	west_asian	1.9538400318344609	smiling	070	sub-07	1.0	2.0	070_smiling	1.0	attractiveness	184.28699685169113	
28.0	165.50322618619975	fix	1.0		177	31.0	male	west_asian	1.9538400318344609	smiling	070	sub-07	1.0	2.0	070_smiling	1.0	attractiveness	184.59522773167828	1.4999408371540994
28.0	165.89499409880773	pulse	1.0	t		31.0	male	west_asian	1.9538400318344609	smiling	070	sub-07	1.0	2.0	070_smiling	1.0	attractiveness	184.98699564428625	
28.0	166.59496300812862	pulse	1.0	t		31.0	male	west_asian	1.9538400318344609	smiling	070	sub-07	1.0	2.0	070_smiling	1.0	attractiveness	185.68696455360714	
28.0	167.00316702335385	rating	2.0		295	31.0	male	west_asian	1.9538400318344609	smiling	070	sub-07	1.0	2.0	070_smiling	1.0	attractiveness	186.09516856883238	2.499913972392733
28.0	167.29494972667362	pulse	2.0	t		31.0	male	west_asian	1.9538400318344609	smiling	070	sub-07	1.0	2.0	070_smiling	1.0	attractiveness	186.38695127215215	
28.0	167.99491561748164	pulse	2.0	t		31.0	male	west_asian	1.9538400318344609	smiling	070	sub-07	1.0	2.0	070_smiling	1.0	attractiveness	187.08691716296016	
28.0	168.69490143047278	pulse	2.0	t		31.0	male	west_asian	1.9538400318344609	smiling	070	sub-07	1.0	2.0	070_smiling	1.0	attractiveness	187.7869029759513	
28.0	169.39488935642294	pulse	2.0	t		31.0	male	west_asian	1.9538400318344609	smiling	070	sub-07	1.0	2.0	070_smiling	1.0	attractiveness	188.48689090190146	
28.0	169.5030809957466	fix	3.0		443	31.0	male	west_asian	1.9538400318344609	smiling	070	sub-07	1.0	2.0	070_smiling	1.0	attractiveness	188.5950825412251	3.7665422033333016
28.0	169.6781861154459	response	3.0	n		31.0	male	west_asian	1.9538400318344609	smiling	070	sub-07	1.0	2.0	070_smiling	1.0	attractiveness	188.77018766092442	
28.0	170.09481691212204	pulse	3.0	t		31.0	male	west_asian	1.9538400318344609	smiling	070	sub-07	1.0	2.0	070_smiling	1.0	attractiveness	189.18681845760057	
28.0	170.79479759364176	pulse	3.0	t		31.0	male	west_asian	1.9538400318344609	smiling	070	sub-07	1.0	2.0	070_smiling	1.0	attractiveness	189.88679913912028	
28.0	171.49481389360926	pulse	3.0	t		31.0	male	west_asian	1.9538400318344609	smiling	070	sub-07	1.0	2.0	070_smiling	1.0	attractiveness	190.5868154390878	
28.0	172.19477344554116	pulse	3.0	t		31.0	male	west_asian	1.9538400318344609	smiling	070	sub-07	1.0	2.0	070_smiling	1.0	attractiveness	191.28677499101968	
28.0	172.8947435622672	pulse	3.0	t		31.0	male	west_asian	1.9538400318344609	smiling	070	sub-07	1.0	2.0	070_smiling	1.0	attractiveness	191.98674510774572	
29.0	173.2696231990799	face	0.0		145	40.0	male	white	1.868682849184242	neutral	172	sub-07	1.0	2.0	172_neutral	1.0	dominance	192.3616247445584	1.2332957025437281
29.0	173.59473782709347	pulse	0.0	t		40.0	male	white	1.868682849184242	neutral	172	sub-07	1.0	2.0	172_neutral	1.0	dominance	192.686739372572	
29.0	174.29470039753778	pulse	0.0	t		40.0	male	white	1.868682849184242	neutral	172	sub-07	1.0	2.0	172_neutral	1.0	dominance	193.3867019430163	
29.0	174.50291890162362	fix	1.0		177	40.0	male	white	1.868682849184242	neutral	172	sub-07	1.0	2.0	172_neutral	1.0	dominance	193.59492044710214	1.4999634759983564
29.0	174.9946904364465	pulse	1.0	t		40.0	male	white	1.868682849184242	neutral	172	sub-07	1.0	2.0	172_neutral	1.0	dominance	194.08669198192501	
29.0	175.69466025132124	pulse	1.0	t		40.0	male	white	1.868682849184242	neutral	172	sub-07	1.0	2.0	172_neutral	1.0	dominance	194.78666179679976	
29.0	176.00288237762197	rating	2.0		295	40.0	male	white	1.868682849184242	neutral	172	sub-07	1.0	2.0	172_neutral	1.0	dominance	195.0948839231005	2.508252009574335
29.0	176.39468047535502	pulse	2.0	t		40.0	male	white	1.868682849184242	neutral	172	sub-07	1.0	2.0	172_neutral	1.0	dominance	195.48668202083354	
29.0	177.0946234254684	pulse	2.0	t		40.0	male	white	1.868682849184242	neutral	172	sub-07	1.0	2.0	172_neutral	1.0	dominance	196.18662497094692	
29.0	177.54460727642618	response	2.0	y		40.0	male	white	1.868682849184242	neutral	172	sub-07	1.0	2.0	172_neutral	1.0	dominance	196.6366088219047	
29.0	177.794582675549	pulse	2.0	t		40.0	male	white	1.868682849184242	neutral	172	sub-07	1.0	2.0	172_neutral	1.0	dominance	196.88658422102753	
29.0	178.49457694037528	pulse	2.0	t		40.0	male	white	1.868682849184242	neutral	172	sub-07	1.0	2.0	172_neutral	1.0	dominance	197.5865784858538	
29.0	178.5111343871963	fix	3.0		443	40.0	male	white	1.868682849184242	neutral	172	sub-07	1.0	2.0	172_neutral	1.0	dominance	197.60313593267483	3.7498606956464755
29.0	179.19455460338258	pulse	3.0	t		40.0	male	white	1.868682849184242	neutral	172	sub-07	1.0	2.0	172_neutral	1.0	dominance	198.2865561488611	
29.0	179.89451596642175	pulse	3.0	t		40.0	male	white	1.868682849184242	neutral	172	sub-07	1.0	2.0	172_neutral	1.0	dominance	198.98651751190027	
29.0	180.59449061091664	pulse	3.0	t		40.0	male	white	1.868682849184242	neutral	172	sub-07	1.0	2.0	172_neutral	1.0	dominance	199.68649215639516	
29.0	181.29446223689865	pulse	3.0	t		40.0	male	white	1.868682849184242	neutral	172	sub-07	1.0	2.0	172_neutral	1.0	dominance	200.38646378237718	
29.0	181.9944664628165	pulse	3.0	t		40.0	male	white	1.868682849184242	neutral	172	sub-07	1.0	2.0	172_neutral	1.0	dominance	201.08646800829501	
30.0	182.26099508284278	face	0.0		146	28.0	female	white	5.676880222841227	neutral	124	sub-07	1.0	2.0	124_neutral	0.0		201.3529966283213	1.2416385693459233
30.0	182.6944417110135	pulse	0.0	t		28.0	female	white	5.676880222841227	neutral	124	sub-07	1.0	2.0	124_neutral	0.0		201.78644325649202	
30.0	183.39443567398848	pulse	0.0	t		28.0	female	white	5.676880222841227	neutral	124	sub-07	1.0	2.0	124_neutral	0.0		202.486437219467	
30.0	183.5026336521887	fix	1.0		444	28.0	female	white	5.676880222841227	neutral	124	sub-07	1.0	2.0	124_neutral	0.0		202.59463519766723	3.758178810645859
30.0	184.09438103891125	pulse	1.0	t		28.0	female	white	5.676880222841227	neutral	124	sub-07	1.0	2.0	124_neutral	0.0		203.18638258438978	
30.0	184.79435598525743	pulse	1.0	t		28.0	female	white	5.676880222841227	neutral	124	sub-07	1.0	2.0	124_neutral	0.0		203.88635753073595	
30.0	185.4943408926947	pulse	1.0	t		28.0	female	white	5.676880222841227	neutral	124	sub-07	1.0	2.0	124_neutral	0.0		204.58634243817323	
30.0	186.194322177917	pulse	1.0	t		28.0	female	white	5.676880222841227	neutral	124	sub-07	1.0	2.0	124_neutral	0.0		205.28632372339553	
30.0	186.89430165203157	pulse	1.0	t		28.0	female	white	5.676880222841227	neutral	124	sub-07	1.0	2.0	124_neutral	0.0		205.9863031975101	
31.0	187.26081246283456	face	0.0		146	19.0	male	white	2.243931555909272	neutral	130	sub-07	1.0	2.0	130_neutral	0.0		206.3528140083131	1.241658793379429
31.0	187.5942778057829	pulse	0.0	t		19.0	male	white	2.243931555909272	neutral	130	sub-07	1.0	2.0	130_neutral	0.0		206.68627935126142	
31.0	188.29423524475578	pulse	0.0	t		19.0	male	white	2.243931555909272	neutral	130	sub-07	1.0	2.0	130_neutral	0.0		207.3862367902343	
31.0	188.502471256214	fix	1.0		444	19.0	male	white	2.243931555909272	neutral	130	sub-07	1.0	2.0	130_neutral	0.0		207.59447280169252	3.758315247412611
31.0	188.99422286885465	pulse	1.0	t		19.0	male	white	2.243931555909272	neutral	130	sub-07	1.0	2.0	130_neutral	0.0		208.08622441433317	
31.0	189.69420083371278	pulse	1.0	t		19.0	male	white	2.243931555909272	neutral	130	sub-07	1.0	2.0	130_neutral	0.0		208.7862023791913	
31.0	190.3942029466716	pulse	1.0	t		19.0	male	white	2.243931555909272	neutral	130	sub-07	1.0	2.0	130_neutral	0.0		209.48620449215014	
31.0	191.0941594800911	pulse	1.0	t		19.0	male	white	2.243931555909272	neutral	130	sub-07	1.0	2.0	130_neutral	0.0		210.18616102556962	
31.0	191.79411058018832	pulse	1.0	t		19.0	male	white	2.243931555909272	neutral	130	sub-07	1.0	2.0	130_neutral	0.0		210.88611212566684	
32.0	192.2607865036266	face	0.0		146	19.0	female	white	4.298846000795861	smiling	100	sub-07	1.0	2.0	100_smiling	0.0		211.35278804910513	1.2415205455054092
32.0	192.49411752276683	pulse	0.0	t		19.0	female	white	4.298846000795861	smiling	100	sub-07	1.0	2.0	100_smiling	0.0		211.58611906824535	
32.0	193.19409548762542	pulse	0.0	t		19.0	female	white	4.298846000795861	smiling	100	sub-07	1.0	2.0	100_smiling	0.0		212.28609703310394	
32.0	193.502307049132	fix	1.0		444	19.0	female	white	4.298846000795861	smiling	100	sub-07	1.0	2.0	100_smiling	0.0		212.59430859461054	3.758178508794572
32.0	193.89406349139244	pulse	1.0	t		19.0	female	white	4.298846000795861	smiling	100	sub-07	1.0	2.0	100_smiling	0.0		212.98606503687097	
32.0	194.59404598401989	pulse	1.0	t		19.0	female	white	4.298846000795861	smiling	100	sub-07	1.0	2.0	100_smiling	0.0		213.6860475294984	
32.0	195.29401338408434	pulse	1.0	t		19.0	female	white	4.298846000795861	smiling	100	sub-07	1.0	2.0	100_smiling	0.0		214.38601492956286	
32.0	195.99399768781905	pulse	1.0	t		19.0	female	white	4.298846000795861	smiling	100	sub-07	1.0	2.0	100_smiling	0.0		215.08599923329757	
32.0	196.6939765582315	pulse	1.0	t		19.0	female	white	4.298846000795861	smiling	100	sub-07	1.0	2.0	100_smiling	0.0		215.78597810371002	
33.0	197.2604855579266	face	0.0		146	27.0	male	black	3.5523278949462798	neutral	042	sub-07	1.0	2.0	042_neutral	0.0		216.3524871034051	1.2416581896773096
33.0	197.39394426014724	pulse	0.0	t		27.0	male	black	3.5523278949462798	neutral	042	sub-07	1.0	2.0	042_neutral	0.0		216.48594580562576	
33.0	198.09392192315454	pulse	0.0	t		27.0	male	black	3.5523278949462798	neutral	042	sub-07	1.0	2.0	042_neutral	0.0		217.18592346863306	
33.0	198.5021437476039	fix	1.0		444	27.0	male	black	3.5523278949462798	neutral	042	sub-07	1.0	2.0	042_neutral	0.0		217.59414529308242	3.7581622088268887
33.0	198.79390622688925	pulse	1.0	t		27.0	male	black	3.5523278949462798	neutral	042	sub-07	1.0	2.0	042_neutral	0.0		217.88590777236777	
33.0	199.49386819363144	pulse	1.0	t		27.0	male	black	3.5523278949462798	neutral	042	sub-07	1.0	2.0	042_neutral	0.0		218.58586973910997	
33.0	200.19383831035702	pulse	1.0	t		27.0	male	black	3.5523278949462798	neutral	042	sub-07	1.0	2.0	042_neutral	0.0		219.28583985583555	
33.0	200.89384012146456	pulse	1.0	t		27.0	male	black	3.5523278949462798	neutral	042	sub-07	1.0	2.0	042_neutral	0.0		219.9858416669431	
33.0	201.5938229159433	pulse	1.0	t		27.0	male	black	3.5523278949462798	neutral	042	sub-07	1.0	2.0	042_neutral	0.0		220.68582446142182	
34.0	202.26030595643078	face	0.0		146	27.0	female	white	3.504576203740549	neutral	144	sub-07	1.0	2.0	144_neutral	0.0		221.3523075019093	1.241662415594874
34.0	202.2938005789506	pulse	0.0	t		27.0	female	white	3.504576203740549	neutral	144	sub-07	1.0	2.0	144_neutral	0.0		221.38580212442912	
34.0	202.99375771607265	pulse	0.0	t		27.0	female	white	3.504576203740549	neutral	144	sub-07	1.0	2.0	144_neutral	0.0		222.08575926155117	
34.0	203.50196837202566	fix	1.0		443	27.0	female	white	3.504576203740549	neutral	144	sub-07	1.0	2.0	144_neutral	0.0		222.59396991750418	3.758282949328077
34.0	203.69375499941134	pulse	1.0	t		27.0	female	white	3.504576203740549	neutral	144	sub-07	1.0	2.0	144_neutral	0.0		222.78575654488986	
34.0	204.39374503832005	pulse	1.0	t		27.0	female	white	3.504576203740549	neutral	144	sub-07	1.0	2.0	144_neutral	0.0		223.48574658379857	
34.0	205.09368829028426	pulse	1.0	t		27.0	female	white	3.504576203740549	neutral	144	sub-07	1.0	2.0	144_neutral	0.0		224.1856898357628	
34.0	205.79365991626628	pulse	1.0	t		27.0	female	white	3.504576203740549	neutral	144	sub-07	1.0	2.0	144_neutral	0.0		224.8856614617448	
34.0	206.49366082181996	pulse	1.0	t		27.0	female	white	3.504576203740549	neutral	144	sub-07	1.0	2.0	144_neutral	0.0		225.58566236729848	
34.0	207.19362218485958	pulse	1.0	t		27.0	female	white	3.504576203740549	neutral	144	sub-07	1.0	2.0	144_neutral	0.0		226.2856237303381	
35.0	207.26025132135373	face	0.0		147	25.0	female	west_asian	2.6756864305610826	neutral	064	sub-07	1.0	2.0	064_neutral	0.0		226.35225286683226	1.2415543528459239
35.0	207.8936276181821	pulse	0.0	t		25.0	female	west_asian	2.6756864305610826	neutral	064	sub-07	1.0	2.0	064_neutral	0.0		226.98562916366063	
35.0	208.50180567419966	fix	1.0		443	25.0	female	west_asian	2.6756864305610826	neutral	064	sub-07	1.0	2.0	064_neutral	0.0		227.59380721967818	3.7665382792665696
35.0	208.59357992568403	pulse	1.0	t		25.0	female	west_asian	2.6756864305610826	neutral	064	sub-07	1.0	2.0	064_neutral	0.0		227.68558147116255	
35.0	209.29355668313747	pulse	1.0	t		25.0	female	west_asian	2.6756864305610826	neutral	064	sub-07	1.0	2.0	064_neutral	0.0		228.385558228616	
35.0	209.99352770541736	pulse	1.0	t		25.0	female	west_asian	2.6756864305610826	neutral	064	sub-07	1.0	2.0	064_neutral	0.0		229.0855292508959	
35.0	210.6935307239296	pulse	1.0	t		25.0	female	west_asian	2.6756864305610826	neutral	064	sub-07	1.0	2.0	064_neutral	0.0		229.78553226940812	
35.0	211.39352046098702	pulse	1.0	t		25.0	female	west_asian	2.6756864305610826	neutral	064	sub-07	1.0	2.0	064_neutral	0.0		230.48552200646554	
35.0	212.09345375186012	pulse	1.0	t		25.0	female	west_asian	2.6756864305610826	neutral	064	sub-07	1.0	2.0	064_neutral	0.0		231.18545529733865	
36.0	212.26834395346623	face	0.0		146	24.0	female	black	3.0955033824114606	smiling	099	sub-07	1.0	2.0	099_smiling	0.0		231.36034549894475	1.2416430971147747
36.0	212.79346914627376	pulse	0.0	t		24.0	female	black	3.0955033824114606	smiling	099	sub-07	1.0	2.0	099_smiling	0.0		231.8854706917523	
36.0	213.49342839635483	pulse	0.0	t		24.0	female	black	3.0955033824114606	smiling	099	sub-07	1.0	2.0	099_smiling	0.0		232.58542994183335	
36.0	213.509987050581	fix	1.0		443	24.0	female	black	3.0955033824114606	smiling	099	sub-07	1.0	2.0	099_smiling	0.0		232.60198859605953	3.7498356419923766
36.0	214.1933951927167	pulse	1.0	t		24.0	female	black	3.0955033824114606	smiling	099	sub-07	1.0	2.0	099_smiling	0.0		233.28539673819523	
36.0	214.89339338160926	pulse	1.0	t		24.0	female	black	3.0955033824114606	smiling	099	sub-07	1.0	2.0	099_smiling	0.0		233.98539492708778	
36.0	215.59336138537628	pulse	1.0	t		24.0	female	black	3.0955033824114606	smiling	099	sub-07	1.0	2.0	099_smiling	0.0		234.6853629308548	
36.0	216.29331822064705	pulse	1.0	t		24.0	female	black	3.0955033824114606	smiling	099	sub-07	1.0	2.0	099_smiling	0.0		235.38531976612558	
36.0	216.99329920401806	pulse	1.0	t		24.0	female	black	3.0955033824114606	smiling	099	sub-07	1.0	2.0	099_smiling	0.0		236.08530074949658	
37.0	217.25982269257338	face	0.0		146	21.0	male	black	2.969757262236371	neutral	137	sub-07	1.0	2.0	137_neutral	0.0		236.3518242380519	1.241668452619706
37.0	217.69329377069562	pulse	0.0	t		21.0	male	black	2.969757262236371	neutral	137	sub-07	1.0	2.0	137_neutral	0.0		236.78529531617414	
37.0	218.39326207631393	pulse	0.0	t		21.0	male	black	2.969757262236371	neutral	137	sub-07	1.0	2.0	137_neutral	0.0		237.48526362179246	
37.0	218.50149114519309	fix	1.0		444	21.0	male	black	2.969757262236371	neutral	137	sub-07	1.0	2.0	137_neutral	0.0		237.5934926906716	3.7665259033656184
37.0	219.09324849300765	pulse	1.0	t		21.0	male	black	2.969757262236371	neutral	137	sub-07	1.0	2.0	137_neutral	0.0		238.18525003848617	
37.0	219.7932035171707	pulse	1.0	t		21.0	male	black	2.969757262236371	neutral	137	sub-07	1.0	2.0	137_neutral	0.0		238.88520506264922	
37.0	220.4932436633876	pulse	1.0	t		21.0	male	black	2.969757262236371	neutral	137	sub-07	1.0	2.0	137_neutral	0.0		239.58524520886613	
37.0	221.19316155984643	pulse	1.0	t		21.0	male	black	2.969757262236371	neutral	137	sub-07	1.0	2.0	137_neutral	0.0		240.28516310532495	
37.0	221.89314314692	pulse	1.0	t		21.0	male	black	2.969757262236371	neutral	137	sub-07	1.0	2.0	137_neutral	0.0		240.98514469239853	
38.0	222.2680170485587	face	0.0		145	20.0	male	black	2.609629924393156	neutral	043	sub-07	1.0	2.0	043_neutral	0.0		241.36001859403723	1.2333071728912728
38.0	222.5931346950847	pulse	0.0	t		20.0	male	black	2.609629924393156	neutral	043	sub-07	1.0	2.0	043_neutral	0.0		241.68513624056322	
38.0	223.29310843402573	pulse	0.0	t		20.0	male	black	2.609629924393156	neutral	043	sub-07	1.0	2.0	043_neutral	0.0		242.38510997950425	
38.0	223.50132422144998	fix	1.0		444	20.0	male	black	2.609629924393156	neutral	043	sub-07	1.0	2.0	043_neutral	0.0		242.5933257669285	3.7583034752133244
38.0	223.99308549333045	pulse	1.0	t		20.0	male	black	2.609629924393156	neutral	043	sub-07	1.0	2.0	043_neutral	0.0		243.08508703880898	
38.0	224.6930601378249	pulse	1.0	t		20.0	male	black	2.609629924393156	neutral	043	sub-07	1.0	2.0	043_neutral	0.0		243.7850616833034	
38.0	225.39303508417106	pulse	1.0	t		20.0	male	black	2.609629924393156	neutral	043	sub-07	1.0	2.0	043_neutral	0.0		244.48503662964958	
38.0	226.0929994657231	pulse	1.0	t		20.0	male	black	2.609629924393156	neutral	043	sub-07	1.0	2.0	043_neutral	0.0		245.18500101120162	
38.0	226.79298799537537	pulse	1.0	t		20.0	male	black	2.609629924393156	neutral	043	sub-07	1.0	2.0	043_neutral	0.0		245.8849895408539	
39.0	227.2596276966633	face	0.0		146	28.0	female	white	5.676880222841227	smiling	124	sub-07	1.0	2.0	124_smiling	0.0		246.35162924214183	1.2415338269611311
39.0	227.49295750839883	pulse	0.0	t		28.0	female	white	5.676880222841227	smiling	124	sub-07	1.0	2.0	124_smiling	0.0		246.58495905387736	
39.0	228.19295056581996	pulse	0.0	t		28.0	female	white	5.676880222841227	smiling	124	sub-07	1.0	2.0	124_smiling	0.0		247.28495211129848	
39.0	228.50116152362443	fix	1.0		444	28.0	female	white	5.676880222841227	smiling	124	sub-07	1.0	2.0	124_smiling	0.0		247.59316306910296	3.749864921563585
39.0	228.8929273232734	pulse	1.0	t		28.0	female	white	5.676880222841227	smiling	124	sub-07	1.0	2.0	124_smiling	0.0		247.98492886875192	
39.0	229.59290740109054	pulse	1.0	t		28.0	female	white	5.676880222841227	smiling	124	sub-07	1.0	2.0	124_smiling	0.0		248.68490894656907	
39.0	230.29287208449387	pulse	1.0	t		28.0	female	white	5.676880222841227	smiling	124	sub-07	1.0	2.0	124_smiling	0.0		249.3848736299724	
39.0	230.99285638822903	pulse	1.0	t		28.0	female	white	5.676880222841227	smiling	124	sub-07	1.0	2.0	124_smiling	0.0		250.08485793370755	
39.0	231.6928141290532	pulse	1.0	t		28.0	female	white	5.676880222841227	smiling	124	sub-07	1.0	2.0	124_smiling	0.0		250.78481567453173	
40.0	232.25102644518802	fix	0.0		720													251.34302799066654	5.999803192982654
40.0	232.39282831606215	pulse	0.0	t														251.48482986154067	
40.0	233.09276432359638	pulse	0.0	t														252.1847658690749	
40.0	233.79274983473624	pulse	0.0	t														252.88475138021477	
40.0	234.4927299125534	pulse	0.0	t														253.5847314580319	
40.0	235.19275285324875	pulse	0.0	t														254.28475439872727	
40.0	235.8926915774441	pulse	0.0	t														254.98469312292264	
40.0	236.59266773119543	pulse	0.0	t														255.68466927667396	
40.0	237.29263664051632	pulse	0.0	t														256.38463818599485	
40.0	237.9926091720522	pulse	0.0	t														257.0846107175307	
