trial_nr	onset	event_type	phase	response	nr_frames	face_age	face_sex	face_eth	attractiveness	expression	face_id	sub_id	ses	run	trial_type	catch	onset_abs	duration
-1.0	0.06173225579868813	fix	0.0		713												26.345335209248788	5.95789633825143
-1.0	0.7032302193474607	pulse	0.0	t													26.98683317279756	
-1.0	1.4032254802555144	pulse	0.0	t													27.686828433705614	
-1.0	2.1032014225725106	pulse	0.0	t													28.38680437602261	
-1.0	2.8031885334503386	pulse	0.0	t													29.086791486900438	
-1.0	3.5031548164715787	pulse	0.0	t													29.786757769921678	
-1.0	4.203141021790543	pulse	0.0	t													30.486743975240643	
-1.0	4.903128736373674	pulse	0.0	t													31.186731689823773	
-1.0	5.60309803792552	pulse	0.0	t													31.88670099137562	
0.0	6.019628594050118	face	0.0		144	22.0	female	west_asian	3.8205332272184642	neutral	066	sub-01	2.0	2.0	066_neutral	0.0	32.30323154750022	1.2333236036056405
0.0	6.3030954118044065	pulse	0.0	t		22.0	female	west_asian	3.8205332272184642	neutral	066	sub-01	2.0	2.0	066_neutral	0.0	32.586698365254506	
0.0	7.0030680337386	pulse	0.0	t		22.0	female	west_asian	3.8205332272184642	neutral	066	sub-01	2.0	2.0	066_neutral	0.0	33.2866709871887	
0.0	7.252952197655759	fix	1.0		445	22.0	female	west_asian	3.8205332272184642	neutral	066	sub-01	2.0	2.0	066_neutral	0.0	33.53655515110586	3.7582070053435928
0.0	7.703046089026429	pulse	1.0	t		22.0	female	west_asian	3.8205332272184642	neutral	066	sub-01	2.0	2.0	066_neutral	0.0	33.98664904247653	
0.0	8.40303923696365	pulse	1.0	t		22.0	female	west_asian	3.8205332272184642	neutral	066	sub-01	2.0	2.0	066_neutral	0.0	34.68664219041375	
0.0	9.102995558836938	pulse	1.0	t		22.0	female	west_asian	3.8205332272184642	neutral	066	sub-01	2.0	2.0	066_neutral	0.0	35.38659851228704	
0.0	9.803003195717338	pulse	1.0	t		22.0	female	west_asian	3.8205332272184642	neutral	066	sub-01	2.0	2.0	066_neutral	0.0	36.08660614916744	
0.0	10.502978534328577	pulse	1.0	t		22.0	female	west_asian	3.8205332272184642	neutral	066	sub-01	2.0	2.0	066_neutral	0.0	36.786581487778676	
1.0	11.011159202999352	face	0.0		146	37.0	male	west_asian	3.1858336649422996	neutral	037	sub-01	2.0	2.0	037_neutral	0.0	37.29476215644945	1.2416638015788521
1.0	11.20295236367474	pulse	0.0	t		37.0	male	west_asian	3.1858336649422996	neutral	037	sub-01	2.0	2.0	037_neutral	0.0	37.48655531712484	
1.0	11.902936757875523	pulse	0.0	t		37.0	male	west_asian	3.1858336649422996	neutral	037	sub-01	2.0	2.0	037_neutral	0.0	38.18653971132562	
1.0	12.252823004578204	fix	1.0		444	37.0	male	west_asian	3.1858336649422996	neutral	037	sub-01	2.0	2.0	037_neutral	0.0	38.5364259580283	3.7582151553742733
1.0	12.602933226195546	pulse	1.0	t		37.0	male	west_asian	3.1858336649422996	neutral	037	sub-01	2.0	2.0	037_neutral	0.0	38.886536179645645	
1.0	13.302887133244894	pulse	1.0	t		37.0	male	west_asian	3.1858336649422996	neutral	037	sub-01	2.0	2.0	037_neutral	0.0	39.586490086694994	
1.0	14.00287756450507	pulse	1.0	t		37.0	male	west_asian	3.1858336649422996	neutral	037	sub-01	2.0	2.0	037_neutral	0.0	40.28648051795517	
1.0	14.702854110528278	pulse	1.0	t		37.0	male	west_asian	3.1858336649422996	neutral	037	sub-01	2.0	2.0	037_neutral	0.0	40.98645706397838	
1.0	15.402846352906636	pulse	1.0	t		37.0	male	west_asian	3.1858336649422996	neutral	037	sub-01	2.0	2.0	037_neutral	0.0	41.686449306356735	
2.0	16.011038159952477	face	0.0		146	24.0	female	white	3.1794667727815358	neutral	019	sub-01	2.0	2.0	019_neutral	0.0	42.29464111340258	1.2416481052232484
2.0	16.102828935989237	pulse	0.0	t		24.0	female	white	3.1794667727815358	neutral	019	sub-01	2.0	2.0	019_neutral	0.0	42.386431889439336	
2.0	16.80280518015934	pulse	0.0	t		24.0	female	white	3.1794667727815358	neutral	019	sub-01	2.0	2.0	019_neutral	0.0	43.08640813360944	
2.0	17.252686265175726	fix	1.0		445	24.0	female	white	3.1794667727815358	neutral	019	sub-01	2.0	2.0	019_neutral	0.0	43.536289218625825	3.7582130424034403
2.0	17.502795309566864	pulse	1.0	t		24.0	female	white	3.1794667727815358	neutral	019	sub-01	2.0	2.0	019_neutral	0.0	43.78639826301696	
2.0	18.202762498147422	pulse	1.0	t		24.0	female	white	3.1794667727815358	neutral	019	sub-01	2.0	2.0	019_neutral	0.0	44.48636545159752	
2.0	18.902749609024795	pulse	1.0	t		24.0	female	white	3.1794667727815358	neutral	019	sub-01	2.0	2.0	019_neutral	0.0	45.186352562474895	
2.0	19.602766603347845	pulse	1.0	t		24.0	female	white	3.1794667727815358	neutral	019	sub-01	2.0	2.0	019_neutral	0.0	45.886369556797945	
2.0	20.30271537889621	pulse	1.0	t		24.0	female	white	3.1794667727815358	neutral	019	sub-01	2.0	2.0	019_neutral	0.0	46.58631833234631	
3.0	21.010899307579166	face	0.0		147	26.0	male	west_asian	2.2081177875049742	neutral	142	sub-01	2.0	2.0	142_neutral	0.0	47.294502261029265	1.241643275575825
3.0	21.003333664365528	pulse	0.0	t		26.0	male	west_asian	2.2081177875049742	neutral	142	sub-01	2.0	2.0	142_neutral	0.0	47.28693661781563	
3.0	21.702716767420043	pulse	0.0	t		26.0	male	west_asian	2.2081177875049742	neutral	142	sub-01	2.0	2.0	142_neutral	0.0	47.98631972087014	
3.0	22.25254258315499	fix	1.0		443	26.0	male	west_asian	2.2081177875049742	neutral	142	sub-01	2.0	2.0	142_neutral	0.0	48.53614553660509	3.7582269276408624
3.0	22.402651657730985	pulse	1.0	t		26.0	male	west_asian	2.2081177875049742	neutral	142	sub-01	2.0	2.0	142_neutral	0.0	48.686254611181084	
3.0	23.102625788930254	pulse	1.0	t		26.0	male	west_asian	2.2081177875049742	neutral	142	sub-01	2.0	2.0	142_neutral	0.0	49.386228742380354	
3.0	23.80261410722005	pulse	1.0	t		26.0	male	west_asian	2.2081177875049742	neutral	142	sub-01	2.0	2.0	142_neutral	0.0	50.08621706067015	
3.0	24.502611179245832	pulse	1.0	t		26.0	male	west_asian	2.2081177875049742	neutral	142	sub-01	2.0	2.0	142_neutral	0.0	50.78621413269593	
3.0	25.202574745590482	pulse	1.0	t		26.0	male	west_asian	2.2081177875049742	neutral	142	sub-01	2.0	2.0	142_neutral	0.0	51.48617769904058	
3.0	25.90254042490642	pulse	1.0	t		26.0	male	west_asian	2.2081177875049742	neutral	142	sub-01	2.0	2.0	142_neutral	0.0	52.18614337835652	
4.0	26.010769510795853	face	0.0		147	21.0	female	black	2.4994031038599283	neutral	129	sub-01	2.0	2.0	129_neutral	0.0	52.29437246424595	1.2416505200471875
4.0	26.602545345109775	pulse	0.0	t		21.0	female	black	2.4994031038599283	neutral	129	sub-01	2.0	2.0	129_neutral	0.0	52.886148298559874	
4.0	27.25242003084304	fix	1.0		443	21.0	female	black	2.4994031038599283	neutral	129	sub-01	2.0	2.0	129_neutral	0.0	53.53602298429314	3.7583404243632685
4.0	27.30253185228139	pulse	1.0	t		21.0	female	black	2.4994031038599283	neutral	129	sub-01	2.0	2.0	129_neutral	0.0	53.58613480573149	
4.0	28.002497531596873	pulse	1.0	t		21.0	female	black	2.4994031038599283	neutral	129	sub-01	2.0	2.0	129_neutral	0.0	54.28610048504697	
4.0	28.70251331850841	pulse	1.0	t		21.0	female	black	2.4994031038599283	neutral	129	sub-01	2.0	2.0	129_neutral	0.0	54.98611627195851	
4.0	29.402552046246	pulse	1.0	t		21.0	female	black	2.4994031038599283	neutral	129	sub-01	2.0	2.0	129_neutral	0.0	55.6861549996961	
4.0	30.10245826052369	pulse	1.0	t		21.0	female	black	2.4994031038599283	neutral	129	sub-01	2.0	2.0	129_neutral	0.0	56.38606121397379	
4.0	30.8024348065469	pulse	1.0	t		21.0	female	black	2.4994031038599283	neutral	129	sub-01	2.0	2.0	129_neutral	0.0	57.086037759997	
5.0	31.01076045520631	face	0.0		146	25.0	male	west_asian	2.054118583366494	neutral	115	sub-01	2.0	2.0	115_neutral	0.0	57.29436340865641	1.2415107621154675
5.0	31.502421011865408	pulse	0.0	t		25.0	male	west_asian	2.054118583366494	neutral	115	sub-01	2.0	2.0	115_neutral	0.0	57.78602396531551	
5.0	32.20239393565271	pulse	0.0	t		25.0	male	west_asian	2.054118583366494	neutral	115	sub-01	2.0	2.0	115_neutral	0.0	58.48599688910281	
5.0	32.25227121732178	fix	1.0		445	25.0	male	west_asian	2.054118583366494	neutral	115	sub-01	2.0	2.0	115_neutral	0.0	58.535874170771876	3.7583515929231908
5.0	32.902379235412354	pulse	1.0	t		25.0	male	west_asian	2.054118583366494	neutral	115	sub-01	2.0	2.0	115_neutral	0.0	59.185982188862454	
5.0	33.602361516642304	pulse	1.0	t		25.0	male	west_asian	2.054118583366494	neutral	115	sub-01	2.0	2.0	115_neutral	0.0	59.885964470092404	
5.0	34.3023341385765	pulse	1.0	t		25.0	male	west_asian	2.054118583366494	neutral	115	sub-01	2.0	2.0	115_neutral	0.0	60.5859370920266	
5.0	35.00231641980599	pulse	1.0	t		25.0	male	west_asian	2.054118583366494	neutral	115	sub-01	2.0	2.0	115_neutral	0.0	61.28591937325609	
5.0	35.702296286212004	pulse	1.0	t		25.0	male	west_asian	2.054118583366494	neutral	115	sub-01	2.0	2.0	115_neutral	0.0	61.9858992396621	
6.0	36.01062281024497	face	0.0		146	20.0	male	black	2.609629924393156	smiling	043	sub-01	2.0	2.0	043_smiling	0.0	62.29422576369507	1.241530382559631
6.0	36.40228400079559	pulse	0.0	t		20.0	male	black	2.609629924393156	smiling	043	sub-01	2.0	2.0	043_smiling	0.0	62.68588695424569	
6.0	37.10227080982031	pulse	0.0	t		20.0	male	black	2.609629924393156	smiling	043	sub-01	2.0	2.0	043_smiling	0.0	63.38587376327041	
6.0	37.2521531928046	fix	1.0		445	20.0	male	black	2.609629924393156	smiling	043	sub-01	2.0	2.0	043_smiling	0.0	63.5357561462547	3.766532412520519
6.0	37.80224795954928	pulse	1.0	t		20.0	male	black	2.609629924393156	smiling	043	sub-01	2.0	2.0	043_smiling	0.0	64.08585091299938	
6.0	38.50222480742514	pulse	1.0	t		20.0	male	black	2.609629924393156	smiling	043	sub-01	2.0	2.0	043_smiling	0.0	64.78582776087524	
6.0	39.20222127574516	pulse	1.0	t		20.0	male	black	2.609629924393156	smiling	043	sub-01	2.0	2.0	043_smiling	0.0	65.48582422919526	
6.0	39.90219480323867	pulse	1.0	t		20.0	male	black	2.609629924393156	smiling	043	sub-01	2.0	2.0	043_smiling	0.0	66.18579775668877	
6.0	40.60216229367188	pulse	1.0	t		20.0	male	black	2.609629924393156	smiling	043	sub-01	2.0	2.0	043_smiling	0.0	66.88576524712198	
7.0	41.01868560532512	face	0.0		145	22.0	female	white	4.614007162753682	smiling	009	sub-01	2.0	2.0	009_smiling	0.0	67.30228855877522	1.233333564754048
7.0	41.30214819713774	pulse	0.0	t		22.0	female	white	4.614007162753682	smiling	009	sub-01	2.0	2.0	009_smiling	0.0	67.58575115058784	
7.0	42.002137119133295	pulse	0.0	t		22.0	female	white	4.614007162753682	smiling	009	sub-01	2.0	2.0	009_smiling	0.0	68.2857400725834	
7.0	42.252019170079166	fix	1.0		445	22.0	female	white	4.614007162753682	smiling	009	sub-01	2.0	2.0	009_smiling	0.0	68.53562212352927	3.7583168798300903
7.0	42.70210792994931	pulse	1.0	t		22.0	female	white	4.614007162753682	smiling	009	sub-01	2.0	2.0	009_smiling	0.0	68.9857108833994	
7.0	43.40209051303236	pulse	1.0	t		22.0	female	white	4.614007162753682	smiling	009	sub-01	2.0	2.0	009_smiling	0.0	69.68569346648246	
7.0	44.10207339796807	pulse	1.0	t		22.0	female	white	4.614007162753682	smiling	009	sub-01	2.0	2.0	009_smiling	0.0	70.38567635141817	
7.0	44.802059905139686	pulse	1.0	t		22.0	female	white	4.614007162753682	smiling	009	sub-01	2.0	2.0	009_smiling	0.0	71.08566285858979	
7.0	45.50204580860509	pulse	1.0	t		22.0	female	white	4.614007162753682	smiling	009	sub-01	2.0	2.0	009_smiling	0.0	71.78564876205519	
8.0	46.010336049909256	face	0.0		146	30.0	female	black	2.7345801830481498	neutral	062	sub-01	2.0	2.0	062_neutral	1.0	72.29393900335936	1.2415343066486457
8.0	46.202121664260176	pulse	0.0	t		30.0	female	black	2.7345801830481498	neutral	062	sub-01	2.0	2.0	062_neutral	1.0	72.48572461771028	
8.0	46.902002824740066	pulse	0.0	t		30.0	female	black	2.7345801830481498	neutral	062	sub-01	2.0	2.0	062_neutral	1.0	73.18560577819017	
8.0	47.2518703565579	fix	1.0		236	30.0	female	black	2.7345801830481498	neutral	062	sub-01	2.0	2.0	062_neutral	1.0	73.535473310008	2.0083245016180626
8.0	47.601976955939335	pulse	1.0	t		30.0	female	black	2.7345801830481498	neutral	062	sub-01	2.0	2.0	062_neutral	1.0	73.88557990938943	
8.0	48.30196014272815	pulse	1.0	t		30.0	female	black	2.7345801830481498	neutral	062	sub-01	2.0	2.0	062_neutral	1.0	74.58556309617825	
8.0	49.00194091469302	pulse	1.0	t		30.0	female	black	2.7345801830481498	neutral	062	sub-01	2.0	2.0	062_neutral	1.0	75.28554386814312	
8.0	49.260194858175964	rating	2.0		234	30.0	female	black	2.7345801830481498	neutral	062	sub-01	2.0	2.0	062_neutral	1.0	75.54379781162606	1.9915626053652886
8.0	49.70192289406987	pulse	2.0	t		30.0	female	black	2.7345801830481498	neutral	062	sub-01	2.0	2.0	062_neutral	1.0	75.98552584751997	
8.0	50.02176541133031	response	2.0	y		30.0	female	black	2.7345801830481498	neutral	062	sub-01	2.0	2.0	062_neutral	1.0	76.3053683647804	
8.0	50.40189249747391	pulse	2.0	t		30.0	female	black	2.7345801830481498	neutral	062	sub-01	2.0	2.0	062_neutral	1.0	76.68549545092401	
8.0	51.10187840093977	pulse	2.0	t		30.0	female	black	2.7345801830481498	neutral	062	sub-01	2.0	2.0	062_neutral	1.0	77.38548135438987	
8.0	51.25175746354125	fix	3.0		444	30.0	female	black	2.7345801830481498	neutral	062	sub-01	2.0	2.0	062_neutral	1.0	77.53536041699135	3.7665541459355154
8.0	51.80186520996449	pulse	3.0	t		30.0	female	black	2.7345801830481498	neutral	062	sub-01	2.0	2.0	062_neutral	1.0	78.08546816341459	
8.0	52.501839944869516	pulse	3.0	t		30.0	female	black	2.7345801830481498	neutral	062	sub-01	2.0	2.0	062_neutral	1.0	78.78544289831962	
8.0	53.201832489100525	pulse	3.0	t		30.0	female	black	2.7345801830481498	neutral	062	sub-01	2.0	2.0	062_neutral	1.0	79.48543544255062	
8.0	53.90181507218358	pulse	3.0	t		30.0	female	black	2.7345801830481498	neutral	062	sub-01	2.0	2.0	062_neutral	1.0	80.18541802563368	
8.0	54.60179071264747	pulse	3.0	t		30.0	female	black	2.7345801830481498	neutral	062	sub-01	2.0	2.0	062_neutral	1.0	80.88539366609757	
9.0	55.01831160947677	face	0.0		145	18.0	male	white	3.272980501392757	neutral	123	sub-01	2.0	2.0	123_neutral	0.0	81.30191456292687	1.2333329610482906
9.0	55.30178054020189	pulse	0.0	t		18.0	male	white	3.272980501392757	neutral	123	sub-01	2.0	2.0	123_neutral	0.0	81.58538349365199	
9.0	56.00175165287146	pulse	0.0	t		18.0	male	white	3.272980501392757	neutral	123	sub-01	2.0	2.0	123_neutral	0.0	82.28535460632156	
9.0	56.25164457052506	fix	1.0		444	18.0	male	white	3.272980501392757	neutral	123	sub-01	2.0	2.0	123_neutral	0.0	82.53524752397516	3.758216966492
9.0	56.70174268783785	pulse	1.0	t		18.0	male	white	3.272980501392757	neutral	123	sub-01	2.0	2.0	123_neutral	0.0	82.98534564128795	
9.0	57.40172315794962	pulse	1.0	t		18.0	male	white	3.272980501392757	neutral	123	sub-01	2.0	2.0	123_neutral	0.0	83.68532611139972	
9.0	58.10170060953169	pulse	1.0	t		18.0	male	white	3.272980501392757	neutral	123	sub-01	2.0	2.0	123_neutral	0.0	84.38530356298179	
9.0	58.801680174084595	pulse	1.0	t		18.0	male	white	3.272980501392757	neutral	123	sub-01	2.0	2.0	123_neutral	0.0	85.0852831275347	
9.0	59.501667586815074	pulse	1.0	t		18.0	male	white	3.272980501392757	neutral	123	sub-01	2.0	2.0	123_neutral	0.0	85.78527054026517	
10.0	60.00986153701706	face	0.0		146	20.0	male	black	2.609629924393156	neutral	043	sub-01	2.0	2.0	043_neutral	0.0	86.29346449046716	1.2416315033096907
10.0	60.2016359828076	pulse	0.0	t		20.0	male	black	2.609629924393156	neutral	043	sub-01	2.0	2.0	043_neutral	0.0	86.4852389362577	
10.0	60.9016466382177	pulse	0.0	t		20.0	male	black	2.609629924393156	neutral	043	sub-01	2.0	2.0	043_neutral	0.0	87.1852495916678	
10.0	61.25149304032675	fix	1.0		444	20.0	male	black	2.609629924393156	neutral	043	sub-01	2.0	2.0	043_neutral	0.0	87.53509599377685	3.7665677293198314
10.0	61.60161141197477	pulse	1.0	t		20.0	male	black	2.609629924393156	neutral	043	sub-01	2.0	2.0	043_neutral	0.0	87.88521436542487	
10.0	62.301589165409496	pulse	1.0	t		20.0	male	black	2.609629924393156	neutral	043	sub-01	2.0	2.0	043_neutral	0.0	88.5851921188596	
10.0	63.0015623910499	pulse	1.0	t		20.0	male	black	2.609629924393156	neutral	043	sub-01	2.0	2.0	043_neutral	0.0	89.2851653445	
10.0	63.701543163014776	pulse	1.0	t		20.0	male	black	2.609629924393156	neutral	043	sub-01	2.0	2.0	043_neutral	0.0	89.98514611646488	
10.0	64.40153238686298	pulse	1.0	t		20.0	male	black	2.609629924393156	neutral	043	sub-01	2.0	2.0	043_neutral	0.0	90.68513534031308	
11.0	65.01806076964658	face	0.0		145	29.0	male	white	1.883406287306009	smiling	143	sub-01	2.0	2.0	143_smiling	0.0	91.30166372309668	1.2333136424567783
11.0	65.10152040329967	pulse	0.0	t		29.0	male	white	1.883406287306009	smiling	143	sub-01	2.0	2.0	143_smiling	0.0	91.38512335674977	
11.0	65.8014984585875	pulse	0.0	t		29.0	male	white	1.883406287306009	smiling	143	sub-01	2.0	2.0	143_smiling	0.0	92.0851014120376	
11.0	66.25137441210336	fix	1.0		444	29.0	male	white	1.883406287306009	smiling	143	sub-01	2.0	2.0	143_smiling	0.0	92.53497736555346	3.7665453921990775
11.0	66.50147892869927	pulse	1.0	t		29.0	male	white	1.883406287306009	smiling	143	sub-01	2.0	2.0	143_smiling	0.0	92.78508188214937	
11.0	67.20145155063392	pulse	1.0	t		29.0	male	white	1.883406287306009	smiling	143	sub-01	2.0	2.0	143_smiling	0.0	93.48505450408402	
11.0	67.9014419818941	pulse	1.0	t		29.0	male	white	1.883406287306009	smiling	143	sub-01	2.0	2.0	143_smiling	0.0	94.1850449353442	
11.0	68.60141037788662	pulse	1.0	t		29.0	male	white	1.883406287306009	smiling	143	sub-01	2.0	2.0	143_smiling	0.0	94.88501333133672	
11.0	69.30139718691134	pulse	1.0	t		29.0	male	white	1.883406287306009	smiling	143	sub-01	2.0	2.0	143_smiling	0.0	95.58500014036144	
12.0	70.01791980430244	face	0.0		146	38.0	female	white	3.0791882212495025	smiling	003	sub-01	2.0	2.0	003_smiling	0.0	96.30152275775254	1.233311227633294
12.0	70.00386794414862	pulse	0.0	t		38.0	female	white	3.0791882212495025	smiling	003	sub-01	2.0	2.0	003_smiling	0.0	96.28747089759872	
12.0	70.70136627716556	pulse	0.0	t		38.0	female	white	3.0791882212495025	smiling	003	sub-01	2.0	2.0	003_smiling	0.0	96.98496923061566	
12.0	71.25123103193573	fix	1.0		444	38.0	female	white	3.0791882212495025	smiling	003	sub-01	2.0	2.0	003_smiling	0.0	97.53483398538583	3.766548410728774
12.0	71.40138085666467	pulse	1.0	t		38.0	female	white	3.0791882212495025	smiling	003	sub-01	2.0	2.0	003_smiling	0.0	97.68498381011477	
12.0	72.10131091732819	pulse	1.0	t		38.0	female	white	3.0791882212495025	smiling	003	sub-01	2.0	2.0	003_smiling	0.0	98.38491387077829	
12.0	72.8013004430295	pulse	1.0	t		38.0	female	white	3.0791882212495025	smiling	003	sub-01	2.0	2.0	003_smiling	0.0	99.0849033964796	
12.0	73.50128151684748	pulse	1.0	t		38.0	female	white	3.0791882212495025	smiling	003	sub-01	2.0	2.0	003_smiling	0.0	99.78488447029758	
12.0	74.20126530734206	pulse	1.0	t		38.0	female	white	3.0791882212495025	smiling	003	sub-01	2.0	2.0	003_smiling	0.0	100.48486826079215	
12.0	74.9012506071017	pulse	1.0	t		38.0	female	white	3.0791882212495025	smiling	003	sub-01	2.0	2.0	003_smiling	0.0	101.1848535605518	
13.0	75.0177794426645	face	0.0		146	40.0	female	west_asian	1.5777954635893354	smiling	038	sub-01	2.0	2.0	038_smiling	0.0	101.3013823961146	1.2333172646926869
13.0	75.60126971439558	pulse	0.0	t		40.0	female	west_asian	1.5777954635893354	smiling	038	sub-01	2.0	2.0	038_smiling	0.0	101.88487266784568	
13.0	76.25109670735719	fix	1.0		444	40.0	female	west_asian	1.5777954635893354	smiling	038	sub-01	2.0	2.0	038_smiling	0.0	102.53469966080729	3.766544184787108
13.0	76.30120551026585	pulse	1.0	t		40.0	female	west_asian	1.5777954635893354	smiling	038	sub-01	2.0	2.0	038_smiling	0.0	102.58480846371594	
13.0	77.00120197858587	pulse	1.0	t		40.0	female	west_asian	1.5777954635893354	smiling	038	sub-01	2.0	2.0	038_smiling	0.0	103.28480493203597	
13.0	77.7011739968143	pulse	1.0	t		40.0	female	west_asian	1.5777954635893354	smiling	038	sub-01	2.0	2.0	038_smiling	0.0	103.9847769502644	
13.0	78.40114571318963	pulse	1.0	t		40.0	female	west_asian	1.5777954635893354	smiling	038	sub-01	2.0	2.0	038_smiling	0.0	104.68474866663973	
13.0	79.10113735186178	pulse	1.0	t		40.0	female	west_asian	1.5777954635893354	smiling	038	sub-01	2.0	2.0	038_smiling	0.0	105.38474030531188	
13.0	79.80170945382406	pulse	1.0	t		40.0	female	west_asian	1.5777954635893354	smiling	038	sub-01	2.0	2.0	038_smiling	0.0	106.08531240727416	
14.0	80.0176408921443	face	0.0		145	20.0	male	black	3.1070433744528456	smiling	082	sub-01	2.0	2.0	082_smiling	0.0	106.3012438455944	1.233331753636321
14.0	80.50110614026335	pulse	0.0	t		20.0	male	black	3.1070433744528456	smiling	082	sub-01	2.0	2.0	082_smiling	0.0	106.78470909371345	
14.0	81.20107453625542	pulse	0.0	t		20.0	male	black	3.1070433744528456	smiling	082	sub-01	2.0	2.0	082_smiling	0.0	107.48467748970552	
14.0	81.25097264578062	fix	1.0		445	20.0	male	black	3.1070433744528456	smiling	082	sub-01	2.0	2.0	082_smiling	0.0	107.53457559923072	3.7665523348177885
14.0	81.90106979716393	pulse	1.0	t		20.0	male	black	3.1070433744528456	smiling	082	sub-01	2.0	2.0	082_smiling	0.0	108.18467275061403	
14.0	82.6010469468929	pulse	1.0	t		20.0	male	black	3.1070433744528456	smiling	082	sub-01	2.0	2.0	082_smiling	0.0	108.88464990034299	
14.0	83.30100870211936	pulse	1.0	t		20.0	male	black	3.1070433744528456	smiling	082	sub-01	2.0	2.0	082_smiling	0.0	109.58461165556946	
14.0	84.00100215190969	pulse	1.0	t		20.0	male	black	3.1070433744528456	smiling	082	sub-01	2.0	2.0	082_smiling	0.0	110.28460510535979	
14.0	84.7009853386985	pulse	1.0	t		20.0	male	black	3.1070433744528456	smiling	082	sub-01	2.0	2.0	082_smiling	0.0	110.9845882921486	
15.0	85.01752498059841	face	0.0		145	19.0	male	white	3.2522881018702745	neutral	018	sub-01	2.0	2.0	018_neutral	0.0	111.30112793404851	1.2333145480156418
15.0	85.40097818478262	pulse	0.0	t		19.0	male	white	3.2522881018702745	neutral	018	sub-01	2.0	2.0	018_neutral	0.0	111.68458113823272	
15.0	86.10093994000954	pulse	0.0	t		19.0	male	white	3.2522881018702745	neutral	018	sub-01	2.0	2.0	018_neutral	0.0	112.38454289345964	
15.0	86.25083952861405	fix	1.0		445	19.0	male	white	3.2522881018702745	neutral	018	sub-01	2.0	2.0	018_neutral	0.0	112.53444248206415	3.758219079463288
15.0	86.80093701203577	pulse	1.0	t		19.0	male	white	3.2522881018702745	neutral	018	sub-01	2.0	2.0	018_neutral	0.0	113.08453996548587	
15.0	87.50091295435277	pulse	1.0	t		19.0	male	white	3.2522881018702745	neutral	018	sub-01	2.0	2.0	018_neutral	0.0	113.78451590780287	
15.0	88.20088376516924	pulse	1.0	t		19.0	male	white	3.2522881018702745	neutral	018	sub-01	2.0	2.0	018_neutral	0.0	114.48448671861934	
15.0	88.90087419642941	pulse	1.0	t		19.0	male	white	3.2522881018702745	neutral	018	sub-01	2.0	2.0	018_neutral	0.0	115.18447714987951	
15.0	89.6008585906302	pulse	1.0	t		19.0	male	white	3.2522881018702745	neutral	018	sub-01	2.0	2.0	018_neutral	0.0	115.8844615440803	
16.0	90.00905860807734	face	0.0		146	48.0	male	white	1.8929566255471548	neutral	021	sub-01	2.0	2.0	021_neutral	0.0	116.29266156152744	1.241645086693552
16.0	90.30084570150757	pulse	0.0	t		48.0	male	white	1.8929566255471548	neutral	021	sub-01	2.0	2.0	021_neutral	0.0	116.58444865495767	
16.0	91.00082254938388	pulse	0.0	t		48.0	male	white	1.8929566255471548	neutral	021	sub-01	2.0	2.0	021_neutral	0.0	117.28442550283398	
16.0	91.25070369477089	fix	1.0		444	48.0	male	white	1.8929566255471548	neutral	021	sub-01	2.0	2.0	021_neutral	0.0	117.53430664822099	3.7583446503049345
16.0	91.70079486946497	pulse	1.0	t		48.0	male	white	1.8929566255471548	neutral	021	sub-01	2.0	2.0	021_neutral	0.0	117.98439782291507	
16.0	92.40078288590166	pulse	1.0	t		48.0	male	white	1.8929566255471548	neutral	021	sub-01	2.0	2.0	021_neutral	0.0	118.68438583935176	
16.0	93.10075762080669	pulse	1.0	t		48.0	male	white	1.8929566255471548	neutral	021	sub-01	2.0	2.0	021_neutral	0.0	119.38436057425679	
16.0	93.80075469283292	pulse	1.0	t		48.0	male	white	1.8929566255471548	neutral	021	sub-01	2.0	2.0	021_neutral	0.0	120.08435764628302	
16.0	94.50071584435364	pulse	1.0	t		48.0	male	white	1.8929566255471548	neutral	021	sub-01	2.0	2.0	021_neutral	0.0	120.78431879780373	
17.0	95.00904834507583	face	0.0		146	22.0	female	white	3.236768802228412	smiling	118	sub-01	2.0	2.0	118_smiling	0.0	121.29265129852593	1.241509856556604
17.0	95.2006996348482	pulse	0.0	t		22.0	female	white	3.236768802228412	smiling	118	sub-01	2.0	2.0	118_smiling	0.0	121.4843025882983	
17.0	95.9006876512849	pulse	0.0	t		22.0	female	white	3.236768802228412	smiling	118	sub-01	2.0	2.0	118_smiling	0.0	122.184290604735	
17.0	96.25055820163243	fix	1.0		444	22.0	female	white	3.236768802228412	smiling	118	sub-01	2.0	2.0	118_smiling	0.0	122.53416115508253	3.766548108875668
17.0	96.60067446030916	pulse	1.0	t		22.0	female	white	3.236768802228412	smiling	118	sub-01	2.0	2.0	118_smiling	0.0	122.88427741375926	
17.0	97.30065764709798	pulse	1.0	t		22.0	female	white	3.236768802228412	smiling	118	sub-01	2.0	2.0	118_smiling	0.0	123.58426060054808	
17.0	98.0006257412374	pulse	1.0	t		22.0	female	white	3.236768802228412	smiling	118	sub-01	2.0	2.0	118_smiling	0.0	124.2842286946875	
17.0	98.70061677620379	pulse	1.0	t		22.0	female	white	3.236768802228412	smiling	118	sub-01	2.0	2.0	118_smiling	0.0	124.98421972965389	
17.0	99.4005966426098	pulse	1.0	t		22.0	female	white	3.236768802228412	smiling	118	sub-01	2.0	2.0	118_smiling	0.0	125.6841995960599	
18.0	100.0171063105081	face	0.0		145	21.0	female	black	3.1205730202944686	neutral	025	sub-01	2.0	2.0	025_neutral	0.0	126.3007092639582	1.2333329610482906
18.0	100.10057198122104	pulse	0.0	t		21.0	female	black	3.1205730202944686	neutral	025	sub-01	2.0	2.0	025_neutral	0.0	126.38417493467114	
18.0	100.80056603471712	pulse	0.0	t		21.0	female	black	3.1205730202944686	neutral	025	sub-01	2.0	2.0	025_neutral	0.0	127.08416898816722	
18.0	101.25043927155639	fix	1.0		444	21.0	female	black	3.1205730202944686	neutral	025	sub-01	2.0	2.0	025_neutral	0.0	127.53404222500649	3.766532714373625
18.0	101.50054529741692	pulse	1.0	t		21.0	female	black	3.1205730202944686	neutral	025	sub-01	2.0	2.0	025_neutral	0.0	127.78414825086702	
18.0	102.20052425826407	pulse	1.0	t		21.0	female	black	3.1205730202944686	neutral	025	sub-01	2.0	2.0	025_neutral	0.0	128.48412721171417	
18.0	102.90049054128576	pulse	1.0	t		21.0	female	black	3.1205730202944686	neutral	025	sub-01	2.0	2.0	025_neutral	0.0	129.18409349473586	
18.0	103.60047584104541	pulse	1.0	t		21.0	female	black	3.1205730202944686	neutral	025	sub-01	2.0	2.0	025_neutral	0.0	129.8840787944955	
18.0	104.30045721671604	pulse	1.0	t		21.0	female	black	3.1205730202944686	neutral	025	sub-01	2.0	2.0	025_neutral	0.0	130.58406017016614	
19.0	105.01697198593001	face	0.0		146	30.0	male	white	2.7190608834062875	smiling	004	sub-01	2.0	2.0	004_smiling	0.0	131.3005749393801	1.2333326591947298
19.0	105.0032600122372	pulse	0.0	t		30.0	male	white	2.7190608834062875	smiling	004	sub-01	2.0	2.0	004_smiling	0.0	131.2868629656873	
19.0	105.70043385329518	pulse	0.0	t		30.0	male	white	2.7190608834062875	smiling	004	sub-01	2.0	2.0	004_smiling	0.0	131.98403680674528	
19.0	106.25030464512474	fix	1.0		443	30.0	male	white	2.7190608834062875	smiling	004	sub-01	2.0	2.0	004_smiling	0.0	132.53390759857484	3.7582501703209346
19.0	106.40041764378975	pulse	1.0	t		30.0	male	white	2.7190608834062875	smiling	004	sub-01	2.0	2.0	004_smiling	0.0	132.68402059723985	
19.0	107.10042075287538	pulse	1.0	t		30.0	male	white	2.7190608834062875	smiling	004	sub-01	2.0	2.0	004_smiling	0.0	133.38402370632548	
19.0	107.80037707474867	pulse	1.0	t		30.0	male	white	2.7190608834062875	smiling	004	sub-01	2.0	2.0	004_smiling	0.0	134.08398002819877	
19.0	108.5003521115068	pulse	1.0	t		30.0	male	white	2.7190608834062875	smiling	004	sub-01	2.0	2.0	004_smiling	0.0	134.7839550649569	
19.0	109.20033016679463	pulse	1.0	t		30.0	male	white	2.7190608834062875	smiling	004	sub-01	2.0	2.0	004_smiling	0.0	135.48393312024473	
19.0	109.90031848508443	pulse	1.0	t		30.0	male	white	2.7190608834062875	smiling	004	sub-01	2.0	2.0	004_smiling	0.0	136.18392143853453	
20.0	110.00855481544568	face	0.0		147	22.0	female	white	3.236768802228412	neutral	118	sub-01	2.0	2.0	118_neutral	0.0	136.29215776889578	1.241599506892726
20.0	110.60030318113786	pulse	0.0	t		22.0	female	white	3.236768802228412	neutral	118	sub-01	2.0	2.0	118_neutral	0.0	136.88390613458796	
20.0	111.2501543223384	fix	1.0		443	22.0	female	white	3.236768802228412	neutral	118	sub-01	2.0	2.0	118_neutral	0.0	137.5337572757885	3.7582628481459324
20.0	111.30030206428182	pulse	1.0	t		22.0	female	white	3.236768802228412	neutral	118	sub-01	2.0	2.0	118_neutral	0.0	137.58390501773192	
20.0	112.00028223254094	pulse	1.0	t		22.0	female	white	3.236768802228412	neutral	118	sub-01	2.0	2.0	118_neutral	0.0	138.28388518599104	
20.0	112.70023613958983	pulse	1.0	t		22.0	female	white	3.236768802228412	neutral	118	sub-01	2.0	2.0	118_neutral	0.0	138.98383909303993	
20.0	113.4002223449088	pulse	1.0	t		22.0	female	white	3.236768802228412	neutral	118	sub-01	2.0	2.0	118_neutral	0.0	139.6838252983589	
20.0	114.1002016076086	pulse	1.0	t		22.0	female	white	3.236768802228412	neutral	118	sub-01	2.0	2.0	118_neutral	0.0	140.3838045610587	
20.0	114.80017724807249	pulse	1.0	t		22.0	female	white	3.236768802228412	neutral	118	sub-01	2.0	2.0	118_neutral	0.0	141.0837802015226	
21.0	115.00841717048434	face	0.0		146	29.0	male	white	1.883406287306009	neutral	143	sub-01	2.0	2.0	143_neutral	0.0	141.29202012393444	1.2416191273368895
21.0	115.50016888674509	pulse	0.0	t		29.0	male	white	1.883406287306009	neutral	143	sub-01	2.0	2.0	143_neutral	0.0	141.7837718401952	
21.0	116.20014482906208	pulse	0.0	t		29.0	male	white	1.883406287306009	neutral	143	sub-01	2.0	2.0	143_neutral	0.0	142.48374778251218	
21.0	116.25003629782123	fix	1.0		445	29.0	male	white	1.883406287306009	neutral	143	sub-01	2.0	2.0	143_neutral	0.0	142.53363925127132	3.758284883414035
21.0	116.90013043067484	pulse	1.0	t		29.0	male	white	1.883406287306009	neutral	143	sub-01	2.0	2.0	143_neutral	0.0	143.18373338412493	
21.0	117.60010878781577	pulse	1.0	t		29.0	male	white	1.883406287306009	neutral	143	sub-01	2.0	2.0	143_neutral	0.0	143.88371174126587	
21.0	118.30008412642655	pulse	1.0	t		29.0	male	white	1.883406287306009	neutral	143	sub-01	2.0	2.0	143_neutral	0.0	144.58368707987665	
21.0	119.00006157800863	pulse	1.0	t		29.0	male	white	1.883406287306009	neutral	143	sub-01	2.0	2.0	143_neutral	0.0	145.28366453145873	
21.0	119.70005623521092	pulse	1.0	t		29.0	male	white	1.883406287306009	neutral	143	sub-01	2.0	2.0	143_neutral	0.0	145.98365918866102	
22.0	120.00832118123526	face	0.0		146	48.0	male	white	1.8929566255471548	smiling	021	sub-01	2.0	2.0	021_smiling	0.0	146.29192413468536	1.241577471625078
22.0	120.40003670532269	pulse	0.0	t		48.0	male	white	1.8929566255471548	smiling	021	sub-01	2.0	2.0	021_smiling	0.0	146.6836396587728	
22.0	121.1000035920506	pulse	0.0	t		48.0	male	white	1.8929566255471548	smiling	021	sub-01	2.0	2.0	021_smiling	0.0	147.3836065455007	
22.0	121.24989865286034	fix	1.0		444	48.0	male	white	1.8929566255471548	smiling	021	sub-01	2.0	2.0	021_smiling	0.0	147.53350160631044	3.7582510758793433
22.0	121.79999885295865	pulse	1.0	t		48.0	male	white	1.8929566255471548	smiling	021	sub-01	2.0	2.0	021_smiling	0.0	148.08360180640875	
22.0	122.49998294530633	pulse	1.0	t		48.0	male	white	1.8929566255471548	smiling	021	sub-01	2.0	2.0	021_smiling	0.0	148.78358589875643	
22.0	123.19995888762332	pulse	1.0	t		48.0	male	white	1.8929566255471548	smiling	021	sub-01	2.0	2.0	021_smiling	0.0	149.48356184107342	
22.0	123.89993784847047	pulse	1.0	t		48.0	male	white	1.8929566255471548	smiling	021	sub-01	2.0	2.0	021_smiling	0.0	150.18354080192057	
22.0	124.59991047040467	pulse	1.0	t		48.0	male	white	1.8929566255471548	smiling	021	sub-01	2.0	2.0	021_smiling	0.0	150.88351342385477	
23.0	125.00814972873968	face	0.0		146	26.0	male	west_asian	2.2081177875049742	smiling	142	sub-01	2.0	2.0	142_smiling	0.0	151.29175268218978	1.241606751364543
23.0	125.29990784428355	pulse	0.0	t		26.0	male	west_asian	2.2081177875049742	smiling	142	sub-01	2.0	2.0	142_smiling	0.0	151.58351079773365	
23.0	125.99993147937221	pulse	0.0	t		26.0	male	west_asian	2.2081177875049742	smiling	142	sub-01	2.0	2.0	142_smiling	0.0	152.2835344328223	
23.0	126.24975648010422	fix	1.0		1185	26.0	male	west_asian	2.2081177875049742	smiling	142	sub-01	2.0	2.0	142_smiling	0.0	152.53335943355432	10.008186856657176
23.0	126.69985821965292	pulse	1.0	t		26.0	male	west_asian	2.2081177875049742	smiling	142	sub-01	2.0	2.0	142_smiling	0.0	152.98346117310302	
23.0	127.39985227314901	pulse	1.0	t		26.0	male	west_asian	2.2081177875049742	smiling	142	sub-01	2.0	2.0	142_smiling	0.0	153.6834552265991	
23.0	128.09979470978487	pulse	1.0	t		26.0	male	west_asian	2.2081177875049742	smiling	142	sub-01	2.0	2.0	142_smiling	0.0	154.38339766323497	
23.0	128.79980536519543	pulse	1.0	t		26.0	male	west_asian	2.2081177875049742	smiling	142	sub-01	2.0	2.0	142_smiling	0.0	155.08340831864552	
23.0	129.4997918723666	pulse	1.0	t		26.0	male	west_asian	2.2081177875049742	smiling	142	sub-01	2.0	2.0	142_smiling	0.0	155.78339482581669	
23.0	130.19977385174343	pulse	1.0	t		26.0	male	west_asian	2.2081177875049742	smiling	142	sub-01	2.0	2.0	142_smiling	0.0	156.48337680519353	
23.0	130.89975703853224	pulse	1.0	t		26.0	male	west_asian	2.2081177875049742	smiling	142	sub-01	2.0	2.0	142_smiling	0.0	157.18335999198234	
23.0	131.59979546441718	pulse	1.0	t		26.0	male	west_asian	2.2081177875049742	smiling	142	sub-01	2.0	2.0	142_smiling	0.0	157.88339841786728	
23.0	132.29971496022608	pulse	1.0	t		26.0	male	west_asian	2.2081177875049742	smiling	142	sub-01	2.0	2.0	142_smiling	0.0	158.58331791367618	
23.0	132.99968245065975	pulse	1.0	t		26.0	male	west_asian	2.2081177875049742	smiling	142	sub-01	2.0	2.0	142_smiling	0.0	159.28328540410985	
23.0	133.69966261891886	pulse	1.0	t		26.0	male	west_asian	2.2081177875049742	smiling	142	sub-01	2.0	2.0	142_smiling	0.0	159.98326557236896	
23.0	134.39966361503366	pulse	1.0	t		26.0	male	west_asian	2.2081177875049742	smiling	142	sub-01	2.0	2.0	142_smiling	0.0	160.68326656848376	
23.0	135.0996419721746	pulse	1.0	t		26.0	male	west_asian	2.2081177875049742	smiling	142	sub-01	2.0	2.0	142_smiling	0.0	161.3832449256247	
23.0	135.79961429225568	pulse	1.0	t		26.0	male	west_asian	2.2081177875049742	smiling	142	sub-01	2.0	2.0	142_smiling	0.0	162.08321724570578	
24.0	136.2579433367614	face	0.0		146	23.0	female	white	3.7552725825706332	smiling	122	sub-01	2.0	2.0	122_smiling	0.0	162.5415462902115	1.241527665882586
24.0	136.49960683648715	pulse	0.0	t		23.0	female	white	3.7552725825706332	smiling	122	sub-01	2.0	2.0	122_smiling	0.0	162.78320978993725	
24.0	137.1996171900446	pulse	0.0	t		23.0	female	white	3.7552725825706332	smiling	122	sub-01	2.0	2.0	122_smiling	0.0	163.4832201434947	
24.0	137.499471002644	fix	1.0		444	23.0	female	white	3.7552725825706332	smiling	122	sub-01	2.0	2.0	122_smiling	0.0	163.78307395609409	3.7582402091720724
24.0	137.89956988968152	pulse	1.0	t		23.0	female	white	3.7552725825706332	smiling	122	sub-01	2.0	2.0	122_smiling	0.0	164.18317284313162	
24.0	138.599544624587	pulse	1.0	t		23.0	female	white	3.7552725825706332	smiling	122	sub-01	2.0	2.0	122_smiling	0.0	164.8831475780371	
24.0	139.29952328358058	pulse	1.0	t		23.0	female	white	3.7552725825706332	smiling	122	sub-01	2.0	2.0	122_smiling	0.0	165.58312623703068	
24.0	139.99951220557614	pulse	1.0	t		23.0	female	white	3.7552725825706332	smiling	122	sub-01	2.0	2.0	122_smiling	0.0	166.28311515902624	
24.0	140.69948241268685	pulse	1.0	t		23.0	female	white	3.7552725825706332	smiling	122	sub-01	2.0	2.0	122_smiling	0.0	166.98308536613695	
25.0	141.25771121181606	face	0.0		146	29.0	male	east_asian	2.899323517707918	smiling	067	sub-01	2.0	2.0	067_smiling	1.0	167.54131416526616	1.2416082606291639
25.0	141.39947646618293	pulse	0.0	t		29.0	male	east_asian	2.899323517707918	smiling	067	sub-01	2.0	2.0	067_smiling	1.0	167.68307941963303	
25.0	142.09944425846925	pulse	0.0	t		29.0	male	east_asian	2.899323517707918	smiling	067	sub-01	2.0	2.0	067_smiling	1.0	168.38304721191935	
25.0	142.49931947244522	fix	1.0		236	29.0	male	east_asian	2.899323517707918	smiling	067	sub-01	2.0	2.0	067_smiling	1.0	168.78292242589532	1.9999562313173556
25.0	142.7994328786117	pulse	1.0	t		29.0	male	east_asian	2.899323517707918	smiling	067	sub-01	2.0	2.0	067_smiling	1.0	169.0830358320618	
25.0	143.49941666910672	pulse	1.0	t		29.0	male	east_asian	2.899323517707918	smiling	067	sub-01	2.0	2.0	067_smiling	1.0	169.78301962255682	
25.0	144.19938657436387	pulse	1.0	t		29.0	male	east_asian	2.899323517707918	smiling	067	sub-01	2.0	2.0	067_smiling	1.0	170.48298952781397	
25.0	144.49927570376258	rating	2.0		235	29.0	male	east_asian	2.899323517707918	smiling	067	sub-01	2.0	2.0	067_smiling	1.0	170.78287865721268	1.99994144052107
25.0	144.89938847603753	pulse	2.0	t		29.0	male	east_asian	2.899323517707918	smiling	067	sub-01	2.0	2.0	067_smiling	1.0	171.18299142948763	
25.0	145.14935564952566	response	2.0	b		29.0	male	east_asian	2.899323517707918	smiling	067	sub-01	2.0	2.0	067_smiling	1.0	171.43295860297576	
25.0	145.59941180927353	pulse	2.0	t		29.0	male	east_asian	2.899323517707918	smiling	067	sub-01	2.0	2.0	067_smiling	1.0	171.88301476272363	
25.0	146.2993394551131	pulse	2.0	t		29.0	male	east_asian	2.899323517707918	smiling	067	sub-01	2.0	2.0	067_smiling	1.0	172.5829424085632	
25.0	146.49921714428365	fix	3.0		445	29.0	male	east_asian	2.899323517707918	smiling	067	sub-01	2.0	2.0	067_smiling	1.0	172.78282009773375	3.774875930876533
25.0	146.99932324560768	pulse	3.0	t		29.0	male	east_asian	2.899323517707918	smiling	067	sub-01	2.0	2.0	067_smiling	1.0	173.28292619905778	
25.0	147.69929345271794	pulse	3.0	t		29.0	male	east_asian	2.899323517707918	smiling	067	sub-01	2.0	2.0	067_smiling	1.0	173.98289640616804	
25.0	148.39925550979797	pulse	3.0	t		29.0	male	east_asian	2.899323517707918	smiling	067	sub-01	2.0	2.0	067_smiling	1.0	174.68285846324807	
25.0	149.0993189894807	pulse	3.0	t		29.0	male	east_asian	2.899323517707918	smiling	067	sub-01	2.0	2.0	067_smiling	1.0	175.3829219429308	
25.0	149.79923607046567	pulse	3.0	t		29.0	male	east_asian	2.899323517707918	smiling	067	sub-01	2.0	2.0	067_smiling	1.0	176.08283902391577	
26.0	150.27409307516018	face	0.0		145	34.0	male	white	2.329486669319538	smiling	131	sub-01	2.0	2.0	131_smiling	1.0	176.55769602861028	1.2333142461629905
26.0	150.499224388755	pulse	0.0	t		34.0	male	white	2.329486669319538	smiling	131	sub-01	2.0	2.0	131_smiling	1.0	176.7828273422051	
26.0	151.19919640698345	pulse	0.0	t		34.0	male	white	2.329486669319538	smiling	131	sub-01	2.0	2.0	131_smiling	1.0	177.48279936043355	
26.0	151.50740732132317	fix	1.0		236	34.0	male	white	2.329486669319538	smiling	131	sub-01	2.0	2.0	131_smiling	1.0	177.79101027477327	1.999965890612657
26.0	151.89919408271544	pulse	1.0	t		34.0	male	white	2.329486669319538	smiling	131	sub-01	2.0	2.0	131_smiling	1.0	178.18279703616554	
26.0	152.599165195385	pulse	1.0	t		34.0	male	white	2.329486669319538	smiling	131	sub-01	2.0	2.0	131_smiling	1.0	178.8827681488351	
26.0	153.29915441923322	pulse	1.0	t		34.0	male	white	2.329486669319538	smiling	131	sub-01	2.0	2.0	131_smiling	1.0	179.58275737268332	
26.0	153.50737321193583	rating	2.0		235	34.0	male	white	2.329486669319538	smiling	131	sub-01	2.0	2.0	131_smiling	1.0	179.79097616538593	1.9999471757278116
26.0	153.999138813434	pulse	2.0	t		34.0	male	white	2.329486669319538	smiling	131	sub-01	2.0	2.0	131_smiling	1.0	180.2827417668841	
26.0	154.69911686872183	pulse	2.0	t		34.0	male	white	2.329486669319538	smiling	131	sub-01	2.0	2.0	131_smiling	1.0	180.98271982217193	
26.0	155.07409192811883	response	2.0	w		34.0	male	white	2.329486669319538	smiling	131	sub-01	2.0	2.0	131_smiling	1.0	181.35769488156893	
26.0	155.399090698068	pulse	2.0	t		34.0	male	white	2.329486669319538	smiling	131	sub-01	2.0	2.0	131_smiling	1.0	181.6826936515181	
26.0	155.50732038766364	fix	3.0		445	34.0	male	white	2.329486669319538	smiling	131	sub-01	2.0	2.0	131_smiling	1.0	181.79092334111374	3.76654871258188
26.0	156.09908082747552	pulse	3.0	t		34.0	male	white	2.329486669319538	smiling	131	sub-01	2.0	2.0	131_smiling	1.0	182.38268378092562	
26.0	156.79905707164562	pulse	3.0	t		34.0	male	white	2.329486669319538	smiling	131	sub-01	2.0	2.0	131_smiling	1.0	183.08266002509572	
26.0	157.49904025843443	pulse	3.0	t		34.0	male	white	2.329486669319538	smiling	131	sub-01	2.0	2.0	131_smiling	1.0	183.78264321188453	
26.0	158.19900774886764	pulse	3.0	t		34.0	male	white	2.329486669319538	smiling	131	sub-01	2.0	2.0	131_smiling	1.0	184.48261070231774	
26.0	158.898999991246	pulse	3.0	t		34.0	male	white	2.329486669319538	smiling	131	sub-01	2.0	2.0	131_smiling	1.0	185.1826029446961	
27.0	159.27386910024552	face	0.0		145	26.0	female	white	4.854755272582572	smiling	027	sub-01	2.0	2.0	027_smiling	0.0	185.55747205369562	1.2332955312776903
27.0	159.59899042250663	pulse	0.0	t		26.0	female	white	4.854755272582572	smiling	027	sub-01	2.0	2.0	027_smiling	0.0	185.88259337595673	
27.0	160.29897964635484	pulse	0.0	t		26.0	female	white	4.854755272582572	smiling	027	sub-01	2.0	2.0	027_smiling	0.0	186.58258259980494	
27.0	160.5071646315232	fix	1.0		444	26.0	female	white	4.854755272582572	smiling	027	sub-01	2.0	2.0	027_smiling	0.0	186.7907675849733	3.7665728608208155
27.0	160.9989622294379	pulse	1.0	t		26.0	female	white	4.854755272582572	smiling	027	sub-01	2.0	2.0	027_smiling	0.0	187.282565182888	
27.0	161.69893243654815	pulse	1.0	t		26.0	female	white	4.854755272582572	smiling	027	sub-01	2.0	2.0	027_smiling	0.0	187.98253538999825	
27.0	162.39890686960052	pulse	1.0	t		26.0	female	white	4.854755272582572	smiling	027	sub-01	2.0	2.0	027_smiling	0.0	188.68250982305062	
27.0	163.09889458418365	pulse	1.0	t		26.0	female	white	4.854755272582572	smiling	027	sub-01	2.0	2.0	027_smiling	0.0	189.38249753763375	
27.0	163.7988729413246	pulse	1.0	t		26.0	female	white	4.854755272582572	smiling	027	sub-01	2.0	2.0	027_smiling	0.0	190.0824758947747	
28.0	164.27373749234403	face	0.0		145	25.0	male	west_asian	2.054118583366494	smiling	115	sub-01	2.0	2.0	115_smiling	0.0	190.55734044579413	1.233313038751021
28.0	164.49885854293734	pulse	0.0	t		25.0	male	west_asian	2.054118583366494	smiling	115	sub-01	2.0	2.0	115_smiling	0.0	190.78246149638744	
28.0	165.19883297598972	pulse	0.0	t		25.0	male	west_asian	2.054118583366494	smiling	115	sub-01	2.0	2.0	115_smiling	0.0	191.48243592943982	
28.0	165.50705053109505	fix	1.0		444	25.0	male	west_asian	2.054118583366494	smiling	115	sub-01	2.0	2.0	115_smiling	0.0	191.79065348454515	3.7582954482682
28.0	165.89882612392694	pulse	1.0	t		25.0	male	west_asian	2.054118583366494	smiling	115	sub-01	2.0	2.0	115_smiling	0.0	192.18242907737704	
28.0	166.5987866717419	pulse	1.0	t		25.0	male	west_asian	2.054118583366494	smiling	115	sub-01	2.0	2.0	115_smiling	0.0	192.882389625192	
28.0	167.2988112123894	pulse	1.0	t		25.0	male	west_asian	2.054118583366494	smiling	115	sub-01	2.0	2.0	115_smiling	0.0	193.5824141658395	
28.0	167.9987584786727	pulse	1.0	t		25.0	male	west_asian	2.054118583366494	smiling	115	sub-01	2.0	2.0	115_smiling	0.0	194.2823614321228	
28.0	168.69874558955053	pulse	1.0	t		25.0	male	west_asian	2.054118583366494	smiling	115	sub-01	2.0	2.0	115_smiling	0.0	194.98234854300063	
29.0	169.26534597936325	face	0.0		146	20.0	male	black	3.1070433744528456	neutral	082	sub-01	2.0	2.0	082_neutral	0.0	195.54894893281335	1.2415738493896242
29.0	169.39872817263313	pulse	0.0	t		20.0	male	black	3.1070433744528456	neutral	082	sub-01	2.0	2.0	082_neutral	0.0	195.68233112608323	
29.0	170.0987029075386	pulse	0.0	t		20.0	male	black	3.1070433744528456	neutral	082	sub-01	2.0	2.0	082_neutral	0.0	196.3823058609887	
29.0	170.50691982875287	fix	1.0		444	20.0	male	black	3.1070433744528456	neutral	082	sub-01	2.0	2.0	082_neutral	0.0	196.79052278220297	3.7582293424643467
29.0	170.79868971656288	pulse	1.0	t		20.0	male	black	3.1070433744528456	neutral	082	sub-01	2.0	2.0	082_neutral	0.0	197.08229267001298	
29.0	171.49866746999805	pulse	1.0	t		20.0	male	black	3.1070433744528456	neutral	082	sub-01	2.0	2.0	082_neutral	0.0	197.78227042344815	
29.0	172.19863677154945	pulse	1.0	t		20.0	male	black	3.1070433744528456	neutral	082	sub-01	2.0	2.0	082_neutral	0.0	198.48223972499954	
29.0	172.89862750466273	pulse	1.0	t		20.0	male	black	3.1070433744528456	neutral	082	sub-01	2.0	2.0	082_neutral	0.0	199.18223045811283	
29.0	173.5986079747745	pulse	1.0	t		20.0	male	black	3.1070433744528456	neutral	082	sub-01	2.0	2.0	082_neutral	0.0	199.8822109282246	
30.0	174.26514917121722	face	0.0		146	28.0	female	white	5.676880222841227	smiling	124	sub-01	2.0	2.0	124_smiling	1.0	200.54875212466732	1.2416173162191626
30.0	174.29859689677005	pulse	0.0	t		28.0	female	white	5.676880222841227	smiling	124	sub-01	2.0	2.0	124_smiling	1.0	200.58219985022015	
30.0	174.99857827244114	pulse	0.0	t		28.0	female	white	5.676880222841227	smiling	124	sub-01	2.0	2.0	124_smiling	1.0	201.28218122589124	
30.0	175.50676648743638	fix	1.0		236	28.0	female	white	5.676880222841227	smiling	124	sub-01	2.0	2.0	124_smiling	1.0	201.79036944088648	1.9999646832006874
30.0	175.69853972581495	pulse	1.0	t		28.0	female	white	5.676880222841227	smiling	124	sub-01	2.0	2.0	124_smiling	1.0	201.98214267926505	
30.0	176.39858358505353	pulse	1.0	t		28.0	female	white	5.676880222841227	smiling	124	sub-01	2.0	2.0	124_smiling	1.0	202.68218653850363	
30.0	177.09850277900932	pulse	1.0	t		28.0	female	white	5.676880222841227	smiling	124	sub-01	2.0	2.0	124_smiling	1.0	203.38210573245942	
30.0	177.50673117063707	rating	2.0		235	28.0	female	white	5.676880222841227	smiling	124	sub-01	2.0	2.0	124_smiling	1.0	203.79033412408717	1.999936309020086
30.0	177.79850468068298	pulse	2.0	t		28.0	female	white	5.676880222841227	smiling	124	sub-01	2.0	2.0	124_smiling	1.0	204.08210763413308	
30.0	178.38492171895587	response	2.0	b		28.0	female	white	5.676880222841227	smiling	124	sub-01	2.0	2.0	124_smiling	1.0	204.66852467240597	
30.0	178.4984697562927	pulse	2.0	t		28.0	female	white	5.676880222841227	smiling	124	sub-01	2.0	2.0	124_smiling	1.0	204.7820727097428	
30.0	179.19843362449046	pulse	2.0	t		28.0	female	white	5.676880222841227	smiling	124	sub-01	2.0	2.0	124_smiling	1.0	205.48203657794056	
30.0	179.50666747965715	fix	3.0		444	28.0	female	white	5.676880222841227	smiling	124	sub-01	2.0	2.0	124_smiling	1.0	205.79027043310725	3.7583582336892505
30.0	179.89845695772647	pulse	3.0	t		28.0	female	white	5.676880222841227	smiling	124	sub-01	2.0	2.0	124_smiling	1.0	206.18205991117657	
30.0	180.59841599627634	pulse	3.0	t		28.0	female	white	5.676880222841227	smiling	124	sub-01	2.0	2.0	124_smiling	1.0	206.88201894972644	
30.0	181.2984028053006	pulse	3.0	t		28.0	female	white	5.676880222841227	smiling	124	sub-01	2.0	2.0	124_smiling	1.0	207.5820057587507	
30.0	181.99860543920977	pulse	3.0	t		28.0	female	white	5.676880222841227	smiling	124	sub-01	2.0	2.0	124_smiling	1.0	208.28220839265987	
30.0	182.698395440088	pulse	3.0	t		28.0	female	white	5.676880222841227	smiling	124	sub-01	2.0	2.0	124_smiling	1.0	208.9819983935381	
31.0	183.2650257133464	face	0.0		146	22.0	female	white	4.614007162753682	neutral	009	sub-01	2.0	2.0	009_neutral	0.0	209.5486286667965	1.241506838026453
31.0	183.3983529693728	pulse	0.0	t		22.0	female	white	4.614007162753682	neutral	009	sub-01	2.0	2.0	009_neutral	0.0	209.6819559228229	
31.0	184.09832408204238	pulse	0.0	t		22.0	female	white	4.614007162753682	neutral	009	sub-01	2.0	2.0	009_neutral	0.0	210.38192703549248	
31.0	184.50653255137286	fix	1.0		444	22.0	female	white	4.614007162753682	neutral	009	sub-01	2.0	2.0	009_neutral	0.0	210.79013550482296	3.7582070053440475
31.0	184.798305457713	pulse	1.0	t		22.0	female	white	4.614007162753682	neutral	009	sub-01	2.0	2.0	009_neutral	0.0	211.0819084111631	
31.0	185.4982928704435	pulse	1.0	t		22.0	female	white	4.614007162753682	neutral	009	sub-01	2.0	2.0	009_neutral	0.0	211.7818958238936	
31.0	186.19826005902405	pulse	1.0	t		22.0	female	white	4.614007162753682	neutral	009	sub-01	2.0	2.0	009_neutral	0.0	212.48186301247415	
31.0	186.8982519995493	pulse	1.0	t		22.0	female	white	4.614007162753682	neutral	009	sub-01	2.0	2.0	009_neutral	0.0	213.1818549529994	
31.0	187.5982430345157	pulse	1.0	t		22.0	female	white	4.614007162753682	neutral	009	sub-01	2.0	2.0	009_neutral	0.0	213.8818459879658	
32.0	188.2647395567169	face	0.0		146	31.0	female	white	2.1822522881018704	smiling	102	sub-01	2.0	2.0	102_smiling	1.0	214.548342510167	1.2416692349324876
32.0	188.29821052494935	pulse	0.0	t		31.0	female	white	2.1822522881018704	smiling	102	sub-01	2.0	2.0	102_smiling	1.0	214.58181347839945	
32.0	188.99819099506112	pulse	0.0	t		31.0	female	white	2.1822522881018704	smiling	102	sub-01	2.0	2.0	102_smiling	1.0	215.28179394851122	
32.0	189.5064087916494	fix	1.0		236	31.0	female	white	2.1822522881018704	smiling	102	sub-01	2.0	2.0	102_smiling	1.0	215.7900117450995	1.9999366108727372
32.0	189.69818323743948	pulse	1.0	t		31.0	female	white	2.1822522881018704	smiling	102	sub-01	2.0	2.0	102_smiling	1.0	215.98178619088958	
32.0	190.39816491496322	pulse	1.0	t		31.0	female	white	2.1822522881018704	smiling	102	sub-01	2.0	2.0	102_smiling	1.0	216.68176786841332	
32.0	191.09813783875052	pulse	1.0	t		31.0	female	white	2.1822522881018704	smiling	102	sub-01	2.0	2.0	102_smiling	1.0	217.38174079220062	
32.0	191.50634540252213	rating	2.0		235	31.0	female	white	2.1822522881018704	smiling	102	sub-01	2.0	2.0	102_smiling	1.0	217.78994835597223	1.999955325758492
32.0	191.79812464777524	pulse	2.0	t		31.0	female	white	2.1822522881018704	smiling	102	sub-01	2.0	2.0	102_smiling	1.0	218.08172760122534	
32.0	192.49810934382867	pulse	2.0	t		31.0	female	white	2.1822522881018704	smiling	102	sub-01	2.0	2.0	102_smiling	1.0	218.78171229727877	
32.0	192.93974591826827	response	2.0	g		31.0	female	white	2.1822522881018704	smiling	102	sub-01	2.0	2.0	102_smiling	1.0	219.22334887171837	
32.0	193.19807351387954	pulse	2.0	t		31.0	female	white	2.1822522881018704	smiling	102	sub-01	2.0	2.0	102_smiling	1.0	219.48167646732963	
32.0	193.50630072828062	fix	3.0		444	31.0	female	white	2.1822522881018704	smiling	102	sub-01	2.0	2.0	102_smiling	1.0	219.78990368173072	3.766553240376652
32.0	193.89807088775842	pulse	3.0	t		31.0	female	white	2.1822522881018704	smiling	102	sub-01	2.0	2.0	102_smiling	1.0	220.18167384120852	
32.0	194.59805105601754	pulse	3.0	t		31.0	female	white	2.1822522881018704	smiling	102	sub-01	2.0	2.0	102_smiling	1.0	220.88165400946764	
32.0	195.29801673533302	pulse	3.0	t		31.0	female	white	2.1822522881018704	smiling	102	sub-01	2.0	2.0	102_smiling	1.0	221.58161968878312	
32.0	195.9980038462104	pulse	3.0	t		31.0	female	white	2.1822522881018704	smiling	102	sub-01	2.0	2.0	102_smiling	1.0	222.2816067996605	
32.0	196.69797827926277	pulse	3.0	t		31.0	female	white	2.1822522881018704	smiling	102	sub-01	2.0	2.0	102_smiling	1.0	222.98158123271287	
33.0	197.27285396865727	face	0.0		145	38.0	female	white	3.0791882212495025	neutral	003	sub-01	2.0	2.0	003_neutral	0.0	223.55645692210737	1.2333000590724623
33.0	197.39797746425984	pulse	0.0	t		38.0	female	white	3.0791882212495025	neutral	003	sub-01	2.0	2.0	003_neutral	0.0	223.68158041770994	
33.0	198.09795008619403	pulse	0.0	t		38.0	female	white	3.0791882212495025	neutral	003	sub-01	2.0	2.0	003_neutral	0.0	224.38155303964413	
33.0	198.50615402772974	fix	1.0		444	38.0	female	white	3.0791882212495025	neutral	003	sub-01	2.0	2.0	003_neutral	0.0	224.78975698117983	3.758232360994498
33.0	198.79792904704118	pulse	1.0	t		38.0	female	white	3.0791882212495025	neutral	003	sub-01	2.0	2.0	003_neutral	0.0	225.08153200049128	
33.0	199.49791978015446	pulse	1.0	t		38.0	female	white	3.0791882212495025	neutral	003	sub-01	2.0	2.0	003_neutral	0.0	225.78152273360456	
33.0	200.19789632617722	pulse	1.0	t		38.0	female	white	3.0791882212495025	neutral	003	sub-01	2.0	2.0	003_neutral	0.0	226.48149927962731	
33.0	200.89787528702436	pulse	1.0	t		38.0	female	white	3.0791882212495025	neutral	003	sub-01	2.0	2.0	003_neutral	0.0	227.18147824047446	
33.0	201.59786420901992	pulse	1.0	t		38.0	female	white	3.0791882212495025	neutral	003	sub-01	2.0	2.0	003_neutral	0.0	227.88146716247002	
34.0	202.26438638872423	face	0.0		146	34.0	male	white	2.329486669319538	neutral	131	sub-01	2.0	2.0	131_neutral	0.0	228.54798934217433	1.2416299940446152
34.0	202.2978483013676	pulse	0.0	t		34.0	male	white	2.329486669319538	neutral	131	sub-01	2.0	2.0	131_neutral	0.0	228.5814512548177	
34.0	202.9978130751242	pulse	0.0	t		34.0	male	white	2.329486669319538	neutral	131	sub-01	2.0	2.0	131_neutral	0.0	229.2814160285743	
34.0	203.50601638276885	fix	1.0		443	34.0	male	white	2.329486669319538	neutral	131	sub-01	2.0	2.0	131_neutral	0.0	229.78961933621895	3.7582127405503343
34.0	203.69780833603227	pulse	1.0	t		34.0	male	white	2.329486669319538	neutral	131	sub-01	2.0	2.0	131_neutral	0.0	229.98141128948237	
34.0	204.39780299323456	pulse	1.0	t		34.0	male	white	2.329486669319538	neutral	131	sub-01	2.0	2.0	131_neutral	0.0	230.68140594668466	
34.0	205.09776716328497	pulse	1.0	t		34.0	male	white	2.329486669319538	neutral	131	sub-01	2.0	2.0	131_neutral	0.0	231.38137011673507	
34.0	205.7977506519269	pulse	1.0	t		34.0	male	white	2.329486669319538	neutral	131	sub-01	2.0	2.0	131_neutral	0.0	232.081353605377	
34.0	206.49772267015533	pulse	1.0	t		34.0	male	white	2.329486669319538	neutral	131	sub-01	2.0	2.0	131_neutral	0.0	232.78132562360543	
34.0	207.19770796991497	pulse	1.0	t		34.0	male	white	2.329486669319538	neutral	131	sub-01	2.0	2.0	131_neutral	0.0	233.48131092336507	
35.0	207.26422912331918	face	0.0		147	21.0	female	black	3.1205730202944686	smiling	025	sub-01	2.0	2.0	025_smiling	0.0	233.54783207676928	1.2416713479033206
35.0	207.8976944770866	pulse	0.0	t		21.0	female	black	3.1205730202944686	smiling	025	sub-01	2.0	2.0	025_smiling	0.0	234.1812974305367	
35.0	208.5059004712225	fix	1.0		443	21.0	female	black	3.1205730202944686	smiling	025	sub-01	2.0	2.0	025_smiling	0.0	234.7895034246726	3.766553240376652
35.0	208.59767977684623	pulse	1.0	t		21.0	female	black	3.1205730202944686	smiling	025	sub-01	2.0	2.0	025_smiling	0.0	234.88128273029633	
35.0	209.29765088951535	pulse	1.0	t		21.0	female	black	3.1205730202944686	smiling	025	sub-01	2.0	2.0	025_smiling	0.0	235.58125384296545	
35.0	209.99763437815727	pulse	1.0	t		21.0	female	black	3.1205730202944686	smiling	025	sub-01	2.0	2.0	025_smiling	0.0	236.28123733160737	
35.0	210.69760458526753	pulse	1.0	t		21.0	female	black	3.1205730202944686	smiling	025	sub-01	2.0	2.0	025_smiling	0.0	236.98120753871763	
35.0	211.39760497767656	pulse	1.0	t		21.0	female	black	3.1205730202944686	smiling	025	sub-01	2.0	2.0	025_smiling	0.0	237.68120793112666	
35.0	212.09756884587387	pulse	1.0	t		21.0	female	black	3.1205730202944686	smiling	025	sub-01	2.0	2.0	025_smiling	0.0	238.38117179932397	
36.0	212.27245371159916	face	0.0		146	22.0	male	black	2.767608436132113	smiling	044	sub-01	2.0	2.0	044_smiling	0.0	238.55605666504925	1.2416345218393872
36.0	212.797565616047	pulse	0.0	t		22.0	male	black	2.767608436132113	smiling	044	sub-01	2.0	2.0	044_smiling	0.0	239.0811685694971	
36.0	213.4975355213046	pulse	0.0	t		22.0	male	black	2.767608436132113	smiling	044	sub-01	2.0	2.0	044_smiling	0.0	239.7811384747547	
36.0	213.51408823343854	fix	1.0		443	22.0	male	black	2.767608436132113	smiling	044	sub-01	2.0	2.0	044_smiling	0.0	239.79769118688864	3.75821424981541
36.0	214.19754164891992	pulse	1.0	t		22.0	male	black	2.767608436132113	smiling	044	sub-01	2.0	2.0	044_smiling	0.0	240.48114460237002	
36.0	214.89750732823586	pulse	1.0	t		22.0	male	black	2.767608436132113	smiling	044	sub-01	2.0	2.0	044_smiling	0.0	241.18111028168596	
36.0	215.597477233493	pulse	1.0	t		22.0	male	black	2.767608436132113	smiling	044	sub-01	2.0	2.0	044_smiling	0.0	241.8810801869431	
36.0	216.29746675919478	pulse	1.0	t		22.0	male	black	2.767608436132113	smiling	044	sub-01	2.0	2.0	044_smiling	0.0	242.58106971264488	
36.0	216.99745024783624	pulse	1.0	t		22.0	male	black	2.767608436132113	smiling	044	sub-01	2.0	2.0	044_smiling	0.0	243.28105320128634	
37.0	217.27230248325395	face	0.0		145	24.0	female	east_asian	4.409868682849185	smiling	030	sub-01	2.0	2.0	030_smiling	0.0	243.55590543670405	1.233331149930109
37.0	217.6974243790355	pulse	0.0	t		24.0	female	east_asian	4.409868682849185	smiling	030	sub-01	2.0	2.0	030_smiling	0.0	243.9810273324856	
37.0	218.3974087732363	pulse	0.0	t		24.0	female	east_asian	4.409868682849185	smiling	030	sub-01	2.0	2.0	030_smiling	0.0	244.6810117266864	
37.0	218.50563363318406	fix	1.0		444	24.0	female	east_asian	4.409868682849185	smiling	030	sub-01	2.0	2.0	030_smiling	0.0	244.78923658663416	3.7665339217855944
37.0	219.0973943748486	pulse	1.0	t		24.0	female	east_asian	4.409868682849185	smiling	030	sub-01	2.0	2.0	030_smiling	0.0	245.3809973282987	
37.0	219.79737695793165	pulse	1.0	t		24.0	female	east_asian	4.409868682849185	smiling	030	sub-01	2.0	2.0	030_smiling	0.0	246.08097991138175	
37.0	220.49736135213243	pulse	1.0	t		24.0	female	east_asian	4.409868682849185	smiling	030	sub-01	2.0	2.0	030_smiling	0.0	246.78096430558253	
37.0	221.19732793700678	pulse	1.0	t		24.0	female	east_asian	4.409868682849185	smiling	030	sub-01	2.0	2.0	030_smiling	0.0	247.48093089045688	
37.0	221.89731263306066	pulse	1.0	t		24.0	female	east_asian	4.409868682849185	smiling	030	sub-01	2.0	2.0	030_smiling	0.0	248.18091558651076	
38.0	222.27216755496966	face	0.0		145	23.0	female	white	3.7552725825706332	neutral	122	sub-01	2.0	2.0	122_neutral	0.0	248.55577050841976	1.2333100202208698
38.0	222.5973036680266	pulse	0.0	t		23.0	female	white	3.7552725825706332	neutral	122	sub-01	2.0	2.0	122_neutral	0.0	248.8809066214767	
38.0	223.29726813993057	pulse	0.0	t		23.0	female	white	3.7552725825706332	neutral	122	sub-01	2.0	2.0	122_neutral	0.0	249.58087109338067	
38.0	223.50547757519053	fix	1.0		444	23.0	female	white	3.7552725825706332	neutral	122	sub-01	2.0	2.0	122_neutral	0.0	249.78908052864062	3.766571955261952
38.0	223.9972531378371	pulse	1.0	t		23.0	female	white	3.7552725825706332	neutral	122	sub-01	2.0	2.0	122_neutral	0.0	250.2808560912872	
38.0	224.69723964500872	pulse	1.0	t		23.0	female	white	3.7552725825706332	neutral	122	sub-01	2.0	2.0	122_neutral	0.0	250.98084259845882	
38.0	225.39721800214966	pulse	1.0	t		23.0	female	white	3.7552725825706332	neutral	122	sub-01	2.0	2.0	122_neutral	0.0	251.68082095559976	
38.0	226.0971969629968	pulse	1.0	t		23.0	female	white	3.7552725825706332	neutral	122	sub-01	2.0	2.0	122_neutral	0.0	252.3807999164469	
38.0	226.79718860166895	pulse	1.0	t		23.0	female	white	3.7552725825706332	neutral	122	sub-01	2.0	2.0	122_neutral	0.0	253.08079155511905	
39.0	227.27204953045248	face	0.0		145	31.0	female	white	2.1822522881018704	neutral	102	sub-01	2.0	2.0	102_neutral	0.0	253.55565248390258	1.2333139443098844
39.0	227.4971708828989	pulse	0.0	t		31.0	female	white	2.1822522881018704	neutral	102	sub-01	2.0	2.0	102_neutral	0.0	253.780773836349	
39.0	228.19714410853885	pulse	0.0	t		31.0	female	white	2.1822522881018704	neutral	102	sub-01	2.0	2.0	102_neutral	0.0	254.48074706198895	
39.0	228.50536347476236	fix	1.0		444	31.0	female	white	2.1822522881018704	neutral	102	sub-01	2.0	2.0	102_neutral	0.0	254.78896642821246	3.7499012186108303
39.0	228.8971327286813	pulse	1.0	t		31.0	female	white	2.1822522881018704	neutral	102	sub-01	2.0	2.0	102_neutral	0.0	255.1807356821314	
39.0	229.59711682102898	pulse	1.0	t		31.0	female	white	2.1822522881018704	neutral	102	sub-01	2.0	2.0	102_neutral	0.0	255.88071977447908	
39.0	230.29706499287158	pulse	1.0	t		31.0	female	white	2.1822522881018704	neutral	102	sub-01	2.0	2.0	102_neutral	0.0	256.5806679463217	
39.0	230.99707021492804	pulse	1.0	t		31.0	female	white	2.1822522881018704	neutral	102	sub-01	2.0	2.0	102_neutral	0.0	257.28067316837814	
39.0	231.6970374035086	pulse	1.0	t		31.0	female	white	2.1822522881018704	neutral	102	sub-01	2.0	2.0	102_neutral	0.0	257.9806403569587	
40.0	232.2552646933732	fix	0.0		720												258.5388676468233	5.999828245651315
40.0	232.39704111630044	pulse	0.0	t													258.68064406975054	
40.0	233.09700407893934	pulse	0.0	t													259.38060703238943	
40.0	233.79707178456374	pulse	0.0	t													260.08067473801384	
40.0	234.4969852433128	pulse	0.0	t													260.7805881967629	
40.0	235.1969799005151	pulse	0.0	t													261.4805828539652	
40.0	235.8969446742717	pulse	0.0	t													262.1805476277218	
40.0	236.59692846476673	pulse	0.0	t													262.88053141821683	
40.0	237.29689927558275	pulse	0.0	t													263.58050222903285	
40.0	237.99688940499027	pulse	0.0	t													264.28049235844037	
