trial_nr	onset	event_type	phase	response	nr_frames	face_age	face_sex	face_eth	attractiveness	expression	face_id	sub_id	ses	run	trial_type	catch	onset_abs	duration
-1.0	0.05778492431500126	fix	0.0		714												26.576054425300754	5.966231102871461
-1.0	0.7076369710744075	pulse	0.0	t													27.22590647206016	
-1.0	1.4076506450146553	pulse	0.0	t													27.925920146000408	
-1.0	2.107641679981043	pulse	0.0	t													28.625911180966796	
-1.0	2.807641468683869	pulse	0.0	t													29.32591096966962	
-1.0	3.5075642848755706	pulse	0.0	t													30.025833785861323	
-1.0	4.207549584635217	pulse	0.0	t													30.72581908562097	
-1.0	4.907583784578492	pulse	0.0	t													31.425853285564244	
-1.0	5.6075271267732205	pulse	0.0	t													32.12579662775897	
0.0	6.0240160271864625	face	0.0		144	26.0	male	white	2.7966573816155993	neutral	117	sub-03	1.0	2.0	117_neutral	0.0	32.542285528172215	1.2333350740186688
0.0	6.307484656058477	pulse	0.0	t		26.0	male	white	2.7966573816155993	neutral	117	sub-03	1.0	2.0	117_neutral	0.0	32.82575415704423	
0.0	7.007465729876003	pulse	0.0	t		26.0	male	white	2.7966573816155993	neutral	117	sub-03	1.0	2.0	117_neutral	0.0	33.525735230861756	
0.0	7.257351101205131	fix	1.0		444	26.0	male	white	2.7966573816155993	neutral	117	sub-03	1.0	2.0	117_neutral	0.0	33.775620602190884	3.7582136461091977
0.0	7.707450425929892	pulse	1.0	t		26.0	male	white	2.7966573816155993	neutral	117	sub-03	1.0	2.0	117_neutral	0.0	34.225719926915644	
0.0	8.407431197894766	pulse	1.0	t		26.0	male	white	2.7966573816155993	neutral	117	sub-03	1.0	2.0	117_neutral	0.0	34.92570069888052	
0.0	9.107403216123203	pulse	1.0	t		26.0	male	white	2.7966573816155993	neutral	117	sub-03	1.0	2.0	117_neutral	0.0	35.625672717108955	
0.0	9.807428360476479	pulse	1.0	t		26.0	male	white	2.7966573816155993	neutral	117	sub-03	1.0	2.0	117_neutral	0.0	36.32569786146223	
0.0	10.507364458199845	pulse	1.0	t		26.0	male	white	2.7966573816155993	neutral	117	sub-03	1.0	2.0	117_neutral	0.0	37.0256339591856	
1.0	11.015564747314329	face	0.0		146	28.0	male	white	3.9076800636689217	neutral	033	sub-03	1.0	2.0	033_neutral	0.0	37.53383424830008	1.2416490107825666
1.0	11.207354285754263	pulse	0.0	t		28.0	male	white	3.9076800636689217	neutral	033	sub-03	1.0	2.0	033_neutral	0.0	37.725623786740016	
1.0	11.907332642895199	pulse	0.0	t		28.0	male	white	3.9076800636689217	neutral	033	sub-03	1.0	2.0	033_neutral	0.0	38.42560214388095	
1.0	12.257213758096896	fix	1.0		445	28.0	male	white	3.9076800636689217	neutral	033	sub-03	1.0	2.0	033_neutral	0.0	38.77548325908265	3.7582160609335915
1.0	12.60731281115386	pulse	1.0	t		28.0	male	white	3.9076800636689217	neutral	033	sub-03	1.0	2.0	033_neutral	0.0	39.12558231213961	
1.0	13.307293884971841	pulse	1.0	t		28.0	male	white	3.9076800636689217	neutral	033	sub-03	1.0	2.0	033_neutral	0.0	39.825563385957594	
1.0	14.007275864348685	pulse	1.0	t		28.0	male	white	3.9076800636689217	neutral	033	sub-03	1.0	2.0	033_neutral	0.0	40.52554536533444	
1.0	14.707247580724015	pulse	1.0	t		28.0	male	white	3.9076800636689217	neutral	033	sub-03	1.0	2.0	033_neutral	0.0	41.22551708170977	
1.0	15.4072352953076	pulse	1.0	t		28.0	male	white	3.9076800636689217	neutral	033	sub-03	1.0	2.0	033_neutral	0.0	41.92550479629335	
2.0	16.015429819030487	face	0.0		146	19.0	male	white	2.243931555909272	neutral	130	sub-03	1.0	2.0	130_neutral	0.0	42.53369932001624	1.2416459922524155
2.0	16.10723780068747	pulse	0.0	t		19.0	male	white	2.243931555909272	neutral	130	sub-03	1.0	2.0	130_neutral	0.0	42.625507301673224	
2.0	16.807195028119168	pulse	0.0	t		19.0	male	white	2.243931555909272	neutral	130	sub-03	1.0	2.0	130_neutral	0.0	43.32546452910492	
2.0	17.257075811282903	fix	1.0		445	19.0	male	white	2.243931555909272	neutral	130	sub-03	1.0	2.0	130_neutral	0.0	43.775345312268655	3.758212438697228
2.0	17.507183346408965	pulse	1.0	t		19.0	male	white	2.243931555909272	neutral	130	sub-03	1.0	2.0	130_neutral	0.0	44.02545284739472	
2.0	18.207153855372326	pulse	1.0	t		19.0	male	white	2.243931555909272	neutral	130	sub-03	1.0	2.0	130_neutral	0.0	44.72542335635808	
2.0	18.90714217366167	pulse	1.0	t		19.0	male	white	2.243931555909272	neutral	130	sub-03	1.0	2.0	130_neutral	0.0	45.42541167464742	
2.0	19.607114191890105	pulse	1.0	t		19.0	male	white	2.243931555909272	neutral	130	sub-03	1.0	2.0	130_neutral	0.0	46.12538369287586	
2.0	20.307099189796645	pulse	1.0	t		19.0	male	white	2.243931555909272	neutral	130	sub-03	1.0	2.0	130_neutral	0.0	46.8253686907824	
3.0	21.01528824998013	face	0.0		147	27.0	female	white	4.181058495821727	smiling	039	sub-03	1.0	2.0	039_smiling	0.0	47.53355775096588	1.2416517274596117
3.0	21.008584095185142	pulse	0.0	t		27.0	female	white	4.181058495821727	smiling	039	sub-03	1.0	2.0	039_smiling	0.0	47.526853596170895	
3.0	21.70706224299147	pulse	0.0	t		27.0	female	white	4.181058495821727	smiling	039	sub-03	1.0	2.0	039_smiling	0.0	48.22533174397722	
3.0	22.256939977439743	fix	1.0		443	27.0	female	white	4.181058495821727	smiling	039	sub-03	1.0	2.0	039_smiling	0.0	48.775209478425495	3.758213947962304
3.0	22.407045731632934	pulse	1.0	t		27.0	female	white	4.181058495821727	smiling	039	sub-03	1.0	2.0	039_smiling	0.0	48.925315232618686	
3.0	23.107019862832203	pulse	1.0	t		27.0	female	white	4.181058495821727	smiling	039	sub-03	1.0	2.0	039_smiling	0.0	49.625289363817956	
3.0	23.806997918120032	pulse	1.0	t		27.0	female	white	4.181058495821727	smiling	039	sub-03	1.0	2.0	039_smiling	0.0	50.325267419105785	
3.0	24.50698502899786	pulse	1.0	t		27.0	female	white	4.181058495821727	smiling	039	sub-03	1.0	2.0	039_smiling	0.0	51.02525452998361	
3.0	25.206966404668492	pulse	1.0	t		27.0	female	white	4.181058495821727	smiling	039	sub-03	1.0	2.0	039_smiling	0.0	51.725235905654245	
3.0	25.906943856250564	pulse	1.0	t		27.0	female	white	4.181058495821727	smiling	039	sub-03	1.0	2.0	039_smiling	0.0	52.425213357236316	
4.0	26.015153925402046	face	0.0		147	40.0	female	west_asian	1.5777954635893354	neutral	038	sub-03	1.0	2.0	038_neutral	0.0	52.5334234263878	1.2416508219002935
4.0	26.60692794859824	pulse	0.0	t		40.0	female	west_asian	1.5777954635893354	neutral	038	sub-03	1.0	2.0	038_neutral	0.0	53.12519744958399	
4.0	27.25680474730234	fix	1.0		444	40.0	female	west_asian	1.5777954635893354	neutral	038	sub-03	1.0	2.0	038_neutral	0.0	53.77507424828809	3.758195836783216
4.0	27.30690962612198	pulse	1.0	t		40.0	female	west_asian	1.5777954635893354	neutral	038	sub-03	1.0	2.0	038_neutral	0.0	53.82517912710773	
4.0	28.00689522773473	pulse	1.0	t		40.0	female	west_asian	1.5777954635893354	neutral	038	sub-03	1.0	2.0	038_neutral	0.0	54.52516472872048	
4.0	28.706874792287636	pulse	1.0	t		40.0	female	west_asian	1.5777954635893354	neutral	038	sub-03	1.0	2.0	038_neutral	0.0	55.22514429327339	
4.0	29.406845301250996	pulse	1.0	t		40.0	female	west_asian	1.5777954635893354	neutral	038	sub-03	1.0	2.0	038_neutral	0.0	55.92511480223675	
4.0	30.106832110275718	pulse	1.0	t		40.0	female	west_asian	1.5777954635893354	neutral	038	sub-03	1.0	2.0	038_neutral	0.0	56.62510161126147	
4.0	30.80680865629847	pulse	1.0	t		40.0	female	west_asian	1.5777954635893354	neutral	038	sub-03	1.0	2.0	038_neutral	0.0	57.325078157284224	
5.0	31.015000584085556	face	0.0		146	28.0	male	east_asian	1.5563072025467568	neutral	005	sub-03	1.0	2.0	005_neutral	0.0	57.53327008507131	1.2416650089908217
5.0	31.506799087559102	pulse	0.0	t		28.0	male	east_asian	1.5563072025467568	neutral	005	sub-03	1.0	2.0	005_neutral	0.0	58.025068588544855	
5.0	32.206775633581856	pulse	0.0	t		28.0	male	east_asian	1.5563072025467568	neutral	005	sub-03	1.0	2.0	005_neutral	0.0	58.72504513456761	
5.0	32.25666559307638	fix	1.0		445	28.0	male	east_asian	1.5563072025467568	neutral	005	sub-03	1.0	2.0	005_neutral	0.0	58.77493509406213	3.766548410728774
5.0	32.90675489628211	pulse	1.0	t		28.0	male	east_asian	1.5563072025467568	neutral	005	sub-03	1.0	2.0	005_neutral	0.0	59.42502439726786	
5.0	33.60673295156994	pulse	1.0	t		28.0	male	east_asian	1.5563072025467568	neutral	005	sub-03	1.0	2.0	005_neutral	0.0	60.12500245255569	
5.0	34.30671281797595	pulse	1.0	t		28.0	male	east_asian	1.5563072025467568	neutral	005	sub-03	1.0	2.0	005_neutral	0.0	60.8249823189617	
5.0	35.00669660847052	pulse	1.0	t		28.0	male	east_asian	1.5563072025467568	neutral	005	sub-03	1.0	2.0	005_neutral	0.0	61.52496610945627	
5.0	35.70665836369744	pulse	1.0	t		28.0	male	east_asian	1.5563072025467568	neutral	005	sub-03	1.0	2.0	005_neutral	0.0	62.224927864683195	
6.0	36.02321400380515	face	0.0		145	31.0	male	west_asian	1.9538400318344609	neutral	070	sub-03	1.0	2.0	070_neutral	0.0	62.541483504790904	1.233316057281172
6.0	36.406663585753904	pulse	0.0	t		31.0	male	west_asian	1.9538400318344609	neutral	070	sub-03	1.0	2.0	070_neutral	0.0	62.92493308673966	
6.0	37.10664164104219	pulse	0.0	t		31.0	male	west_asian	1.9538400318344609	neutral	070	sub-03	1.0	2.0	070_neutral	0.0	63.62491114202794	
6.0	37.25653006108632	fix	1.0		445	31.0	male	west_asian	1.9538400318344609	neutral	070	sub-03	1.0	2.0	070_neutral	0.0	63.774799562072076	3.766548108875668
6.0	37.80662090374199	pulse	1.0	t		31.0	male	west_asian	1.9538400318344609	neutral	070	sub-03	1.0	2.0	070_neutral	0.0	64.32489040472774	
6.0	38.50660167570686	pulse	1.0	t		31.0	male	west_asian	1.9538400318344609	neutral	070	sub-03	1.0	2.0	070_neutral	0.0	65.02487117669261	
6.0	39.206580032847796	pulse	1.0	t		31.0	male	west_asian	1.9538400318344609	neutral	070	sub-03	1.0	2.0	070_neutral	0.0	65.72484953383355	
6.0	39.906567445578276	pulse	1.0	t		31.0	male	west_asian	1.9538400318344609	neutral	070	sub-03	1.0	2.0	070_neutral	0.0	66.42483694656403	
6.0	40.60654459530724	pulse	1.0	t		31.0	male	west_asian	1.9538400318344609	neutral	070	sub-03	1.0	2.0	070_neutral	0.0	67.124814096293	
7.0	41.02307816996199	face	0.0		145	19.0	male	white	3.2522881018702745	neutral	018	sub-03	1.0	2.0	018_neutral	0.0	67.54134767094774	1.23331545357496
7.0	41.306528989508024	pulse	0.0	t		19.0	male	white	3.2522881018702745	neutral	018	sub-03	1.0	2.0	018_neutral	0.0	67.82479849049378	
7.0	42.00650945961979	pulse	0.0	t		19.0	male	white	3.2522881018702745	neutral	018	sub-03	1.0	2.0	018_neutral	0.0	68.52477896060554	
7.0	42.25639362353695	fix	1.0		445	19.0	male	white	3.2522881018702745	neutral	018	sub-03	1.0	2.0	018_neutral	0.0	68.7746631245227	3.7665478070230165
7.0	42.70648630749611	pulse	1.0	t		19.0	male	white	3.2522881018702745	neutral	018	sub-03	1.0	2.0	018_neutral	0.0	69.22475580848186	
7.0	43.40646466463704	pulse	1.0	t		19.0	male	white	3.2522881018702745	neutral	018	sub-03	1.0	2.0	018_neutral	0.0	69.9247341656228	
7.0	44.10645237922063	pulse	1.0	t		19.0	male	white	3.2522881018702745	neutral	018	sub-03	1.0	2.0	018_neutral	0.0	70.62472188020638	
7.0	44.806415341859065	pulse	1.0	t		19.0	male	white	3.2522881018702745	neutral	018	sub-03	1.0	2.0	018_neutral	0.0	71.32468484284482	
7.0	45.50641301759151	pulse	1.0	t		19.0	male	white	3.2522881018702745	neutral	018	sub-03	1.0	2.0	018_neutral	0.0	72.02468251857727	
8.0	46.02294143055997	face	0.0		145	25.0	female	black	3.858336649423	smiling	126	sub-03	1.0	2.0	126_smiling	0.0	72.54121093154572	1.233313038751021
8.0	46.20639620437987	pulse	0.0	t		25.0	female	black	3.858336649423	smiling	126	sub-03	1.0	2.0	126_smiling	0.0	72.72466570536562	
8.0	46.906367317049444	pulse	0.0	t		25.0	female	black	3.858336649423	smiling	126	sub-03	1.0	2.0	126_smiling	0.0	73.4246368180352	
8.0	47.25625446931099	fix	1.0		444	25.0	female	black	3.858336649423	smiling	126	sub-03	1.0	2.0	126_smiling	0.0	73.77452397029674	3.7665499199938495
8.0	47.606353522367954	pulse	1.0	t		25.0	female	black	3.858336649423	smiling	126	sub-03	1.0	2.0	126_smiling	0.0	74.1246230233537	
8.0	48.30633187950889	pulse	1.0	t		25.0	female	black	3.858336649423	smiling	126	sub-03	1.0	2.0	126_smiling	0.0	74.82460138049464	
8.0	49.00631265147376	pulse	1.0	t		25.0	female	black	3.858336649423	smiling	126	sub-03	1.0	2.0	126_smiling	0.0	75.52458215245952	
8.0	49.70629221602667	pulse	1.0	t		25.0	female	black	3.858336649423	smiling	126	sub-03	1.0	2.0	126_smiling	0.0	76.22456171701242	
8.0	50.406278723198284	pulse	1.0	t		25.0	female	black	3.858336649423	smiling	126	sub-03	1.0	2.0	126_smiling	0.0	76.92454822418404	
9.0	51.02280438930484	face	0.0		145	24.0	female	east_asian	2.9076800636689217	neutral	034	sub-03	1.0	2.0	034_neutral	1.0	77.54107389029059	1.2332913053360244
9.0	51.106263721104824	pulse	0.0	t		24.0	female	east_asian	2.9076800636689217	neutral	034	sub-03	1.0	2.0	034_neutral	1.0	77.62453322209058	
9.0	51.806220948536975	pulse	0.0	t		24.0	female	east_asian	2.9076800636689217	neutral	034	sub-03	1.0	2.0	034_neutral	1.0	78.32449044952273	
9.0	52.25609569464086	fix	1.0		236	24.0	female	east_asian	2.9076800636689217	neutral	034	sub-03	1.0	2.0	034_neutral	1.0	78.77436519562661	2.008336877590409
9.0	52.506208964973666	pulse	1.0	t		24.0	female	east_asian	2.9076800636689217	neutral	034	sub-03	1.0	2.0	034_neutral	1.0	79.02447846595942	
9.0	53.206197585116115	pulse	1.0	t		24.0	female	east_asian	2.9076800636689217	neutral	034	sub-03	1.0	2.0	034_neutral	1.0	79.72446708610187	
9.0	53.906194657141896	pulse	1.0	t		24.0	female	east_asian	2.9076800636689217	neutral	034	sub-03	1.0	2.0	034_neutral	1.0	80.42446415812765	
9.0	54.26443257223127	rating	2.0		234	24.0	female	east_asian	2.9076800636689217	neutral	034	sub-03	1.0	2.0	034_neutral	1.0	80.78270207321702	1.9915770943089228
9.0	54.60091745196269	pulse	2.0	t		24.0	female	east_asian	2.9076800636689217	neutral	034	sub-03	1.0	2.0	034_neutral	1.0	81.11918695294844	
9.0	55.30089852578021	pulse	2.0	t		24.0	female	east_asian	2.9076800636689217	neutral	034	sub-03	1.0	2.0	034_neutral	1.0	81.81916802676596	
9.0	55.342569934054154	response	2.0	b		24.0	female	east_asian	2.9076800636689217	neutral	034	sub-03	1.0	2.0	034_neutral	1.0	81.8608394350399	
9.0	56.00610044882524	pulse	2.0	t		24.0	female	east_asian	2.9076800636689217	neutral	034	sub-03	1.0	2.0	034_neutral	1.0	82.52436994981099	
9.0	56.256009666540194	fix	3.0		444	24.0	female	east_asian	2.9076800636689217	neutral	034	sub-03	1.0	2.0	034_neutral	1.0	82.77427916752595	3.766546901464153
9.0	56.70610295420511	pulse	3.0	t		24.0	female	east_asian	2.9076800636689217	neutral	034	sub-03	1.0	2.0	034_neutral	1.0	83.22437245519086	
9.0	57.406087650258996	pulse	3.0	t		24.0	female	east_asian	2.9076800636689217	neutral	034	sub-03	1.0	2.0	034_neutral	1.0	83.92435715124475	
9.0	58.10605846107501	pulse	3.0	t		24.0	female	east_asian	2.9076800636689217	neutral	034	sub-03	1.0	2.0	034_neutral	1.0	84.62432796206076	
9.0	58.806038629334125	pulse	3.0	t		24.0	female	east_asian	2.9076800636689217	neutral	034	sub-03	1.0	2.0	034_neutral	1.0	85.32430813031988	
9.0	59.50602423094688	pulse	3.0	t		24.0	female	east_asian	2.9076800636689217	neutral	034	sub-03	1.0	2.0	034_neutral	1.0	86.02429373193263	
10.0	60.02255656800435	face	0.0		145	22.0	male	black	2.767608436132113	neutral	044	sub-03	1.0	2.0	044_neutral	0.0	86.5408260689901	1.2333190758104138
10.0	60.206013454795084	pulse	0.0	t		22.0	male	black	2.767608436132113	neutral	044	sub-03	1.0	2.0	044_neutral	0.0	86.72428295578084	
10.0	60.90599271749488	pulse	0.0	t		22.0	male	black	2.767608436132113	neutral	044	sub-03	1.0	2.0	044_neutral	0.0	87.42426221848064	
10.0	61.25587564381476	fix	1.0		444	22.0	male	black	2.767608436132113	neutral	044	sub-03	1.0	2.0	044_neutral	0.0	87.77414514480051	3.766544184787108
10.0	61.605971376488924	pulse	1.0	t		22.0	male	black	2.767608436132113	neutral	044	sub-03	1.0	2.0	044_neutral	0.0	88.12424087747468	
10.0	62.30595033733607	pulse	1.0	t		22.0	male	black	2.767608436132113	neutral	044	sub-03	1.0	2.0	044_neutral	0.0	88.82421983832182	
10.0	63.00592748706504	pulse	1.0	t		22.0	male	black	2.767608436132113	neutral	044	sub-03	1.0	2.0	044_neutral	0.0	89.52419698805079	
10.0	63.70590493864711	pulse	1.0	t		22.0	male	black	2.767608436132113	neutral	044	sub-03	1.0	2.0	044_neutral	0.0	90.22417443963286	
10.0	64.40589416249531	pulse	1.0	t		22.0	male	black	2.767608436132113	neutral	044	sub-03	1.0	2.0	044_neutral	0.0	90.92416366348107	
11.0	65.02241982860187	face	0.0		145	31.0	female	east_asian	3.395941106247513	smiling	087	sub-03	1.0	2.0	087_smiling	0.0	91.54068932958762	1.233322396193671
11.0	65.1058785566961	pulse	0.0	t		31.0	female	east_asian	3.395941106247513	smiling	087	sub-03	1.0	2.0	087_smiling	0.0	91.62414805768185	
11.0	65.80585570642506	pulse	0.0	t		31.0	female	east_asian	3.395941106247513	smiling	087	sub-03	1.0	2.0	087_smiling	0.0	92.32412520741082	
11.0	66.25574222479554	fix	1.0		444	31.0	female	east_asian	3.395941106247513	smiling	087	sub-03	1.0	2.0	087_smiling	0.0	92.77401172578129	3.766539656992336
11.0	66.50583798765501	pulse	1.0	t		31.0	female	east_asian	3.395941106247513	smiling	087	sub-03	1.0	2.0	087_smiling	0.0	93.02410748864077	
11.0	67.2058226837089	pulse	1.0	t		31.0	female	east_asian	3.395941106247513	smiling	087	sub-03	1.0	2.0	087_smiling	0.0	93.72409218469465	
11.0	67.9057919852603	pulse	1.0	t		31.0	female	east_asian	3.395941106247513	smiling	087	sub-03	1.0	2.0	087_smiling	0.0	94.42406148624605	
11.0	68.60579117025691	pulse	1.0	t		31.0	female	east_asian	3.395941106247513	smiling	087	sub-03	1.0	2.0	087_smiling	0.0	95.12406067124266	
11.0	69.30575926439633	pulse	1.0	t		31.0	female	east_asian	3.395941106247513	smiling	087	sub-03	1.0	2.0	087_smiling	0.0	95.82402876538208	
12.0	70.02228188178788	face	0.0		146	25.0	female	black	3.858336649423	neutral	126	sub-03	1.0	2.0	126_neutral	0.0	96.54055138277363	1.2333190758108685
12.0	70.00874105873754	pulse	0.0	t		25.0	female	black	3.858336649423	neutral	126	sub-03	1.0	2.0	126_neutral	0.0	96.5270105597233	
12.0	70.70572201573805	pulse	0.0	t		25.0	female	black	3.858336649423	neutral	126	sub-03	1.0	2.0	126_neutral	0.0	97.2239915167238	
12.0	71.25560095759874	fix	1.0		443	25.0	female	black	3.858336649423	neutral	126	sub-03	1.0	2.0	126_neutral	0.0	97.7738704585845	3.7582130424034403
12.0	71.40570308955603	pulse	1.0	t		25.0	female	black	3.858336649423	neutral	126	sub-03	1.0	2.0	126_neutral	0.0	97.92397259054178	
12.0	72.10568325781514	pulse	1.0	t		25.0	female	black	3.858336649423	neutral	126	sub-03	1.0	2.0	126_neutral	0.0	98.6239527588009	
12.0	72.80565829457328	pulse	1.0	t		25.0	female	black	3.858336649423	neutral	126	sub-03	1.0	2.0	126_neutral	0.0	99.32392779555903	
12.0	73.5056448017449	pulse	1.0	t		25.0	female	black	3.858336649423	neutral	126	sub-03	1.0	2.0	126_neutral	0.0	100.02391430273065	
12.0	74.20562285703272	pulse	1.0	t		25.0	female	black	3.858336649423	neutral	126	sub-03	1.0	2.0	126_neutral	0.0	100.72389235801847	
12.0	74.90560845864547	pulse	1.0	t		25.0	female	black	3.858336649423	neutral	126	sub-03	1.0	2.0	126_neutral	0.0	101.42387795963123	
13.0	75.01381400000218	face	0.0		147	27.0	female	white	3.504576203740549	smiling	144	sub-03	1.0	2.0	144_smiling	0.0	101.53208350098794	1.241647803370597
13.0	75.6055898343161	pulse	0.0	t		27.0	female	white	3.504576203740549	smiling	144	sub-03	1.0	2.0	144_smiling	0.0	102.12385933530186	
13.0	76.25546180337278	fix	1.0		443	27.0	female	white	3.504576203740549	smiling	144	sub-03	1.0	2.0	144_smiling	0.0	102.77373130435853	3.7583039001515317
13.0	76.30557181369295	pulse	1.0	t		27.0	female	white	3.504576203740549	smiling	144	sub-03	1.0	2.0	144_smiling	0.0	102.8238413146787	
13.0	77.00554564303911	pulse	1.0	t		27.0	female	white	3.504576203740549	smiling	144	sub-03	1.0	2.0	144_smiling	0.0	103.52381514402487	
13.0	77.70552369832694	pulse	1.0	t		27.0	female	white	3.504576203740549	smiling	144	sub-03	1.0	2.0	144_smiling	0.0	104.2237931993127	
13.0	78.40551775182348	pulse	1.0	t		27.0	female	white	3.504576203740549	smiling	144	sub-03	1.0	2.0	144_smiling	0.0	104.92378725280923	
13.0	79.1054855441098	pulse	1.0	t		27.0	female	white	3.504576203740549	smiling	144	sub-03	1.0	2.0	144_smiling	0.0	105.62375504509555	
13.0	79.80546631607467	pulse	1.0	t		27.0	female	white	3.504576203740549	smiling	144	sub-03	1.0	2.0	144_smiling	0.0	106.32373581706042	
14.0	80.01376570352431	face	0.0		146	24.0	female	black	3.0955033824114606	neutral	099	sub-03	1.0	2.0	099_neutral	0.0	106.53203520451007	1.2415611715641717
14.0	80.50545735104106	pulse	0.0	t		24.0	female	black	3.0955033824114606	neutral	099	sub-03	1.0	2.0	099_neutral	0.0	107.02372685202681	
14.0	81.20543027482836	pulse	0.0	t		24.0	female	black	3.0955033824114606	neutral	099	sub-03	1.0	2.0	099_neutral	0.0	107.72369977581411	
14.0	81.25532687508849	fix	1.0		445	24.0	female	black	3.0955033824114606	neutral	099	sub-03	1.0	2.0	099_neutral	0.0	107.77359637607424	3.766546599611047
14.0	81.90541738570573	pulse	1.0	t		24.0	female	black	3.0955033824114606	neutral	099	sub-03	1.0	2.0	099_neutral	0.0	108.42368688669148	
14.0	82.60539272431697	pulse	1.0	t		24.0	female	black	3.0955033824114606	neutral	099	sub-03	1.0	2.0	099_neutral	0.0	109.12366222530272	
14.0	83.30537349628185	pulse	1.0	t		24.0	female	black	3.0955033824114606	neutral	099	sub-03	1.0	2.0	099_neutral	0.0	109.8236429972676	
14.0	84.00535245712899	pulse	1.0	t		24.0	female	black	3.0955033824114606	neutral	099	sub-03	1.0	2.0	099_neutral	0.0	110.52362195811475	
14.0	84.7053419828303	pulse	1.0	t		24.0	female	black	3.0955033824114606	neutral	099	sub-03	1.0	2.0	099_neutral	0.0	111.22361148381606	
15.0	85.02187347469953	face	0.0		145	47.0	male	east_asian	2.171110226820533	smiling	024	sub-03	1.0	2.0	024_smiling	0.0	111.54014297568528	1.2333033794552648
15.0	85.40532335850094	pulse	0.0	t		47.0	male	east_asian	2.171110226820533	smiling	024	sub-03	1.0	2.0	024_smiling	0.0	111.92359285948669	
15.0	86.10529205634657	pulse	0.0	t		47.0	male	east_asian	2.171110226820533	smiling	024	sub-03	1.0	2.0	024_smiling	0.0	112.62356155733232	
15.0	86.2551768541548	fix	1.0		445	47.0	male	east_asian	2.171110226820533	smiling	024	sub-03	1.0	2.0	024_smiling	0.0	112.77344635514055	3.766560484848469
15.0	86.80528309131296	pulse	1.0	t		47.0	male	east_asian	2.171110226820533	smiling	024	sub-03	1.0	2.0	024_smiling	0.0	113.32355259229871	
15.0	87.50526265586586	pulse	1.0	t		47.0	male	east_asian	2.171110226820533	smiling	024	sub-03	1.0	2.0	024_smiling	0.0	114.02353215685162	
15.0	88.2052539926849	pulse	1.0	t		47.0	male	east_asian	2.171110226820533	smiling	024	sub-03	1.0	2.0	024_smiling	0.0	114.72352349367065	
15.0	88.9052205775597	pulse	1.0	t		47.0	male	east_asian	2.171110226820533	smiling	024	sub-03	1.0	2.0	024_smiling	0.0	115.42349007854546	
15.0	89.60520074581837	pulse	1.0	t		47.0	male	east_asian	2.171110226820533	smiling	024	sub-03	1.0	2.0	024_smiling	0.0	116.12347024680412	
16.0	90.02173733900327	face	0.0		145	19.0	male	white	2.243931555909272	smiling	130	sub-03	1.0	2.0	130_smiling	0.0	116.54000683998902	1.2333178683984443
16.0	90.30518996966703	pulse	0.0	t		19.0	male	white	2.243931555909272	smiling	130	sub-03	1.0	2.0	130_smiling	0.0	116.82345947065278	
16.0	91.00516621383713	pulse	0.0	t		19.0	male	white	2.243931555909272	smiling	130	sub-03	1.0	2.0	130_smiling	0.0	117.52343571482288	
16.0	91.25505520740171	fix	1.0		444	19.0	male	white	2.243931555909272	smiling	130	sub-03	1.0	2.0	130_smiling	0.0	117.77332470838746	3.766544486640214
16.0	91.70514940062594	pulse	1.0	t		19.0	male	white	2.243931555909272	smiling	130	sub-03	1.0	2.0	130_smiling	0.0	118.2234189016117	
16.0	92.4051259466487	pulse	1.0	t		19.0	male	white	2.243931555909272	smiling	130	sub-03	1.0	2.0	130_smiling	0.0	118.92339544763445	
16.0	93.1051058130547	pulse	1.0	t		19.0	male	white	2.243931555909272	smiling	130	sub-03	1.0	2.0	130_smiling	0.0	119.62337531404046	
16.0	93.80508537760761	pulse	1.0	t		19.0	male	white	2.243931555909272	smiling	130	sub-03	1.0	2.0	130_smiling	0.0	120.32335487859336	
16.0	94.50506796069067	pulse	1.0	t		19.0	male	white	2.243931555909272	smiling	130	sub-03	1.0	2.0	130_smiling	0.0	121.02333746167642	
17.0	95.02159969404192	face	0.0		145	31.0	female	east_asian	3.395941106247513	neutral	087	sub-03	1.0	2.0	087_neutral	0.0	121.53986919502768	1.233317868398899
17.0	95.20505627898001	pulse	0.0	t		31.0	female	east_asian	3.395941106247513	neutral	087	sub-03	1.0	2.0	087_neutral	0.0	121.72332577996576	
17.0	95.90502980647307	pulse	0.0	t		31.0	female	east_asian	3.395941106247513	neutral	087	sub-03	1.0	2.0	087_neutral	0.0	122.42329930745882	
17.0	96.25491756244082	fix	1.0		444	31.0	female	east_asian	3.395941106247513	neutral	087	sub-03	1.0	2.0	087_neutral	0.0	122.77318706342658	3.766546901464153
17.0	96.60501329511499	pulse	1.0	t		31.0	female	east_asian	3.395941106247513	neutral	087	sub-03	1.0	2.0	087_neutral	0.0	123.12328279610074	
17.0	97.30499406707986	pulse	1.0	t		31.0	female	east_asian	3.395941106247513	neutral	087	sub-03	1.0	2.0	087_neutral	0.0	123.82326356806561	
17.0	98.0049724242208	pulse	1.0	t		31.0	female	east_asian	3.395941106247513	neutral	087	sub-03	1.0	2.0	087_neutral	0.0	124.52324192520655	
17.0	98.70495289433256	pulse	1.0	t		31.0	female	east_asian	3.395941106247513	neutral	087	sub-03	1.0	2.0	087_neutral	0.0	125.22322239531832	
17.0	99.40493487370941	pulse	1.0	t		31.0	female	east_asian	3.395941106247513	neutral	087	sub-03	1.0	2.0	087_neutral	0.0	125.92320437469516	
18.0	100.02146446390498	face	0.0		145	25.0	female	west_asian	2.6756864305610826	smiling	064	sub-03	1.0	2.0	064_smiling	0.0	126.53973396489073	1.2333154535745052
18.0	100.10492107902792	pulse	0.0	t		25.0	female	west_asian	2.6756864305610826	smiling	064	sub-03	1.0	2.0	064_smiling	0.0	126.62319058001367	
18.0	100.80489339910946	pulse	0.0	t		25.0	female	west_asian	2.6756864305610826	smiling	064	sub-03	1.0	2.0	064_smiling	0.0	127.32316290009521	
18.0	101.25477991747948	fix	1.0		444	25.0	female	west_asian	2.6756864305610826	smiling	064	sub-03	1.0	2.0	064_smiling	0.0	127.77304941846523	3.7665435810813506
18.0	101.50488352851653	pulse	1.0	t		25.0	female	west_asian	2.6756864305610826	smiling	064	sub-03	1.0	2.0	064_smiling	0.0	128.02315302950228	
18.0	102.20485675415694	pulse	1.0	t		25.0	female	west_asian	2.6756864305610826	smiling	064	sub-03	1.0	2.0	064_smiling	0.0	128.7231262551427	
18.0	102.90482575385522	pulse	1.0	t		25.0	female	west_asian	2.6756864305610826	smiling	064	sub-03	1.0	2.0	064_smiling	0.0	129.42309525484097	
18.0	103.60481799623358	pulse	1.0	t		25.0	female	west_asian	2.6756864305610826	smiling	064	sub-03	1.0	2.0	064_smiling	0.0	130.12308749721933	
18.0	104.30479937190466	pulse	1.0	t		25.0	female	west_asian	2.6756864305610826	smiling	064	sub-03	1.0	2.0	064_smiling	0.0	130.82306887289042	
19.0	105.02132349856083	face	0.0		146	24.0	female	east_asian	2.9076800636689217	smiling	034	sub-03	1.0	2.0	034_smiling	0.0	131.53959299954658	1.2333217924874589
19.0	105.00759160257076	pulse	0.0	t		24.0	female	east_asian	2.9076800636689217	smiling	034	sub-03	1.0	2.0	034_smiling	0.0	131.5258611035565	
19.0	105.70476816030578	pulse	0.0	t		24.0	female	east_asian	2.9076800636689217	smiling	034	sub-03	1.0	2.0	034_smiling	0.0	132.22303766129153	
19.0	106.25464529104829	fix	1.0		443	24.0	female	east_asian	2.9076800636689217	smiling	034	sub-03	1.0	2.0	034_smiling	0.0	132.77291479203404	3.7665453921990775
19.0	106.40474983782951	pulse	1.0	t		24.0	female	east_asian	2.9076800636689217	smiling	034	sub-03	1.0	2.0	034_smiling	0.0	132.92301933881527	
19.0	107.1047278931178	pulse	1.0	t		24.0	female	east_asian	2.9076800636689217	smiling	034	sub-03	1.0	2.0	034_smiling	0.0	133.62299739410355	
19.0	107.80470262802282	pulse	1.0	t		24.0	female	east_asian	2.9076800636689217	smiling	034	sub-03	1.0	2.0	034_smiling	0.0	134.32297212900858	
19.0	108.50469426669497	pulse	1.0	t		24.0	female	east_asian	2.9076800636689217	smiling	034	sub-03	1.0	2.0	034_smiling	0.0	135.02296376768072	
19.0	109.2046659830703	pulse	1.0	t		24.0	female	east_asian	2.9076800636689217	smiling	034	sub-03	1.0	2.0	034_smiling	0.0	135.72293548405605	
19.0	109.90464916985911	pulse	1.0	t		24.0	female	east_asian	2.9076800636689217	smiling	034	sub-03	1.0	2.0	034_smiling	0.0	136.42291867084487	
20.0	110.02119068324737	face	0.0		146	40.0	male	white	1.868682849184242	smiling	172	sub-03	1.0	2.0	172_smiling	0.0	136.53946018423312	1.2333187739577625
20.0	110.60463265850103	pulse	0.0	t		40.0	male	white	1.868682849184242	smiling	172	sub-03	1.0	2.0	172_smiling	0.0	137.12290215948678	
20.0	111.25450945720513	fix	1.0		443	40.0	male	white	1.868682849184242	smiling	172	sub-03	1.0	2.0	172_smiling	0.0	137.77277895819088	3.7665456940521835
20.0	111.30461554343674	pulse	1.0	t		40.0	male	white	1.868682849184242	smiling	172	sub-03	1.0	2.0	172_smiling	0.0	137.8228850444225	
20.0	112.00459359872457	pulse	1.0	t		40.0	male	white	1.868682849184242	smiling	172	sub-03	1.0	2.0	172_smiling	0.0	138.52286309971032	
20.0	112.70457557810141	pulse	1.0	t		40.0	male	white	1.868682849184242	smiling	172	sub-03	1.0	2.0	172_smiling	0.0	139.22284507908716	
20.0	113.40455574636053	pulse	1.0	t		40.0	male	white	1.868682849184242	smiling	172	sub-03	1.0	2.0	172_smiling	0.0	139.92282524734628	
20.0	114.10454014056086	pulse	1.0	t		40.0	male	white	1.868682849184242	smiling	172	sub-03	1.0	2.0	172_smiling	0.0	140.6228096415466	
20.0	114.80450883840649	pulse	1.0	t		40.0	male	white	1.868682849184242	smiling	172	sub-03	1.0	2.0	172_smiling	0.0	141.32277833939224	
21.0	115.02105515125731	face	0.0		145	27.0	female	white	3.504576203740549	neutral	144	sub-03	1.0	2.0	144_neutral	0.0	141.53932465224307	1.2333172646926869
21.0	115.50450138263795	pulse	0.0	t		27.0	female	white	3.504576203740549	neutral	144	sub-03	1.0	2.0	144_neutral	0.0	142.0227708836237	
21.0	116.20448004163154	pulse	0.0	t		27.0	female	white	3.504576203740549	neutral	144	sub-03	1.0	2.0	144_neutral	0.0	142.7227495426173	
21.0	116.25437241595	fix	1.0		445	27.0	female	white	3.504576203740549	neutral	144	sub-03	1.0	2.0	144_neutral	0.0	142.77264191693575	3.758248057349647
21.0	116.9044629265677	pulse	1.0	t		27.0	female	white	3.504576203740549	neutral	144	sub-03	1.0	2.0	144_neutral	0.0	143.42273242755346	
21.0	117.60443735961962	pulse	1.0	t		27.0	female	white	3.504576203740549	neutral	144	sub-03	1.0	2.0	144_neutral	0.0	144.12270686060538	
21.0	118.30441601861367	pulse	1.0	t		27.0	female	white	3.504576203740549	neutral	144	sub-03	1.0	2.0	144_neutral	0.0	144.82268551959942	
21.0	119.00439860169627	pulse	1.0	t		27.0	female	white	3.504576203740549	neutral	144	sub-03	1.0	2.0	144_neutral	0.0	145.52266810268202	
21.0	119.70436156433516	pulse	1.0	t		27.0	female	white	3.504576203740549	neutral	144	sub-03	1.0	2.0	144_neutral	0.0	146.2226310653209	
22.0	120.01262047329965	face	0.0		146	20.0	male	black	3.1070433744528456	neutral	082	sub-03	1.0	2.0	082_neutral	0.0	146.5308899742854	1.241613392130148
22.0	120.40436950306866	pulse	0.0	t		20.0	male	black	3.1070433744528456	neutral	082	sub-03	1.0	2.0	082_neutral	0.0	146.92263900405442	
22.0	121.10433850276695	pulse	0.0	t		20.0	male	black	3.1070433744528456	neutral	082	sub-03	1.0	2.0	082_neutral	0.0	147.6226080037527	
22.0	121.2542338654298	fix	1.0		444	20.0	male	black	3.1070433744528456	neutral	082	sub-03	1.0	2.0	082_neutral	0.0	147.77250336641555	3.766549014434986
22.0	121.8043271229094	pulse	1.0	t		20.0	male	black	3.1070433744528456	neutral	082	sub-03	1.0	2.0	082_neutral	0.0	148.32259662389515	
22.0	122.50430940413935	pulse	1.0	t		20.0	male	black	3.1070433744528456	neutral	082	sub-03	1.0	2.0	082_neutral	0.0	149.0225789051251	
22.0	123.20428383719172	pulse	1.0	t		20.0	male	black	3.1070433744528456	neutral	082	sub-03	1.0	2.0	082_neutral	0.0	149.72255333817748	
22.0	123.90426159062645	pulse	1.0	t		20.0	male	black	3.1070433744528456	neutral	082	sub-03	1.0	2.0	082_neutral	0.0	150.4225310916122	
22.0	124.60424628668034	pulse	1.0	t		20.0	male	black	3.1070433744528456	neutral	082	sub-03	1.0	2.0	082_neutral	0.0	151.1225157876661	
23.0	125.02078287986478	face	0.0		145	19.0	female	white	4.298846000795861	smiling	100	sub-03	1.0	2.0	100_smiling	0.0	151.53905238085053	1.2333148498687478
23.0	125.30423520867589	pulse	0.0	t		19.0	female	white	4.298846000795861	smiling	100	sub-03	1.0	2.0	100_smiling	0.0	151.82250470966164	
23.0	126.00420843431584	pulse	0.0	t		19.0	female	white	4.298846000795861	smiling	100	sub-03	1.0	2.0	100_smiling	0.0	152.5224779353016	
23.0	126.25409772973353	fix	1.0		1185	19.0	female	white	4.298846000795861	smiling	100	sub-03	1.0	2.0	100_smiling	0.0	152.77236723071928	10.016376731844048
23.0	126.7041940359286	pulse	1.0	t		19.0	female	white	4.298846000795861	smiling	100	sub-03	1.0	2.0	100_smiling	0.0	153.22246353691435	
23.0	127.4041739023346	pulse	1.0	t		19.0	female	white	4.298846000795861	smiling	100	sub-03	1.0	2.0	100_smiling	0.0	153.92244340332036	
23.0	128.1041495427985	pulse	1.0	t		19.0	female	white	4.298846000795861	smiling	100	sub-03	1.0	2.0	100_smiling	0.0	154.62241904378425	
23.0	128.80413393699928	pulse	1.0	t		19.0	female	white	4.298846000795861	smiling	100	sub-03	1.0	2.0	100_smiling	0.0	155.32240343798503	
23.0	129.50411169043446	pulse	1.0	t		19.0	female	white	4.298846000795861	smiling	100	sub-03	1.0	2.0	100_smiling	0.0	156.0223811914202	
23.0	130.20409427351706	pulse	1.0	t		19.0	female	white	4.298846000795861	smiling	100	sub-03	1.0	2.0	100_smiling	0.0	156.7223637745028	
23.0	130.90406810286322	pulse	1.0	t		19.0	female	white	4.298846000795861	smiling	100	sub-03	1.0	2.0	100_smiling	0.0	157.42233760384897	
23.0	131.6040527989171	pulse	1.0	t		19.0	female	white	4.298846000795861	smiling	100	sub-03	1.0	2.0	100_smiling	0.0	158.12232229990286	
23.0	132.3040347782935	pulse	1.0	t		19.0	female	white	4.298846000795861	smiling	100	sub-03	1.0	2.0	100_smiling	0.0	158.82230427927925	
23.0	133.00401555025837	pulse	1.0	t		19.0	female	white	4.298846000795861	smiling	100	sub-03	1.0	2.0	100_smiling	0.0	159.52228505124413	
23.0	133.70399390739976	pulse	1.0	t		19.0	female	white	4.298846000795861	smiling	100	sub-03	1.0	2.0	100_smiling	0.0	160.22226340838552	
23.0	134.40397649048236	pulse	1.0	t		19.0	female	white	4.298846000795861	smiling	100	sub-03	1.0	2.0	100_smiling	0.0	160.92224599146812	
23.0	135.10396209209512	pulse	1.0	t		19.0	female	white	4.298846000795861	smiling	100	sub-03	1.0	2.0	100_smiling	0.0	161.62223159308087	
23.0	135.80394135479492	pulse	1.0	t		19.0	female	white	4.298846000795861	smiling	100	sub-03	1.0	2.0	100_smiling	0.0	162.32221085578067	
24.0	136.27047446157758	face	0.0		145	40.0	male	black	2.408674890569041	neutral	061	sub-03	1.0	2.0	061_neutral	0.0	162.78874396256333	1.2333166609869295
24.0	136.5039109581994	pulse	0.0	t		40.0	male	black	2.408674890569041	neutral	061	sub-03	1.0	2.0	061_neutral	0.0	163.02218045918517	
24.0	137.20390410613663	pulse	0.0	t		40.0	male	black	2.408674890569041	neutral	061	sub-03	1.0	2.0	061_neutral	0.0	163.7221736071224	
24.0	137.5037911225645	fix	1.0		444	40.0	male	black	2.408674890569041	neutral	061	sub-03	1.0	2.0	061_neutral	0.0	164.02206062355026	3.7665478070225618
24.0	137.90388578366037	pulse	1.0	t		40.0	male	black	2.408674890569041	neutral	061	sub-03	1.0	2.0	061_neutral	0.0	164.42215528464612	
24.0	138.60386474450752	pulse	1.0	t		40.0	male	black	2.408674890569041	neutral	061	sub-03	1.0	2.0	061_neutral	0.0	165.12213424549327	
24.0	139.30384249794224	pulse	1.0	t		40.0	male	black	2.408674890569041	neutral	061	sub-03	1.0	2.0	061_neutral	0.0	165.822111998928	
24.0	140.0038314199378	pulse	1.0	t		40.0	male	black	2.408674890569041	neutral	061	sub-03	1.0	2.0	061_neutral	0.0	166.52210092092355	
24.0	140.7038043437251	pulse	1.0	t		40.0	male	black	2.408674890569041	neutral	061	sub-03	1.0	2.0	061_neutral	0.0	167.22207384471085	
25.0	141.27033892958707	face	0.0		145	21.0	male	black	2.969757262236371	smiling	137	sub-03	1.0	2.0	137_smiling	0.0	167.78860843057282	1.233313642457233
25.0	141.40380775466383	pulse	0.0	t		21.0	male	black	2.969757262236371	smiling	137	sub-03	1.0	2.0	137_smiling	0.0	167.92207725564958	
25.0	142.10376769877257	pulse	0.0	t		21.0	male	black	2.969757262236371	smiling	137	sub-03	1.0	2.0	137_smiling	0.0	168.62203719975832	
25.0	142.5036525720443	fix	1.0		444	21.0	male	black	2.969757262236371	smiling	137	sub-03	1.0	2.0	137_smiling	0.0	169.02192207303005	3.7665496181407434
25.0	142.80375239482646	pulse	1.0	t		21.0	male	black	2.969757262236371	smiling	137	sub-03	1.0	2.0	137_smiling	0.0	169.3220218958122	
25.0	143.50373467605596	pulse	1.0	t		21.0	male	black	2.969757262236371	smiling	137	sub-03	1.0	2.0	137_smiling	0.0	170.0220041770417	
25.0	144.20371122207916	pulse	1.0	t		21.0	male	black	2.969757262236371	smiling	137	sub-03	1.0	2.0	137_smiling	0.0	170.72198072306492	
25.0	144.90369863480964	pulse	1.0	t		21.0	male	black	2.969757262236371	smiling	137	sub-03	1.0	2.0	137_smiling	0.0	171.4219681357954	
25.0	145.60367367156778	pulse	1.0	t		21.0	male	black	2.969757262236371	smiling	137	sub-03	1.0	2.0	137_smiling	0.0	172.12194317255353	
26.0	146.27020219018505	face	0.0		145	31.0	female	west_asian	2.364902506963788	neutral	006	sub-03	1.0	2.0	006_neutral	1.0	172.7884716911708	1.2333139443098844
26.0	146.3036638009753	pulse	0.0	t		31.0	female	west_asian	2.364902506963788	neutral	006	sub-03	1.0	2.0	006_neutral	1.0	172.82193330196105	
26.0	147.00363823402722	pulse	0.0	t		31.0	female	west_asian	2.364902506963788	neutral	006	sub-03	1.0	2.0	006_neutral	1.0	173.52190773501297	
26.0	147.50351613449493	fix	1.0		236	31.0	female	west_asian	2.364902506963788	neutral	006	sub-03	1.0	2.0	006_neutral	1.0	174.02178563548068	1.9999492886986445
26.0	147.70362806158164	pulse	1.0	t		31.0	female	west_asian	2.364902506963788	neutral	006	sub-03	1.0	2.0	006_neutral	1.0	174.2218975625674	
26.0	148.4035952501622	pulse	1.0	t		31.0	female	west_asian	2.364902506963788	neutral	006	sub-03	1.0	2.0	006_neutral	1.0	174.92186475114795	
26.0	149.1035769276864	pulse	1.0	t		31.0	female	west_asian	2.364902506963788	neutral	006	sub-03	1.0	2.0	006_neutral	1.0	175.62184642867214	
26.0	149.50346542319357	rating	2.0		235	31.0	female	west_asian	2.364902506963788	neutral	006	sub-03	1.0	2.0	006_neutral	1.0	176.02173492417933	1.9999423460799335
26.0	149.79831481515612	pulse	2.0	t		31.0	female	west_asian	2.364902506963788	neutral	006	sub-03	1.0	2.0	006_neutral	1.0	176.31658431614187	
26.0	150.43688208807407	response	2.0	y		31.0	female	west_asian	2.364902506963788	neutral	006	sub-03	1.0	2.0	006_neutral	1.0	176.95515158905982	
26.0	150.49827566482372	pulse	2.0	t		31.0	female	west_asian	2.364902506963788	neutral	006	sub-03	1.0	2.0	006_neutral	1.0	177.01654516580948	
26.0	151.20351984728677	pulse	2.0	t		31.0	female	west_asian	2.364902506963788	neutral	006	sub-03	1.0	2.0	006_neutral	1.0	177.72178934827252	
26.0	151.5034077692735	fix	3.0		444	31.0	female	west_asian	2.364902506963788	neutral	006	sub-03	1.0	2.0	006_neutral	1.0	178.02167727025926	3.76654871258188
26.0	151.90350575075217	pulse	3.0	t		31.0	female	west_asian	2.364902506963788	neutral	006	sub-03	1.0	2.0	006_neutral	1.0	178.42177525173793	
26.0	152.60347867453947	pulse	3.0	t		31.0	female	west_asian	2.364902506963788	neutral	006	sub-03	1.0	2.0	006_neutral	1.0	179.12174817552523	
26.0	153.30346789838813	pulse	3.0	t		31.0	female	west_asian	2.364902506963788	neutral	006	sub-03	1.0	2.0	006_neutral	1.0	179.8217373993739	
26.0	154.0034420295874	pulse	3.0	t		31.0	female	west_asian	2.364902506963788	neutral	006	sub-03	1.0	2.0	006_neutral	1.0	180.52171153057316	
26.0	154.70342461267	pulse	3.0	t		31.0	female	west_asian	2.364902506963788	neutral	006	sub-03	1.0	2.0	006_neutral	1.0	181.22169411365576	
27.0	155.2699564818554	face	0.0		145	24.0	female	east_asian	4.409868682849185	smiling	030	sub-03	1.0	2.0	030_smiling	0.0	181.78822598284114	1.23331545357496
27.0	155.4034186661661	pulse	0.0	t		24.0	female	east_asian	4.409868682849185	smiling	030	sub-03	1.0	2.0	030_smiling	0.0	181.92168816715184	
27.0	156.10338434548203	pulse	0.0	t		24.0	female	east_asian	4.409868682849185	smiling	030	sub-03	1.0	2.0	030_smiling	0.0	182.62165384646778	
27.0	156.50327193543035	fix	1.0		444	24.0	female	east_asian	4.409868682849185	smiling	030	sub-03	1.0	2.0	030_smiling	0.0	183.0215414364161	3.766546297757941
27.0	156.80337266377137	pulse	1.0	t		24.0	female	east_asian	4.409868682849185	smiling	030	sub-03	1.0	2.0	030_smiling	0.0	183.32164216475712	
27.0	157.50334920979458	pulse	1.0	t		24.0	female	east_asian	4.409868682849185	smiling	030	sub-03	1.0	2.0	030_smiling	0.0	184.02161871078033	
27.0	158.20332515211157	pulse	1.0	t		24.0	female	east_asian	4.409868682849185	smiling	030	sub-03	1.0	2.0	030_smiling	0.0	184.72159465309733	
27.0	158.90331135743008	pulse	1.0	t		24.0	female	east_asian	4.409868682849185	smiling	030	sub-03	1.0	2.0	030_smiling	0.0	185.42158085841584	
27.0	159.60328699789397	pulse	1.0	t		24.0	female	east_asian	4.409868682849185	smiling	030	sub-03	1.0	2.0	030_smiling	0.0	186.12155649887973	
28.0	160.2698182331883	face	0.0		145	40.0	male	white	1.868682849184242	neutral	172	sub-03	1.0	2.0	172_neutral	0.0	186.78808773417404	1.23331545357496
28.0	160.30327984397854	pulse	0.0	t		40.0	male	white	1.868682849184242	neutral	172	sub-03	1.0	2.0	172_neutral	0.0	186.8215493449643	
28.0	161.00325457888357	pulse	0.0	t		40.0	male	white	1.868682849184242	neutral	172	sub-03	1.0	2.0	172_neutral	0.0	187.52152407986932	
28.0	161.50313368676325	fix	1.0		443	40.0	male	white	1.868682849184242	neutral	172	sub-03	1.0	2.0	172_neutral	0.0	188.021403187749	3.758256811086085
28.0	161.70323897308435	pulse	1.0	t		40.0	male	white	1.868682849184242	neutral	172	sub-03	1.0	2.0	172_neutral	0.0	188.2215084740701	
28.0	162.4032158209602	pulse	1.0	t		40.0	male	white	1.868682849184242	neutral	172	sub-03	1.0	2.0	172_neutral	0.0	188.92148532194597	
28.0	163.10319538551312	pulse	1.0	t		40.0	male	white	1.868682849184242	neutral	172	sub-03	1.0	2.0	172_neutral	0.0	189.62146488649887	
28.0	163.80317223338943	pulse	1.0	t		40.0	male	white	1.868682849184242	neutral	172	sub-03	1.0	2.0	172_neutral	0.0	190.32144173437518	
28.0	164.50315330720696	pulse	1.0	t		40.0	male	white	1.868682849184242	neutral	172	sub-03	1.0	2.0	172_neutral	0.0	191.0214228081927	
28.0	165.2031419273494	pulse	1.0	t		40.0	male	white	1.868682849184242	neutral	172	sub-03	1.0	2.0	172_neutral	0.0	191.72141142833516	
29.0	165.26139049784933	face	0.0		147	28.0	female	white	5.676880222841227	smiling	124	sub-03	1.0	2.0	124_smiling	0.0	191.7796599988351	1.2416094680415881
29.0	165.90312481228557	pulse	0.0	t		28.0	female	white	5.676880222841227	smiling	124	sub-03	1.0	2.0	124_smiling	0.0	192.42139431327132	
29.0	166.50299996589092	fix	1.0		443	28.0	female	white	5.676880222841227	smiling	124	sub-03	1.0	2.0	124_smiling	0.0	193.02126946687667	3.766548108875668
29.0	166.60310830092703	pulse	1.0	t		28.0	female	white	5.676880222841227	smiling	124	sub-03	1.0	2.0	124_smiling	0.0	193.1213778019128	
29.0	167.30308394139138	pulse	1.0	t		28.0	female	white	5.676880222841227	smiling	124	sub-03	1.0	2.0	124_smiling	0.0	193.82135344237713	
29.0	168.00306380779693	pulse	1.0	t		28.0	female	white	5.676880222841227	smiling	124	sub-03	1.0	2.0	124_smiling	0.0	194.5213333087827	
29.0	168.70304035382014	pulse	1.0	t		28.0	female	white	5.676880222841227	smiling	124	sub-03	1.0	2.0	124_smiling	0.0	195.2213098548059	
29.0	169.40302022022615	pulse	1.0	t		28.0	female	white	5.676880222841227	smiling	124	sub-03	1.0	2.0	124_smiling	0.0	195.9212897212119	
29.0	170.1030088403686	pulse	1.0	t		28.0	female	white	5.676880222841227	smiling	124	sub-03	1.0	2.0	124_smiling	0.0	196.62127834135435	
30.0	170.2695480747666	face	0.0		146	20.0	male	black	2.609629924393156	smiling	043	sub-03	1.0	2.0	043_smiling	0.0	196.78781757575234	1.2333148498692026
30.0	170.8029748215372	pulse	0.0	t		20.0	male	black	2.609629924393156	smiling	043	sub-03	1.0	2.0	043_smiling	0.0	197.32124432252294	
30.0	171.5028629246358	fix	1.0		444	20.0	male	black	2.609629924393156	smiling	043	sub-03	1.0	2.0	043_smiling	0.0	198.02113242562154	3.7665469014636983
30.0	171.51034736939664	pulse	1.0	t		20.0	male	black	2.609629924393156	smiling	043	sub-03	1.0	2.0	043_smiling	0.0	198.0286168703824	
30.0	172.20294783588042	pulse	1.0	t		20.0	male	black	2.609629924393156	smiling	043	sub-03	1.0	2.0	043_smiling	0.0	198.72121733686618	
30.0	172.9029283059922	pulse	1.0	t		20.0	male	black	2.609629924393156	smiling	043	sub-03	1.0	2.0	043_smiling	0.0	199.42119780697794	
30.0	173.60290877610396	pulse	1.0	t		20.0	male	black	2.609629924393156	smiling	043	sub-03	1.0	2.0	043_smiling	0.0	200.1211782770897	
30.0	174.30289317030474	pulse	1.0	t		20.0	male	black	2.609629924393156	smiling	043	sub-03	1.0	2.0	043_smiling	0.0	200.8211626712905	
30.0	175.0028721311519	pulse	1.0	t		20.0	male	black	2.609629924393156	smiling	043	sub-03	1.0	2.0	043_smiling	0.0	201.52114163213764	
31.0	175.2694098260995	face	0.0		145	54.0	female	white	2.286908077994429	neutral	136	sub-03	1.0	2.0	136_neutral	0.0	201.78767932708524	1.2333166609869295
31.0	175.70285743091154	pulse	0.0	t		54.0	female	white	2.286908077994429	neutral	136	sub-03	1.0	2.0	136_neutral	0.0	202.2211269318973	
31.0	176.40283548619936	pulse	0.0	t		54.0	female	white	2.286908077994429	neutral	136	sub-03	1.0	2.0	136_neutral	0.0	202.92110498718512	
31.0	176.50272648708642	fix	1.0		444	54.0	female	white	2.286908077994429	neutral	136	sub-03	1.0	2.0	136_neutral	0.0	203.02099598807217	3.766546297757941
31.0	177.102820785959	pulse	1.0	t		54.0	female	white	2.286908077994429	neutral	136	sub-03	1.0	2.0	136_neutral	0.0	203.62109028694476	
31.0	177.80279069121616	pulse	1.0	t		54.0	female	white	2.286908077994429	neutral	136	sub-03	1.0	2.0	136_neutral	0.0	204.3210601922019	
31.0	178.5027781039471	pulse	1.0	t		54.0	female	white	2.286908077994429	neutral	136	sub-03	1.0	2.0	136_neutral	0.0	205.02104760493285	
31.0	179.20275525367606	pulse	1.0	t		54.0	female	white	2.286908077994429	neutral	136	sub-03	1.0	2.0	136_neutral	0.0	205.7210247546618	
31.0	179.90273964787684	pulse	1.0	t		54.0	female	white	2.286908077994429	neutral	136	sub-03	1.0	2.0	136_neutral	0.0	206.4210091488626	
32.0	180.26927278484436	face	0.0		145	19.0	male	white	3.2522881018702745	smiling	018	sub-03	1.0	2.0	018_smiling	1.0	206.7875422858301	1.2333169628400356
32.0	180.60272706060732	pulse	0.0	t		19.0	male	white	3.2522881018702745	smiling	018	sub-03	1.0	2.0	018_smiling	1.0	207.12099656159307	
32.0	181.30269877698265	pulse	0.0	t		19.0	male	white	3.2522881018702745	smiling	018	sub-03	1.0	2.0	018_smiling	1.0	207.8209682779684	
32.0	181.5025897476844	fix	1.0		236	19.0	male	white	3.2522881018702745	smiling	018	sub-03	1.0	2.0	018_smiling	1.0	208.02085924867015	1.9999465720215994
32.0	182.00268286933033	pulse	1.0	t		19.0	male	white	3.2522881018702745	smiling	018	sub-03	1.0	2.0	018_smiling	1.0	208.52095237031608	
32.0	182.70265609497028	pulse	1.0	t		19.0	male	white	3.2522881018702745	smiling	018	sub-03	1.0	2.0	018_smiling	1.0	209.22092559595603	
32.0	183.4026395836122	pulse	1.0	t		19.0	male	white	3.2522881018702745	smiling	018	sub-03	1.0	2.0	018_smiling	1.0	209.92090908459795	
32.0	183.502536319706	rating	2.0		236	19.0	male	white	3.2522881018702745	smiling	018	sub-03	1.0	2.0	018_smiling	1.0	210.02080582069175	1.9999447609038725
32.0	184.09737596181685	pulse	2.0	t		19.0	male	white	3.2522881018702745	smiling	018	sub-03	1.0	2.0	018_smiling	1.0	210.6156454628026	
32.0	184.26095039619713	response	2.0	e		19.0	male	white	3.2522881018702745	smiling	018	sub-03	1.0	2.0	018_smiling	1.0	210.77921989718288	
32.0	184.80259448677634	pulse	2.0	t		19.0	male	white	3.2522881018702745	smiling	018	sub-03	1.0	2.0	018_smiling	1.0	211.3208639877621	
32.0	185.50248108060987	fix	3.0		444	19.0	male	white	3.2522881018702745	smiling	018	sub-03	1.0	2.0	018_smiling	1.0	212.02075058159562	3.766548108875668
32.0	185.51002891449752	pulse	3.0	t		19.0	male	white	3.2522881018702745	smiling	018	sub-03	1.0	2.0	018_smiling	1.0	212.02829841548328	
32.0	186.20256719926647	pulse	3.0	t		19.0	male	white	3.2522881018702745	smiling	018	sub-03	1.0	2.0	018_smiling	1.0	212.72083670025222	
32.0	186.90254676381937	pulse	3.0	t		19.0	male	white	3.2522881018702745	smiling	018	sub-03	1.0	2.0	018_smiling	1.0	213.42081626480513	
32.0	187.60252934690197	pulse	3.0	t		19.0	male	white	3.2522881018702745	smiling	018	sub-03	1.0	2.0	018_smiling	1.0	214.12079884788773	
32.0	188.30250800589602	pulse	3.0	t		19.0	male	white	3.2522881018702745	smiling	018	sub-03	1.0	2.0	018_smiling	1.0	214.82077750688177	
32.0	189.00249481492074	pulse	3.0	t		19.0	male	white	3.2522881018702745	smiling	018	sub-03	1.0	2.0	018_smiling	1.0	215.5207643159065	
33.0	189.26902918948554	face	0.0		145	54.0	female	white	2.286908077994429	smiling	136	sub-03	1.0	2.0	136_smiling	0.0	215.7872986904713	1.2333169628400356
33.0	189.70247407762054	pulse	0.0	t		54.0	female	white	2.286908077994429	smiling	136	sub-03	1.0	2.0	136_smiling	0.0	216.2207435786063	
33.0	190.40245696255624	pulse	0.0	t		54.0	female	white	2.286908077994429	smiling	136	sub-03	1.0	2.0	136_smiling	0.0	216.920726463542	
33.0	190.50234615232557	fix	1.0		444	54.0	female	white	2.286908077994429	smiling	136	sub-03	1.0	2.0	136_smiling	0.0	217.02061565331132	3.758250774026237
33.0	191.10243713081536	pulse	1.0	t		54.0	female	white	2.286908077994429	smiling	136	sub-03	1.0	2.0	136_smiling	0.0	217.6207066318011	
33.0	191.8024151861032	pulse	1.0	t		54.0	female	white	2.286908077994429	smiling	136	sub-03	1.0	2.0	136_smiling	0.0	218.32068468708894	
33.0	192.50239082656708	pulse	1.0	t		54.0	female	white	2.286908077994429	smiling	136	sub-03	1.0	2.0	136_smiling	0.0	219.02066032755283	
33.0	193.20237220223817	pulse	1.0	t		54.0	female	white	2.286908077994429	smiling	136	sub-03	1.0	2.0	136_smiling	0.0	219.72064170322392	
33.0	193.90234935196713	pulse	1.0	t		54.0	female	white	2.286908077994429	smiling	136	sub-03	1.0	2.0	136_smiling	0.0	220.42061885295288	
34.0	194.2605969263518	face	0.0		146	27.0	female	white	4.181058495821727	neutral	039	sub-03	1.0	2.0	039_neutral	0.0	220.77886642733756	1.2416097698946942
34.0	194.60233767025647	pulse	0.0	t		27.0	female	white	4.181058495821727	neutral	039	sub-03	1.0	2.0	039_neutral	0.0	221.12060717124223	
34.0	195.3023193477802	pulse	0.0	t		27.0	female	white	4.181058495821727	neutral	039	sub-03	1.0	2.0	039_neutral	0.0	221.82058884876596	
34.0	195.5022066962465	fix	1.0		444	27.0	female	white	4.181058495821727	neutral	039	sub-03	1.0	2.0	039_neutral	0.0	222.02047619723226	3.7665520329646824
34.0	196.00230525124607	pulse	1.0	t		27.0	female	white	4.181058495821727	neutral	039	sub-03	1.0	2.0	039_neutral	0.0	222.52057475223182	
34.0	196.70227606206254	pulse	1.0	t		27.0	female	white	4.181058495821727	neutral	039	sub-03	1.0	2.0	039_neutral	0.0	223.2205455630483	
34.0	197.40226347479302	pulse	1.0	t		27.0	female	white	4.181058495821727	neutral	039	sub-03	1.0	2.0	039_neutral	0.0	223.92053297577877	
34.0	198.10223820969804	pulse	1.0	t		27.0	female	white	4.181058495821727	neutral	039	sub-03	1.0	2.0	039_neutral	0.0	224.6205077106838	
34.0	198.8022171705452	pulse	1.0	t		27.0	female	white	4.181058495821727	neutral	039	sub-03	1.0	2.0	039_neutral	0.0	225.32048667153094	
35.0	199.26875872921119	face	0.0		145	36.0	female	white	2.7548746518105847	neutral	011	sub-03	1.0	2.0	011_neutral	0.0	225.78702823019694	1.2333124350448088
35.0	199.5022094129231	pulse	0.0	t		36.0	female	white	2.7548746518105847	neutral	011	sub-03	1.0	2.0	011_neutral	0.0	226.02047891390885	
35.0	200.20218686450517	pulse	0.0	t		36.0	female	white	2.7548746518105847	neutral	011	sub-03	1.0	2.0	011_neutral	0.0	226.72045636549092	
35.0	200.502071164256	fix	1.0		444	36.0	female	white	2.7548746518105847	neutral	011	sub-03	1.0	2.0	011_neutral	0.0	227.02034066524175	3.766549618141198
35.0	200.90216612720542	pulse	1.0	t		36.0	female	white	2.7548746518105847	neutral	011	sub-03	1.0	2.0	011_neutral	0.0	227.42043562819117	
35.0	201.60214780472916	pulse	1.0	t		36.0	female	white	2.7548746518105847	neutral	011	sub-03	1.0	2.0	011_neutral	0.0	228.1204173057149	
35.0	202.302125860017	pulse	1.0	t		36.0	female	white	2.7548746518105847	neutral	011	sub-03	1.0	2.0	011_neutral	0.0	228.82039536100274	
35.0	203.00210391530527	pulse	1.0	t		36.0	female	white	2.7548746518105847	neutral	011	sub-03	1.0	2.0	011_neutral	0.0	229.52037341629102	
35.0	203.70208347985817	pulse	1.0	t		36.0	female	white	2.7548746518105847	neutral	011	sub-03	1.0	2.0	011_neutral	0.0	230.22035298084393	
36.0	204.2686207823972	face	0.0		145	37.0	male	white	3.898925586947871	smiling	101	sub-03	1.0	2.0	101_smiling	1.0	230.78689028338295	1.2333121331921575
36.0	204.40207934447199	pulse	0.0	t		37.0	male	white	3.898925586947871	smiling	101	sub-03	1.0	2.0	101_smiling	1.0	230.92034884545774	
36.0	205.1020558904952	pulse	0.0	t		37.0	male	white	3.898925586947871	smiling	101	sub-03	1.0	2.0	101_smiling	1.0	231.62032539148095	
36.0	205.50193291558935	fix	1.0		236	37.0	male	white	3.898925586947871	smiling	101	sub-03	1.0	2.0	101_smiling	1.0	232.0202024165751	1.9999486849924324
36.0	205.80203364393037	pulse	1.0	t		37.0	male	white	3.898925586947871	smiling	101	sub-03	1.0	2.0	101_smiling	1.0	232.32030314491612	
36.0	206.50201260477706	pulse	1.0	t		37.0	male	white	3.898925586947871	smiling	101	sub-03	1.0	2.0	101_smiling	1.0	233.02028210576282	
36.0	207.20199699897785	pulse	1.0	t		37.0	male	white	3.898925586947871	smiling	101	sub-03	1.0	2.0	101_smiling	1.0	233.7202664999636	
36.0	207.50188160058178	rating	2.0		235	37.0	male	white	3.898925586947871	smiling	101	sub-03	1.0	2.0	101_smiling	1.0	234.02015110156754	1.9999450627565238
36.0	207.89672854753508	pulse	2.0	t		37.0	male	white	3.898925586947871	smiling	101	sub-03	1.0	2.0	101_smiling	1.0	234.41499804852083	
36.0	208.04363556564704	response	2.0	b		37.0	male	white	3.898925586947871	smiling	101	sub-03	1.0	2.0	101_smiling	1.0	234.5619050666328	
36.0	208.60194978917116	pulse	2.0	t		37.0	male	white	3.898925586947871	smiling	101	sub-03	1.0	2.0	101_smiling	1.0	235.1202192901569	
36.0	209.30193086298868	pulse	2.0	t		37.0	male	white	3.898925586947871	smiling	101	sub-03	1.0	2.0	101_smiling	1.0	235.82020036397444	
36.0	209.5018266633383	fix	3.0		444	37.0	male	white	3.898925586947871	smiling	101	sub-03	1.0	2.0	101_smiling	1.0	236.02009616432406	3.7665475051699104
36.0	210.00192038869045	pulse	3.0	t		37.0	male	white	3.898925586947871	smiling	101	sub-03	1.0	2.0	101_smiling	1.0	236.5201898896762	
36.0	210.7018908976538	pulse	3.0	t		37.0	male	white	3.898925586947871	smiling	101	sub-03	1.0	2.0	101_smiling	1.0	237.22016039863956	
36.0	211.40187468814838	pulse	3.0	t		37.0	male	white	3.898925586947871	smiling	101	sub-03	1.0	2.0	101_smiling	1.0	237.92014418913413	
36.0	212.10185696937833	pulse	3.0	t		37.0	male	white	3.898925586947871	smiling	101	sub-03	1.0	2.0	101_smiling	1.0	238.62012647036408	
36.0	212.80183532651927	pulse	3.0	t		37.0	male	white	3.898925586947871	smiling	101	sub-03	1.0	2.0	101_smiling	1.0	239.32010482750502	
37.0	213.26837416850822	face	0.0		145	28.0	male	white	3.9076800636689217	smiling	033	sub-03	1.0	2.0	033_smiling	1.0	239.78664366949397	1.233315151721854
37.0	213.50182575777944	pulse	0.0	t		28.0	male	white	3.9076800636689217	smiling	033	sub-03	1.0	2.0	033_smiling	1.0	240.0200952587652	
37.0	214.20179868156674	pulse	0.0	t		28.0	male	white	3.9076800636689217	smiling	033	sub-03	1.0	2.0	033_smiling	1.0	240.7200681825525	
37.0	214.50168932023007	fix	1.0		236	28.0	male	white	3.9076800636689217	smiling	033	sub-03	1.0	2.0	033_smiling	1.0	241.01995882121582	1.9999477794340237
37.0	214.90178850912116	pulse	1.0	t		28.0	male	white	3.9076800636689217	smiling	033	sub-03	1.0	2.0	033_smiling	1.0	241.4200580101069	
37.0	215.6017605273496	pulse	1.0	t		28.0	male	white	3.9076800636689217	smiling	033	sub-03	1.0	2.0	033_smiling	1.0	242.12003002833535	
37.0	216.30174220487334	pulse	1.0	t		28.0	male	white	3.9076800636689217	smiling	033	sub-03	1.0	2.0	033_smiling	1.0	242.8200117058591	
37.0	216.5016370996641	rating	2.0		235	28.0	male	white	3.9076800636689217	smiling	033	sub-03	1.0	2.0	033_smiling	1.0	243.01990660064985	1.9999417423737214
37.0	216.9964637922817	pulse	2.0	t		28.0	male	white	3.9076800636689217	smiling	033	sub-03	1.0	2.0	033_smiling	1.0	243.51473329326745	
37.0	217.2631038153918	response	2.0	b		28.0	male	white	3.9076800636689217	smiling	033	sub-03	1.0	2.0	033_smiling	1.0	243.78137331637754	
37.0	217.70169740989013	pulse	2.0	t		28.0	male	white	3.9076800636689217	smiling	033	sub-03	1.0	2.0	033_smiling	1.0	244.21996691087588	
37.0	218.40168421891485	pulse	2.0	t		28.0	male	white	3.9076800636689217	smiling	033	sub-03	1.0	2.0	033_smiling	1.0	244.9199537199006	
37.0	218.50157884203782	fix	3.0		444	28.0	male	white	3.9076800636689217	smiling	033	sub-03	1.0	2.0	033_smiling	1.0	245.01984834302357	3.766551127405819
37.0	219.1016791779698	pulse	3.0	t		28.0	male	white	3.9076800636689217	smiling	033	sub-03	1.0	2.0	033_smiling	1.0	245.61994867895555	
37.0	219.8016421406087	pulse	3.0	t		28.0	male	white	3.9076800636689217	smiling	033	sub-03	1.0	2.0	033_smiling	1.0	246.31991164159444	
37.0	220.50162925148652	pulse	3.0	t		28.0	male	white	3.9076800636689217	smiling	033	sub-03	1.0	2.0	033_smiling	1.0	247.01989875247227	
37.0	221.20161274012798	pulse	3.0	t		28.0	male	white	3.9076800636689217	smiling	033	sub-03	1.0	2.0	033_smiling	1.0	247.71988224111374	
37.0	221.90160800103604	pulse	3.0	t		28.0	male	white	3.9076800636689217	smiling	033	sub-03	1.0	2.0	033_smiling	1.0	248.4198775020218	
38.0	222.26812996944363	face	0.0		145	28.0	male	east_asian	1.5563072025467568	smiling	005	sub-03	1.0	2.0	005_smiling	0.0	248.7863994704294	1.2333139443098844
38.0	222.60157730258743	pulse	0.0	t		28.0	male	east_asian	1.5563072025467568	smiling	005	sub-03	1.0	2.0	005_smiling	0.0	249.11984680357318	
38.0	223.30155052822784	pulse	0.0	t		28.0	male	east_asian	1.5563072025467568	smiling	005	sub-03	1.0	2.0	005_smiling	0.0	249.8198200292136	
38.0	223.50144391375352	fix	1.0		444	28.0	male	east_asian	1.5563072025467568	smiling	005	sub-03	1.0	2.0	005_smiling	0.0	250.01971341473927	3.766547203317259
38.0	224.00153703539945	pulse	1.0	t		28.0	male	east_asian	1.5563072025467568	smiling	005	sub-03	1.0	2.0	005_smiling	0.0	250.5198065363852	
38.0	224.70151267586334	pulse	1.0	t		28.0	male	east_asian	1.5563072025467568	smiling	005	sub-03	1.0	2.0	005_smiling	0.0	251.2197821768491	
38.0	225.4014982774761	pulse	1.0	t		28.0	male	east_asian	1.5563072025467568	smiling	005	sub-03	1.0	2.0	005_smiling	0.0	251.91976777846185	
38.0	226.10146667346862	pulse	1.0	t		28.0	male	east_asian	1.5563072025467568	smiling	005	sub-03	1.0	2.0	005_smiling	0.0	252.61973617445437	
38.0	226.80145619916993	pulse	1.0	t		28.0	male	east_asian	1.5563072025467568	smiling	005	sub-03	1.0	2.0	005_smiling	0.0	253.3197257001557	
39.0	227.26799111707078	face	0.0		145	31.0	male	west_asian	1.9538400318344609	smiling	070	sub-03	1.0	2.0	070_smiling	0.0	253.78626061805653	1.2333160572807174
39.0	227.50144964896026	pulse	0.0	t		31.0	male	west_asian	1.9538400318344609	smiling	070	sub-03	1.0	2.0	070_smiling	0.0	254.019719149946	
39.0	228.20141864865855	pulse	0.0	t		31.0	male	west_asian	1.9538400318344609	smiling	070	sub-03	1.0	2.0	070_smiling	0.0	254.7196881496443	
39.0	228.5013071743515	fix	1.0		444	31.0	male	west_asian	1.9538400318344609	smiling	070	sub-03	1.0	2.0	070_smiling	0.0	255.01957667533725	3.749898200080679
39.0	228.9014048539775	pulse	1.0	t		31.0	male	west_asian	1.9538400318344609	smiling	070	sub-03	1.0	2.0	070_smiling	0.0	255.41967435496326	
39.0	229.60137928702943	pulse	1.0	t		31.0	male	west_asian	1.9538400318344609	smiling	070	sub-03	1.0	2.0	070_smiling	0.0	256.1196487880152	
39.0	230.30136277567135	pulse	1.0	t		31.0	male	west_asian	1.9538400318344609	smiling	070	sub-03	1.0	2.0	070_smiling	0.0	256.8196322766571	
39.0	231.00134837728365	pulse	1.0	t		31.0	male	west_asian	1.9538400318344609	smiling	070	sub-03	1.0	2.0	070_smiling	0.0	257.5196178782694	
39.0	231.70132794183655	pulse	1.0	t		31.0	male	west_asian	1.9538400318344609	smiling	070	sub-03	1.0	2.0	070_smiling	0.0	258.2195974428223	
40.0	232.25120537443217	fix	0.0		720												258.7694748754179	5.999826736386694
40.0	232.4013102230665	pulse	0.0	t													258.91957972405226	
40.0	233.10128888206054	pulse	0.0	t													259.6195583830463	
40.0	233.80128172814466	pulse	0.0	t													260.3195512291304	
40.0	234.50126642419855	pulse	0.0	t													261.0195359251843	
40.0	235.20123149980827	pulse	0.0	t													261.719501000794	
40.0	235.9012279681283	pulse	0.0	t													262.41949746911405	
40.0	236.601206928975	pulse	0.0	t													263.11947642996074	
40.0	237.3011735138498	pulse	0.0	t													263.81944301483554	
40.0	238.0011597191683	pulse	0.0	t													264.51942922015405	
