trial_nr	onset	event_type	phase	response	nr_frames	trial_type	stim_name	task_probe	onset_abs	duration
0.0	0.055763716728051804	baseline	0.0		701		baseline	0.0	30.0421622212275	5.849604768794052
0.0	0.70564293025609	pulse	0.0	t			baseline	0.0	30.692041434755538	
0.0	1.4056264188975547	pulse	0.0	t			baseline	0.0	31.392024923397003	
0.0	2.1055836463297055	pulse	0.0	t			baseline	0.0	32.09198215082915	
0.0	2.8056036591824522	pulse	0.0	t			baseline	0.0	32.7920021636819	
0.0	3.5055279846392295	pulse	0.0	t			baseline	0.0	33.49192648913868	
0.0	4.205534715960766	pulse	0.0	t			baseline	0.0	34.191933220460214	
0.0	4.905520921279276	pulse	0.0	t			baseline	0.0	34.891919425778724	
0.0	5.605474526475518	pulse	0.0	t			baseline	0.0	35.591873030974966	
0.0	5.905368485522104	ISI	1.0		6		baseline	0.0	35.89176699002155	0.1250190544697034
1.0	6.030387539991807	corridor	0.0		45	place	corridor-96.jpg	0.0	36.016786044491255	0.37491982030087456
1.0	6.305433565025396	pulse	0.0	t		place	corridor-96.jpg	0.0	36.291832069524844	
1.0	6.4053073602926816	ISI	1.0		594	place	corridor-96.jpg	0.0	36.39170586479213	5.016543354691294
1.0	7.005416148108452	pulse	1.0	t		place	corridor-96.jpg	0.0	36.9918146526079	
1.0	7.705392995984312	pulse	1.0	t		place	corridor-96.jpg	0.0	37.69179150048376	
1.0	8.405365919771612	pulse	1.0	t		place	corridor-96.jpg	0.0	38.39176442427106	
1.0	9.105358464003075	pulse	1.0	t		place	corridor-96.jpg	0.0	39.09175696850252	
1.0	9.805343763762721	pulse	1.0	t		place	corridor-96.jpg	0.0	39.79174226826217	
1.0	10.50531487643184	pulse	1.0	t		place	corridor-96.jpg	0.0	40.49171338093129	
1.0	11.20528780021914	pulse	1.0	t		place	corridor-96.jpg	0.0	41.19168630471859	
2.0	11.421850714983975	body	0.0		46	body	body-4.jpg	0.0	41.40824921948342	0.38332219998937944
2.0	11.805172914973355	ISI	1.0		230	body	body-4.jpg	0.0	41.7915714194728	2.0166671144152133
2.0	11.905251668416895	pulse	1.0	t		body	body-4.jpg	0.0	41.89165017291634	
2.0	12.605321185159482	pulse	1.0	t		body	body-4.jpg	0.0	42.59171968965893	
2.0	13.305301957124357	pulse	1.0	t		body	body-4.jpg	0.0	43.291700461623805	
3.0	13.821840029388568	instrument	0.0		46	object	instrument-12.jpg	0.0	43.808238533888016	0.3832850720718852
3.0	14.005259788262265	pulse	0.0	t		object	instrument-12.jpg	0.0	43.99165829276171	
3.0	14.205125101460453	ISI	1.0		235	object	instrument-12.jpg	0.0	44.1915236059599	2.016635117998703
3.0	14.70529911970607	pulse	1.0	t		object	instrument-12.jpg	0.0	44.69169762420552	
3.0	15.405244876724737	pulse	1.0	t		object	instrument-12.jpg	0.0	45.391643381224185	
3.0	16.105227459807338	pulse	1.0	t		object	instrument-12.jpg	0.0	46.091625964306786	
4.0	16.221760219459156	word	0.0		46	character	word-79.jpg	0.0	46.208158723958604	0.3833007684270342
4.0	16.60506098788619	ISI	1.0		234	character	word-79.jpg	0.0	46.59145949238564	2.016650512501201
4.0	16.80521185400812	pulse	1.0	t		character	word-79.jpg	0.0	46.79161035850757	
4.0	17.505197153767767	pulse	1.0	t		character	word-79.jpg	0.0	47.491595658267215	
4.0	18.205168870143098	pulse	1.0	t		character	word-79.jpg	0.0	48.191567374642545	
5.0	18.62171150038739	corridor	0.0		46	place	corridor-122.jpg	0.0	48.60811000488684	0.3832929202494597
5.0	18.905129116104945	pulse	0.0	t		place	corridor-122.jpg	0.0	48.89152762060439	
5.0	19.00500442063685	ISI	1.0		353	place	corridor-122.jpg	0.0	48.9914029251363	3.016616704966964
5.0	19.60513705483845	pulse	1.0	t		place	corridor-122.jpg	0.0	49.5915355593379	
5.0	20.305114204567417	pulse	1.0	t		place	corridor-122.jpg	0.0	50.291512709066865	
5.0	21.005093165414564	pulse	1.0	t		place	corridor-122.jpg	0.0	50.99149166991401	
5.0	21.705085709645573	pulse	1.0	t		place	corridor-122.jpg	0.0	51.69148421414502	
6.0	22.021621125603815	word	0.0		46	character	word-59.jpg	0.0	52.00801963010326	0.3832787331593863
6.0	22.4048998587632	ISI	1.0		234	character	word-59.jpg	0.0	52.39129836326265	2.0166559458543816
6.0	22.452504489308467	pulse	1.0	t		character	word-59.jpg	0.0	52.438902993807915	
6.0	23.105041820221686	pulse	1.0	t		character	word-59.jpg	0.0	53.091440324721134	
6.0	23.805034666306256	pulse	1.0	t		character	word-59.jpg	0.0	53.7914331708057	
7.0	24.421555804617583	corridor	0.0		46	place	corridor-84.jpg	0.0	54.40795430911703	0.3832998628686255
7.0	24.50498102703068	pulse	0.0	t		place	corridor-84.jpg	0.0	54.49137953153013	
7.0	24.80485566748621	ISI	1.0		235	place	corridor-84.jpg	0.0	54.791254171985656	2.016639343940369
7.0	25.205007680649032	pulse	1.0	t		place	corridor-84.jpg	0.0	55.19140618514848	
7.0	25.904977585906636	pulse	1.0	t		place	corridor-84.jpg	0.0	55.891376090406084	
7.0	26.60495020784083	pulse	1.0	t		place	corridor-84.jpg	0.0	56.59134871234028	
8.0	26.821495011426578	word	0.0		46	character	word-111.jpg	0.0	56.807893515926025	0.3832871850427182
8.0	27.204782196469296	ISI	1.0		233	character	word-111.jpg	0.0	57.191180700968744	2.016630590204386
8.0	27.30503874132137	pulse	1.0	t		character	word-111.jpg	0.0	57.291437245820816	
8.0	28.004918996242395	pulse	1.0	t		character	word-111.jpg	0.0	57.99131750074184	
8.0	28.704895240412498	pulse	1.0	t		character	word-111.jpg	0.0	58.691293744911945	
9.0	29.22141278667368	child	0.0		46	face	child-142.jpg	0.0	59.20781129117313	0.38331012586968427
9.0	29.404835262224424	pulse	0.0	t		face	child-142.jpg	0.0	59.39123376672387	
9.0	29.604722912543366	ISI	1.0		233	face	child-142.jpg	0.0	59.591121417042814	2.0166130827306006
9.0	30.104857086194897	pulse	1.0	t		face	child-142.jpg	0.0	60.091255590694345	
9.0	30.804846611896664	pulse	1.0	t		face	child-142.jpg	0.0	60.79124511639611	
9.0	31.504824365331388	pulse	1.0	t		face	child-142.jpg	0.0	61.491222869830835	
10.0	31.621335995273967	child	0.0		46	face	child-97.jpg	0.0	61.607734499773414	0.3833264259310454
10.0	32.00466242120501	ISI	1.0		235	face	child-97.jpg	0.0	61.99106092570446	2.0166354198518093
10.0	32.20480634470823	pulse	1.0	t		face	child-97.jpg	0.0	62.19120484920768	
10.0	32.90478651296735	pulse	1.0	t		face	child-97.jpg	0.0	62.891185017466796	
10.0	33.60475913490154	pulse	1.0	t		face	child-97.jpg	0.0	63.59115763940099	
11.0	34.02129784105682	corridor	0.0		46	place	corridor-9.jpg	0.0	64.00769634555627	0.3832929202494597
11.0	34.30476556436997	pulse	0.0	t		place	corridor-9.jpg	0.0	64.29116406886942	
11.0	34.40459076130628	ISI	1.0		715	place	corridor-9.jpg	0.0	64.39098926580573	6.016515282363798
11.0	35.00472279180212	pulse	1.0	t		place	corridor-9.jpg	0.0	64.99112129630157	
11.0	35.70470597859094	pulse	1.0	t		place	corridor-9.jpg	0.0	65.69110448309038	
11.0	36.404692787615204	pulse	1.0	t		place	corridor-9.jpg	0.0	66.39109129211465	
11.0	37.104655750254096	pulse	1.0	t		place	corridor-9.jpg	0.0	67.09105425475354	
11.0	37.804645577808515	pulse	1.0	t		place	corridor-9.jpg	0.0	67.79104408230796	
11.0	38.50463117942127	pulse	1.0	t		place	corridor-9.jpg	0.0	68.49102968392071	
11.0	39.20460319764925	pulse	1.0	t		place	corridor-9.jpg	0.0	69.1910017021487	
11.0	39.90459453446874	pulse	1.0	t		place	corridor-9.jpg	0.0	69.89099303896819	
12.0	40.42110604367008	word	0.0		46	character	word-60.jpg	0.0	70.40750454816953	0.3833170684883953
12.0	40.60453908407544	pulse	0.0	t		character	word-60.jpg	0.0	70.59093758857489	
12.0	40.804423112158474	ISI	1.0		592	character	word-60.jpg	0.0	70.79082161665792	5.016565691812502
12.0	41.304558191369324	pulse	1.0	t		character	word-60.jpg	0.0	71.29095669586877	
12.0	42.004547717070636	pulse	1.0	t		character	word-60.jpg	0.0	71.99094622157008	
12.0	42.70455595765725	pulse	1.0	t		character	word-60.jpg	0.0	72.6909544621567	
12.0	43.404497186881144	pulse	1.0	t		character	word-60.jpg	0.0	73.39089569138059	
12.0	44.104482184787685	pulse	1.0	t		character	word-60.jpg	0.0	74.09088068928713	
12.0	44.804469597518164	pulse	1.0	t		character	word-60.jpg	0.0	74.79086810201761	
12.0	45.50445036948304	pulse	1.0	t		character	word-60.jpg	0.0	75.49084887398249	
13.0	45.82098880397098	instrument	0.0		46	object	instrument-29.jpg	0.0	75.80738730847042	0.3832947313671866
13.0	46.20428353533816	ISI	1.0		352	object	instrument-29.jpg	0.0	76.19068203983761	3.0166016123175723
13.0	46.264877805384	pulse	1.0	t		object	instrument-29.jpg	0.0	76.25127630988345	
13.0	46.90441523379559	pulse	1.0	t		object	instrument-29.jpg	0.0	76.89081373829504	
13.0	47.604388459435995	pulse	1.0	t		object	instrument-29.jpg	0.0	77.59078696393544	
13.0	48.304377079578444	pulse	1.0	t		object	instrument-29.jpg	0.0	78.29077558407789	
13.0	49.004350003365744	pulse	1.0	t		object	instrument-29.jpg	0.0	78.99074850786519	
14.0	49.220885147655736	body	0.0		46	body	body-28.jpg	0.0	79.20728365215518	0.3832914109848389
14.0	49.604176558640575	ISI	1.0		355	body	body-28.jpg	0.0	79.59057506314002	3.016611875319086
14.0	49.704347075391524	pulse	1.0	t		body	body-28.jpg	0.0	79.69074557989097	
14.0	50.40432331956163	pulse	1.0	t		body	body-28.jpg	0.0	80.39072182406107	
14.0	51.104397364098986	pulse	1.0	t		body	body-28.jpg	0.0	81.09079586859843	
14.0	51.804301163552736	pulse	1.0	t		body	body-28.jpg	0.0	81.79069966805218	
14.0	52.504248127983374	pulse	1.0	t		body	body-28.jpg	0.0	82.49064663248282	
15.0	52.62078843395966	word	0.0		46	character	word-55.jpg	0.0	82.60718693845911	0.3833092203108208
15.0	53.00409765427048	ISI	1.0		353	character	word-55.jpg	0.0	82.99049615876993	3.016594065992649
15.0	53.204242785185215	pulse	1.0	t		character	word-55.jpg	0.0	83.19064128968466	
15.0	53.90422446270941	pulse	1.0	t		character	word-55.jpg	0.0	83.89062296720886	
15.0	54.60419074573065	pulse	1.0	t		character	word-55.jpg	0.0	84.5905892502301	
15.0	55.304186610344914	pulse	1.0	t		character	word-55.jpg	0.0	85.29058511484436	
16.0	56.02069172026313	instrument	0.0		45	object	instrument-104.jpg	0.0	86.00709022476258	0.3833022776921098
16.0	56.01055036552907	pulse	0.0	t		object	instrument-104.jpg	0.0	85.99694887002852	
16.0	56.40399399795524	ISI	1.0		352	object	instrument-104.jpg	0.0	86.39039250245469	3.01662364758522
16.0	56.70414272092103	pulse	1.0	t		object	instrument-104.jpg	0.0	86.69054122542047	
16.0	57.40411413544325	pulse	1.0	t		object	instrument-104.jpg	0.0	87.3905126399427	
16.0	58.1041060759685	pulse	1.0	t		object	instrument-104.jpg	0.0	88.09050458046795	
16.0	58.804092884993224	pulse	1.0	t		object	instrument-104.jpg	0.0	88.79049138949267	
17.0	59.42061764554046	instrument	0.0		46	object	instrument-63.jpg	0.0	89.40701615003991	0.38328386466037045
17.0	59.504036529040604	pulse	0.0	t		object	instrument-63.jpg	0.0	89.49043503354005	
17.0	59.80390151020083	ISI	1.0		355	object	instrument-63.jpg	0.0	89.79030001470028	3.016609460494692
17.0	60.20405805115843	pulse	1.0	t		object	instrument-63.jpg	0.0	90.19045655565787	
17.0	60.904032182357696	pulse	1.0	t		object	instrument-63.jpg	0.0	90.89043068685714	
17.0	61.60400299317416	pulse	1.0	t		object	instrument-63.jpg	0.0	91.59040149767361	
17.0	62.303991613317066	pulse	1.0	t		object	instrument-63.jpg	0.0	92.29039011781651	
18.0	62.82051097069552	corridor	0.0		46	place	corridor-102.jpg	0.0	92.80690947519497	0.38331586107688054
18.0	63.003934653658234	pulse	0.0	t		place	corridor-102.jpg	0.0	92.99033315815768	
18.0	63.2038268317724	ISI	1.0		230	place	corridor-102.jpg	0.0	93.19022533627185	2.016634816145597
18.0	63.703954062805224	pulse	1.0	t		place	corridor-102.jpg	0.0	93.69035256730467	
18.0	64.40393272179926	pulse	1.0	t		place	corridor-102.jpg	0.0	94.39033122629871	
18.0	65.10392164379437	pulse	1.0	t		place	corridor-102.jpg	0.0	95.09032014829381	
19.0	65.220461647918	child	0.0		46	face	child-124.jpg	0.0	95.20686015241745	0.3832989573093073
19.0	65.60376060522731	ISI	1.0		593	face	child-124.jpg	0.0	95.59015910972676	5.016558145487579
19.0	65.80390996208416	pulse	1.0	t		face	child-124.jpg	0.0	95.79030846658361	
19.0	66.50391005264055	pulse	1.0	t		face	child-124.jpg	0.0	96.49030855714	
19.0	67.20386335598369	pulse	1.0	t		face	child-124.jpg	0.0	97.19026186048313	
19.0	67.9038788410412	pulse	1.0	t		face	child-124.jpg	0.0	97.89027734554065	
19.0	68.60381795729472	pulse	1.0	t		face	child-124.jpg	0.0	98.59021646179417	
19.0	69.30380295520126	pulse	1.0	t		face	child-124.jpg	0.0	99.29020145970071	
19.0	70.00380938466924	pulse	1.0	t		face	child-124.jpg	0.0	99.99020788916869	
20.0	70.62031875071489	instrument	0.0		46	object	instrument-4.jpg	0.0	100.60671725521433	0.38329865545620123
20.0	70.70374155830405	pulse	0.0	t		object	instrument-4.jpg	0.0	100.6901400628035	
20.0	71.00361740617109	ISI	1.0		233	object	instrument-4.jpg	0.0	100.99001591067054	2.0166224401737054
20.0	71.40373470624081	pulse	1.0	t		object	instrument-4.jpg	0.0	101.39013321074026	
20.0	72.1037227226775	pulse	1.0	t		object	instrument-4.jpg	0.0	102.09012122717695	
20.0	72.80375118741404	pulse	1.0	t		object	instrument-4.jpg	0.0	102.79014969191348	
21.0	73.0202398463448	child	0.0		46	face	child-51.jpg	0.0	103.00663835084424	0.38329865545620123
21.0	73.403538501801	ISI	1.0		355	face	child-51.jpg	0.0	103.38993700630044	3.016607347523859
21.0	73.50369845369778	pulse	1.0	t		face	child-51.jpg	0.0	103.49009695819723	
21.0	74.20365930336584	pulse	1.0	t		face	child-51.jpg	0.0	104.19005780786529	
21.0	74.90365396056814	pulse	1.0	t		face	child-51.jpg	0.0	104.89005246506758	
21.0	75.6036344306799	pulse	1.0	t		face	child-51.jpg	0.0	105.59003293517935	
21.0	76.30362546564584	pulse	1.0	t		face	child-51.jpg	0.0	106.29002397014528	
22.0	76.42014584932485	child	0.0		46	face	child-51.jpg	1.0	106.4065443538243	0.38331495551756234
22.0	76.80346080484242	ISI	1.0		352	face	child-51.jpg	1.0	106.78985930934186	3.0165913493165135
22.0	76.86239367605913	response	1.0	b		face	child-51.jpg	1.0	106.84879218055858	
22.0	77.0036050301992	pulse	1.0	t		face	child-51.jpg	1.0	106.99000353469864	
22.0	77.70356678542566	pulse	1.0	t		face	child-51.jpg	1.0	107.68996528992511	
22.0	78.40354333144887	pulse	1.0	t		face	child-51.jpg	1.0	108.38994183594832	
22.0	79.10354825165223	pulse	1.0	t		face	child-51.jpg	1.0	109.08994675615168	
23.0	79.82005215415893	corridor	0.0		45	place	corridor-117.jpg	0.0	109.80645065865838	0.3833182758999101
23.0	79.8099856589647	pulse	0.0	t		place	corridor-117.jpg	0.0	109.79638416346415	
23.0	80.20337043005884	ISI	1.0		234	place	corridor-117.jpg	0.0	110.18976893455829	2.0166218364674933
23.0	80.50350073999243	pulse	1.0	t		place	corridor-117.jpg	0.0	110.48989924449188	
23.0	81.20349298237079	pulse	1.0	t		place	corridor-117.jpg	0.0	111.18989148687024	
23.0	81.90346711357006	pulse	1.0	t		place	corridor-117.jpg	0.0	111.8898656180695	
24.0	82.21999226652633	body	0.0		46	body	body-32.jpg	0.0	112.20639077102578	0.3833152573706684
24.0	82.603307523897	ISI	1.0		233	body	body-32.jpg	0.0	112.58970602839645	2.016620629055069
24.0	82.6569024269279	pulse	1.0	t		body	body-32.jpg	0.0	112.64330093142735	
24.0	83.30343590197162	pulse	1.0	t		body	body-32.jpg	0.0	113.28983440647107	
24.0	84.00341757949491	pulse	1.0	t		body	body-32.jpg	0.0	113.98981608399436	
25.0	84.61992815295207	corridor	0.0		46	place	corridor-22.jpg	0.0	114.60632665745152	0.3833125406936233
25.0	84.70336454392555	pulse	0.0	t		place	corridor-22.jpg	0.0	114.689763048425	
25.0	85.0032406936457	ISI	1.0		355	place	corridor-22.jpg	0.0	114.98963919814514	3.0165940659935586
25.0	85.40338606604337	pulse	1.0	t		place	corridor-22.jpg	0.0	115.38978457054282	
25.0	86.10334993424158	pulse	1.0	t		place	corridor-22.jpg	0.0	116.08974843874103	
25.0	86.80334278032524	pulse	1.0	t		place	corridor-22.jpg	0.0	116.78974128482469	
25.0	87.50332053376087	pulse	1.0	t		place	corridor-22.jpg	0.0	117.48971903826032	
26.0	88.01983475963925	body	0.0		46	body	body-97.jpg	0.0	118.0062332641387	0.3832944295145353
26.0	88.20327051672075	pulse	0.0	t		body	body-97.jpg	0.0	118.1896690212202	
26.0	88.40312918915379	ISI	1.0		471	body	body-97.jpg	0.0	118.38952769365324	4.016587123373938
26.0	88.90327875730736	pulse	1.0	t		body	body-97.jpg	0.0	118.88967726180681	
26.0	89.60326556633163	pulse	1.0	t		body	body-97.jpg	0.0	119.58966407083108	
26.0	90.30392158342374	pulse	1.0	t		body	body-97.jpg	0.0	120.29032008792319	
26.0	91.00321986579047	pulse	1.0	t		body	body-97.jpg	0.0	120.98961837028992	
26.0	91.7032169378158	pulse	1.0	t		body	body-97.jpg	0.0	121.68961544231524	
27.0	92.41971631252773	child	0.0		45	face	child-129.jpg	0.0	122.40611481702717	0.3833161629290771
27.0	92.41035705887725	pulse	0.0	t		face	child-129.jpg	0.0	122.3967555633767	
27.0	92.8030324754568	ISI	1.0		235	face	child-129.jpg	0.0	122.78943097995625	2.0166429661767324
27.0	93.10317033171532	pulse	1.0	t		face	child-129.jpg	0.0	123.08956883621477	
27.0	93.80315502776875	pulse	1.0	t		face	child-129.jpg	0.0	123.7895535322682	
27.0	94.5031339886159	pulse	1.0	t		face	child-129.jpg	0.0	124.48953249311535	
28.0	94.81967544163354	body	0.0		46	body	body-104.jpg	0.0	124.80607394613298	0.3832808461302193
28.0	95.20295628776375	ISI	1.0		235	body	body-104.jpg	0.0	125.1893547922632	2.0166496069423374
28.0	95.23933108171104	pulse	1.0	t		body	body-104.jpg	0.0	125.22572958621049	
28.0	95.90310036219353	pulse	1.0	t		body	body-104.jpg	0.0	125.88949886669297	
28.0	96.60306060815537	pulse	1.0	t		body	body-104.jpg	0.0	126.58945911265482	
29.0	97.21960589470609	word	0.0		46	character	word-66.jpg	0.0	127.20600439920554	0.38329865545620123
29.0	97.30309209142115	pulse	0.0	t		character	word-66.jpg	0.0	127.2894905959206	
29.0	97.6029045501623	ISI	1.0		355	character	word-66.jpg	0.0	127.58930305466174	3.0166176105258273
29.0	98.00303513176323	pulse	1.0	t		character	word-66.jpg	0.0	127.98943363626267	
29.0	98.70301922411136	pulse	1.0	t		character	word-66.jpg	0.0	128.6894177286108	
29.0	99.40300241090017	pulse	1.0	t		character	word-66.jpg	0.0	129.38940091539962	
29.0	100.10298589954118	pulse	1.0	t		character	word-66.jpg	0.0	130.08938440404063	
30.0	100.61952216068812	word	0.0		46	character	word-72.jpg	0.0	130.60592066518757	0.3832871850427182
30.0	100.80292109170523	pulse	0.0	t		character	word-72.jpg	0.0	130.78931959620468	
30.0	101.00280934573084	ISI	1.0		235	character	word-72.jpg	0.0	130.9892078502303	2.01662364758522
30.0	101.50294683976563	pulse	1.0	t		character	word-72.jpg	0.0	131.48934534426508	
30.0	102.2029276117305	pulse	1.0	t		character	word-72.jpg	0.0	132.18932611622995	
30.0	102.9029165337256	pulse	1.0	t		character	word-72.jpg	0.0	132.88931503822505	
31.0	103.01943299331606	word	0.0		46	character	word-102.jpg	0.0	133.0058314978155	0.38331495551756234
31.0	103.40274794883362	ISI	1.0		233	character	word-102.jpg	0.0	133.38914645333307	2.0166381365288544
31.0	103.60289338160192	pulse	1.0	t		character	word-102.jpg	0.0	133.58929188610136	
31.0	104.3028747572721	pulse	1.0	t		character	word-102.jpg	0.0	134.28927326177154	
31.0	105.00285069959	pulse	1.0	t		character	word-102.jpg	0.0	134.98924920408945	
32.0	105.41938608536248	instrument	0.0		46	object	instrument-119.jpg	0.0	135.40578458986192	0.38328477021877916
32.0	105.70279192881344	pulse	0.0	t		object	instrument-119.jpg	0.0	135.6891904333129	
32.0	105.80267085558125	ISI	1.0		833	object	instrument-119.jpg	0.0	135.7890693600807	7.016516187923116
32.0	106.40286295482065	pulse	1.0	t		object	instrument-119.jpg	0.0	136.3892614593201	
32.0	107.10278335618887	pulse	1.0	t		object	instrument-119.jpg	0.0	137.0891818606883	
32.0	107.80276624112457	pulse	1.0	t		object	instrument-119.jpg	0.0	137.78916474562402	
32.0	108.5027563705321	pulse	1.0	t		object	instrument-119.jpg	0.0	138.48915487503155	
32.0	109.20274197214394	pulse	1.0	t		object	instrument-119.jpg	0.0	139.1891404766434	
32.0	109.90272636634518	pulse	1.0	t		object	instrument-119.jpg	0.0	139.88912487084463	
32.0	110.60268993268937	pulse	1.0	t		object	instrument-119.jpg	0.0	140.58908843718882	
32.0	111.30268458989167	pulse	1.0	t		object	instrument-119.jpg	0.0	141.28908309439112	
32.0	112.00266445629813	pulse	1.0	t		object	instrument-119.jpg	0.0	141.98906296079758	
32.0	112.70264734123384	pulse	1.0	t		object	instrument-119.jpg	0.0	142.6890458457333	
33.0	112.81918704350437	body	0.0		46	body	body-2.jpg	0.0	142.80558554800382	0.3832832609532488
33.0	113.20247030445762	ISI	1.0		235	body	body-2.jpg	0.0	143.18886880895707	2.0166387402350665
33.0	113.40262177428622	pulse	1.0	t		body	body-2.jpg	0.0	143.38902027878567	
33.0	114.10261311110526	pulse	1.0	t		body	body-2.jpg	0.0	144.0890116156047	
33.0	114.8025917700993	pulse	1.0	t		body	body-2.jpg	0.0	144.78899027459875	
34.0	115.21910904469269	body	0.0		46	body	body-2.jpg	1.0	145.20550754919213	0.3833116351343051
34.0	115.50253813082372	pulse	0.0	t		body	body-2.jpg	1.0	145.48893663532317	
34.0	115.60242067982699	ISI	1.0		475	body	body-2.jpg	1.0	145.58881918432644	4.016587425227044
34.0	115.91088696179258	response	1.0	b		body	body-2.jpg	1.0	145.89728546629203	
34.0	116.20253459914375	pulse	1.0	t		body	body-2.jpg	1.0	146.1889331036432	
34.0	116.9025322748762	pulse	1.0	t		body	body-2.jpg	1.0	146.88893077937564	
34.0	117.60250821719319	pulse	1.0	t		body	body-2.jpg	1.0	147.58890672169264	
34.0	118.30249381880594	pulse	1.0	t		body	body-2.jpg	1.0	148.2888923233054	
34.0	119.00250749274574	pulse	1.0	t		body	body-2.jpg	1.0	148.98890599724518	
35.0	119.61900810505404	child	0.0		46	face	child-6.jpg	0.0	149.60540660955348	0.38329473136764136
35.0	119.70246049423577	pulse	0.0	t		face	child-6.jpg	0.0	149.6888589987352	
35.0	120.00230283642168	ISI	1.0		595	face	child-6.jpg	0.0	149.98870134092112	5.0165575417822765
35.0	120.4024454921423	pulse	1.0	t		face	child-6.jpg	0.0	150.38884399664175	
35.0	121.10242566040188	pulse	1.0	t		face	child-6.jpg	0.0	151.08882416490133	
35.0	121.80240884719069	pulse	1.0	t		face	child-6.jpg	0.0	151.78880735169014	
35.0	122.50234917085481	pulse	1.0	t		face	child-6.jpg	0.0	152.48874767535426	
35.0	123.20236646703097	pulse	1.0	t		face	child-6.jpg	0.0	153.18876497153042	
35.0	123.90234301305418	pulse	1.0	t		face	child-6.jpg	0.0	153.88874151755363	
35.0	124.60232318131284	pulse	1.0	t		face	child-6.jpg	0.0	154.5887216858123	
36.0	125.01886037820395	word	0.0		46	character	word-76.jpg	0.0	155.0052588827034	0.38329684433847433
36.0	125.30227708836219	pulse	0.0	t		character	word-76.jpg	0.0	155.28867559286164	
36.0	125.40215722254243	ISI	1.0		955	character	word-76.jpg	0.0	155.38855572704188	8.016463363650473
36.0	126.0022850270957	pulse	1.0	t		character	word-76.jpg	0.0	155.98868353159514	
36.0	126.70227183611996	pulse	1.0	t		character	word-76.jpg	0.0	156.6886703406194	
36.0	127.40224928770249	pulse	1.0	t		character	word-76.jpg	0.0	157.38864779220194	
36.0	128.10223458746214	pulse	1.0	t		character	word-76.jpg	0.0	158.08863309196158	
36.0	128.80221113348534	pulse	1.0	t		character	word-76.jpg	0.0	158.7886096379848	
36.0	129.50220035733355	pulse	1.0	t		character	word-76.jpg	0.0	159.488598861833	
36.0	130.20216965888494	pulse	1.0	t		character	word-76.jpg	0.0	160.1885681633844	
36.0	130.9021492234383	pulse	1.0	t		character	word-76.jpg	0.0	160.88854772793775	
36.0	131.60212939169696	pulse	1.0	t		character	word-76.jpg	0.0	161.5885278961964	
36.0	132.3021210303691	pulse	1.0	t		character	word-76.jpg	0.0	162.28851953486856	
36.0	133.00208731339035	pulse	1.0	t		character	word-76.jpg	0.0	162.9884858178898	
37.0	133.4186205861929	word	0.0		46	character	word-76.jpg	1.0	163.40501909069235	0.38330227769165504
37.0	133.70204997417613	pulse	0.0	t		character	word-76.jpg	1.0	163.68844847867558	
37.0	133.80192286388456	ISI	1.0		715	character	word-76.jpg	1.0	163.788321368384	6.016539430602279
37.0	134.402066666647	pulse	1.0	t		character	word-76.jpg	1.0	164.38846517114644	
37.0	135.10208456652845	pulse	1.0	t		character	word-76.jpg	1.0	165.0884830710279	
37.0	135.8020206642518	pulse	1.0	t		character	word-76.jpg	1.0	165.78841916875126	
37.0	136.50202437704365	pulse	1.0	t		character	word-76.jpg	1.0	166.4884228815431	
37.0	137.2019843211524	pulse	1.0	t		character	word-76.jpg	1.0	167.18838282565184	
37.0	137.90196448941106	pulse	1.0	t		character	word-76.jpg	1.0	167.8883629939105	
37.0	138.60194526137593	pulse	1.0	t		character	word-76.jpg	1.0	168.58834376587538	
37.0	139.30193629634277	pulse	1.0	t		character	word-76.jpg	1.0	169.28833480084222	
38.0	139.81846229448684	corridor	0.0		46	place	corridor-25.jpg	0.0	169.80486079898628	0.38329835360400466
38.0	140.00187148850682	pulse	0.0	t		place	corridor-25.jpg	0.0	169.98826999300627	
38.0	140.20176064809084	ISI	1.0		230	place	corridor-25.jpg	0.0	170.1881591525903	2.016618516084236
38.0	140.70190055694866	pulse	1.0	t		place	corridor-25.jpg	0.0	170.6882990614481	
38.0	141.40187529185414	pulse	1.0	t		place	corridor-25.jpg	0.0	171.3882737963536	
38.0	142.10185727123053	pulse	1.0	t		place	corridor-25.jpg	0.0	172.08825577572998	
39.0	142.21837916417508	instrument	0.0		46	object	instrument-143.jpg	0.0	172.20477766867452	0.3833206907238491
39.0	142.60169985489892	ISI	1.0		354	object	instrument-143.jpg	0.0	172.58809835939837	3.0166097623487076
39.0	142.80185343769836	pulse	1.0	t		object	instrument-143.jpg	0.0	172.7882519421978	
39.0	143.5018145892186	pulse	1.0	t		object	instrument-143.jpg	0.0	173.48821309371806	
39.0	144.20179777600742	pulse	1.0	t		object	instrument-143.jpg	0.0	174.18819628050687	
39.0	144.90178760356184	pulse	1.0	t		object	instrument-143.jpg	0.0	174.8881861080613	
40.0	145.61830961724763	child	0.0		45	face	child-118.jpg	0.0	175.60470812174708	0.3832980517499891
40.0	145.608216558991	pulse	0.0	t		face	child-118.jpg	0.0	175.59461506349044	
40.0	146.00160766899762	ISI	1.0		233	face	child-118.jpg	0.0	175.98800617349707	2.016616403113403
40.0	146.30175186416864	pulse	1.0	t		face	child-118.jpg	0.0	176.28815036866808	
40.0	147.0017193546023	pulse	1.0	t		face	child-118.jpg	0.0	176.98811785910175	
40.0	147.70171189883376	pulse	1.0	t		face	child-118.jpg	0.0	177.6881104033332	
41.0	148.01822407211102	body	0.0		46	body	body-77.jpg	0.0	178.00462257661047	0.3833200870185465
41.0	148.40154415912957	ISI	1.0		235	body	body-77.jpg	0.0	178.38794266362902	2.016639343940369
41.0	148.4395060960719	pulse	1.0	t		body	body-77.jpg	0.0	178.42590460057136	
41.0	149.10167465017503	pulse	1.0	t		body	body-77.jpg	0.0	179.08807315467448	
41.0	149.80164666840346	pulse	1.0	t		body	body-77.jpg	0.0	179.7880451729029	
42.0	150.41818350306994	body	0.0		46	body	body-83.jpg	0.0	180.4045820075694	0.38327752574787155
42.0	150.50160087730592	pulse	0.0	t		body	body-83.jpg	0.0	180.48799938180537	
42.0	150.8014610288178	ISI	1.0		234	body	body-83.jpg	0.0	180.78785953331726	2.0166423624705203
42.0	151.2016073067739	pulse	1.0	t		body	body-83.jpg	0.0	181.18800581127334	
42.0	151.30159067467457	response	1.0	b		body	body-83.jpg	0.0	181.28798917917402	
42.0	151.9015841546502	pulse	1.0	t		body	body-83.jpg	0.0	181.88798265914966	
42.0	152.60156251179114	pulse	1.0	t		body	body-83.jpg	0.0	182.5879610162906	
43.0	152.81810339128833	instrument	0.0		46	object	instrument-10.jpg	0.0	182.80450189578778	0.38329593877915613
43.0	153.2013993300675	ISI	1.0		353	object	instrument-10.jpg	0.0	183.18779783456694	3.0166088567893894
43.0	153.30156290419973	pulse	1.0	t		object	instrument-10.jpg	0.0	183.28796140869918	
43.0	154.00154156319377	pulse	1.0	t		object	instrument-10.jpg	0.0	183.98794006769322	
43.0	154.7015123740107	pulse	1.0	t		object	instrument-10.jpg	0.0	184.68791087851014	
43.0	155.40149827747564	pulse	1.0	t		object	instrument-10.jpg	0.0	185.3878967819751	
43.0	156.10148750132475	pulse	1.0	t		object	instrument-10.jpg	0.0	186.0878860058242	
44.0	156.21800818685688	child	0.0		46	face	child-107.jpg	0.0	186.20440669135633	0.38327752574696206
44.0	156.60128571260384	ISI	1.0		235	face	child-107.jpg	0.0	186.5876842171033	2.016675566298545
44.0	156.8014477472866	pulse	1.0	t		face	child-107.jpg	0.0	186.78784625178605	
44.0	157.50143787669322	pulse	1.0	t		face	child-107.jpg	0.0	187.48783638119266	
44.0	158.20142408201218	pulse	1.0	t		face	child-107.jpg	0.0	188.18782258651163	
45.0	158.61796127890238	body	0.0		46	body	body-48.jpg	0.0	188.60435978340183	0.38328658133741556
45.0	158.90137165014903	pulse	0.0	t		body	body-48.jpg	0.0	188.88777015464848	
45.0	159.0012478602398	ISI	1.0		473	body	body-48.jpg	0.0	188.98764636473925	4.01659557525727
45.0	159.60138562594193	pulse	1.0	t		body	body-48.jpg	0.0	189.58778413044138	
45.0	160.3013842072328	pulse	1.0	t		body	body-48.jpg	0.0	190.28778271173223	
45.0	161.00135803657895	pulse	1.0	t		body	body-48.jpg	0.0	190.9877565410784	
45.0	161.7013318659251	pulse	1.0	t		body	body-48.jpg	0.0	191.68773037042456	
45.0	162.4013008656234	pulse	1.0	t		body	body-48.jpg	0.0	192.38769937012285	
46.0	163.01784343549707	instrument	0.0		46	object	instrument-106.jpg	0.0	193.00424193999652	0.38329956101551943
46.0	163.1012523578488	pulse	0.0	t		object	instrument-106.jpg	0.0	193.08765086234826	
46.0	163.4011429965126	ISI	1.0		233	object	instrument-106.jpg	0.0	193.38754150101204	2.0166263642622653
46.0	163.80128202999776	pulse	1.0	t		object	instrument-106.jpg	0.0	193.7876805344972	
46.0	164.50125193525537	pulse	1.0	t		object	instrument-106.jpg	0.0	194.48765043975482	
46.0	165.20123934798585	pulse	1.0	t		object	instrument-106.jpg	0.0	195.1876378524853	
47.0	165.41776936077486	corridor	0.0		46	place	corridor-44.jpg	0.0	195.4041678652743	0.38329563692695956
47.0	165.80106499770181	ISI	1.0		353	place	corridor-44.jpg	0.0	195.78746350220126	3.016636325410218
47.0	165.90122676071633	pulse	1.0	t		place	corridor-44.jpg	0.0	195.88762526521577	
47.0	166.6012005900625	pulse	1.0	t		place	corridor-44.jpg	0.0	196.58759909456194	
47.0	167.30118166388047	pulse	1.0	t		place	corridor-44.jpg	0.0	197.28758016837992	
47.0	168.00115156913716	pulse	1.0	t		place	corridor-44.jpg	0.0	197.9875500736366	
47.0	168.7011429059571	pulse	1.0	t		place	corridor-44.jpg	0.0	198.68754141045656	
48.0	168.81770132311203	child	0.0		46	face	child-60.jpg	0.0	198.80409982761148	0.3832690738636302
48.0	169.20097039697566	ISI	1.0		475	face	child-60.jpg	0.0	199.1873689014751	4.016598895640527
48.0	169.40111975383252	pulse	1.0	t		face	child-60.jpg	0.0	199.38751825833197	
48.0	170.10111109065247	pulse	1.0	t		face	child-60.jpg	0.0	200.08750959515191	
48.0	170.8010770718206	pulse	1.0	t		face	child-60.jpg	0.0	200.78747557632005	
48.0	171.50106810678744	pulse	1.0	t		face	child-60.jpg	0.0	201.4874666112869	
48.0	172.2010413324274	pulse	1.0	t		face	child-60.jpg	0.0	202.18743983692684	
48.0	172.90102240624537	pulse	1.0	t		face	child-60.jpg	0.0	202.88742091074482	
49.0	173.2175692926162	corridor	0.0		46	place	corridor-42.jpg	0.0	203.20396779711564	0.38326847015832755
49.0	173.60083776277452	ISI	1.0		350	place	corridor-42.jpg	0.0	203.58723626727397	3.0166399476465813
49.0	173.67917736609752	pulse	1.0	t		place	corridor-42.jpg	0.0	203.66557587059697	
49.0	174.30099904282406	pulse	1.0	t		place	corridor-42.jpg	0.0	204.2873975473235	
49.0	175.00100758526378	pulse	1.0	t		place	corridor-42.jpg	0.0	204.98740608976323	
49.0	175.7009409663101	pulse	1.0	t		place	corridor-42.jpg	0.0	205.68733947080955	
49.0	176.40093320868846	pulse	1.0	t		place	corridor-42.jpg	0.0	206.3873317131879	
50.0	176.6174777104211	instrument	0.0		46	object	instrument-125.jpg	0.0	206.60387621492055	0.38329684433847433
50.0	177.00077455475957	ISI	1.0		473	object	instrument-125.jpg	0.0	206.98717305925902	4.016581690019848
50.0	177.10093873259802	pulse	1.0	t		object	instrument-125.jpg	0.0	207.08733723709747	
50.0	177.80089746929434	pulse	1.0	t		object	instrument-125.jpg	0.0	207.7872959737938	
50.0	178.50089182464353	pulse	1.0	t		object	instrument-125.jpg	0.0	208.48729032914298	
50.0	179.20086746510833	pulse	1.0	t		object	instrument-125.jpg	0.0	209.18726596960778	
50.0	179.90085035004404	pulse	1.0	t		object	instrument-125.jpg	0.0	209.8872488545435	
50.0	180.6008302164496	pulse	1.0	t		object	instrument-125.jpg	0.0	210.58722872094904	
51.0	181.01735624477942	corridor	0.0		46	place	corridor-65.jpg	0.0	211.00375474927887	0.38329020357286936
51.0	181.3007563530241	pulse	0.0	t		place	corridor-65.jpg	0.0	211.28715485752355	
51.0	181.4006464483523	ISI	1.0		473	place	corridor-65.jpg	0.0	211.38704495285174	4.016585010404015
51.0	182.00079357149707	pulse	1.0	t		place	corridor-65.jpg	0.0	211.98719207599652	
51.0	182.70076045822452	pulse	1.0	t		place	corridor-65.jpg	0.0	212.68715896272397	
51.0	183.4007409283372	pulse	1.0	t		place	corridor-65.jpg	0.0	213.38713943283665	
51.0	184.1007364910979	pulse	1.0	t		place	corridor-65.jpg	0.0	214.08713499559735	
51.0	184.80071967788672	pulse	1.0	t		place	corridor-65.jpg	0.0	214.78711818238617	
52.0	185.4172314587563	word	0.0		46	character	word-106.jpg	0.0	215.40362996325575	0.3833052962218062
52.0	185.50066181266948	pulse	0.0	t		character	word-106.jpg	0.0	215.48706031716893	
52.0	185.8005367549781	ISI	1.0		234	character	word-106.jpg	0.0	215.78693525947756	2.016640551351884
52.0	186.20066794028526	pulse	1.0	t		character	word-106.jpg	0.0	216.1870664447847	
52.0	186.90065625857414	pulse	1.0	t		character	word-106.jpg	0.0	216.8870547630736	
52.0	187.60062495642023	pulse	1.0	t		character	word-106.jpg	0.0	217.58702346091968	
53.0	187.81717730633	word	0.0		46	character	word-123.jpg	0.0	217.80357581082944	0.38329835360400466
53.0	188.200475659934	ISI	1.0		354	character	word-123.jpg	0.0	218.18687416443345	3.016613686436358
53.0	188.3006247451226	pulse	1.0	t		character	word-123.jpg	0.0	218.28702324962205	
53.0	189.0006006874396	pulse	1.0	t		character	word-123.jpg	0.0	218.98699919193905	
53.0	189.70058628905235	pulse	1.0	t		character	word-123.jpg	0.0	219.6869847935518	
53.0	190.40055559060374	pulse	1.0	t		character	word-123.jpg	0.0	220.3869540951032	
53.0	191.10051764768423	pulse	1.0	t		character	word-123.jpg	0.0	221.08691615218368	
54.0	191.21708934637036	corridor	0.0		46	place	corridor-68.jpg	0.0	221.2034878508698	0.3832859776312034
54.0	191.60037532400156	ISI	1.0		234	place	corridor-68.jpg	0.0	221.586773828501	2.0166535310308973
54.0	191.80053947165425	pulse	1.0	t		place	corridor-68.jpg	0.0	221.7869379761537	
54.0	192.50050756579412	pulse	1.0	t		place	corridor-68.jpg	0.0	222.48690607029357	
54.0	193.20048622478816	pulse	1.0	t		place	corridor-68.jpg	0.0	223.1868847292876	
55.0	193.61702885503246	child	0.0		46	face	child-111.jpg	0.0	223.6034273595319	0.383290807278172
55.0	193.90047212825402	pulse	0.0	t		face	child-111.jpg	0.0	223.88687063275347	
55.0	194.00031966231063	ISI	1.0		234	face	child-111.jpg	0.0	223.98671816681008	2.0166248549976444
55.0	194.60050029113745	pulse	1.0	t		face	child-111.jpg	0.0	224.5868987956369	
55.0	195.3004285406828	pulse	1.0	t		face	child-111.jpg	0.0	225.28682704518224	
56.0	196.01694451730827	instrument	0.0		45	object	instrument-27.jpg	0.0	226.00334302180772	0.38329563692695956
56.0	196.00697642618752	pulse	0.0	t		object	instrument-27.jpg	0.0	225.99337493068697	
56.0	196.40024015423523	ISI	1.0		234	object	instrument-27.jpg	0.0	226.38663865873468	2.016636325410218
56.0	196.70039793278966	pulse	1.0	t		object	instrument-27.jpg	0.0	226.6867964372891	
56.0	197.40037538437218	pulse	1.0	t		object	instrument-27.jpg	0.0	227.38677388887163	
56.0	198.1003458933351	pulse	1.0	t		object	instrument-27.jpg	0.0	228.08674439783454	
57.0	198.41687647964545	child	0.0		46	face	child-35.jpg	0.0	228.4032749841449	0.3833134462529415
57.0	198.8001899258984	ISI	1.0		235	face	child-35.jpg	0.0	228.78658843039784	2.016641155058096
57.0	198.8366540683296	pulse	1.0	t		face	child-35.jpg	0.0	228.82305257282906	
57.0	199.50031649285438	pulse	1.0	t		face	child-35.jpg	0.0	229.48671499735383	
57.0	200.20030300002645	pulse	1.0	t		face	child-35.jpg	0.0	230.1867015045259	
58.0	200.8168310809565	body	0.0		46	body	body-122.jpg	0.0	230.80322958545594	0.3832962406322622
58.0	200.90025358669254	pulse	0.0	t		body	body-122.jpg	0.0	230.886652091192	
58.0	201.20012732158875	ISI	1.0		233	body	body-122.jpg	0.0	231.1865258260882	2.0166354198518093
58.0	201.60026635507393	pulse	1.0	t		body	body-122.jpg	0.0	231.58666485957337	
58.0	202.30024561777418	pulse	1.0	t		body	body-122.jpg	0.0	232.28664412227363	
58.0	203.0002106933839	pulse	1.0	t		body	body-122.jpg	0.0	232.98660919788335	
59.0	203.21676274144056	corridor	0.0		46	place	corridor-103.jpg	0.0	233.20316124594	0.3832850720718852
59.0	203.60004781351245	ISI	1.0		475	place	corridor-103.jpg	0.0	233.5864463180119	4.01660100861227
59.0	203.70020836911544	pulse	1.0	t		place	corridor-103.jpg	0.0	233.6866068736149	
59.0	204.4001812929023	pulse	1.0	t		place	corridor-103.jpg	0.0	234.38657979740174	
59.0	205.10016297042648	pulse	1.0	t		place	corridor-103.jpg	0.0	235.08656147492593	
59.0	205.80014283683204	pulse	1.0	t		place	corridor-103.jpg	0.0	235.78654134133149	
59.0	206.50013055141562	pulse	1.0	t		place	corridor-103.jpg	0.0	236.48652905591507	
59.0	207.20011404005754	pulse	1.0	t		place	corridor-103.jpg	0.0	237.186512544557	
60.0	207.61664882212472	body	0.0		46	body	body-99.jpg	0.0	237.60304732662416	0.38329110913127806
60.0	207.90005043963401	pulse	0.0	t		body	body-99.jpg	0.0	237.88644894413346	
60.0	207.999939931256	ISI	1.0		231	body	body-99.jpg	0.0	237.98633843575544	2.0166375328226422
60.0	208.60008041363517	pulse	1.0	t		body	body-99.jpg	0.0	238.58647891813462	
60.0	209.30006058189383	pulse	1.0	t		body	body-99.jpg	0.0	239.28645908639328	
61.0	210.01657746407864	instrument	0.0		45	object	instrument-80.jpg	0.0	240.00297596857808	0.38330318325097323
61.0	210.00661812669432	pulse	0.0	t		object	instrument-80.jpg	0.0	239.99301663119377	
61.0	210.3998806473296	ISI	1.0		235	object	instrument-80.jpg	0.0	240.38627915182906	2.0166378346757483
61.0	210.7000169943226	pulse	1.0	t		object	instrument-80.jpg	0.0	240.68641549882204	
61.0	211.40012967604207	pulse	1.0	t		object	instrument-80.jpg	0.0	241.38652818054152	
61.0	212.09998336790022	pulse	1.0	t		object	instrument-80.jpg	0.0	242.08638187239967	
62.0	212.41651848200536	body	0.0		46	body	body-86.jpg	0.0	242.4029169865048	0.38329774989779253
62.0	212.79981623190315	ISI	1.0		235	body	body-86.jpg	0.0	242.7862147364026	2.016636023557112
62.0	212.8368852877161	pulse	1.0	t		body	body-86.jpg	0.0	242.82328379221553	
62.0	213.49994340256535	pulse	1.0	t		body	body-86.jpg	0.0	243.4863419070648	
62.0	214.1999284004719	pulse	1.0	t		body	body-86.jpg	0.0	244.18632690497134	
63.0	214.81645225546026	word	0.0		46	character	word-65.jpg	0.0	244.8028507599597	0.3832877887489303
63.0	214.8998729500786	pulse	0.0	t		character	word-65.jpg	0.0	244.88627145457804	
63.0	215.1997400442092	ISI	1.0		352	character	word-65.jpg	0.0	245.18613854870864	3.0166230438799175
63.0	215.59988330363603	pulse	1.0	t		character	word-65.jpg	0.0	245.58628180813548	
63.0	216.29986226448318	pulse	1.0	t		character	word-65.jpg	0.0	246.28626076898263	
63.0	216.99983760309397	pulse	1.0	t		character	word-65.jpg	0.0	246.9862361075934	
63.0	217.69983135473694	pulse	1.0	t		character	word-65.jpg	0.0	247.6862298592364	
64.0	218.2163630880891	instrument	0.0		46	object	instrument-22.jpg	0.0	248.20276159258856	0.38329744804377697
64.0	218.3997789228738	pulse	0.0	t		object	instrument-22.jpg	0.0	248.38617742737324	
64.0	218.5996605361329	ISI	1.0		473	object	instrument-22.jpg	0.0	248.58605904063234	4.016560862164624
64.0	219.099798935727	pulse	1.0	t		object	instrument-22.jpg	0.0	249.08619744022644	
64.0	219.79978061325028	pulse	1.0	t		object	instrument-22.jpg	0.0	249.78617911774973	
64.0	220.49974659441932	pulse	1.0	t		object	instrument-22.jpg	0.0	250.48614509891877	
64.0	221.19973672382685	pulse	1.0	t		object	instrument-22.jpg	0.0	251.1861352283263	
64.0	221.8997226272918	pulse	1.0	t		object	instrument-22.jpg	0.0	251.88612113179124	
65.0	222.6162213982975	child	0.0		45	face	child-91.jpg	0.0	252.60261990279696	0.3833206907247586
65.0	222.60637072798772	pulse	0.0	t		face	child-91.jpg	0.0	252.59276923248717	
65.0	222.99954208902227	ISI	1.0		239	face	child-91.jpg	0.0	252.98594059352172	1.9999698147012168
65.0	223.29968568048707	pulse	1.0	t		face	child-91.jpg	0.0	253.28608418498652	
65.0	223.99966554689263	pulse	1.0	t		face	child-91.jpg	0.0	253.98606405139208	
65.0	224.69961311502948	pulse	1.0	t		face	child-91.jpg	0.0	254.68601161952893	
66.0	224.9995119037235	baseline	0.0		708		baseline	0.0	254.98591040822294	5.899855140752152
66.0	225.39961984635056	pulse	0.0	t			baseline	0.0	255.38601835085	
66.0	226.0995972979331	pulse	0.0	t			baseline	0.0	256.08599580243254	
66.0	226.79958259769273	pulse	0.0	t			baseline	0.0	256.7859811021922	
66.0	227.4995636715107	pulse	0.0	t			baseline	0.0	257.48596217601016	
66.0	228.199540217533	pulse	0.0	t			baseline	0.0	258.18593872203246	
66.0	228.89953034694054	pulse	0.0	t			baseline	0.0	258.88592885144	
66.0	229.5995548875885	pulse	0.0	t			baseline	0.0	259.58595339208796	
66.0	230.29947710007445	pulse	0.0	t			baseline	0.0	260.2858756045739	
66.0	230.89936704447564	ISI	1.0		12		baseline	0.0	260.8857655489751	0.09999363090264524
