trial_nr	onset	event_type	phase	response	nr_frames	face_age	face_sex	face_eth	attractiveness	expression	face_id	sub_id	ses	run	trial_type	catch	rating_type	onset_abs	duration
-1.0	0.0564906178997262	fix	0.0		714													21.918870181605598	5.9644599168514105
-1.0	0.7045285163749213	pulse	0.0	t														22.566908080080793	
-1.0	1.4045086845135302	pulse	0.0	t														23.266888248219402	
-1.0	2.1044939841849555	pulse	0.0	t														23.966873547890827	
-1.0	2.80448864135451	pulse	0.0	t														24.666868205060382	
-1.0	3.504474544734876	pulse	0.0	t														25.366854108440748	
-1.0	4.204454411019469	pulse	0.0	t														26.06683397472534	
-1.0	4.904444238512042	pulse	0.0	t														26.766823802217914	
-1.0	5.604420784393369	pulse	0.0	t														27.46680034809924	
0.0	6.020950534751137	face	0.0		144	30.0	female	black	2.7345801830481498	smiling	062	sub-04	2.0	2.0	062_smiling	0.0		27.88333009845701	1.2333340678460445
0.0	6.304421176804681	pulse	0.0	t		30.0	female	black	2.7345801830481498	smiling	062	sub-04	2.0	2.0	062_smiling	0.0		28.166800740510553	
0.0	7.004400137525408	pulse	0.0	t		30.0	female	black	2.7345801830481498	smiling	062	sub-04	2.0	2.0	062_smiling	0.0		28.86677970123128	
0.0	7.254284602597181	fix	1.0		445	30.0	female	black	2.7345801830481498	smiling	062	sub-04	2.0	2.0	062_smiling	0.0		29.116664166303053	3.758226373598518
0.0	7.7043790982452265	pulse	1.0	t		30.0	female	black	2.7345801830481498	smiling	062	sub-04	2.0	2.0	062_smiling	0.0		29.5667586619511	
0.0	8.40436952944765	pulse	1.0	t		30.0	female	black	2.7345801830481498	smiling	062	sub-04	2.0	2.0	062_smiling	0.0		30.26674909315352	
0.0	9.104360262504997	pulse	1.0	t		30.0	female	black	2.7345801830481498	smiling	062	sub-04	2.0	2.0	062_smiling	0.0		30.96673982621087	
0.0	9.804481094984112	pulse	1.0	t		30.0	female	black	2.7345801830481498	smiling	062	sub-04	2.0	2.0	062_smiling	0.0		31.666860658689984	
0.0	10.504328748863372	pulse	1.0	t		30.0	female	black	2.7345801830481498	smiling	062	sub-04	2.0	2.0	062_smiling	0.0		32.366708312569244	
1.0	11.0125109761957	face	0.0		146	22.0	male	black	2.767608436132113	smiling	044	sub-04	2.0	2.0	044_smiling	0.0		32.87489053990157	1.2416556011721696
1.0	11.20430589845455	pulse	0.0	t		22.0	male	black	2.767608436132113	smiling	044	sub-04	2.0	2.0	044_smiling	0.0		33.06668546216042	
1.0	11.904289386996425	pulse	0.0	t		22.0	male	black	2.767608436132113	smiling	044	sub-04	2.0	2.0	044_smiling	0.0		33.7666689507023	
1.0	12.254166577367869	fix	1.0		445	22.0	male	black	2.767608436132113	smiling	044	sub-04	2.0	2.0	044_smiling	0.0		34.11654614107374	3.7582396552097634
1.0	12.60427468666694	pulse	1.0	t		22.0	male	black	2.767608436132113	smiling	044	sub-04	2.0	2.0	044_smiling	0.0		34.46665425037281	
1.0	13.304268740127554	pulse	1.0	t		22.0	male	black	2.767608436132113	smiling	044	sub-04	2.0	2.0	044_smiling	0.0		35.166648303833426	
1.0	14.004237135928634	pulse	1.0	t		22.0	male	black	2.767608436132113	smiling	044	sub-04	2.0	2.0	044_smiling	0.0		35.866616699634505	
1.0	14.70422364301885	pulse	1.0	t		22.0	male	black	2.767608436132113	smiling	044	sub-04	2.0	2.0	044_smiling	0.0		36.56660320672472	
1.0	15.404226450268652	pulse	1.0	t		22.0	male	black	2.767608436132113	smiling	044	sub-04	2.0	2.0	044_smiling	0.0		37.266606013974524	
2.0	16.012406232577632	face	0.0		146	28.0	male	east_asian	1.5563072025467568	smiling	005	sub-04	2.0	2.0	005_smiling	0.0		37.874785796283504	1.2416556011721696
2.0	16.10420239244104	pulse	0.0	t		28.0	male	east_asian	1.5563072025467568	smiling	005	sub-04	2.0	2.0	005_smiling	0.0		37.96658195614691	
2.0	16.80421516089882	pulse	0.0	t		28.0	male	east_asian	1.5563072025467568	smiling	005	sub-04	2.0	2.0	005_smiling	0.0		38.66659472460469	
2.0	17.2540618337498	fix	1.0		444	28.0	male	east_asian	1.5563072025467568	smiling	005	sub-04	2.0	2.0	005_smiling	0.0		39.116441397455674	3.7582348255327815
2.0	17.50417359549192	pulse	1.0	t		28.0	male	east_asian	1.5563072025467568	smiling	005	sub-04	2.0	2.0	005_smiling	0.0		39.36655315919779	
2.0	18.20416734709761	pulse	1.0	t		28.0	male	east_asian	1.5563072025467568	smiling	005	sub-04	2.0	2.0	005_smiling	0.0		40.06654691080348	
2.0	18.9041535523329	pulse	1.0	t		28.0	male	east_asian	1.5563072025467568	smiling	005	sub-04	2.0	2.0	005_smiling	0.0		40.76653311603877	
2.0	19.6041373427297	pulse	1.0	t		28.0	male	east_asian	1.5563072025467568	smiling	005	sub-04	2.0	2.0	005_smiling	0.0		41.46651690643557	
2.0	20.30411056820867	pulse	1.0	t		28.0	male	east_asian	1.5563072025467568	smiling	005	sub-04	2.0	2.0	005_smiling	0.0		42.16649013191454	
3.0	21.012296659282583	face	0.0		146	31.0	female	east_asian	3.395941106247513	neutral	087	sub-04	2.0	2.0	087_neutral	1.0	dominance	42.874676222988455	1.2416595252843763
3.0	21.00511764640214	pulse	0.0	t		31.0	female	east_asian	3.395941106247513	neutral	087	sub-04	2.0	2.0	087_neutral	1.0	dominance	42.86749721010801	
3.0	21.70408569537267	pulse	0.0	t		31.0	female	east_asian	3.395941106247513	neutral	087	sub-04	2.0	2.0	087_neutral	1.0	dominance	43.56646525907854	
3.0	22.25395618456696	fix	1.0		177	31.0	female	east_asian	3.395941106247513	neutral	087	sub-04	2.0	2.0	087_neutral	1.0	dominance	44.11633574827283	1.5083343621554377
3.0	22.404080352542223	pulse	1.0	t		31.0	female	east_asian	3.395941106247513	neutral	087	sub-04	2.0	2.0	087_neutral	1.0	dominance	44.266459916248095	
3.0	23.104062633665308	pulse	1.0	t		31.0	female	east_asian	3.395941106247513	neutral	087	sub-04	2.0	2.0	087_neutral	1.0	dominance	44.96644219737118	
3.0	23.762290546722397	rating	2.0		293	31.0	female	east_asian	3.395941106247513	neutral	087	sub-04	2.0	2.0	087_neutral	1.0	dominance	45.62467011042827	2.4915983242226503
3.0	23.804055177851296	pulse	2.0	t		31.0	female	east_asian	3.395941106247513	neutral	087	sub-04	2.0	2.0	087_neutral	1.0	dominance	45.66643474155717	
3.0	24.504035949699755	pulse	2.0	t		31.0	female	east_asian	3.395941106247513	neutral	087	sub-04	2.0	2.0	087_neutral	1.0	dominance	46.36641551340563	
3.0	25.204025475338312	pulse	2.0	t		31.0	female	east_asian	3.395941106247513	neutral	087	sub-04	2.0	2.0	087_neutral	1.0	dominance	47.066405039044184	
3.0	25.454011967335646	response	2.0	y		31.0	female	east_asian	3.395941106247513	neutral	087	sub-04	2.0	2.0	087_neutral	1.0	dominance	47.31639153104152	
3.0	25.904001115654864	pulse	2.0	t		31.0	female	east_asian	3.395941106247513	neutral	087	sub-04	2.0	2.0	087_neutral	1.0	dominance	47.766380679360736	
3.0	26.253888870945048	fix	3.0		444	31.0	female	east_asian	3.395941106247513	neutral	087	sub-04	2.0	2.0	087_neutral	1.0	dominance	48.11626843465092	3.758230901420575
3.0	26.603993056131912	pulse	3.0	t		31.0	female	east_asian	3.395941106247513	neutral	087	sub-04	2.0	2.0	087_neutral	1.0	dominance	48.466372619837784	
3.0	27.30396718717475	pulse	3.0	t		31.0	female	east_asian	3.395941106247513	neutral	087	sub-04	2.0	2.0	087_neutral	1.0	dominance	49.16634675088062	
3.0	28.003959731361647	pulse	3.0	t		31.0	female	east_asian	3.395941106247513	neutral	087	sub-04	2.0	2.0	087_neutral	1.0	dominance	49.86633929506752	
3.0	28.703932654984783	pulse	3.0	t		31.0	female	east_asian	3.395941106247513	neutral	087	sub-04	2.0	2.0	087_neutral	1.0	dominance	50.566312218690655	
3.0	29.403917049091433	pulse	3.0	t		31.0	female	east_asian	3.395941106247513	neutral	087	sub-04	2.0	2.0	087_neutral	1.0	dominance	51.266296612797305	
4.0	30.012119772365622	face	0.0		146	27.0	male	black	3.5523278949462798	smiling	042	sub-04	2.0	2.0	042_smiling	0.0		51.874499336071494	1.2416426214149396
4.0	30.103921667469876	pulse	0.0	t		27.0	male	black	3.5523278949462798	smiling	042	sub-04	2.0	2.0	042_smiling	0.0		51.96630123117575	
4.0	30.803895496657788	pulse	0.0	t		27.0	male	black	3.5523278949462798	smiling	042	sub-04	2.0	2.0	042_smiling	0.0		52.66627506036366	
4.0	31.253762393780562	fix	1.0		445	27.0	male	black	3.5523278949462798	smiling	042	sub-04	2.0	2.0	042_smiling	0.0		53.116141957486434	3.7582574646430658
4.0	31.503886229716045	pulse	1.0	t		27.0	male	black	3.5523278949462798	smiling	042	sub-04	2.0	2.0	042_smiling	0.0		53.36626579342192	
4.0	32.203869416402995	pulse	1.0	t		27.0	male	black	3.5523278949462798	smiling	042	sub-04	2.0	2.0	042_smiling	0.0		54.06624898010887	
4.0	32.903849584541604	pulse	1.0	t		27.0	male	black	3.5523278949462798	smiling	042	sub-04	2.0	2.0	042_smiling	0.0		54.766229148247476	
4.0	33.603833978648254	pulse	1.0	t		27.0	male	black	3.5523278949462798	smiling	042	sub-04	2.0	2.0	042_smiling	0.0		55.466213542354126	
4.0	34.30382652283515	pulse	1.0	t		27.0	male	black	3.5523278949462798	smiling	042	sub-04	2.0	2.0	042_smiling	0.0		56.166206086541024	
5.0	35.01201985842363	face	0.0		147	19.0	male	white	3.2522881018702745	neutral	018	sub-04	2.0	2.0	018_neutral	0.0		56.8743994221295	1.2416435269806243
5.0	35.005849946163835	pulse	0.0	t		19.0	male	white	3.2522881018702745	neutral	018	sub-04	2.0	2.0	018_neutral	0.0		56.86822950986971	
5.0	35.703791990645186	pulse	0.0	t		19.0	male	white	3.2522881018702745	neutral	018	sub-04	2.0	2.0	018_neutral	0.0		57.56617155435106	
5.0	36.25366338540425	fix	1.0		443	19.0	male	white	3.2522881018702745	neutral	018	sub-04	2.0	2.0	018_neutral	0.0		58.116042949110124	3.7665811109527567
5.0	36.4037772903157	pulse	1.0	t		19.0	male	white	3.2522881018702745	neutral	018	sub-04	2.0	2.0	018_neutral	0.0		58.266156854021574	
5.0	37.10377345675988	pulse	1.0	t		19.0	male	white	3.2522881018702745	neutral	018	sub-04	2.0	2.0	018_neutral	0.0		58.966153020465754	
5.0	37.80375302118955	pulse	1.0	t		19.0	male	white	3.2522881018702745	neutral	018	sub-04	2.0	2.0	018_neutral	0.0		59.66613258489542	
5.0	38.50372745408731	pulse	1.0	t		19.0	male	white	3.2522881018702745	neutral	018	sub-04	2.0	2.0	018_neutral	0.0		60.36610701779318	
5.0	39.20372180940194	pulse	1.0	t		19.0	male	white	3.2522881018702745	neutral	018	sub-04	2.0	2.0	018_neutral	0.0		61.06610137310781	
5.0	39.903706505363516	pulse	1.0	t		19.0	male	white	3.2522881018702745	neutral	018	sub-04	2.0	2.0	018_neutral	0.0		61.76608606906939	
6.0	40.02024449635701	face	0.0		146	24.0	female	east_asian	4.409868682849185	smiling	030	sub-04	2.0	2.0	030_smiling	0.0		61.88262406006288	1.2333102213169695
6.0	40.60369995511428	pulse	0.0	t		24.0	female	east_asian	4.409868682849185	smiling	030	sub-04	2.0	2.0	030_smiling	0.0		62.46607951882015	
6.0	41.25355471767398	fix	1.0		444	24.0	female	east_asian	4.409868682849185	smiling	030	sub-04	2.0	2.0	030_smiling	0.0		63.11593428137985	3.758335041327882
6.0	41.303671067608775	pulse	1.0	t		24.0	female	east_asian	4.409868682849185	smiling	030	sub-04	2.0	2.0	030_smiling	0.0		63.16605063131465	
6.0	42.003667234052955	pulse	1.0	t		24.0	female	east_asian	4.409868682849185	smiling	030	sub-04	2.0	2.0	030_smiling	0.0		63.86604679775883	
6.0	42.70365977823894	pulse	1.0	t		24.0	female	east_asian	4.409868682849185	smiling	030	sub-04	2.0	2.0	030_smiling	0.0		64.56603934194482	
6.0	43.40363632412118	pulse	1.0	t		24.0	female	east_asian	4.409868682849185	smiling	030	sub-04	2.0	2.0	030_smiling	0.0		65.26601588782705	
6.0	44.10361075701894	pulse	1.0	t		24.0	female	east_asian	4.409868682849185	smiling	030	sub-04	2.0	2.0	030_smiling	0.0		65.96599032072481	
6.0	44.80359273628619	pulse	1.0	t		24.0	female	east_asian	4.409868682849185	smiling	030	sub-04	2.0	2.0	030_smiling	0.0		66.66597229999206	
7.0	45.01188975900186	face	0.0		146	54.0	female	white	2.286908077994429	neutral	136	sub-04	2.0	2.0	136_neutral	0.0		66.87426932270773	1.2415620261826916
7.0	45.50360942885709	pulse	0.0	t		54.0	female	white	2.286908077994429	neutral	136	sub-04	2.0	2.0	136_neutral	0.0		67.36598899256296	
7.0	46.203568165305114	pulse	0.0	t		54.0	female	white	2.286908077994429	neutral	136	sub-04	2.0	2.0	136_neutral	0.0		68.06594772901099	
7.0	46.25345178518455	fix	1.0		445	54.0	female	white	2.286908077994429	neutral	136	sub-04	2.0	2.0	136_neutral	0.0		68.11583134889042	3.7665726590175836
7.0	46.90355587981503	pulse	1.0	t		54.0	female	white	2.286908077994429	neutral	136	sub-04	2.0	2.0	136_neutral	0.0		68.7659354435209	
7.0	47.60353544424379	pulse	1.0	t		54.0	female	white	2.286908077994429	neutral	136	sub-04	2.0	2.0	136_neutral	0.0		69.46591500794966	
7.0	48.303505953029344	pulse	1.0	t		54.0	female	white	2.286908077994429	neutral	136	sub-04	2.0	2.0	136_neutral	0.0		70.16588551673522	
7.0	49.00351087326271	pulse	1.0	t		54.0	female	white	2.286908077994429	neutral	136	sub-04	2.0	2.0	136_neutral	0.0		70.86589043696858	
7.0	49.70349224882102	pulse	1.0	t		54.0	female	white	2.286908077994429	neutral	136	sub-04	2.0	2.0	136_neutral	0.0		71.5658718125269	
8.0	50.020024444202136	face	0.0		145	25.0	female	black	3.858336649423	neutral	126	sub-04	2.0	2.0	126_neutral	1.0	attractiveness	71.88240400790801	1.2333413123624268
8.0	50.40349052824877	pulse	0.0	t		25.0	female	black	3.858336649423	neutral	126	sub-04	2.0	2.0	126_neutral	1.0	attractiveness	72.26587009195464	
8.0	51.10347643162913	pulse	0.0	t		25.0	female	black	3.858336649423	neutral	126	sub-04	2.0	2.0	126_neutral	1.0	attractiveness	72.965855995335	
8.0	51.25336575656456	fix	1.0		177	25.0	female	black	3.858336649423	neutral	126	sub-04	2.0	2.0	126_neutral	1.0	attractiveness	73.11574532027043	1.4999693617364755
8.0	51.803505198392486	pulse	1.0	t		25.0	female	black	3.858336649423	neutral	126	sub-04	2.0	2.0	126_neutral	1.0	attractiveness	73.66588476209836	
8.0	52.50343676790726	pulse	1.0	t		25.0	female	black	3.858336649423	neutral	126	sub-04	2.0	2.0	126_neutral	1.0	attractiveness	74.36581633161313	
8.0	52.75333511830104	rating	2.0		295	25.0	female	black	3.858336649423	neutral	126	sub-04	2.0	2.0	126_neutral	1.0	attractiveness	74.61571468200691	2.4999304224675143
8.0	53.2034247842721	pulse	2.0	t		25.0	female	black	3.858336649423	neutral	126	sub-04	2.0	2.0	126_neutral	1.0	attractiveness	75.06580434797797	
8.0	53.903405254265635	pulse	2.0	t		25.0	female	black	3.858336649423	neutral	126	sub-04	2.0	2.0	126_neutral	1.0	attractiveness	75.76578481797151	
8.0	54.14505481834203	response	2.0	g		25.0	female	black	3.858336649423	neutral	126	sub-04	2.0	2.0	126_neutral	1.0	attractiveness	76.0074343820479	
8.0	54.603377272324906	pulse	2.0	t		25.0	female	black	3.858336649423	neutral	126	sub-04	2.0	2.0	126_neutral	1.0	attractiveness	76.46575683603078	
8.0	55.25326554076855	fix	3.0		443	25.0	female	black	3.858336649423	neutral	126	sub-04	2.0	2.0	126_neutral	1.0	attractiveness	77.11564510447442	3.766591675870586
8.0	55.303386418525406	pulse	3.0	t		25.0	female	black	3.858336649423	neutral	126	sub-04	2.0	2.0	126_neutral	1.0	attractiveness	77.16576598223128	
8.0	56.0033738311804	pulse	3.0	t		25.0	female	black	3.858336649423	neutral	126	sub-04	2.0	2.0	126_neutral	1.0	attractiveness	77.86575339488627	
8.0	56.70334886778801	pulse	3.0	t		25.0	female	black	3.858336649423	neutral	126	sub-04	2.0	2.0	126_neutral	1.0	attractiveness	78.56572843149388	
8.0	57.4033426193937	pulse	3.0	t		25.0	female	black	3.858336649423	neutral	126	sub-04	2.0	2.0	126_neutral	1.0	attractiveness	79.26572218309957	
8.0	58.10332490051587	pulse	3.0	t		25.0	female	black	3.858336649423	neutral	126	sub-04	2.0	2.0	126_neutral	1.0	attractiveness	79.96570446422174	
8.0	58.80331684099292	pulse	3.0	t		25.0	female	black	3.858336649423	neutral	126	sub-04	2.0	2.0	126_neutral	1.0	attractiveness	80.66569640469879	
9.0	59.01985721663914	face	0.0		145	22.0	female	white	4.614007162753682	neutral	009	sub-04	2.0	2.0	009_neutral	0.0		80.88223678034501	1.2333035805113468
9.0	59.503299725824945	pulse	0.0	t		22.0	female	white	4.614007162753682	neutral	009	sub-04	2.0	2.0	009_neutral	0.0		81.36567928953082	
9.0	60.203269932755575	pulse	0.0	t		22.0	female	white	4.614007162753682	neutral	009	sub-04	2.0	2.0	009_neutral	0.0		82.06564949646145	
9.0	60.253160797150485	fix	1.0		445	22.0	female	white	4.614007162753682	neutral	009	sub-04	2.0	2.0	009_neutral	0.0		82.11554036085636	3.758275877786218
9.0	60.90326126952277	pulse	1.0	t		22.0	female	white	4.614007162753682	neutral	009	sub-04	2.0	2.0	009_neutral	0.0		82.76564083322864	
9.0	61.60325562483831	pulse	1.0	t		22.0	female	white	4.614007162753682	neutral	009	sub-04	2.0	2.0	009_neutral	0.0		83.46563518854418	
9.0	62.303250282007866	pulse	1.0	t		22.0	female	white	4.614007162753682	neutral	009	sub-04	2.0	2.0	009_neutral	0.0		84.16562984571374	
9.0	63.003216866680305	pulse	1.0	t		22.0	female	white	4.614007162753682	neutral	009	sub-04	2.0	2.0	009_neutral	0.0		84.86559643038618	
9.0	63.70319733667475	pulse	1.0	t		22.0	female	white	4.614007162753682	neutral	009	sub-04	2.0	2.0	009_neutral	0.0		85.56557690038062	
10.0	64.0114366749367	face	0.0		146	20.0	female	white	3.9502586549940313	neutral	091	sub-04	2.0	2.0	091_neutral	0.0		85.87381623864258	1.2416166619022988
10.0	64.40318776787717	pulse	0.0	t		20.0	female	white	3.9502586549940313	neutral	091	sub-04	2.0	2.0	091_neutral	0.0		86.26556733158304	
10.0	65.1031567673881	pulse	0.0	t		20.0	female	white	3.9502586549940313	neutral	091	sub-04	2.0	2.0	091_neutral	0.0		86.96553633109397	
10.0	65.253053336839	fix	1.0		445	20.0	female	white	3.9502586549940313	neutral	091	sub-04	2.0	2.0	091_neutral	0.0		87.11543290054487	3.7665702441790927
10.0	65.80318040261955	pulse	1.0	t		20.0	female	white	3.9502586549940313	neutral	091	sub-04	2.0	2.0	091_neutral	0.0		87.66555996632542	
10.0	66.50317264495152	pulse	1.0	t		20.0	female	white	3.9502586549940313	neutral	091	sub-04	2.0	2.0	091_neutral	0.0		88.36555220865739	
10.0	67.20312594801271	pulse	1.0	t		20.0	female	white	3.9502586549940313	neutral	091	sub-04	2.0	2.0	091_neutral	0.0		89.06550551171858	
10.0	67.90312543485925	pulse	1.0	t		20.0	female	white	3.9502586549940313	neutral	091	sub-04	2.0	2.0	091_neutral	0.0		89.76550499856512	
10.0	68.6030959436448	pulse	1.0	t		20.0	female	white	3.9502586549940313	neutral	091	sub-04	2.0	2.0	091_neutral	0.0		90.46547550735067	
11.0	69.0196235810181	face	0.0		145	47.0	male	east_asian	2.171110226820533	smiling	024	sub-04	2.0	2.0	024_smiling	0.0		90.88200314472397	1.2333388975239359
11.0	69.30309965645938	pulse	0.0	t		47.0	male	east_asian	2.171110226820533	smiling	024	sub-04	2.0	2.0	024_smiling	0.0		91.16547922016525	
11.0	70.00306382629333	pulse	0.0	t		47.0	male	east_asian	2.171110226820533	smiling	024	sub-04	2.0	2.0	024_smiling	0.0		91.8654433899992	
11.0	70.25296247854203	fix	1.0		444	47.0	male	east_asian	2.171110226820533	smiling	024	sub-04	2.0	2.0	024_smiling	0.0		92.1153420422479	3.7582254680328333
11.0	70.703062407576	pulse	1.0	t		47.0	male	east_asian	2.171110226820533	smiling	024	sub-04	2.0	2.0	024_smiling	0.0		92.56544197128187	
11.0	71.40304529240802	pulse	1.0	t		47.0	male	east_asian	2.171110226820533	smiling	024	sub-04	2.0	2.0	024_smiling	0.0		93.2654248561139	
11.0	72.10302485683769	pulse	1.0	t		47.0	male	east_asian	2.171110226820533	smiling	024	sub-04	2.0	2.0	024_smiling	0.0		93.96540442054356	
11.0	72.80300804352464	pulse	1.0	t		47.0	male	east_asian	2.171110226820533	smiling	024	sub-04	2.0	2.0	024_smiling	0.0		94.66538760723051	
11.0	73.50299545617963	pulse	1.0	t		47.0	male	east_asian	2.171110226820533	smiling	024	sub-04	2.0	2.0	024_smiling	0.0		95.3653750198855	
12.0	74.01118794657486	face	0.0		146	22.0	male	black	2.767608436132113	neutral	044	sub-04	2.0	2.0	044_neutral	0.0		95.87356751028074	1.241655299318154
12.0	74.20298166141492	pulse	0.0	t		22.0	male	black	2.767608436132113	neutral	044	sub-04	2.0	2.0	044_neutral	0.0		96.0653612251208	
12.0	74.90296424439202	pulse	0.0	t		22.0	male	black	2.767608436132113	neutral	044	sub-04	2.0	2.0	044_neutral	0.0		96.7653438080979	
12.0	75.25284324589302	fix	1.0		444	22.0	male	black	2.767608436132113	neutral	044	sub-04	2.0	2.0	044_neutral	0.0		97.11522280959889	3.7665796016781314
12.0	75.60295044962731	pulse	1.0	t		22.0	male	black	2.767608436132113	neutral	044	sub-04	2.0	2.0	044_neutral	0.0		97.46533001333319	
12.0	76.30293937155602	pulse	1.0	t		22.0	male	black	2.767608436132113	neutral	044	sub-04	2.0	2.0	044_neutral	0.0		98.1653189352619	
12.0	77.0029228600988	pulse	1.0	t		22.0	male	black	2.767608436132113	neutral	044	sub-04	2.0	2.0	044_neutral	0.0		98.86530242380468	
12.0	77.70291812097821	pulse	1.0	t		22.0	male	black	2.767608436132113	neutral	044	sub-04	2.0	2.0	044_neutral	0.0		99.56529768468408	
12.0	78.40289255387597	pulse	1.0	t		22.0	male	black	2.767608436132113	neutral	044	sub-04	2.0	2.0	044_neutral	0.0		100.26527211758184	
13.0	79.01942284757115	face	0.0		145	21.0	male	east_asian/white	3.501790688420215	neutral	036	sub-04	2.0	2.0	036_neutral	0.0		100.88180241127702	1.2333123343005354
13.0	79.10289113515773	pulse	0.0	t		21.0	male	east_asian/white	3.501790688420215	neutral	036	sub-04	2.0	2.0	036_neutral	0.0		100.9652706988636	
13.0	79.80286586991042	pulse	0.0	t		21.0	male	east_asian/white	3.501790688420215	neutral	036	sub-04	2.0	2.0	036_neutral	0.0		101.66524543361629	
13.0	80.25273518187169	fix	1.0		444	21.0	male	east_asian/white	3.501790688420215	neutral	036	sub-04	2.0	2.0	036_neutral	0.0		102.11511474557756	3.7665729608725087
13.0	80.50286082893581	pulse	1.0	t		21.0	male	east_asian/white	3.501790688420215	neutral	036	sub-04	2.0	2.0	036_neutral	0.0		102.36524039264168	
13.0	81.20284039336548	pulse	1.0	t		21.0	male	east_asian/white	3.501790688420215	neutral	036	sub-04	2.0	2.0	036_neutral	0.0		103.06521995707135	
13.0	81.90282901343835	pulse	1.0	t		21.0	male	east_asian/white	3.501790688420215	neutral	036	sub-04	2.0	2.0	036_neutral	0.0		103.76520857714422	
13.0	82.60280887972294	pulse	1.0	t		21.0	male	east_asian/white	3.501790688420215	neutral	036	sub-04	2.0	2.0	036_neutral	0.0		104.46518844342881	
13.0	83.30279236826482	pulse	1.0	t		21.0	male	east_asian/white	3.501790688420215	neutral	036	sub-04	2.0	2.0	036_neutral	0.0		105.16517193197069	
14.0	84.0193081427442	face	0.0		146	31.0	male	west_asian	1.9538400318344609	smiling	070	sub-04	2.0	2.0	070_smiling	0.0		105.88168770645007	1.2333259177676155
14.0	84.00570203730877	pulse	0.0	t		31.0	male	west_asian	1.9538400318344609	smiling	070	sub-04	2.0	2.0	070_smiling	0.0		105.86808160101464	
14.0	84.7027596472044	pulse	0.0	t		31.0	male	west_asian	1.9538400318344609	smiling	070	sub-04	2.0	2.0	070_smiling	0.0		106.56513921091027	
14.0	85.25263406051181	fix	1.0		443	31.0	male	west_asian	1.9538400318344609	smiling	070	sub-04	2.0	2.0	070_smiling	0.0		107.11501362421768	3.7665705460340178
14.0	85.40275158768054	pulse	1.0	t		31.0	male	west_asian	1.9538400318344609	smiling	070	sub-04	2.0	2.0	070_smiling	0.0		107.26513115138641	
14.0	86.10274141517402	pulse	1.0	t		31.0	male	west_asian	1.9538400318344609	smiling	070	sub-04	2.0	2.0	070_smiling	0.0		107.9651209788799	
14.0	86.80272037589384	pulse	1.0	t		31.0	male	west_asian	1.9538400318344609	smiling	070	sub-04	2.0	2.0	070_smiling	0.0		108.66509993959971	
14.0	87.50271473120847	pulse	1.0	t		31.0	male	west_asian	1.9538400318344609	smiling	070	sub-04	2.0	2.0	070_smiling	0.0		109.36509429491434	
14.0	88.20269399378321	pulse	1.0	t		31.0	male	west_asian	1.9538400318344609	smiling	070	sub-04	2.0	2.0	070_smiling	0.0		110.06507355748909	
14.0	88.90266933224575	pulse	1.0	t		31.0	male	west_asian	1.9538400318344609	smiling	070	sub-04	2.0	2.0	070_smiling	0.0		110.76504889595162	
15.0	89.01920460654583	face	0.0		146	36.0	female	white	2.7548746518105847	smiling	011	sub-04	2.0	2.0	011_smiling	0.0		110.8815841702517	1.2333391993779514
15.0	89.60266912094721	pulse	0.0	t		36.0	female	white	2.7548746518105847	smiling	011	sub-04	2.0	2.0	011_smiling	0.0		111.46504868465308	
15.0	90.25254380592378	fix	1.0		443	36.0	female	white	2.7548746518105847	smiling	011	sub-04	2.0	2.0	011_smiling	0.0		112.11492336962965	3.766574772002059
15.0	90.30265834473084	pulse	1.0	t		36.0	female	white	2.7548746518105847	smiling	011	sub-04	2.0	2.0	011_smiling	0.0		112.16503790843672	
15.0	91.00264756851448	pulse	1.0	t		36.0	female	white	2.7548746518105847	smiling	011	sub-04	2.0	2.0	011_smiling	0.0		112.86502713222035	
15.0	91.70260902165501	pulse	1.0	t		36.0	female	white	2.7548746518105847	smiling	011	sub-04	2.0	2.0	011_smiling	0.0		113.56498858536088	
15.0	92.40260639551889	pulse	1.0	t		36.0	female	white	2.7548746518105847	smiling	011	sub-04	2.0	2.0	011_smiling	0.0		114.26498595922476	
15.0	93.10259199704433	pulse	1.0	t		36.0	female	white	2.7548746518105847	smiling	011	sub-04	2.0	2.0	011_smiling	0.0		114.9649715607502	
15.0	93.80256824107073	pulse	1.0	t		36.0	female	white	2.7548746518105847	smiling	011	sub-04	2.0	2.0	011_smiling	0.0		115.6649478047766	
16.0	94.01911857792584	face	0.0		145	27.0	male	black	3.5523278949462798	neutral	042	sub-04	2.0	2.0	042_neutral	0.0		115.88149814163171	1.2333053916399876
16.0	94.50255837041823	pulse	0.0	t		27.0	male	black	3.5523278949462798	neutral	042	sub-04	2.0	2.0	042_neutral	0.0		116.3649379341241	
16.0	95.20253702928403	pulse	0.0	t		27.0	male	black	3.5523278949462798	neutral	042	sub-04	2.0	2.0	042_neutral	0.0		117.0649165929899	
16.0	95.25242396956583	fix	1.0		444	27.0	male	black	3.5523278949462798	neutral	042	sub-04	2.0	2.0	042_neutral	0.0		117.1148035332717	3.7665874499034544
16.0	95.90252866790524	pulse	1.0	t		27.0	male	black	3.5523278949462798	neutral	042	sub-04	2.0	2.0	042_neutral	0.0		117.76490823161112	
16.0	96.60250249709406	pulse	1.0	t		27.0	male	black	3.5523278949462798	neutral	042	sub-04	2.0	2.0	042_neutral	0.0		118.46488206079994	
16.0	97.30250530434387	pulse	1.0	t		27.0	male	black	3.5523278949462798	neutral	042	sub-04	2.0	2.0	042_neutral	0.0		119.16488486804974	
16.0	98.00248818917589	pulse	1.0	t		27.0	male	black	3.5523278949462798	neutral	042	sub-04	2.0	2.0	042_neutral	0.0		119.86486775288176	
16.0	98.7024568868328	pulse	1.0	t		27.0	male	black	3.5523278949462798	neutral	042	sub-04	2.0	2.0	042_neutral	0.0		120.56483645053868	
17.0	99.01901141946928	face	0.0		145	19.0	female	white	4.298846000795861	neutral	100	sub-04	2.0	2.0	100_neutral	0.0		120.88139098317515	1.2333150509939514
17.0	99.40246422190467	pulse	0.0	t		19.0	female	white	4.298846000795861	neutral	100	sub-04	2.0	2.0	100_neutral	0.0		121.26484378561054	
17.0	100.10244318262448	pulse	0.0	t		19.0	female	white	4.298846000795861	neutral	100	sub-04	2.0	2.0	100_neutral	0.0		121.96482274633036	
17.0	100.25232647046323	fix	1.0		444	19.0	female	white	4.298846000795861	neutral	100	sub-04	2.0	2.0	100_neutral	0.0		122.1147060341691	3.766566320066886
17.0	100.80242184148938	pulse	1.0	t		19.0	female	white	4.298846000795861	neutral	100	sub-04	2.0	2.0	100_neutral	0.0		122.66480140519525	
17.0	101.50242072462697	pulse	1.0	t		19.0	female	white	4.298846000795861	neutral	100	sub-04	2.0	2.0	100_neutral	0.0		123.36480028833284	
17.0	102.20240149647543	pulse	1.0	t		19.0	female	white	4.298846000795861	neutral	100	sub-04	2.0	2.0	100_neutral	0.0		124.0647810601813	
17.0	102.90238136276002	pulse	1.0	t		19.0	female	white	4.298846000795861	neutral	100	sub-04	2.0	2.0	100_neutral	0.0		124.7647609264659	
17.0	103.6023585123512	pulse	1.0	t		19.0	female	white	4.298846000795861	neutral	100	sub-04	2.0	2.0	100_neutral	0.0		125.46473807605707	
18.0	104.01889279053012	face	0.0		145	19.0	male	white	2.243931555909272	neutral	130	sub-04	2.0	2.0	130_neutral	0.0		125.88127235423599	1.2333346715558946
18.0	104.30236282887472	pulse	0.0	t		19.0	male	white	2.243931555909272	neutral	130	sub-04	2.0	2.0	130_neutral	0.0		126.16474239258059	
18.0	105.00234752483539	pulse	0.0	t		19.0	male	white	2.243931555909272	neutral	130	sub-04	2.0	2.0	130_neutral	0.0		126.86472708854126	
18.0	105.25222746208601	fix	1.0		444	19.0	male	white	2.243931555909272	neutral	130	sub-04	2.0	2.0	130_neutral	0.0		127.11460702579188	3.7583727731798717
18.0	105.70232648555611	pulse	1.0	t		19.0	male	white	2.243931555909272	neutral	130	sub-04	2.0	2.0	130_neutral	0.0		127.56470604926199	
18.0	106.4023063518398	pulse	1.0	t		19.0	male	white	2.243931555909272	neutral	130	sub-04	2.0	2.0	130_neutral	0.0		128.26468591554567	
18.0	107.10229980159056	pulse	1.0	t		19.0	male	white	2.243931555909272	neutral	130	sub-04	2.0	2.0	130_neutral	0.0		128.96467936529643	
18.0	107.80228389384229	pulse	1.0	t		19.0	male	white	2.243931555909272	neutral	130	sub-04	2.0	2.0	130_neutral	0.0		129.66466345754816	
18.0	108.50225440262784	pulse	1.0	t		19.0	male	white	2.243931555909272	neutral	130	sub-04	2.0	2.0	130_neutral	0.0		130.3646339663337	
19.0	109.01060023526588	face	0.0		146	25.0	female	black	3.858336649423	smiling	126	sub-04	2.0	2.0	126_smiling	0.0		130.87297979897176	1.2415218794922112
19.0	109.20225147463589	pulse	0.0	t		25.0	female	black	3.858336649423	smiling	126	sub-04	2.0	2.0	126_smiling	0.0		131.06463103834176	
19.0	109.90223647245239	pulse	0.0	t		25.0	female	black	3.858336649423	smiling	126	sub-04	2.0	2.0	126_smiling	0.0		131.76461603615826	
19.0	110.2521221147581	fix	1.0		444	25.0	female	black	3.858336649423	smiling	126	sub-04	2.0	2.0	126_smiling	0.0		132.11450167846397	3.7665584718424725
19.0	110.60221814986562	pulse	1.0	t		25.0	female	black	3.858336649423	smiling	126	sub-04	2.0	2.0	126_smiling	0.0		132.4645977135715	
19.0	111.30219861985915	pulse	1.0	t		25.0	female	black	3.858336649423	smiling	126	sub-04	2.0	2.0	126_smiling	0.0		133.16457818356503	
19.0	112.00218814549771	pulse	1.0	t		25.0	female	black	3.858336649423	smiling	126	sub-04	2.0	2.0	126_smiling	0.0		133.86456770920358	
19.0	112.70217736928134	pulse	1.0	t		25.0	female	black	3.858336649423	smiling	126	sub-04	2.0	2.0	126_smiling	0.0		134.56455693298722	
19.0	113.40215904669458	pulse	1.0	t		25.0	female	black	3.858336649423	smiling	126	sub-04	2.0	2.0	126_smiling	0.0		135.26453861040045	
20.0	114.01868058660057	face	0.0		145	31.0	female	white	2.1822522881018704	smiling	102	sub-04	2.0	2.0	102_smiling	0.0		135.88106015030644	1.2333401049427266
20.0	114.1021558168477	pulse	0.0	t		31.0	female	white	2.1822522881018704	smiling	102	sub-04	2.0	2.0	102_smiling	0.0		135.96453538055357	
20.0	114.80212270337506	pulse	0.0	t		31.0	female	white	2.1822522881018704	smiling	102	sub-04	2.0	2.0	102_smiling	0.0		136.66450226708093	
20.0	115.2520206915433	fix	1.0		1185	31.0	female	white	2.1822522881018704	smiling	102	sub-04	2.0	2.0	102_smiling	0.0		137.11440025524917	10.008164266971107
20.0	115.50212762360843	pulse	1.0	t		31.0	female	white	2.1822522881018704	smiling	102	sub-04	2.0	2.0	102_smiling	0.0		137.3645071873143	
20.0	116.20210899916674	pulse	1.0	t		31.0	female	white	2.1822522881018704	smiling	102	sub-04	2.0	2.0	102_smiling	0.0		138.0644885628726	
20.0	116.9021416900423	pulse	1.0	t		31.0	female	white	2.1822522881018704	smiling	102	sub-04	2.0	2.0	102_smiling	0.0		138.76452125374817	
20.0	117.6020645057688	pulse	1.0	t		31.0	female	white	2.1822522881018704	smiling	102	sub-04	2.0	2.0	102_smiling	0.0		139.46444406947467	
20.0	118.30205252213273	pulse	1.0	t		31.0	female	white	2.1822522881018704	smiling	102	sub-04	2.0	2.0	102_smiling	0.0		140.1644320858386	
20.0	119.00204385889992	pulse	1.0	t		31.0	female	white	2.1822522881018704	smiling	102	sub-04	2.0	2.0	102_smiling	0.0		140.8644234226058	
20.0	119.70204847727837	pulse	1.0	t		31.0	female	white	2.1822522881018704	smiling	102	sub-04	2.0	2.0	102_smiling	0.0		141.56442804098424	
20.0	120.402018684209	pulse	1.0	t		31.0	female	white	2.1822522881018704	smiling	102	sub-04	2.0	2.0	102_smiling	0.0		142.26439824791487	
20.0	121.10200519129921	pulse	1.0	t		31.0	female	white	2.1822522881018704	smiling	102	sub-04	2.0	2.0	102_smiling	0.0		142.96438475500509	
20.0	121.80198566129275	pulse	1.0	t		31.0	female	white	2.1822522881018704	smiling	102	sub-04	2.0	2.0	102_smiling	0.0		143.66436522499862	
20.0	122.50197458322145	pulse	1.0	t		31.0	female	white	2.1822522881018704	smiling	102	sub-04	2.0	2.0	102_smiling	0.0		144.36435414692733	
20.0	123.20195958103795	pulse	1.0	t		31.0	female	white	2.1822522881018704	smiling	102	sub-04	2.0	2.0	102_smiling	0.0		145.06433914474383	
20.0	123.9019439751437	pulse	1.0	t		31.0	female	white	2.1822522881018704	smiling	102	sub-04	2.0	2.0	102_smiling	0.0		145.76432353884957	
20.0	124.60191478578417	pulse	1.0	t		31.0	female	white	2.1822522881018704	smiling	102	sub-04	2.0	2.0	102_smiling	0.0		146.46429434949005	
21.0	125.2601849585144	face	0.0		146	24.0	female	black	3.0955033824114606	smiling	099	sub-04	2.0	2.0	099_smiling	0.0		147.12256452222027	1.2415958339206554
21.0	125.3019178948889	pulse	0.0	t		24.0	female	black	3.0955033824114606	smiling	099	sub-04	2.0	2.0	099_smiling	0.0		147.16429745859477	
21.0	126.00191013721997	pulse	0.0	t		24.0	female	black	3.0955033824114606	smiling	099	sub-04	2.0	2.0	099_smiling	0.0		147.86428970092584	
21.0	126.50178079243506	fix	1.0		443	24.0	female	black	3.0955033824114606	smiling	099	sub-04	2.0	2.0	099_smiling	0.0		148.36416035614093	3.75831783560443
21.0	126.701887890521	pulse	1.0	t		24.0	female	black	3.0955033824114606	smiling	099	sub-04	2.0	2.0	099_smiling	0.0		148.56426745422687	
21.0	127.40186322898262	pulse	1.0	t		24.0	female	black	3.0955033824114606	smiling	099	sub-04	2.0	2.0	099_smiling	0.0		149.2642427926885	
21.0	128.10185486760474	pulse	1.0	t		24.0	female	black	3.0955033824114606	smiling	099	sub-04	2.0	2.0	099_smiling	0.0		149.96423443131062	
21.0	128.8018380542917	pulse	1.0	t		24.0	female	black	3.0955033824114606	smiling	099	sub-04	2.0	2.0	099_smiling	0.0		150.66421761799756	
21.0	129.50182275025327	pulse	1.0	t		24.0	female	black	3.0955033824114606	smiling	099	sub-04	2.0	2.0	099_smiling	0.0		151.36420231395914	
21.0	130.20180925734348	pulse	1.0	t		24.0	female	black	3.0955033824114606	smiling	099	sub-04	2.0	2.0	099_smiling	0.0		152.06418882104936	
22.0	130.2600986280395	face	0.0		147	31.0	female	east_asian	3.395941106247513	smiling	087	sub-04	2.0	2.0	087_smiling	0.0		152.12247819174536	1.2415653465850482
22.0	130.90180149967455	pulse	0.0	t		31.0	female	east_asian	3.395941106247513	smiling	087	sub-04	2.0	2.0	087_smiling	0.0		152.76418106338042	
22.0	131.50166397462453	fix	1.0		443	31.0	female	east_asian	3.395941106247513	smiling	087	sub-04	2.0	2.0	087_smiling	0.0		153.3640435383304	3.766570847888943
22.0	131.60177744184693	pulse	1.0	t		31.0	female	east_asian	3.395941106247513	smiling	087	sub-04	2.0	2.0	087_smiling	0.0		153.4641570055528	
22.0	132.30176394893715	pulse	1.0	t		31.0	female	east_asian	3.395941106247513	smiling	087	sub-04	2.0	2.0	087_smiling	0.0		154.16414351264302	
22.0	133.00174985231752	pulse	1.0	t		31.0	female	east_asian	3.395941106247513	smiling	087	sub-04	2.0	2.0	087_smiling	0.0		154.8641294160234	
22.0	133.70172730376362	pulse	1.0	t		31.0	female	east_asian	3.395941106247513	smiling	087	sub-04	2.0	2.0	087_smiling	0.0		155.5641068674695	
22.0	134.40170928303178	pulse	1.0	t		31.0	female	east_asian	3.395941106247513	smiling	087	sub-04	2.0	2.0	087_smiling	0.0		156.26408884673765	
22.0	135.10171269399052	pulse	1.0	t		31.0	female	east_asian	3.395941106247513	smiling	087	sub-04	2.0	2.0	087_smiling	0.0		156.9640922576964	
23.0	135.26823482251348	face	0.0		146	23.0	male	white	2.6275368085953046	smiling	141	sub-04	2.0	2.0	141_smiling	0.0		157.13061438621935	1.2333244084929902
23.0	135.80168682503336	pulse	0.0	t		23.0	male	white	2.6275368085953046	smiling	141	sub-04	2.0	2.0	141_smiling	0.0		157.66406638873923	
23.0	136.50155923100647	fix	1.0		444	23.0	male	white	2.6275368085953046	smiling	141	sub-04	2.0	2.0	141_smiling	0.0		158.36393879471234	3.7582544460947247
23.0	136.50907058603025	pulse	1.0	t		23.0	male	white	2.6275368085953046	smiling	141	sub-04	2.0	2.0	141_smiling	0.0		158.37145014973612	
23.0	137.20167281897102	pulse	1.0	t		23.0	male	white	2.6275368085953046	smiling	141	sub-04	2.0	2.0	141_smiling	0.0		159.0640523826769	
23.0	137.90165540194812	pulse	1.0	t		23.0	male	white	2.6275368085953046	smiling	141	sub-04	2.0	2.0	141_smiling	0.0		159.764034965654	
23.0	138.60163074041066	pulse	1.0	t		23.0	male	white	2.6275368085953046	smiling	141	sub-04	2.0	2.0	141_smiling	0.0		160.46401030411653	
23.0	139.3016100029854	pulse	1.0	t		23.0	male	white	2.6275368085953046	smiling	141	sub-04	2.0	2.0	141_smiling	0.0		161.16398956669127	
23.0	140.00160616942958	pulse	1.0	t		23.0	male	white	2.6275368085953046	smiling	141	sub-04	2.0	2.0	141_smiling	0.0		161.86398573313545	
24.0	140.2598136771012	face	0.0		146	28.0	male	east_asian	1.5563072025467568	neutral	005	sub-04	2.0	2.0	005_neutral	0.0		162.12219324080706	1.2416619401237767
24.0	140.70159388393859	pulse	0.0	t		28.0	male	east_asian	1.5563072025467568	neutral	005	sub-04	2.0	2.0	005_neutral	0.0		162.56397344764446	
24.0	141.4016184247348	pulse	0.0	t		28.0	male	east_asian	1.5563072025467568	neutral	005	sub-04	2.0	2.0	005_neutral	0.0		163.26399798844068	
24.0	141.50147561722497	fix	1.0		444	28.0	male	east_asian	1.5563072025467568	neutral	005	sub-04	2.0	2.0	005_neutral	0.0		163.36385518093084	3.7665524347457904
24.0	142.10155814432983	pulse	1.0	t		28.0	male	east_asian	1.5563072025467568	neutral	005	sub-04	2.0	2.0	005_neutral	0.0		163.9639377080357	
24.0	142.80155159407968	pulse	1.0	t		28.0	male	east_asian	1.5563072025467568	neutral	005	sub-04	2.0	2.0	005_neutral	0.0		164.66393115778556	
24.0	143.5015202917366	pulse	1.0	t		28.0	male	east_asian	1.5563072025467568	neutral	005	sub-04	2.0	2.0	005_neutral	0.0		165.36389985544247	
24.0	144.20150347842355	pulse	1.0	t		28.0	male	east_asian	1.5563072025467568	neutral	005	sub-04	2.0	2.0	005_neutral	0.0		166.06388304212942	
24.0	144.90149270220718	pulse	1.0	t		28.0	male	east_asian	1.5563072025467568	neutral	005	sub-04	2.0	2.0	005_neutral	0.0		166.76387226591305	
25.0	145.26802805197076	face	0.0		145	24.0	female	east_asian	2.9076800636689217	neutral	034	sub-04	2.0	2.0	034_neutral	0.0		167.13040761567663	1.2333090138981788
25.0	145.6014807185711	pulse	0.0	t		24.0	female	east_asian	2.9076800636689217	neutral	034	sub-04	2.0	2.0	034_neutral	0.0		167.46386028227698	
25.0	146.30145605703365	pulse	0.0	t		24.0	female	east_asian	2.9076800636689217	neutral	034	sub-04	2.0	2.0	034_neutral	0.0		168.16383562073952	
25.0	146.50133706586894	fix	1.0		444	24.0	female	east_asian	2.9076800636689217	neutral	034	sub-04	2.0	2.0	034_neutral	0.0		168.3637166295748	3.7665998259499247
25.0	147.00145463831632	pulse	1.0	t		24.0	female	east_asian	2.9076800636689217	neutral	034	sub-04	2.0	2.0	034_neutral	0.0		168.8638342020222	
25.0	147.7014459750826	pulse	1.0	t		24.0	female	east_asian	2.9076800636689217	neutral	034	sub-04	2.0	2.0	034_neutral	0.0		169.56382553878848	
25.0	148.4014321803179	pulse	1.0	t		24.0	female	east_asian	2.9076800636689217	neutral	034	sub-04	2.0	2.0	034_neutral	0.0		170.26381174402377	
25.0	149.10140751878043	pulse	1.0	t		24.0	female	east_asian	2.9076800636689217	neutral	034	sub-04	2.0	2.0	034_neutral	0.0		170.9637870824863	
25.0	149.80138346095282	pulse	1.0	t		24.0	female	east_asian	2.9076800636689217	neutral	034	sub-04	2.0	2.0	034_neutral	0.0		171.6637630246587	
26.0	150.26793689181886	face	0.0		145	40.0	male	white	1.868682849184242	neutral	172	sub-04	2.0	2.0	172_neutral	0.0		172.13031645552473	1.233296637850799
26.0	150.50139139973362	pulse	0.0	t		40.0	male	white	1.868682849184242	neutral	172	sub-04	2.0	2.0	172_neutral	0.0		172.3637709634395	
26.0	151.20136945488957	pulse	0.0	t		40.0	male	white	1.868682849184242	neutral	172	sub-04	2.0	2.0	172_neutral	0.0		173.06374901859544	
26.0	151.50123352966966	fix	1.0		444	40.0	male	white	1.868682849184242	neutral	172	sub-04	2.0	2.0	172_neutral	0.0		173.36361309337553	3.758281914881991
26.0	151.9013613953657	pulse	1.0	t		40.0	male	white	1.868682849184242	neutral	172	sub-04	2.0	2.0	172_neutral	0.0		173.76374095907158	
26.0	152.60132707447428	pulse	1.0	t		40.0	male	white	1.868682849184242	neutral	172	sub-04	2.0	2.0	172_neutral	0.0		174.46370663818016	
26.0	153.30132022237012	pulse	1.0	t		40.0	male	white	1.868682849184242	neutral	172	sub-04	2.0	2.0	172_neutral	0.0		175.163699786076	
26.0	154.0013148795406	pulse	1.0	t		40.0	male	white	1.868682849184242	neutral	172	sub-04	2.0	2.0	172_neutral	0.0		175.86369444324646	
26.0	154.70129353840548	pulse	1.0	t		40.0	male	white	1.868682849184242	neutral	172	sub-04	2.0	2.0	172_neutral	0.0		176.56367310211135	
27.0	155.25951544455165	face	0.0		146	27.0	female	white	3.504576203740549	smiling	144	sub-04	2.0	2.0	144_smiling	1.0	attractiveness	177.12189500825752	1.2416130396450171
27.0	155.4012878937201	pulse	0.0	t		27.0	female	white	3.504576203740549	smiling	144	sub-04	2.0	2.0	144_smiling	1.0	attractiveness	177.26366745742598	
27.0	156.1012701748432	pulse	0.0	t		27.0	female	white	3.504576203740549	smiling	144	sub-04	2.0	2.0	144_smiling	1.0	attractiveness	177.96364973854907	
27.0	156.50112848419667	fix	1.0		177	27.0	female	white	3.504576203740549	smiling	144	sub-04	2.0	2.0	144_smiling	1.0	attractiveness	178.36350804790254	1.4999778136716486
27.0	156.80125758749818	pulse	1.0	t		27.0	female	white	3.504576203740549	smiling	144	sub-04	2.0	2.0	144_smiling	1.0	attractiveness	178.66363715120406	
27.0	157.50123685007293	pulse	1.0	t		27.0	female	white	3.504576203740549	smiling	144	sub-04	2.0	2.0	144_smiling	1.0	attractiveness	179.3636164137788	
27.0	158.00110629786832	rating	2.0		294	27.0	female	white	3.504576203740549	smiling	144	sub-04	2.0	2.0	144_smiling	1.0	attractiveness	179.8634858615742	2.4999431003689097
27.0	158.20121490522797	pulse	2.0	t		27.0	female	white	3.504576203740549	smiling	144	sub-04	2.0	2.0	144_smiling	1.0	attractiveness	180.06359446893384	
27.0	158.9012140902205	pulse	2.0	t		27.0	female	white	3.504576203740549	smiling	144	sub-04	2.0	2.0	144_smiling	1.0	attractiveness	180.76359365392636	
27.0	159.3595308089616	response	2.0	b		27.0	female	white	3.504576203740549	smiling	144	sub-04	2.0	2.0	144_smiling	1.0	attractiveness	181.22191037266748	
27.0	159.6011788637643	pulse	2.0	t		27.0	female	white	3.504576203740549	smiling	144	sub-04	2.0	2.0	144_smiling	1.0	attractiveness	181.46355842747016	
27.0	160.30116838940194	pulse	2.0	t		27.0	female	white	3.504576203740549	smiling	144	sub-04	2.0	2.0	144_smiling	1.0	attractiveness	182.1635479531078	
27.0	160.50104939823723	fix	3.0		444	27.0	female	white	3.504576203740549	smiling	144	sub-04	2.0	2.0	144_smiling	1.0	attractiveness	182.3634289619431	3.7665765831307
27.0	161.00116666882968	pulse	3.0	t		27.0	female	white	3.504576203740549	smiling	144	sub-04	2.0	2.0	144_smiling	1.0	attractiveness	182.86354623253555	
27.0	161.70117521132124	pulse	3.0	t		27.0	female	white	3.504576203740549	smiling	144	sub-04	2.0	2.0	144_smiling	1.0	attractiveness	183.56355477502711	
27.0	162.4011508516378	pulse	3.0	t		27.0	female	white	3.504576203740549	smiling	144	sub-04	2.0	2.0	144_smiling	1.0	attractiveness	184.26353041534367	
27.0	163.10111381405295	pulse	3.0	t		27.0	female	white	3.504576203740549	smiling	144	sub-04	2.0	2.0	144_smiling	1.0	attractiveness	184.96349337775882	
27.0	163.80110183041688	pulse	3.0	t		27.0	female	white	3.504576203740549	smiling	144	sub-04	2.0	2.0	144_smiling	1.0	attractiveness	185.66348139412275	
28.0	164.26762598136793	face	0.0		145	25.0	female	west_asian	2.6756864305610826	neutral	064	sub-04	2.0	2.0	064_neutral	1.0	trustworthiness	186.1300055450738	1.2333213899446491
28.0	164.5010859226686	pulse	0.0	t		25.0	female	west_asian	2.6756864305610826	neutral	064	sub-04	2.0	2.0	064_neutral	1.0	trustworthiness	186.36346548637448	
28.0	165.2010820891128	pulse	0.0	t		25.0	female	west_asian	2.6756864305610826	neutral	064	sub-04	2.0	2.0	064_neutral	1.0	trustworthiness	187.06346165281866	
28.0	165.50094737131258	fix	1.0		177	25.0	female	west_asian	2.6756864305610826	neutral	064	sub-04	2.0	2.0	064_neutral	1.0	trustworthiness	187.36332693501845	1.4999705691561758
28.0	165.9010670869293	pulse	1.0	t		25.0	female	west_asian	2.6756864305610826	neutral	064	sub-04	2.0	2.0	064_neutral	1.0	trustworthiness	187.76344665063516	
28.0	166.60102008813556	pulse	1.0	t		25.0	female	west_asian	2.6756864305610826	neutral	064	sub-04	2.0	2.0	064_neutral	1.0	trustworthiness	188.46339965184143	
28.0	167.00091794046875	rating	2.0		294	25.0	female	west_asian	2.6756864305610826	neutral	064	sub-04	2.0	2.0	064_neutral	1.0	trustworthiness	188.86329750417462	2.4999600042383463
28.0	167.3010334603032	pulse	2.0	t		25.0	female	west_asian	2.6756864305610826	neutral	064	sub-04	2.0	2.0	064_neutral	1.0	trustworthiness	189.16341302400906	
28.0	168.0010235896516	pulse	2.0	t		25.0	female	west_asian	2.6756864305610826	neutral	064	sub-04	2.0	2.0	064_neutral	1.0	trustworthiness	189.86340315335747	
28.0	168.5343403612178	response	2.0	b		25.0	female	west_asian	2.6756864305610826	neutral	064	sub-04	2.0	2.0	064_neutral	1.0	trustworthiness	190.39671992492367	
28.0	168.70100677633855	pulse	2.0	t		25.0	female	west_asian	2.6756864305610826	neutral	064	sub-04	2.0	2.0	064_neutral	1.0	trustworthiness	190.56338634004442	
28.0	169.40096702206029	pulse	2.0	t		25.0	female	west_asian	2.6756864305610826	neutral	064	sub-04	2.0	2.0	064_neutral	1.0	trustworthiness	191.26334658576616	
28.0	169.5008779447071	fix	3.0		444	25.0	female	west_asian	2.6756864305610826	neutral	064	sub-04	2.0	2.0	064_neutral	1.0	trustworthiness	191.36325750841297	3.7582680295608952
28.0	170.10097194229365	pulse	3.0	t		25.0	female	west_asian	2.6756864305610826	neutral	064	sub-04	2.0	2.0	064_neutral	1.0	trustworthiness	191.96335150599953	
28.0	170.80094758261112	pulse	3.0	t		25.0	female	west_asian	2.6756864305610826	neutral	064	sub-04	2.0	2.0	064_neutral	1.0	trustworthiness	192.663327146317	
28.0	171.50093439155535	pulse	3.0	t		25.0	female	west_asian	2.6756864305610826	neutral	064	sub-04	2.0	2.0	064_neutral	1.0	trustworthiness	193.36331395526122	
28.0	172.20093055799953	pulse	3.0	t		25.0	female	west_asian	2.6756864305610826	neutral	064	sub-04	2.0	2.0	064_neutral	1.0	trustworthiness	194.0633101217054	
28.0	172.90091555581603	pulse	3.0	t		25.0	female	west_asian	2.6756864305610826	neutral	064	sub-04	2.0	2.0	064_neutral	1.0	trustworthiness	194.7632951195219	
29.0	173.259145974268	face	0.0		146	34.0	male	white	2.651014723438122	neutral	121	sub-04	2.0	2.0	121_neutral	0.0		195.12152553797387	1.241615152628583
29.0	173.6008927054072	pulse	0.0	t		34.0	male	white	2.651014723438122	neutral	121	sub-04	2.0	2.0	121_neutral	0.0		195.46327226911308	
29.0	174.3008674401599	pulse	0.0	t		34.0	male	white	2.651014723438122	neutral	121	sub-04	2.0	2.0	121_neutral	0.0		196.16324700386576	
29.0	174.50076112689658	fix	1.0		444	34.0	male	white	2.651014723438122	neutral	121	sub-04	2.0	2.0	121_neutral	0.0		196.36314069060245	3.7582710481092363
29.0	175.00087356781205	pulse	1.0	t		34.0	male	white	2.651014723438122	neutral	121	sub-04	2.0	2.0	121_neutral	0.0		196.86325313151792	
29.0	175.70084618958117	pulse	1.0	t		34.0	male	white	2.651014723438122	neutral	121	sub-04	2.0	2.0	121_neutral	0.0		197.56322575328704	
29.0	176.40084356344414	pulse	1.0	t		34.0	male	white	2.651014723438122	neutral	121	sub-04	2.0	2.0	121_neutral	0.0		198.26322312715	
29.0	177.1008219204541	pulse	1.0	t		34.0	male	white	2.651014723438122	neutral	121	sub-04	2.0	2.0	121_neutral	0.0		198.96320148415998	
29.0	177.80081597391472	pulse	1.0	t		34.0	male	white	2.651014723438122	neutral	121	sub-04	2.0	2.0	121_neutral	0.0		199.6631955376206	
30.0	178.2590321750058	face	0.0		146	24.0	female	east_asian	4.409868682849185	neutral	030	sub-04	2.0	2.0	030_neutral	0.0		200.12141173871169	1.2416184730309396
30.0	178.50079644390917	pulse	0.0	t		24.0	female	east_asian	4.409868682849185	neutral	030	sub-04	2.0	2.0	030_neutral	0.0		200.36317600761504	
30.0	179.20077268793557	pulse	0.0	t		24.0	female	east_asian	4.409868682849185	neutral	030	sub-04	2.0	2.0	030_neutral	0.0		201.06315225164144	
30.0	179.50065064803675	fix	1.0		444	24.0	female	east_asian	4.409868682849185	neutral	030	sub-04	2.0	2.0	030_neutral	0.0		201.36303021174263	3.75829308351058
30.0	179.90077157107226	pulse	1.0	t		24.0	female	east_asian	4.409868682849185	neutral	030	sub-04	2.0	2.0	030_neutral	0.0		201.76315113477813	
30.0	180.6007559651789	pulse	1.0	t		24.0	female	east_asian	4.409868682849185	neutral	030	sub-04	2.0	2.0	030_neutral	0.0		202.46313552888478	
30.0	181.3007397555757	pulse	1.0	t		24.0	female	east_asian	4.409868682849185	neutral	030	sub-04	2.0	2.0	030_neutral	0.0		203.16311931928158	
30.0	182.00072565895607	pulse	1.0	t		24.0	female	east_asian	4.409868682849185	neutral	030	sub-04	2.0	2.0	030_neutral	0.0		203.86310522266194	
30.0	182.70069797887027	pulse	1.0	t		24.0	female	east_asian	4.409868682849185	neutral	030	sub-04	2.0	2.0	030_neutral	0.0		204.56307754257614	
31.0	183.25894373154733	face	0.0		146	40.0	male	black	2.408674890569041	smiling	061	sub-04	2.0	2.0	061_smiling	0.0		205.1213232952532	1.241604889564769
31.0	183.4006998805562	pulse	0.0	t		40.0	male	black	2.408674890569041	smiling	061	sub-04	2.0	2.0	061_smiling	0.0		205.26307944426208	
31.0	184.10067521901783	pulse	0.0	t		40.0	male	black	2.408674890569041	smiling	061	sub-04	2.0	2.0	061_smiling	0.0		205.9630547827237	
31.0	184.5005486211121	fix	1.0		444	40.0	male	black	2.408674890569041	smiling	061	sub-04	2.0	2.0	061_smiling	0.0		206.36292818481797	3.7583395691508485
31.0	184.80065508530242	pulse	1.0	t		40.0	male	black	2.408674890569041	smiling	061	sub-04	2.0	2.0	061_smiling	0.0		206.6630346490083	
31.0	185.5006485350532	pulse	1.0	t		40.0	male	black	2.408674890569041	smiling	061	sub-04	2.0	2.0	061_smiling	0.0		207.36302809875906	
31.0	186.20062447722557	pulse	1.0	t		40.0	male	black	2.408674890569041	smiling	061	sub-04	2.0	2.0	061_smiling	0.0		208.06300404093145	
31.0	186.9006161158468	pulse	1.0	t		40.0	male	black	2.408674890569041	smiling	061	sub-04	2.0	2.0	061_smiling	0.0		208.76299567955266	
31.0	187.6006011136633	pulse	1.0	t		40.0	male	black	2.408674890569041	smiling	061	sub-04	2.0	2.0	061_smiling	0.0		209.46298067736916	
32.0	188.25888819026295	face	0.0		146	26.0	male	white	2.7966573816155993	smiling	117	sub-04	2.0	2.0	117_smiling	0.0		210.12126775396882	1.2415680632784643
32.0	188.30058460220516	pulse	0.0	t		26.0	male	white	2.7966573816155993	smiling	117	sub-04	2.0	2.0	117_smiling	0.0		210.16296416591103	
32.0	189.0005650721987	pulse	0.0	t		26.0	male	white	2.7966573816155993	smiling	117	sub-04	2.0	2.0	117_smiling	0.0		210.86294463590457	
32.0	189.50045625354142	fix	1.0		443	26.0	male	white	2.7966573816155993	smiling	117	sub-04	2.0	2.0	117_smiling	0.0		211.3628358172473	3.7665723571626586
32.0	189.70056425719122	pulse	1.0	t		26.0	male	white	2.7966573816155993	smiling	117	sub-04	2.0	2.0	117_smiling	0.0		211.5629438208971	
32.0	190.40054623645938	pulse	1.0	t		26.0	male	white	2.7966573816155993	smiling	117	sub-04	2.0	2.0	117_smiling	0.0		212.26292580016525	
32.0	191.100521574921	pulse	1.0	t		26.0	male	white	2.7966573816155993	smiling	117	sub-04	2.0	2.0	117_smiling	0.0		212.96290113862688	
32.0	191.80050959128585	pulse	1.0	t		26.0	male	white	2.7966573816155993	smiling	117	sub-04	2.0	2.0	117_smiling	0.0		213.66288915499172	
32.0	192.50050243732676	pulse	1.0	t		26.0	male	white	2.7966573816155993	smiling	117	sub-04	2.0	2.0	117_smiling	0.0		214.36288200103263	
32.0	193.20047717207945	pulse	1.0	t		26.0	male	white	2.7966573816155993	smiling	117	sub-04	2.0	2.0	117_smiling	0.0		215.06285673578532	
33.0	193.26702861070407	face	0.0		146	23.0	male	white	2.6275368085953046	neutral	141	sub-04	2.0	2.0	141_neutral	0.0		215.12940817440995	1.2333216917995742
33.0	193.9004654902983	pulse	0.0	t		23.0	male	white	2.6275368085953046	neutral	141	sub-04	2.0	2.0	141_neutral	0.0		215.76284505400417	
33.0	194.50035030250365	fix	1.0		443	23.0	male	white	2.6275368085953046	neutral	141	sub-04	2.0	2.0	141_neutral	0.0		216.36272986620952	3.7583422858442646
33.0	194.60046256230635	pulse	1.0	t		23.0	male	white	2.6275368085953046	neutral	141	sub-04	2.0	2.0	141_neutral	0.0		216.46284212601222	
33.0	195.3004315618182	pulse	1.0	t		23.0	male	white	2.6275368085953046	neutral	141	sub-04	2.0	2.0	141_neutral	0.0		217.16281112552406	
33.0	196.0004283319713	pulse	1.0	t		23.0	male	white	2.6275368085953046	neutral	141	sub-04	2.0	2.0	141_neutral	0.0		217.86280789567718	
33.0	196.70040910381977	pulse	1.0	t		23.0	male	white	2.6275368085953046	neutral	141	sub-04	2.0	2.0	141_neutral	0.0		218.56278866752564	
33.0	197.40040376099023	pulse	1.0	t		23.0	male	white	2.6275368085953046	neutral	141	sub-04	2.0	2.0	141_neutral	0.0		219.2627833246961	
33.0	198.10038392912884	pulse	1.0	t		23.0	male	white	2.6275368085953046	neutral	141	sub-04	2.0	2.0	141_neutral	0.0		219.9627634928347	
34.0	198.2586925883479	face	0.0		147	40.0	female	west_asian	1.5777954635893354	neutral	038	sub-04	2.0	2.0	038_neutral	0.0		220.12107215205378	1.2415418019099889
34.0	198.80037919000915	pulse	0.0	t		40.0	female	west_asian	1.5777954635893354	neutral	038	sub-04	2.0	2.0	038_neutral	0.0		220.66275875371502	
34.0	199.5002343902579	fix	1.0		444	40.0	female	west_asian	1.5777954635893354	neutral	038	sub-04	2.0	2.0	038_neutral	0.0		221.36261395396377	3.766569036760302
34.0	199.50778770309898	pulse	1.0	t		40.0	female	west_asian	1.5777954635893354	neutral	038	sub-04	2.0	2.0	038_neutral	0.0		221.37016726680486	
34.0	200.20033137620703	pulse	1.0	t		40.0	female	west_asian	1.5777954635893354	neutral	038	sub-04	2.0	2.0	038_neutral	0.0		222.0627109399129	
34.0	200.9003148647489	pulse	1.0	t		40.0	female	west_asian	1.5777954635893354	neutral	038	sub-04	2.0	2.0	038_neutral	0.0		222.76269442845478	
34.0	201.6003098237743	pulse	1.0	t		40.0	female	west_asian	1.5777954635893354	neutral	038	sub-04	2.0	2.0	038_neutral	0.0		223.46268938748017	
34.0	202.30029301046125	pulse	1.0	t		40.0	female	west_asian	1.5777954635893354	neutral	038	sub-04	2.0	2.0	038_neutral	0.0		224.16267257416712	
34.0	203.00027166932614	pulse	1.0	t		40.0	female	west_asian	1.5777954635893354	neutral	038	sub-04	2.0	2.0	038_neutral	0.0		224.862651233032	
35.0	203.2668034270182	face	0.0		145	24.0	male	white	3.1153999204138483	neutral	012	sub-04	2.0	2.0	012_neutral	0.0		225.12918299072408	1.2333385956681013
35.0	203.7002675339154	pulse	0.0	t		24.0	male	white	3.1153999204138483	neutral	012	sub-04	2.0	2.0	012_neutral	0.0		225.56264709762127	
35.0	204.40023472229768	pulse	0.0	t		24.0	male	white	3.1153999204138483	neutral	012	sub-04	2.0	2.0	012_neutral	0.0		226.26261428600355	
35.0	204.5001420226863	fix	1.0		444	24.0	male	white	3.1153999204138483	neutral	012	sub-04	2.0	2.0	012_neutral	0.0		226.36252158639218	3.7582393533548384
35.0	205.1002414536606	pulse	1.0	t		24.0	male	white	3.1153999204138483	neutral	012	sub-04	2.0	2.0	012_neutral	0.0		226.96262101736647	
35.0	205.80021075502646	pulse	1.0	t		24.0	male	white	3.1153999204138483	neutral	012	sub-04	2.0	2.0	012_neutral	0.0		227.66259031873233	
35.0	206.50019152687491	pulse	1.0	t		24.0	male	white	3.1153999204138483	neutral	012	sub-04	2.0	2.0	012_neutral	0.0		228.3625710905808	
35.0	207.20019433412472	pulse	1.0	t		24.0	male	white	3.1153999204138483	neutral	012	sub-04	2.0	2.0	012_neutral	0.0		229.0625738978306	
35.0	207.90017752081167	pulse	1.0	t		24.0	male	white	3.1153999204138483	neutral	012	sub-04	2.0	2.0	012_neutral	0.0		229.76255708451754	
36.0	208.25838137604114	face	0.0		146	40.0	female	west_asian	1.5777954635893354	smiling	038	sub-04	2.0	2.0	038_smiling	0.0		230.12076093974702	1.241652884479663
36.0	208.60015587782254	pulse	0.0	t		40.0	female	west_asian	1.5777954635893354	smiling	038	sub-04	2.0	2.0	038_smiling	0.0		230.46253544152842	
36.0	209.30014600717004	pulse	0.0	t		40.0	female	west_asian	1.5777954635893354	smiling	038	sub-04	2.0	2.0	038_smiling	0.0		231.1625255708759	
36.0	209.5000342605208	fix	1.0		444	40.0	female	west_asian	1.5777954635893354	smiling	038	sub-04	2.0	2.0	038_smiling	0.0		231.36241382422668	3.766559075551413
36.0	210.00012587345464	pulse	1.0	t		40.0	female	west_asian	1.5777954635893354	smiling	038	sub-04	2.0	2.0	038_smiling	0.0		231.8625054371605	
36.0	210.7001141916735	pulse	1.0	t		40.0	female	west_asian	1.5777954635893354	smiling	038	sub-04	2.0	2.0	038_smiling	0.0		232.56249375537936	
36.0	211.40009526537688	pulse	1.0	t		40.0	female	west_asian	1.5777954635893354	smiling	038	sub-04	2.0	2.0	038_smiling	0.0		233.26247482908275	
36.0	212.10009233738583	pulse	1.0	t		40.0	female	west_asian	1.5777954635893354	smiling	038	sub-04	2.0	2.0	038_smiling	0.0		233.9624719010917	
36.0	212.80006707213852	pulse	1.0	t		40.0	female	west_asian	1.5777954635893354	smiling	038	sub-04	2.0	2.0	038_smiling	0.0		234.6624466358444	
37.0	213.26659333607222	face	0.0		145	25.0	female	west_asian	2.6756864305610826	smiling	064	sub-04	2.0	2.0	064_smiling	0.0		235.1289728997781	1.2333219936544992
37.0	213.5000532773738	pulse	0.0	t		25.0	female	west_asian	2.6756864305610826	smiling	064	sub-04	2.0	2.0	064_smiling	0.0		235.36243284107968	
37.0	214.20003253994855	pulse	0.0	t		25.0	female	west_asian	2.6756864305610826	smiling	064	sub-04	2.0	2.0	064_smiling	0.0		236.06241210365442	
37.0	214.49991532972672	fix	1.0		444	25.0	female	west_asian	2.6756864305610826	smiling	064	sub-04	2.0	2.0	064_smiling	0.0		236.3622948934326	3.7665741682912994
37.0	214.90003564905237	pulse	1.0	t		25.0	female	west_asian	2.6756864305610826	smiling	064	sub-04	2.0	2.0	064_smiling	0.0		236.76241521275824	
37.0	215.60000525227315	pulse	1.0	t		25.0	female	west_asian	2.6756864305610826	smiling	064	sub-04	2.0	2.0	064_smiling	0.0		237.46238481597902	
37.0	216.29998813710608	pulse	1.0	t		25.0	female	west_asian	2.6756864305610826	smiling	064	sub-04	2.0	2.0	064_smiling	0.0		238.16236770081196	
37.0	216.99997796459866	pulse	1.0	t		25.0	female	west_asian	2.6756864305610826	smiling	064	sub-04	2.0	2.0	064_smiling	0.0		238.86235752830453	
37.0	217.6999596420119	pulse	1.0	t		25.0	female	west_asian	2.6756864305610826	smiling	064	sub-04	2.0	2.0	064_smiling	0.0		239.56233920571776	
38.0	218.26648949801802	face	0.0		145	20.0	male	black	2.609629924393156	smiling	043	sub-04	2.0	2.0	043_smiling	0.0		240.1288690617239	1.2333352752666542
38.0	218.39995007321522	pulse	0.0	t		20.0	male	black	2.609629924393156	smiling	043	sub-04	2.0	2.0	043_smiling	0.0		240.2623296369211	
38.0	219.09992299683836	pulse	0.0	t		20.0	male	black	2.609629924393156	smiling	043	sub-04	2.0	2.0	043_smiling	0.0		240.96230256054423	
38.0	219.49982477328467	fix	1.0		444	20.0	male	black	2.609629924393156	smiling	043	sub-04	2.0	2.0	043_smiling	0.0		241.36220433699054	3.758242070047345
38.0	219.79992670965294	pulse	1.0	t		20.0	male	black	2.609629924393156	smiling	043	sub-04	2.0	2.0	043_smiling	0.0		241.6623062733588	
38.0	220.4998987277122	pulse	1.0	t		20.0	male	black	2.609629924393156	smiling	043	sub-04	2.0	2.0	043_smiling	0.0		242.36227829141808	
38.0	221.1999356445549	pulse	1.0	t		20.0	male	black	2.609629924393156	smiling	043	sub-04	2.0	2.0	043_smiling	0.0		243.06231520826077	
38.0	221.89988623092268	pulse	1.0	t		20.0	male	black	2.609629924393156	smiling	043	sub-04	2.0	2.0	043_smiling	0.0		243.76226579462855	
38.0	222.59985945640165	pulse	1.0	t		20.0	male	black	2.609629924393156	smiling	043	sub-04	2.0	2.0	043_smiling	0.0		244.46223902010752	
39.0	223.25806684333202	face	0.0		146	28.0	male	white	3.9076800636689217	smiling	033	sub-04	2.0	2.0	033_smiling	1.0	trustworthiness	245.1204464070379	1.2416519789148879
39.0	223.29987584711762	pulse	0.0	t		28.0	male	white	3.9076800636689217	smiling	033	sub-04	2.0	2.0	033_smiling	1.0	trustworthiness	245.1622554108235	
39.0	223.99982673534032	pulse	0.0	t		28.0	male	white	3.9076800636689217	smiling	033	sub-04	2.0	2.0	033_smiling	1.0	trustworthiness	245.8622062990462	
39.0	224.4997188222469	fix	1.0		177	28.0	male	white	3.9076800636689217	smiling	033	sub-04	2.0	2.0	033_smiling	1.0	trustworthiness	246.36209838595278	1.4999542689965892
39.0	224.6998292407352	pulse	1.0	t		28.0	male	white	3.9076800636689217	smiling	033	sub-04	2.0	2.0	033_smiling	1.0	trustworthiness	246.56220880444107	
39.0	225.39980850330994	pulse	1.0	t		28.0	male	white	3.9076800636689217	smiling	033	sub-04	2.0	2.0	033_smiling	1.0	trustworthiness	247.2621880670158	
39.0	225.9996730912435	rating	2.0		294	28.0	male	white	3.9076800636689217	smiling	033	sub-04	2.0	2.0	033_smiling	1.0	trustworthiness	247.86205265494937	2.4999630227866874
39.0	226.09978836959453	pulse	2.0	t		28.0	male	white	3.9076800636689217	smiling	033	sub-04	2.0	2.0	033_smiling	1.0	trustworthiness	247.9621679333004	
39.0	226.799788158296	pulse	2.0	t		28.0	male	white	3.9076800636689217	smiling	033	sub-04	2.0	2.0	033_smiling	1.0	trustworthiness	248.66216772200187	
39.0	227.49976862829044	pulse	2.0	t		28.0	male	white	3.9076800636689217	smiling	033	sub-04	2.0	2.0	033_smiling	1.0	trustworthiness	249.3621481919963	
39.0	227.5164753863064	response	2.0	e		28.0	male	white	3.9076800636689217	smiling	033	sub-04	2.0	2.0	033_smiling	1.0	trustworthiness	249.37885495001228	
39.0	228.19974125005956	pulse	2.0	t		28.0	male	white	3.9076800636689217	smiling	033	sub-04	2.0	2.0	033_smiling	1.0	trustworthiness	250.06212081376543	
39.0	228.49963611403018	fix	3.0		444	28.0	male	white	3.9076800636689217	smiling	033	sub-04	2.0	2.0	033_smiling	1.0	trustworthiness	250.36201567773605	3.7499024254329925
39.0	228.8997383220676	pulse	3.0	t		28.0	male	white	3.9076800636689217	smiling	033	sub-04	2.0	2.0	033_smiling	1.0	trustworthiness	250.76211788577348	
39.0	229.5997082271433	pulse	3.0	t		28.0	male	white	3.9076800636689217	smiling	033	sub-04	2.0	2.0	033_smiling	1.0	trustworthiness	251.46208779084918	
39.0	230.29969473423353	pulse	3.0	t		28.0	male	white	3.9076800636689217	smiling	033	sub-04	2.0	2.0	033_smiling	1.0	trustworthiness	252.1620742979394	
39.0	230.9996921080965	pulse	3.0	t		28.0	male	white	3.9076800636689217	smiling	033	sub-04	2.0	2.0	033_smiling	1.0	trustworthiness	252.86207167180237	
39.0	231.69968435042756	pulse	3.0	t		28.0	male	white	3.9076800636689217	smiling	033	sub-04	2.0	2.0	033_smiling	1.0	trustworthiness	253.56206391413343	
40.0	232.24953853946317	fix	0.0		720													254.11191810316905	5.999877145093706
40.0	232.39967085751778	pulse	0.0	t														254.26205042122365	
40.0	233.09965012009252	pulse	0.0	t														254.9620296837984	
40.0	233.79963300492545	pulse	0.0	t														255.66201256863133	
40.0	234.49959264693734	pulse	0.0	t														256.3619722106432	
40.0	235.1996099432181	pulse	0.0	t														257.06198950692396	
40.0	235.8995813575675	pulse	0.0	t														257.7619609212734	
40.0	236.59955911086854	pulse	0.0	t														258.4619386745744	
40.0	237.29956372924698	pulse	0.0	t														259.16194329295286	
40.0	237.99953574730625	pulse	0.0	t														259.8619153110121	
