trial_nr	onset	event_type	phase	response	nr_frames	face_age	face_sex	face_eth	attractiveness	expression	face_id	sub_id	ses	run	trial_type	catch	onset_abs	duration
-1.0	0.058000193790576304	fix	0.0		713												22.98949666012686	5.949983564005379
-1.0	-12.460886710570776	response	0.0	b													10.470609755765508	
-1.0	0.7077794926481147	pulse	0.0	t													23.6392759589844	
-1.0	1.4077638867547648	pulse	0.0	t													24.33926035309105	
-1.0	2.107742545619658	pulse	0.0	t													25.039239011955942	
-1.0	2.807724223032892	pulse	0.0	t													25.739220689369176	
-1.0	3.5077312562498264	pulse	0.0	t													26.43922772258611	
-1.0	4.207712028099195	pulse	0.0	t													27.13920849443548	
-1.0	4.907685857287106	pulse	0.0	t													27.83918232362339	
-1.0	5.607662705023358	pulse	0.0	t													28.539159171359643	
0.0	6.007983757795955	face	0.0		145	40.0	female	west_asian	1.5777954635893354	neutral	038	sub-02	1.0	5.0	038_neutral	1.0	28.93948022413224	1.2411524092094623
0.0	6.307653739935631	pulse	0.0	t		40.0	female	west_asian	1.5777954635893354	neutral	038	sub-02	1.0	5.0	038_neutral	1.0	29.239150206271916	
0.0	7.007595874369144	pulse	0.0	t		40.0	female	west_asian	1.5777954635893354	neutral	038	sub-02	1.0	5.0	038_neutral	1.0	29.93909234070543	
0.0	7.2491361670054175	fix	1.0		236	40.0	female	west_asian	1.5777954635893354	neutral	038	sub-02	1.0	5.0	038_neutral	1.0	30.180632633341702	2.008343266871634
0.0	7.707654222903329	pulse	1.0	t		40.0	female	west_asian	1.5777954635893354	neutral	038	sub-02	1.0	5.0	038_neutral	1.0	30.639150689239614	
0.0	8.407641937412336	pulse	1.0	t		40.0	female	west_asian	1.5777954635893354	neutral	038	sub-02	1.0	5.0	038_neutral	1.0	31.33913840374862	
0.0	9.09955171542515	pulse	1.0	t		40.0	female	west_asian	1.5777954635893354	neutral	038	sub-02	1.0	5.0	038_neutral	1.0	32.031048181761435	
0.0	9.257479433877052	rating	2.0		235	40.0	female	west_asian	1.5777954635893354	neutral	038	sub-02	1.0	5.0	038_neutral	1.0	32.188975900213336	1.9999604570202791
0.0	9.802370828027051	pulse	2.0	t		40.0	female	west_asian	1.5777954635893354	neutral	038	sub-02	1.0	5.0	038_neutral	1.0	32.733867294363336	
0.0	10.290892949908994	response	2.0	n		40.0	female	west_asian	1.5777954635893354	neutral	038	sub-02	1.0	5.0	038_neutral	1.0	33.22238941624528	
0.0	10.50241408382044	pulse	2.0	t		40.0	female	west_asian	1.5777954635893354	neutral	038	sub-02	1.0	5.0	038_neutral	1.0	33.433910550156725	
0.0	11.199482258634816	pulse	2.0	t		40.0	female	west_asian	1.5777954635893354	neutral	038	sub-02	1.0	5.0	038_neutral	1.0	34.1309787249711	
0.0	11.25743989089733	fix	3.0		444	40.0	female	west_asian	1.5777954635893354	neutral	038	sub-02	1.0	5.0	038_neutral	1.0	34.188936357233615	3.75821822351827
0.0	11.907541268834393	pulse	3.0	t		40.0	female	west_asian	1.5777954635893354	neutral	038	sub-02	1.0	5.0	038_neutral	1.0	34.83903773517068	
0.0	12.599437765235962	pulse	3.0	t		40.0	female	west_asian	1.5777954635893354	neutral	038	sub-02	1.0	5.0	038_neutral	1.0	35.530934231572246	
0.0	13.299434233534157	pulse	3.0	t		40.0	female	west_asian	1.5777954635893354	neutral	038	sub-02	1.0	5.0	038_neutral	1.0	36.23093069987044	
0.0	13.999437342638885	pulse	3.0	t		40.0	female	west_asian	1.5777954635893354	neutral	038	sub-02	1.0	5.0	038_neutral	1.0	36.93093380897517	
0.0	14.699393362393494	pulse	3.0	t		40.0	female	west_asian	1.5777954635893354	neutral	038	sub-02	1.0	5.0	038_neutral	1.0	37.63088982872978	
1.0	15.0156581144156	face	0.0		146	23.0	male	white	2.6275368085953046	neutral	141	sub-02	1.0	5.0	141_neutral	0.0	37.947154580751885	1.2416377917388672
1.0	15.40746474864045	pulse	0.0	t		23.0	male	white	2.6275368085953046	neutral	141	sub-02	1.0	5.0	141_neutral	0.0	38.338961214976734	
1.0	16.107410505332155	pulse	0.0	t		23.0	male	white	2.6275368085953046	neutral	141	sub-02	1.0	5.0	141_neutral	0.0	39.03890697166844	
1.0	16.257295906154468	fix	1.0		445	23.0	male	white	2.6275368085953046	neutral	141	sub-02	1.0	5.0	141_neutral	0.0	39.18879237249075	3.7582628980289883
1.0	16.807437762820882	pulse	1.0	t		23.0	male	white	2.6275368085953046	neutral	141	sub-02	1.0	5.0	141_neutral	0.0	39.73893422915717	
1.0	17.50741249757357	pulse	1.0	t		23.0	male	white	2.6275368085953046	neutral	141	sub-02	1.0	5.0	141_neutral	0.0	40.43890896390985	
1.0	18.19932921824693	pulse	1.0	t		23.0	male	white	2.6275368085953046	neutral	141	sub-02	1.0	5.0	141_neutral	0.0	41.130825684583215	
1.0	18.90740543417087	pulse	1.0	t		23.0	male	white	2.6275368085953046	neutral	141	sub-02	1.0	5.0	141_neutral	0.0	41.83890190050715	
1.0	19.59929679904053	pulse	1.0	t		23.0	male	white	2.6275368085953046	neutral	141	sub-02	1.0	5.0	141_neutral	0.0	42.530793265376815	
2.0	20.015558804183456	face	0.0		146	28.0	male	white	3.9076800636689217	smiling	033	sub-02	1.0	5.0	033_smiling	0.0	42.94705527051974	1.241689710765968
2.0	20.307362148191714	pulse	0.0	t		28.0	male	white	3.9076800636689217	smiling	033	sub-02	1.0	5.0	033_smiling	0.0	43.238858614528	
2.0	21.00732209205853	pulse	0.0	t		28.0	male	white	3.9076800636689217	smiling	033	sub-02	1.0	5.0	033_smiling	0.0	43.938818558394814	
2.0	21.257248514949424	fix	1.0		444	28.0	male	white	3.9076800636689217	smiling	033	sub-02	1.0	5.0	033_smiling	0.0	44.18874498128571	3.7582049419070245
2.0	21.699227945959137	pulse	1.0	t		28.0	male	white	3.9076800636689217	smiling	033	sub-02	1.0	5.0	033_smiling	0.0	44.63072441229542	
2.0	22.407337667767024	pulse	1.0	t		28.0	male	white	3.9076800636689217	smiling	033	sub-02	1.0	5.0	033_smiling	0.0	45.33883413410331	
2.0	23.10730123389203	pulse	1.0	t		28.0	male	white	3.9076800636689217	smiling	033	sub-02	1.0	5.0	033_smiling	0.0	46.038797700228315	
2.0	23.807290155819828	pulse	1.0	t		28.0	male	white	3.9076800636689217	smiling	033	sub-02	1.0	5.0	033_smiling	0.0	46.73878662215611	
2.0	24.49923585455508	pulse	1.0	t		28.0	male	white	3.9076800636689217	smiling	033	sub-02	1.0	5.0	033_smiling	0.0	47.430732320891366	
3.0	25.01545345685645	face	0.0		146	20.0	male	black	3.1070433744528456	neutral	082	sub-02	1.0	5.0	082_neutral	0.0	47.94694992319273	1.241676429153813
3.0	25.199129088509835	pulse	0.0	t		20.0	male	black	3.1070433744528456	neutral	082	sub-02	1.0	5.0	082_neutral	0.0	48.13062555484612	
3.0	25.907246054833195	pulse	0.0	t		20.0	male	black	3.1070433744528456	neutral	082	sub-02	1.0	5.0	082_neutral	0.0	48.83874252116948	
3.0	26.25712988601026	fix	1.0		444	20.0	male	black	3.1070433744528456	neutral	082	sub-02	1.0	5.0	082_neutral	0.0	49.188626352346546	3.7582215439206266
3.0	26.6072349767619	pulse	1.0	t		20.0	male	black	3.1070433744528456	neutral	082	sub-02	1.0	5.0	082_neutral	0.0	49.538731443098186	
3.0	27.2990913264739	pulse	1.0	t		20.0	male	black	3.1070433744528456	neutral	082	sub-02	1.0	5.0	082_neutral	0.0	50.230587792810184	
3.0	27.999049459212074	pulse	1.0	t		20.0	male	black	3.1070433744528456	neutral	082	sub-02	1.0	5.0	082_neutral	0.0	50.93054592554836	
3.0	28.699069170330404	pulse	1.0	t		20.0	male	black	3.1070433744528456	neutral	082	sub-02	1.0	5.0	082_neutral	0.0	51.63056563666669	
3.0	29.39913174483263	pulse	1.0	t		20.0	male	black	3.1070433744528456	neutral	082	sub-02	1.0	5.0	082_neutral	0.0	52.330628211168914	
4.0	30.015351429930888	face	0.0		146	32.0	male	white	2.389176283326701	neutral	092	sub-02	1.0	5.0	092_neutral	0.0	52.94684789626717	1.2416728068965313
4.0	30.09898996362972	pulse	0.0	t		32.0	male	white	2.389176283326701	neutral	092	sub-02	1.0	5.0	092_neutral	0.0	53.030486429966004	
4.0	30.807144963658175	pulse	0.0	t		32.0	male	white	2.389176283326701	neutral	092	sub-02	1.0	5.0	092_neutral	0.0	53.73864142999446	
4.0	31.25702423682742	fix	1.0		444	32.0	male	white	2.389176283326701	neutral	092	sub-02	1.0	5.0	092_neutral	0.0	54.188520703163704	3.7665527366007154
4.0	31.499122960857676	pulse	1.0	t		32.0	male	white	2.389176283326701	neutral	092	sub-02	1.0	5.0	092_neutral	0.0	54.43061942719396	
4.0	32.1990044224749	pulse	1.0	t		32.0	male	white	2.389176283326701	neutral	092	sub-02	1.0	5.0	092_neutral	0.0	55.130500888811184	
4.0	32.89895561255253	pulse	1.0	t		32.0	male	white	2.389176283326701	neutral	092	sub-02	1.0	5.0	092_neutral	0.0	55.83045207888881	
4.0	33.59894362891646	pulse	1.0	t		32.0	male	white	2.389176283326701	neutral	092	sub-02	1.0	5.0	092_neutral	0.0	56.53044009525274	
4.0	34.298995638499946	pulse	1.0	t		32.0	male	white	2.389176283326701	neutral	092	sub-02	1.0	5.0	092_neutral	0.0	57.23049210483623	
5.0	35.023576973428135	face	0.0		146	31.0	female	east_asian	3.395941106247513	neutral	087	sub-02	1.0	5.0	087_neutral	0.0	57.95507343976442	1.2333379919591607
5.0	35.00994792702659	pulse	0.0	t		31.0	female	east_asian	3.395941106247513	neutral	087	sub-02	1.0	5.0	087_neutral	0.0	57.94144439336287	
5.0	35.69891462066971	pulse	0.0	t		31.0	female	east_asian	3.395941106247513	neutral	087	sub-02	1.0	5.0	087_neutral	0.0	58.630411087005996	
5.0	36.256914965387296	fix	1.0		443	31.0	female	east_asian	3.395941106247513	neutral	087	sub-02	1.0	5.0	087_neutral	0.0	59.18841143172358	3.766559377406338
5.0	36.39891380566132	pulse	1.0	t		31.0	female	east_asian	3.395941106247513	neutral	087	sub-02	1.0	5.0	087_neutral	0.0	59.33041027199761	
5.0	37.098874655092914	pulse	1.0	t		31.0	female	east_asian	3.395941106247513	neutral	087	sub-02	1.0	5.0	087_neutral	0.0	60.0303711214292	
5.0	37.79884154162028	pulse	1.0	t		31.0	female	east_asian	3.395941106247513	neutral	087	sub-02	1.0	5.0	087_neutral	0.0	60.73033800795656	
5.0	38.49884917854706	pulse	1.0	t		31.0	female	east_asian	3.395941106247513	neutral	087	sub-02	1.0	5.0	087_neutral	0.0	61.430345644883346	
5.0	39.198893339905226	pulse	1.0	t		31.0	female	east_asian	3.395941106247513	neutral	087	sub-02	1.0	5.0	087_neutral	0.0	62.13038980624151	
5.0	39.898878337721726	pulse	1.0	t		31.0	female	east_asian	3.395941106247513	neutral	087	sub-02	1.0	5.0	087_neutral	0.0	62.83037480405801	
6.0	40.023474342793634	face	0.0		146	22.0	female	west_asian	3.8205332272184642	smiling	066	sub-02	1.0	5.0	066_smiling	0.0	62.95497080912992	1.2332948267221582
6.0	40.59881473691348	pulse	0.0	t		22.0	female	west_asian	3.8205332272184642	smiling	066	sub-02	1.0	5.0	066_smiling	0.0	63.53031120324977	
6.0	41.25676916951579	fix	1.0		444	22.0	female	west_asian	3.8205332272184642	smiling	066	sub-02	1.0	5.0	066_smiling	0.0	64.18826563585208	3.758295196494146
6.0	41.298865840932194	pulse	1.0	t		22.0	female	west_asian	3.8205332272184642	smiling	066	sub-02	1.0	5.0	066_smiling	0.0	64.23036230726848	
6.0	41.998844499798	pulse	1.0	t		22.0	female	west_asian	3.8205332272184642	smiling	066	sub-02	1.0	5.0	066_smiling	0.0	64.93034096613428	
6.0	42.69874769496073	pulse	1.0	t		22.0	female	west_asian	3.8205332272184642	smiling	066	sub-02	1.0	5.0	066_smiling	0.0	65.63024416129701	
6.0	43.39872273156834	pulse	1.0	t		22.0	female	west_asian	3.8205332272184642	smiling	066	sub-02	1.0	5.0	066_smiling	0.0	66.33021919790463	
6.0	44.09871195535197	pulse	1.0	t		22.0	female	west_asian	3.8205332272184642	smiling	066	sub-02	1.0	5.0	066_smiling	0.0	67.03020842168826	
6.0	44.79869634945862	pulse	1.0	t		22.0	female	west_asian	3.8205332272184642	smiling	066	sub-02	1.0	5.0	066_smiling	0.0	67.73019281579491	
7.0	45.01506436600994	face	0.0		146	31.0	female	west_asian	2.364902506963788	smiling	006	sub-02	1.0	5.0	006_smiling	0.0	67.94656083234622	1.2416438288346399
7.0	45.49857328325379	pulse	0.0	t		31.0	female	west_asian	2.364902506963788	smiling	006	sub-02	1.0	5.0	006_smiling	0.0	68.43006974959007	
7.0	46.198553149537474	pulse	0.0	t		31.0	female	west_asian	2.364902506963788	smiling	006	sub-02	1.0	5.0	006_smiling	0.0	69.13004961587376	
7.0	46.25670819484458	fix	1.0		445	31.0	female	west_asian	2.364902506963788	smiling	006	sub-02	1.0	5.0	006_smiling	0.0	69.18820466118086	3.758240862628554
7.0	46.898541769611256	pulse	1.0	t		31.0	female	west_asian	2.364902506963788	smiling	006	sub-02	1.0	5.0	006_smiling	0.0	69.83003823594754	
7.0	47.59852042847706	pulse	1.0	t		31.0	female	west_asian	2.364902506963788	smiling	006	sub-02	1.0	5.0	006_smiling	0.0	70.53001689481334	
7.0	48.298505124437725	pulse	1.0	t		31.0	female	west_asian	2.364902506963788	smiling	006	sub-02	1.0	5.0	006_smiling	0.0	71.23000159077401	
7.0	48.99861901425629	pulse	1.0	t		31.0	female	west_asian	2.364902506963788	smiling	006	sub-02	1.0	5.0	006_smiling	0.0	71.93011548059258	
7.0	49.69859254159019	pulse	1.0	t		31.0	female	west_asian	2.364902506963788	smiling	006	sub-02	1.0	5.0	006_smiling	0.0	72.63008900792647	
8.0	50.01494905747313	face	0.0		146	26.0	female	white	4.854755272582572	neutral	027	sub-02	1.0	5.0	027_neutral	0.0	72.94644552380942	1.241612134080242
8.0	50.398521998121396	pulse	0.0	t		26.0	female	white	4.854755272582572	neutral	027	sub-02	1.0	5.0	027_neutral	0.0	73.33001846445768	
8.0	51.0984336452193	pulse	0.0	t		26.0	female	white	4.854755272582572	neutral	027	sub-02	1.0	5.0	027_neutral	0.0	74.02993011155559	
8.0	51.256561191553374	fix	1.0		444	26.0	female	white	4.854755272582572	neutral	027	sub-02	1.0	5.0	027_neutral	0.0	74.18805765788966	3.7666173335292115
8.0	51.79844430069443	pulse	1.0	t		26.0	female	white	4.854755272582572	neutral	027	sub-02	1.0	5.0	027_neutral	0.0	74.72994076703071	
8.0	52.49857267954394	pulse	1.0	t		26.0	female	white	4.854755272582572	neutral	027	sub-02	1.0	5.0	027_neutral	0.0	75.43006914588022	
8.0	53.19846440422407	pulse	1.0	t		26.0	female	white	4.854755272582572	neutral	027	sub-02	1.0	5.0	027_neutral	0.0	76.12996087056035	
8.0	53.89847717268276	pulse	1.0	t		26.0	female	white	4.854755272582572	neutral	027	sub-02	1.0	5.0	027_neutral	0.0	76.82997363901904	
8.0	54.5984956763823	pulse	1.0	t		26.0	female	white	4.854755272582572	neutral	027	sub-02	1.0	5.0	027_neutral	0.0	77.52999214271858	
9.0	55.023178525082585	face	0.0		145	26.0	female	white	4.854755272582572	smiling	027	sub-02	1.0	5.0	027_smiling	0.0	77.95467499141887	1.2332791302724218
9.0	55.29846377032936	pulse	0.0	t		26.0	female	white	4.854755272582572	smiling	027	sub-02	1.0	5.0	027_smiling	0.0	78.22996023666565	
9.0	55.9984708035463	pulse	0.0	t		26.0	female	white	4.854755272582572	smiling	027	sub-02	1.0	5.0	027_smiling	0.0	78.92996726988258	
9.0	56.25645765535501	fix	1.0		444	26.0	female	white	4.854755272582572	smiling	027	sub-02	1.0	5.0	027_smiling	0.0	79.18795412169129	3.7582870464138978
9.0	56.69845006612104	pulse	1.0	t		26.0	female	white	4.854755272582572	smiling	027	sub-02	1.0	5.0	027_smiling	0.0	79.62994653245732	
9.0	57.398432950953065	pulse	1.0	t		26.0	female	white	4.854755272582572	smiling	027	sub-02	1.0	5.0	027_smiling	0.0	80.32992941728935	
9.0	58.09842941925217	pulse	1.0	t		26.0	female	white	4.854755272582572	smiling	027	sub-02	1.0	5.0	027_smiling	0.0	81.02992588558845	
9.0	58.798264395229126	pulse	1.0	t		26.0	female	white	4.854755272582572	smiling	027	sub-02	1.0	5.0	027_smiling	0.0	81.72976086156541	
9.0	59.49825271344798	pulse	1.0	t		26.0	female	white	4.854755272582572	smiling	027	sub-02	1.0	5.0	027_smiling	0.0	82.42974917978427	
10.0	60.014744701768905	face	0.0		146	36.0	female	white	2.7548746518105847	smiling	011	sub-02	1.0	5.0	011_smiling	0.0	82.94624116810519	1.2416115303703918
10.0	60.19829928964464	pulse	0.0	t		36.0	female	white	2.7548746518105847	smiling	011	sub-02	1.0	5.0	011_smiling	0.0	83.12979575598092	
10.0	60.898199164405014	pulse	0.0	t		36.0	female	white	2.7548746518105847	smiling	011	sub-02	1.0	5.0	011_smiling	0.0	83.8296956307413	
10.0	61.2563562321393	fix	1.0		444	36.0	female	white	2.7548746518105847	smiling	011	sub-02	1.0	5.0	011_smiling	0.0	84.18785269847558	3.766600429659775
10.0	61.59834384341411	pulse	1.0	t		36.0	female	white	2.7548746518105847	smiling	011	sub-02	1.0	5.0	011_smiling	0.0	84.5298403097504	
10.0	62.298367780500485	pulse	1.0	t		36.0	female	white	2.7548746518105847	smiling	011	sub-02	1.0	5.0	011_smiling	0.0	85.22986424683677	
10.0	62.9982453180055	pulse	1.0	t		36.0	female	white	2.7548746518105847	smiling	011	sub-02	1.0	5.0	011_smiling	0.0	85.92974178434179	
10.0	63.69824450299711	pulse	1.0	t		36.0	female	white	2.7548746518105847	smiling	011	sub-02	1.0	5.0	011_smiling	0.0	86.6297409693334	
10.0	64.39832247209415	pulse	1.0	t		36.0	female	white	2.7548746518105847	smiling	011	sub-02	1.0	5.0	011_smiling	0.0	87.32981893843044	
11.0	65.02295666179907	face	0.0		145	26.0	male	white	2.7966573816155993	neutral	117	sub-02	1.0	5.0	117_neutral	0.0	87.95445312813536	1.2333413123624268
11.0	65.09811126428576	pulse	0.0	t		26.0	male	white	2.7966573816155993	neutral	117	sub-02	1.0	5.0	117_neutral	0.0	88.02960773062205	
11.0	65.79820613725133	pulse	0.0	t		26.0	male	white	2.7966573816155993	neutral	117	sub-02	1.0	5.0	117_neutral	0.0	88.72970260358761	
11.0	66.2562979741615	fix	1.0		444	26.0	male	white	2.7966573816155993	neutral	117	sub-02	1.0	5.0	117_neutral	0.0	89.18779444049778	3.766554245874431
11.0	66.49807401540238	pulse	1.0	t		26.0	male	white	2.7966573816155993	neutral	117	sub-02	1.0	5.0	117_neutral	0.0	89.42957048173866	
11.0	67.19809010426343	pulse	1.0	t		26.0	male	white	2.7966573816155993	neutral	117	sub-02	1.0	5.0	117_neutral	0.0	90.12958657059971	
11.0	67.89803918135749	pulse	1.0	t		26.0	male	white	2.7966573816155993	neutral	117	sub-02	1.0	5.0	117_neutral	0.0	90.82953564769377	
11.0	68.59802116062565	pulse	1.0	t		26.0	male	white	2.7966573816155993	neutral	117	sub-02	1.0	5.0	117_neutral	0.0	91.52951762696193	
11.0	69.29800163061918	pulse	1.0	t		26.0	male	white	2.7966573816155993	neutral	117	sub-02	1.0	5.0	117_neutral	0.0	92.22949809695547	
11.0	69.99797938392021	pulse	1.0	t		26.0	male	white	2.7966573816155993	neutral	117	sub-02	1.0	5.0	117_neutral	0.0	92.9294758502565	
12.0	70.02285222003593	face	0.0		146	24.0	female	black	3.0955033824114606	smiling	099	sub-02	1.0	5.0	099_smiling	0.0	92.95434868637221	1.2332948267221582
12.0	70.69799547278126	pulse	0.0	t		24.0	female	black	3.0955033824114606	smiling	099	sub-02	1.0	5.0	099_smiling	0.0	93.62949193911754	
12.0	71.25614704675809	fix	1.0		443	24.0	female	black	3.0955033824114606	smiling	099	sub-02	1.0	5.0	099_smiling	0.0	94.18764351309437	3.766599825950834
12.0	71.39796507600204	pulse	1.0	t		24.0	female	black	3.0955033824114606	smiling	099	sub-02	1.0	5.0	099_smiling	0.0	94.32946154233832	
12.0	72.0979470552702	pulse	1.0	t		24.0	female	black	3.0955033824114606	smiling	099	sub-02	1.0	5.0	099_smiling	0.0	95.02944352160648	
12.0	72.79792661969987	pulse	1.0	t		24.0	female	black	3.0955033824114606	smiling	099	sub-02	1.0	5.0	099_smiling	0.0	95.72942308603615	
12.0	73.49792067316048	pulse	1.0	t		24.0	female	black	3.0955033824114606	smiling	099	sub-02	1.0	5.0	099_smiling	0.0	96.42941713949676	
12.0	74.19790023758924	pulse	1.0	t		24.0	female	black	3.0955033824114606	smiling	099	sub-02	1.0	5.0	099_smiling	0.0	97.12939670392552	
12.0	74.89787467048791	pulse	1.0	t		24.0	female	black	3.0955033824114606	smiling	099	sub-02	1.0	5.0	099_smiling	0.0	97.8293711368242	
13.0	75.02274687270892	face	0.0		146	27.0	female	white	3.504576203740549	smiling	144	sub-02	1.0	5.0	144_smiling	0.0	97.9542433390452	1.2332948267212487
13.0	75.59786147943214	pulse	0.0	t		27.0	female	white	3.504576203740549	smiling	144	sub-02	1.0	5.0	144_smiling	0.0	98.52935794576842	
13.0	76.25604169943017	fix	1.0		443	27.0	female	white	3.504576203740549	smiling	144	sub-02	1.0	5.0	144_smiling	0.0	99.18753816576645	3.7666161261104207
13.0	76.2978549291829	pulse	1.0	t		27.0	female	white	3.504576203740549	smiling	144	sub-02	1.0	5.0	144_smiling	0.0	99.22935139551919	
13.0	76.99784324740176	pulse	1.0	t		27.0	female	white	3.504576203740549	smiling	144	sub-02	1.0	5.0	144_smiling	0.0	99.92933971373805	
13.0	77.69781828400937	pulse	1.0	t		27.0	female	white	3.504576203740549	smiling	144	sub-02	1.0	5.0	144_smiling	0.0	100.62931475034566	
13.0	78.39781022448642	pulse	1.0	t		27.0	female	white	3.504576203740549	smiling	144	sub-02	1.0	5.0	144_smiling	0.0	101.3293066908227	
13.0	79.0977873740776	pulse	1.0	t		27.0	female	white	3.504576203740549	smiling	144	sub-02	1.0	5.0	144_smiling	0.0	102.02928384041388	
13.0	79.79777418302183	pulse	1.0	t		27.0	female	white	3.504576203740549	smiling	144	sub-02	1.0	5.0	144_smiling	0.0	102.72927064935811	
14.0	80.02265782554059	face	0.0		145	24.0	male	white	3.1153999204138483	smiling	012	sub-02	1.0	5.0	012_smiling	0.0	102.95415429187688	1.233322899218365
14.0	80.49774650293602	pulse	0.0	t		24.0	male	white	3.1153999204138483	smiling	012	sub-02	1.0	5.0	012_smiling	0.0	103.42924296927231	
14.0	81.19775051760553	pulse	0.0	t		24.0	male	white	3.1153999204138483	smiling	012	sub-02	1.0	5.0	012_smiling	0.0	104.12924698394181	
14.0	81.25598072475896	fix	1.0		444	24.0	male	white	3.1153999204138483	smiling	012	sub-02	1.0	5.0	012_smiling	0.0	104.18747719109524	3.7665521328908653
14.0	81.89772947832535	pulse	1.0	t		24.0	male	white	3.1153999204138483	smiling	012	sub-02	1.0	5.0	012_smiling	0.0	104.82922594466163	
14.0	82.59772111694747	pulse	1.0	t		24.0	male	white	3.1153999204138483	smiling	012	sub-02	1.0	5.0	012_smiling	0.0	105.52921758328375	
14.0	83.29770007766729	pulse	1.0	t		24.0	male	white	3.1153999204138483	smiling	012	sub-02	1.0	5.0	012_smiling	0.0	106.22919654400357	
14.0	83.9976814532256	pulse	1.0	t		24.0	male	white	3.1153999204138483	smiling	012	sub-02	1.0	5.0	012_smiling	0.0	106.92917791956188	
14.0	84.69767097886324	pulse	1.0	t		24.0	male	white	3.1153999204138483	smiling	012	sub-02	1.0	5.0	012_smiling	0.0	107.62916744519953	
15.0	85.02253285764982	face	0.0		145	36.0	female	white	2.7548746518105847	neutral	011	sub-02	1.0	5.0	011_neutral	0.0	107.9540293239861	1.2333582162318635
15.0	85.39763092273097	pulse	0.0	t		36.0	female	white	2.7548746518105847	neutral	011	sub-02	1.0	5.0	011_neutral	0.0	108.32912738906725	
15.0	86.09764308747981	pulse	0.0	t		36.0	female	white	2.7548746518105847	neutral	011	sub-02	1.0	5.0	011_neutral	0.0	109.0291395538161	
15.0	86.25589107388168	fix	1.0		444	36.0	female	white	2.7548746518105847	neutral	011	sub-02	1.0	5.0	011_neutral	0.0	109.18738754021797	3.7665415679721264
15.0	86.7976356316658	pulse	1.0	t		36.0	female	white	2.7548746518105847	neutral	011	sub-02	1.0	5.0	011_neutral	0.0	109.72913209800208	
15.0	87.49762002577245	pulse	1.0	t		36.0	female	white	2.7548746518105847	neutral	011	sub-02	1.0	5.0	011_neutral	0.0	110.42911649210873	
15.0	88.1976032124594	pulse	1.0	t		36.0	female	white	2.7548746518105847	neutral	011	sub-02	1.0	5.0	011_neutral	0.0	111.12909967879568	
15.0	88.89763620518988	pulse	1.0	t		36.0	female	white	2.7548746518105847	neutral	011	sub-02	1.0	5.0	011_neutral	0.0	111.82913267152617	
15.0	89.59756837841451	pulse	1.0	t		36.0	female	white	2.7548746518105847	neutral	011	sub-02	1.0	5.0	011_neutral	0.0	112.52906484475079	
16.0	90.02243264185381	face	0.0		145	19.0	male	white	2.243931555909272	neutral	130	sub-02	1.0	5.0	130_neutral	0.0	112.9539291081901	1.2333361808305199
16.0	90.29756062074648	pulse	0.0	t		19.0	male	white	2.243931555909272	neutral	130	sub-02	1.0	5.0	130_neutral	0.0	113.22905708708277	
16.0	90.99755407049634	pulse	0.0	t		19.0	male	white	2.243931555909272	neutral	130	sub-02	1.0	5.0	130_neutral	0.0	113.92905053683262	
16.0	91.25576882268433	fix	1.0		444	19.0	male	white	2.243931555909272	neutral	130	sub-02	1.0	5.0	130_neutral	0.0	114.18726528902062	3.7665560570039816
16.0	91.69756442411654	pulse	1.0	t		19.0	male	white	2.243931555909272	neutral	130	sub-02	1.0	5.0	130_neutral	0.0	114.62906089045282	
16.0	92.39753946072415	pulse	1.0	t		19.0	male	white	2.243931555909272	neutral	130	sub-02	1.0	5.0	130_neutral	0.0	115.32903592706043	
16.0	93.09751691217025	pulse	1.0	t		19.0	male	white	2.243931555909272	neutral	130	sub-02	1.0	5.0	130_neutral	0.0	116.02901337850653	
16.0	93.79750372111448	pulse	1.0	t		19.0	male	white	2.243931555909272	neutral	130	sub-02	1.0	5.0	130_neutral	0.0	116.72900018745077	
16.0	94.49748932264083	pulse	1.0	t		19.0	male	white	2.243931555909272	neutral	130	sub-02	1.0	5.0	130_neutral	0.0	117.42898578897712	
17.0	95.02232487968831	face	0.0		145	25.0	female	west_asian	2.6756864305610826	smiling	064	sub-02	1.0	5.0	064_smiling	0.0	117.9538213460246	1.233293921157383
17.0	95.19745590731327	pulse	0.0	t		25.0	female	west_asian	2.6756864305610826	smiling	064	sub-02	1.0	5.0	064_smiling	0.0	118.12895237364955	
17.0	95.89744664037062	pulse	0.0	t		25.0	female	west_asian	2.6756864305610826	smiling	064	sub-02	1.0	5.0	064_smiling	0.0	118.8289431067069	
17.0	96.2556188008457	fix	1.0		444	25.0	female	west_asian	2.6756864305610826	smiling	064	sub-02	1.0	5.0	064_smiling	0.0	119.18711526718198	3.758367037937205
17.0	96.59743616600917	pulse	1.0	t		25.0	female	west_asian	2.6756864305610826	smiling	064	sub-02	1.0	5.0	064_smiling	0.0	119.52893263234546	
17.0	97.29740727850367	pulse	1.0	t		25.0	female	west_asian	2.6756864305610826	smiling	064	sub-02	1.0	5.0	064_smiling	0.0	120.22890374483995	
17.0	97.9974115950281	pulse	1.0	t		25.0	female	west_asian	2.6756864305610826	smiling	064	sub-02	1.0	5.0	064_smiling	0.0	120.92890806136438	
17.0	98.69738089639395	pulse	1.0	t		25.0	female	west_asian	2.6756864305610826	smiling	064	sub-02	1.0	5.0	064_smiling	0.0	121.62887736273024	
17.0	99.39736589420954	pulse	1.0	t		25.0	female	west_asian	2.6756864305610826	smiling	064	sub-02	1.0	5.0	064_smiling	0.0	122.32886236054583	
18.0	100.0139858387829	face	0.0		146	31.0	female	white	2.1822522881018704	smiling	102	sub-02	1.0	5.0	102_smiling	0.0	122.94548230511919	1.2414904865936478
18.0	100.09733459186646	pulse	0.0	t		31.0	female	white	2.1822522881018704	smiling	102	sub-02	1.0	5.0	102_smiling	0.0	123.02883105820274	
18.0	100.79729423387835	pulse	0.0	t		31.0	female	white	2.1822522881018704	smiling	102	sub-02	1.0	5.0	102_smiling	0.0	123.72879070021463	
18.0	101.25547632537655	fix	1.0		444	31.0	female	white	2.1822522881018704	smiling	102	sub-02	1.0	5.0	102_smiling	0.0	124.18697279171283	3.7666466134451184
18.0	101.49736375104112	pulse	1.0	t		31.0	female	white	2.1822522881018704	smiling	102	sub-02	1.0	5.0	102_smiling	0.0	124.4288602173774	
18.0	102.19731373369905	pulse	1.0	t		31.0	female	white	2.1822522881018704	smiling	102	sub-02	1.0	5.0	102_smiling	0.0	125.12881020003533	
18.0	102.89729269441887	pulse	1.0	t		31.0	female	white	2.1822522881018704	smiling	102	sub-02	1.0	5.0	102_smiling	0.0	125.82878916075515	
18.0	103.59727406997717	pulse	1.0	t		31.0	female	white	2.1822522881018704	smiling	102	sub-02	1.0	5.0	102_smiling	0.0	126.52877053631346	
18.0	104.29726178448709	pulse	1.0	t		31.0	female	white	2.1822522881018704	smiling	102	sub-02	1.0	5.0	102_smiling	0.0	127.22875825082338	
18.0	104.99724798972238	pulse	1.0	t		31.0	female	white	2.1822522881018704	smiling	102	sub-02	1.0	5.0	102_smiling	0.0	127.92874445605867	
19.0	105.02212293882167	face	0.0		146	26.0	male	white	2.7966573816155993	smiling	117	sub-02	1.0	5.0	117_smiling	0.0	127.95361940515795	1.2333271251864062
19.0	105.69723389310275	pulse	0.0	t		26.0	male	white	2.7966573816155993	smiling	117	sub-02	1.0	5.0	117_smiling	0.0	128.62873035943903	
19.0	106.25545006400807	fix	1.0		443	26.0	male	white	2.7966573816155993	smiling	117	sub-02	1.0	5.0	117_smiling	0.0	129.18694653034436	3.7583317209255256
19.0	106.39722251317653	pulse	1.0	t		26.0	male	white	2.7966573816155993	smiling	117	sub-02	1.0	5.0	117_smiling	0.0	129.32871897951281	
19.0	107.09721747220101	pulse	1.0	t		26.0	male	white	2.7966573816155993	smiling	117	sub-02	1.0	5.0	117_smiling	0.0	130.0287139385373	
19.0	107.79719009397013	pulse	1.0	t		26.0	male	white	2.7966573816155993	smiling	117	sub-02	1.0	5.0	117_smiling	0.0	130.72868656030641	
19.0	108.49717901589884	pulse	1.0	t		26.0	male	white	2.7966573816155993	smiling	117	sub-02	1.0	5.0	117_smiling	0.0	131.42867548223512	
19.0	109.197160995167	pulse	1.0	t		26.0	male	white	2.7966573816155993	smiling	117	sub-02	1.0	5.0	117_smiling	0.0	132.12865746150328	
19.0	109.89715414306283	pulse	1.0	t		26.0	male	white	2.7966573816155993	smiling	117	sub-02	1.0	5.0	117_smiling	0.0	132.82865060939912	
20.0	110.0137817849336	face	0.0		147	40.0	male	black	2.408674890569041	smiling	061	sub-02	1.0	5.0	061_smiling	1.0	132.94527825126988	1.241571685535746
20.0	110.59713582047607	pulse	0.0	t		40.0	male	black	2.408674890569041	smiling	061	sub-02	1.0	5.0	061_smiling	1.0	133.52863228681235	
20.0	111.25535347046934	fix	1.0		236	40.0	male	black	2.408674890569041	smiling	061	sub-02	1.0	5.0	061_smiling	1.0	134.18684993680563	1.9999616644399794
20.0	111.29713198691934	pulse	1.0	t		40.0	male	black	2.408674890569041	smiling	061	sub-02	1.0	5.0	061_smiling	1.0	134.22862845325562	
20.0	111.99713751086256	pulse	1.0	t		40.0	male	black	2.408674890569041	smiling	061	sub-02	1.0	5.0	061_smiling	1.0	134.92863397719884	
20.0	112.69708809723124	pulse	1.0	t		40.0	male	black	2.408674890569041	smiling	061	sub-02	1.0	5.0	061_smiling	1.0	135.62858456356753	
20.0	113.25531513490932	rating	2.0		235	40.0	male	black	2.408674890569041	smiling	061	sub-02	1.0	5.0	061_smiling	1.0	136.1868116012456	1.9999532125048063
20.0	113.39709996012516	pulse	2.0	t		40.0	male	black	2.408674890569041	smiling	061	sub-02	1.0	5.0	061_smiling	1.0	136.32859642646144	
20.0	114.09706292254032	pulse	2.0	t		40.0	male	black	2.408674890569041	smiling	061	sub-02	1.0	5.0	061_smiling	1.0	137.0285593888766	
20.0	114.33038642546853	response	2.0	e		40.0	male	black	2.408674890569041	smiling	061	sub-02	1.0	5.0	061_smiling	1.0	137.26188289180482	
20.0	114.79703946842164	pulse	2.0	t		40.0	male	black	2.408674890569041	smiling	061	sub-02	1.0	5.0	061_smiling	1.0	137.72853593475793	
20.0	115.25526834741413	fix	3.0		444	40.0	male	black	2.408674890569041	smiling	061	sub-02	1.0	5.0	061_smiling	1.0	138.18676481375041	3.7665777905494906
20.0	115.49705495357284	pulse	3.0	t		40.0	male	black	2.408674890569041	smiling	061	sub-02	1.0	5.0	061_smiling	1.0	138.42855141990913	
20.0	116.19701519929458	pulse	3.0	t		40.0	male	black	2.408674890569041	smiling	061	sub-02	1.0	5.0	061_smiling	1.0	139.12851166563087	
20.0	116.89699898969138	pulse	3.0	t		40.0	male	black	2.408674890569041	smiling	061	sub-02	1.0	5.0	061_smiling	1.0	139.82849545602767	
20.0	117.5969867042013	pulse	3.0	t		40.0	male	black	2.408674890569041	smiling	061	sub-02	1.0	5.0	061_smiling	1.0	140.52848317053758	
20.0	118.2969578166958	pulse	3.0	t		40.0	male	black	2.408674890569041	smiling	061	sub-02	1.0	5.0	061_smiling	1.0	141.22845428303208	
20.0	118.99694734233435	pulse	3.0	t		40.0	male	black	2.408674890569041	smiling	061	sub-02	1.0	5.0	061_smiling	1.0	141.92844380867064	
21.0	119.02184613796362	face	0.0		146	22.0	male	black	2.767608436132113	neutral	044	sub-02	1.0	5.0	044_neutral	0.0	141.9533426042999	1.2332697727724735
21.0	119.69692056781241	pulse	0.0	t		22.0	male	black	2.767608436132113	neutral	044	sub-02	1.0	5.0	044_neutral	0.0	142.6284170341487	
21.0	120.2551159107361	fix	1.0		443	22.0	male	black	2.767608436132113	neutral	044	sub-02	1.0	5.0	044_neutral	0.0	143.18661237707238	3.7666269928831753
21.0	120.39692911030397	pulse	1.0	t		22.0	male	black	2.767608436132113	neutral	044	sub-02	1.0	5.0	044_neutral	0.0	143.32842557664026	
21.0	121.0969246730383	pulse	1.0	t		22.0	male	black	2.767608436132113	neutral	044	sub-02	1.0	5.0	044_neutral	0.0	144.0284211393746	
21.0	121.79691118012852	pulse	1.0	t		22.0	male	black	2.767608436132113	neutral	044	sub-02	1.0	5.0	044_neutral	0.0	144.7284076464648	
21.0	122.49688682044507	pulse	1.0	t		22.0	male	black	2.767608436132113	neutral	044	sub-02	1.0	5.0	044_neutral	0.0	145.42838328678135	
21.0	123.19687332753529	pulse	1.0	t		22.0	male	black	2.767608436132113	neutral	044	sub-02	1.0	5.0	044_neutral	0.0	146.12836979387157	
21.0	123.89685440123867	pulse	1.0	t		22.0	male	black	2.767608436132113	neutral	044	sub-02	1.0	5.0	044_neutral	0.0	146.82835086757495	
22.0	124.02174290361927	face	0.0		146	22.0	female	west_asian	3.8205332272184642	neutral	066	sub-02	1.0	5.0	066_neutral	0.0	146.95323936995555	1.2334605450114395
22.0	124.59680287462379	pulse	0.0	t		22.0	female	west_asian	3.8205332272184642	neutral	066	sub-02	1.0	5.0	066_neutral	0.0	147.52829934096007	
22.0	125.25520344863071	fix	1.0		443	22.0	female	west_asian	3.8205332272184642	neutral	066	sub-02	1.0	5.0	066_neutral	0.0	148.186699914967	3.7664344095155684
22.0	125.29682017090363	pulse	1.0	t		22.0	female	west_asian	3.8205332272184642	neutral	066	sub-02	1.0	5.0	066_neutral	0.0	148.2283166372399	
22.0	125.99684380613508	pulse	1.0	t		22.0	female	west_asian	3.8205332272184642	neutral	066	sub-02	1.0	5.0	066_neutral	0.0	148.92834027247136	
22.0	126.6967974110512	pulse	1.0	t		22.0	female	west_asian	3.8205332272184642	neutral	066	sub-02	1.0	5.0	066_neutral	0.0	149.62829387738748	
22.0	127.39678482370618	pulse	1.0	t		22.0	female	west_asian	3.8205332272184642	neutral	066	sub-02	1.0	5.0	066_neutral	0.0	150.32828129004247	
22.0	128.09676529369972	pulse	1.0	t		22.0	female	west_asian	3.8205332272184642	neutral	066	sub-02	1.0	5.0	066_neutral	0.0	151.028261760036	
22.0	128.79675089522607	pulse	1.0	t		22.0	female	west_asian	3.8205332272184642	neutral	066	sub-02	1.0	5.0	066_neutral	0.0	151.72824736156235	
23.0	129.02163785814628	face	0.0		145	22.0	male	black	2.767608436132113	smiling	044	sub-02	1.0	5.0	044_smiling	1.0	151.95313432448256	1.2333186732521426
23.0	129.49675098578246	pulse	0.0	t		22.0	male	black	2.767608436132113	smiling	044	sub-02	1.0	5.0	044_smiling	1.0	152.42824745211874	
23.0	130.1967227019868	pulse	0.0	t		22.0	male	black	2.767608436132113	smiling	044	sub-02	1.0	5.0	044_smiling	1.0	153.12821916832308	
23.0	130.25495653139842	fix	1.0		237	22.0	male	black	2.767608436132113	smiling	044	sub-02	1.0	5.0	044_smiling	1.0	153.1864529977347	1.9999453642794833
23.0	130.896714038754	pulse	1.0	t		22.0	male	black	2.767608436132113	smiling	044	sub-02	1.0	5.0	044_smiling	1.0	153.82821050509028	
23.0	131.59669692358602	pulse	1.0	t		22.0	male	black	2.767608436132113	smiling	044	sub-02	1.0	5.0	044_smiling	1.0	154.5281933899223	
23.0	132.2549018956779	rating	2.0		235	22.0	male	black	2.767608436132113	smiling	044	sub-02	1.0	5.0	044_smiling	1.0	155.1863983620142	1.999970720084093
23.0	132.2967108994635	pulse	2.0	t		22.0	male	black	2.767608436132113	smiling	044	sub-02	1.0	5.0	044_smiling	1.0	155.2282073657998	
23.0	132.9966732581688	pulse	2.0	t		22.0	male	black	2.767608436132113	smiling	044	sub-02	1.0	5.0	044_smiling	1.0	155.9281697245051	
23.0	133.313329214021	response	2.0	e		22.0	male	black	2.767608436132113	smiling	044	sub-02	1.0	5.0	044_smiling	1.0	156.24482568035728	
23.0	133.6966416539708	pulse	2.0	t		22.0	male	black	2.767608436132113	smiling	044	sub-02	1.0	5.0	044_smiling	1.0	156.62813812030709	
23.0	134.254872615762	fix	3.0		1184	22.0	male	black	2.767608436132113	smiling	044	sub-02	1.0	5.0	044_smiling	1.0	157.18636908209828	10.016444446187961
23.0	134.39663902783377	pulse	3.0	t		22.0	male	black	2.767608436132113	smiling	044	sub-02	1.0	5.0	044_smiling	1.0	157.32813549417006	
23.0	135.0966128570226	pulse	3.0	t		22.0	male	black	2.767608436132113	smiling	044	sub-02	1.0	5.0	044_smiling	1.0	158.02810932335888	
23.0	135.7966108345954	pulse	3.0	t		22.0	male	black	2.767608436132113	smiling	044	sub-02	1.0	5.0	044_smiling	1.0	158.7281073009317	
23.0	136.4966263197466	pulse	3.0	t		22.0	male	black	2.767608436132113	smiling	044	sub-02	1.0	5.0	044_smiling	1.0	159.4281227860829	
23.0	137.19660407304764	pulse	3.0	t		22.0	male	black	2.767608436132113	smiling	044	sub-02	1.0	5.0	044_smiling	1.0	160.12810053938392	
23.0	137.89658182634776	pulse	3.0	t		22.0	male	black	2.767608436132113	smiling	044	sub-02	1.0	5.0	044_smiling	1.0	160.82807829268404	
23.0	138.59656893714782	pulse	3.0	t		22.0	male	black	2.767608436132113	smiling	044	sub-02	1.0	5.0	044_smiling	1.0	161.5280654034841	
23.0	139.2965361255301	pulse	3.0	t		22.0	male	black	2.767608436132113	smiling	044	sub-02	1.0	5.0	044_smiling	1.0	162.2280325918664	
23.0	139.99653591423157	pulse	3.0	t		22.0	male	black	2.767608436132113	smiling	044	sub-02	1.0	5.0	044_smiling	1.0	162.92803238056786	
23.0	140.69652151575792	pulse	3.0	t		22.0	male	black	2.767608436132113	smiling	044	sub-02	1.0	5.0	044_smiling	1.0	163.6280179820942	
23.0	141.39649051526885	pulse	3.0	t		22.0	male	black	2.767608436132113	smiling	044	sub-02	1.0	5.0	044_smiling	1.0	164.32798698160514	
23.0	142.0964737019558	pulse	3.0	t		22.0	male	black	2.767608436132113	smiling	044	sub-02	1.0	5.0	044_smiling	1.0	165.0279701682921	
23.0	142.7964713776746	pulse	3.0	t		22.0	male	black	2.767608436132113	smiling	044	sub-02	1.0	5.0	044_smiling	1.0	165.7279678440109	
23.0	143.49646935524652	pulse	3.0	t		22.0	male	black	2.767608436132113	smiling	044	sub-02	1.0	5.0	044_smiling	1.0	166.4279658215828	
23.0	144.19642960096917	pulse	3.0	t		22.0	male	black	2.767608436132113	smiling	044	sub-02	1.0	5.0	044_smiling	1.0	167.12792606730545	
24.0	144.27131706194996	face	0.0		146	20.0	male	black	2.609629924393156	smiling	043	sub-02	1.0	5.0	043_smiling	0.0	167.20281352828624	1.2333062972047628
24.0	144.89641852289697	pulse	0.0	t		20.0	male	black	2.609629924393156	smiling	043	sub-02	1.0	5.0	043_smiling	0.0	167.82791498923325	
24.0	145.50462335915472	fix	1.0		443	20.0	male	black	2.609629924393156	smiling	043	sub-02	1.0	5.0	043_smiling	0.0	168.436119825491	3.758357378584151
24.0	145.59641257635758	pulse	1.0	t		20.0	male	black	2.609629924393156	smiling	043	sub-02	1.0	5.0	043_smiling	0.0	168.52790904269386	
24.0	146.2964232318327	pulse	1.0	t		20.0	male	black	2.609629924393156	smiling	043	sub-02	1.0	5.0	043_smiling	0.0	169.227919698169	
24.0	146.9963828738446	pulse	1.0	t		20.0	male	black	2.609629924393156	smiling	043	sub-02	1.0	5.0	043_smiling	0.0	169.92787934018088	
24.0	147.6963630419841	pulse	1.0	t		20.0	male	black	2.609629924393156	smiling	043	sub-02	1.0	5.0	043_smiling	0.0	170.6278595083204	
24.0	148.39634713423584	pulse	1.0	t		20.0	male	black	2.609629924393156	smiling	043	sub-02	1.0	5.0	043_smiling	0.0	171.32784360057212	
24.0	149.09633605616364	pulse	1.0	t		20.0	male	black	2.609629924393156	smiling	043	sub-02	1.0	5.0	043_smiling	0.0	172.02783252249992	
25.0	149.26298073773887	face	0.0		147	40.0	male	black	2.408674890569041	neutral	061	sub-02	1.0	5.0	061_neutral	0.0	172.19447720407516	1.249896237410212
25.0	149.7963307133341	pulse	0.0	t		40.0	male	black	2.408674890569041	neutral	061	sub-02	1.0	5.0	061_neutral	0.0	172.72782717967038	
25.0	150.4963196352628	pulse	0.0	t		40.0	male	black	2.408674890569041	neutral	061	sub-02	1.0	5.0	061_neutral	0.0	173.4278161015991	
25.0	150.51287697514908	fix	1.0		443	40.0	male	black	2.408674890569041	neutral	061	sub-02	1.0	5.0	061_neutral	0.0	173.44437344148537	3.7581989048103424
25.0	151.1962931625958	pulse	1.0	t		40.0	male	black	2.408674890569041	neutral	061	sub-02	1.0	5.0	061_neutral	0.0	174.12778962893208	
25.0	151.89626910476818	pulse	1.0	t		40.0	male	black	2.408674890569041	neutral	061	sub-02	1.0	5.0	061_neutral	0.0	174.82776557110446	
25.0	152.59627070459828	pulse	1.0	t		40.0	male	black	2.408674890569041	neutral	061	sub-02	1.0	5.0	061_neutral	0.0	175.52776717093457	
25.0	153.29627139886452	pulse	1.0	t		40.0	male	black	2.408674890569041	neutral	061	sub-02	1.0	5.0	061_neutral	0.0	176.2277678652008	
25.0	153.99624673732706	pulse	1.0	t		40.0	male	black	2.408674890569041	neutral	061	sub-02	1.0	5.0	061_neutral	0.0	176.92774320366334	
26.0	154.27107587995943	face	0.0		145	27.0	female	white	4.181058495821727	smiling	039	sub-02	1.0	5.0	039_smiling	0.0	177.2025723462957	1.2333416142164424
26.0	154.69623203699757	pulse	0.0	t		27.0	female	white	4.181058495821727	smiling	039	sub-02	1.0	5.0	039_smiling	0.0	177.62772850333386	
26.0	155.39621643110422	pulse	0.0	t		27.0	female	white	4.181058495821727	smiling	039	sub-02	1.0	5.0	039_smiling	0.0	178.3277128974405	
26.0	155.50441749417587	fix	1.0		444	27.0	female	white	4.181058495821727	smiling	039	sub-02	1.0	5.0	039_smiling	0.0	178.43591396051215	3.758238447790063
26.0	156.09620535303293	pulse	1.0	t		27.0	female	white	4.181058495821727	smiling	039	sub-02	1.0	5.0	039_smiling	0.0	179.0277018193692	
26.0	156.79618159705933	pulse	1.0	t		27.0	female	white	4.181058495821727	smiling	039	sub-02	1.0	5.0	039_smiling	0.0	179.72767806339562	
26.0	157.4961765560838	pulse	1.0	t		27.0	female	white	4.181058495821727	smiling	039	sub-02	1.0	5.0	039_smiling	0.0	180.4276730224201	
26.0	158.19614042406374	pulse	1.0	t		27.0	female	white	4.181058495821727	smiling	039	sub-02	1.0	5.0	039_smiling	0.0	181.12763689040003	
26.0	158.8961377979267	pulse	1.0	t		27.0	female	white	4.181058495821727	smiling	039	sub-02	1.0	5.0	039_smiling	0.0	181.827634264263	
27.0	159.26265594196593	face	0.0		146	31.0	male	west_asian	1.9538400318344609	neutral	070	sub-02	1.0	5.0	070_neutral	0.0	182.19415240830222	1.241660128995136
27.0	159.59612551243572	pulse	0.0	t		31.0	male	west_asian	1.9538400318344609	neutral	070	sub-02	1.0	5.0	070_neutral	0.0	182.527621978772	
27.0	160.29610960468744	pulse	0.0	t		31.0	male	west_asian	1.9538400318344609	neutral	070	sub-02	1.0	5.0	070_neutral	0.0	183.22760607102373	
27.0	160.50431607096107	fix	1.0		444	31.0	male	west_asian	1.9538400318344609	neutral	070	sub-02	1.0	5.0	070_neutral	0.0	183.43581253729735	3.7583063651218254
27.0	160.99613354177382	pulse	1.0	t		31.0	male	west_asian	1.9538400318344609	neutral	070	sub-02	1.0	5.0	070_neutral	0.0	183.9276300081101	
27.0	161.6960805058843	pulse	1.0	t		31.0	male	west_asian	1.9538400318344609	neutral	070	sub-02	1.0	5.0	070_neutral	0.0	184.6275769722206	
27.0	162.39608240756934	pulse	1.0	t		31.0	male	west_asian	1.9538400318344609	neutral	070	sub-02	1.0	5.0	070_neutral	0.0	185.32757887390562	
27.0	163.0960643868375	pulse	1.0	t		31.0	male	west_asian	1.9538400318344609	neutral	070	sub-02	1.0	5.0	070_neutral	0.0	186.02756085317378	
27.0	163.79603972530003	pulse	1.0	t		31.0	male	west_asian	1.9538400318344609	neutral	070	sub-02	1.0	5.0	070_neutral	0.0	186.72753619163632	
28.0	164.2626224360829	face	0.0		146	47.0	male	east_asian	2.171110226820533	smiling	024	sub-02	1.0	5.0	024_smiling	0.0	187.19411890241918	1.2415876838404074
28.0	164.49603981585642	pulse	0.0	t		47.0	male	east_asian	2.171110226820533	smiling	024	sub-02	1.0	5.0	024_smiling	0.0	187.4275362821927	
28.0	165.19601243762554	pulse	0.0	t		47.0	male	east_asian	2.171110226820533	smiling	024	sub-02	1.0	5.0	024_smiling	0.0	188.12750890396183	
28.0	165.5042101199233	fix	1.0		444	47.0	male	east_asian	2.171110226820533	smiling	024	sub-02	1.0	5.0	024_smiling	0.0	188.43570658625958	3.7665838276461727
28.0	165.89599622802234	pulse	1.0	t		47.0	male	east_asian	2.171110226820533	smiling	024	sub-02	1.0	5.0	024_smiling	0.0	188.82749269435863	
28.0	166.5959670386619	pulse	1.0	t		47.0	male	east_asian	2.171110226820533	smiling	024	sub-02	1.0	5.0	024_smiling	0.0	189.5274635049982	
28.0	167.2959671292183	pulse	1.0	t		47.0	male	east_asian	2.171110226820533	smiling	024	sub-02	1.0	5.0	024_smiling	0.0	190.22746359555458	
28.0	167.99592888421466	pulse	1.0	t		47.0	male	east_asian	2.171110226820533	smiling	024	sub-02	1.0	5.0	024_smiling	0.0	190.92742535055095	
28.0	168.69592686178748	pulse	1.0	t		47.0	male	east_asian	2.171110226820533	smiling	024	sub-02	1.0	5.0	024_smiling	0.0	191.62742332812377	
29.0	169.27079394756947	face	0.0		145	24.0	female	east_asian	2.9076800636689217	neutral	034	sub-02	1.0	5.0	034_neutral	0.0	192.20229041390576	1.2333189751061582
29.0	169.39593721540768	pulse	0.0	t		24.0	female	east_asian	2.9076800636689217	neutral	034	sub-02	1.0	5.0	034_neutral	0.0	192.32743368174397	
29.0	170.09592221322328	pulse	0.0	t		24.0	female	east_asian	2.9076800636689217	neutral	034	sub-02	1.0	5.0	034_neutral	0.0	193.02741867955956	
29.0	170.50411292267563	fix	1.0		444	24.0	female	east_asian	2.9076800636689217	neutral	034	sub-02	1.0	5.0	034_neutral	0.0	193.43560938901192	3.7665802053879816
29.0	170.7958924201539	pulse	1.0	t		24.0	female	east_asian	2.9076800636689217	neutral	034	sub-02	1.0	5.0	034_neutral	0.0	193.7273888864902	
29.0	171.49588285135633	pulse	1.0	t		24.0	female	east_asian	2.9076800636689217	neutral	034	sub-02	1.0	5.0	034_neutral	0.0	194.4273793176926	
29.0	172.19586966030147	pulse	1.0	t		24.0	female	east_asian	2.9076800636689217	neutral	034	sub-02	1.0	5.0	034_neutral	0.0	195.12736612663775	
29.0	172.895849828441	pulse	1.0	t		24.0	female	east_asian	2.9076800636689217	neutral	034	sub-02	1.0	5.0	034_neutral	0.0	195.82734629477727	
29.0	173.59582577061246	pulse	1.0	t		24.0	female	east_asian	2.9076800636689217	neutral	034	sub-02	1.0	5.0	034_neutral	0.0	196.52732223694875	
30.0	174.2706931280636	face	0.0		145	23.0	male	white	2.6275368085953046	smiling	141	sub-02	1.0	5.0	141_smiling	1.0	197.2021895943999	1.2333114287366698
30.0	174.29581107028298	pulse	0.0	t		23.0	male	white	2.6275368085953046	smiling	141	sub-02	1.0	5.0	141_smiling	1.0	197.22730753661926	
30.0	174.99581055713043	pulse	0.0	t		23.0	male	white	2.6275368085953046	smiling	141	sub-02	1.0	5.0	141_smiling	1.0	197.9273070234667	
30.0	175.50400455680028	fix	1.0		236	23.0	male	white	2.6275368085953046	smiling	141	sub-02	1.0	5.0	141_smiling	1.0	198.43550102313657	1.9999526087949562
30.0	175.69579495123708	pulse	1.0	t		23.0	male	white	2.6275368085953046	smiling	141	sub-02	1.0	5.0	141_smiling	1.0	198.62729141757336	
30.0	176.39577481752076	pulse	1.0	t		23.0	male	white	2.6275368085953046	smiling	141	sub-02	1.0	5.0	141_smiling	1.0	199.32727128385704	
30.0	177.09577007840016	pulse	1.0	t		23.0	male	white	2.6275368085953046	smiling	141	sub-02	1.0	5.0	141_smiling	1.0	200.02726654473645	
30.0	177.50395716559524	rating	2.0		235	23.0	male	white	2.6275368085953046	smiling	141	sub-02	1.0	5.0	141_smiling	1.0	200.43545363193152	1.9999565329080724
30.0	177.79572821113834	pulse	2.0	t		23.0	male	white	2.6275368085953046	smiling	141	sub-02	1.0	5.0	141_smiling	1.0	200.72722467747462	
30.0	178.2488409530033	response	2.0	e		23.0	male	white	2.6275368085953046	smiling	141	sub-02	1.0	5.0	141_smiling	1.0	201.1803374193396	
30.0	178.49571230339006	pulse	2.0	t		23.0	male	white	2.6275368085953046	smiling	141	sub-02	1.0	5.0	141_smiling	1.0	201.42720876972635	
30.0	179.19571752547836	pulse	2.0	t		23.0	male	white	2.6275368085953046	smiling	141	sub-02	1.0	5.0	141_smiling	1.0	202.12721399181464	
30.0	179.5039136985033	fix	3.0		444	23.0	male	white	2.6275368085953046	smiling	141	sub-02	1.0	5.0	141_smiling	1.0	202.4354101648396	3.7582553516585904
30.0	179.89570523998827	pulse	3.0	t		23.0	male	white	2.6275368085953046	smiling	141	sub-02	1.0	5.0	141_smiling	1.0	202.82720170632456	
30.0	180.5957008027226	pulse	3.0	t		23.0	male	white	2.6275368085953046	smiling	141	sub-02	1.0	5.0	141_smiling	1.0	203.5271972690589	
30.0	181.29568157457106	pulse	3.0	t		23.0	male	white	2.6275368085953046	smiling	141	sub-02	1.0	5.0	141_smiling	1.0	204.22717804090735	
30.0	181.99568196698237	pulse	3.0	t		23.0	male	white	2.6275368085953046	smiling	141	sub-02	1.0	5.0	141_smiling	1.0	204.92717843331866	
30.0	182.69564523125246	pulse	3.0	t		23.0	male	white	2.6275368085953046	smiling	141	sub-02	1.0	5.0	141_smiling	1.0	205.62714169758874	
31.0	183.2621690501619	face	0.0		146	47.0	male	east_asian	2.171110226820533	neutral	024	sub-02	1.0	5.0	024_neutral	0.0	206.19366551649819	1.2416423195618336
31.0	183.39564954777597	pulse	0.0	t		47.0	male	east_asian	2.171110226820533	neutral	024	sub-02	1.0	5.0	024_neutral	0.0	206.32714601411226	
31.0	184.09561190648128	pulse	0.0	t		47.0	male	east_asian	2.171110226820533	neutral	024	sub-02	1.0	5.0	024_neutral	0.0	207.02710837281757	
31.0	184.50381136972373	fix	1.0		444	47.0	male	east_asian	2.171110226820533	neutral	024	sub-02	1.0	5.0	024_neutral	0.0	207.43530783606002	3.7583241745551277
31.0	184.79560173397476	pulse	1.0	t		47.0	male	east_asian	2.171110226820533	neutral	024	sub-02	1.0	5.0	024_neutral	0.0	207.72709820031105	
31.0	185.4955722427594	pulse	1.0	t		47.0	male	east_asian	2.171110226820533	neutral	024	sub-02	1.0	5.0	024_neutral	0.0	208.4270687090957	
31.0	186.19557384259042	pulse	1.0	t		47.0	male	east_asian	2.171110226820533	neutral	024	sub-02	1.0	5.0	024_neutral	0.0	209.1270703089267	
31.0	186.8955675941961	pulse	1.0	t		47.0	male	east_asian	2.171110226820533	neutral	024	sub-02	1.0	5.0	024_neutral	0.0	209.8270640605324	
31.0	187.5955435363676	pulse	1.0	t		47.0	male	east_asian	2.171110226820533	neutral	024	sub-02	1.0	5.0	024_neutral	0.0	210.52704000270387	
32.0	188.26213554427886	face	0.0		146	25.0	female	west_asian	2.6756864305610826	neutral	064	sub-02	1.0	5.0	064_neutral	0.0	211.19363201061515	1.2415387833616478
32.0	188.29564806868711	pulse	0.0	t		25.0	female	west_asian	2.6756864305610826	neutral	064	sub-02	1.0	5.0	064_neutral	0.0	211.2271445350234	
32.0	188.99546372595705	pulse	0.0	t		25.0	female	west_asian	2.6756864305610826	neutral	064	sub-02	1.0	5.0	064_neutral	0.0	211.92696019229334	
32.0	189.5036743276405	fix	1.0		443	25.0	female	west_asian	2.6756864305610826	neutral	064	sub-02	1.0	5.0	064_neutral	0.0	212.4351707939768	3.766621861352178
32.0	189.69551452812084	pulse	1.0	t		25.0	female	west_asian	2.6756864305610826	neutral	064	sub-02	1.0	5.0	064_neutral	0.0	212.62701099445712	
32.0	190.39548352763177	pulse	1.0	t		25.0	female	west_asian	2.6756864305610826	neutral	064	sub-02	1.0	5.0	064_neutral	0.0	213.32697999396805	
32.0	191.0954703365769	pulse	1.0	t		25.0	female	west_asian	2.6756864305610826	neutral	064	sub-02	1.0	5.0	064_neutral	0.0	214.0269668029132	
32.0	191.79545322140893	pulse	1.0	t		25.0	female	west_asian	2.6756864305610826	neutral	064	sub-02	1.0	5.0	064_neutral	0.0	214.72694968774522	
32.0	192.4954581416423	pulse	1.0	t		25.0	female	west_asian	2.6756864305610826	neutral	064	sub-02	1.0	5.0	064_neutral	0.0	215.4269546079786	
32.0	193.19542050034852	pulse	1.0	t		25.0	female	west_asian	2.6756864305610826	neutral	064	sub-02	1.0	5.0	064_neutral	0.0	216.1269169666848	
33.0	193.2702961889927	face	0.0		146	54.0	female	white	2.286908077994429	smiling	136	sub-02	1.0	5.0	136_smiling	0.0	216.20179265532897	1.2334460559795843
33.0	193.89541877977626	pulse	0.0	t		54.0	female	white	2.286908077994429	smiling	136	sub-02	1.0	5.0	136_smiling	0.0	216.82691524611255	
33.0	194.50374224497227	fix	1.0		443	54.0	female	white	2.286908077994429	smiling	136	sub-02	1.0	5.0	136_smiling	0.0	217.43523871130856	3.7581943769882855
33.0	194.59540589057542	pulse	1.0	t		54.0	female	white	2.286908077994429	smiling	136	sub-02	1.0	5.0	136_smiling	0.0	217.5269023569117	
33.0	195.29537338081263	pulse	1.0	t		54.0	female	white	2.286908077994429	smiling	136	sub-02	1.0	5.0	136_smiling	0.0	218.22686984714892	
33.0	195.99539007338353	pulse	1.0	t		54.0	female	white	2.286908077994429	smiling	136	sub-02	1.0	5.0	136_smiling	0.0	218.92688653971982	
33.0	196.6953494135414	pulse	1.0	t		54.0	female	white	2.286908077994429	smiling	136	sub-02	1.0	5.0	136_smiling	0.0	219.6268458798777	
33.0	197.39535373006493	pulse	1.0	t		54.0	female	white	2.286908077994429	smiling	136	sub-02	1.0	5.0	136_smiling	0.0	220.3268501964012	
33.0	198.09532303143078	pulse	1.0	t		54.0	female	white	2.286908077994429	smiling	136	sub-02	1.0	5.0	136_smiling	0.0	221.02681949776706	
34.0	198.26193662196056	face	0.0		147	19.0	male	white	2.243931555909272	smiling	130	sub-02	1.0	5.0	130_smiling	0.0	221.19343308829684	1.249901670797044
34.0	198.7953110477947	pulse	0.0	t		19.0	male	white	2.243931555909272	smiling	130	sub-02	1.0	5.0	130_smiling	0.0	221.726807514131	
34.0	199.4952945363375	pulse	0.0	t		19.0	male	white	2.243931555909272	smiling	130	sub-02	1.0	5.0	130_smiling	0.0	222.42679100267378	
34.0	199.5118382927576	fix	1.0		443	19.0	male	white	2.243931555909272	smiling	130	sub-02	1.0	5.0	130_smiling	0.0	222.4433347590939	3.75824176819242
34.0	200.19528315641128	pulse	1.0	t		19.0	male	white	2.243931555909272	smiling	130	sub-02	1.0	5.0	130_smiling	0.0	223.12677962274756	
34.0	200.89524762810015	pulse	1.0	t		19.0	male	white	2.243931555909272	smiling	130	sub-02	1.0	5.0	130_smiling	0.0	223.82674409443644	
34.0	201.5952510390598	pulse	1.0	t		19.0	male	white	2.243931555909272	smiling	130	sub-02	1.0	5.0	130_smiling	0.0	224.5267475053961	
34.0	202.29525354445468	pulse	1.0	t		19.0	male	white	2.243931555909272	smiling	130	sub-02	1.0	5.0	130_smiling	0.0	225.22675001079097	
34.0	202.99519628259713	pulse	1.0	t		19.0	male	white	2.243931555909272	smiling	130	sub-02	1.0	5.0	130_smiling	0.0	225.92669274893342	
35.0	203.27008006095002	face	0.0		145	27.0	male	black	3.5523278949462798	smiling	042	sub-02	1.0	5.0	042_smiling	0.0	226.2015765272863	1.2333123343005354
35.0	203.6952138807328	pulse	0.0	t		27.0	male	black	3.5523278949462798	smiling	042	sub-02	1.0	5.0	042_smiling	0.0	226.6267103470691	
35.0	204.39518891734042	pulse	0.0	t		27.0	male	black	3.5523278949462798	smiling	042	sub-02	1.0	5.0	042_smiling	0.0	227.3266853836767	
35.0	204.50339239525056	fix	1.0		444	27.0	male	black	3.5523278949462798	smiling	042	sub-02	1.0	5.0	042_smiling	0.0	227.43488886158684	3.7665895628870203
35.0	205.0951878004771	pulse	1.0	t		27.0	male	black	3.5523278949462798	smiling	042	sub-02	1.0	5.0	042_smiling	0.0	228.0266842668134	
35.0	205.7951676667617	pulse	1.0	t		27.0	male	black	3.5523278949462798	smiling	042	sub-02	1.0	5.0	042_smiling	0.0	228.72666413309798	
35.0	206.4951577961092	pulse	1.0	t		27.0	male	black	3.5523278949462798	smiling	042	sub-02	1.0	5.0	042_smiling	0.0	229.42665426244548	
35.0	207.19512800303983	pulse	1.0	t		27.0	male	black	3.5523278949462798	smiling	042	sub-02	1.0	5.0	042_smiling	0.0	230.1266244693761	
35.0	207.89512235835537	pulse	1.0	t		27.0	male	black	3.5523278949462798	smiling	042	sub-02	1.0	5.0	042_smiling	0.0	230.82661882469165	
36.0	208.26998195813758	face	0.0		145	27.0	female	white	3.504576203740549	neutral	144	sub-02	1.0	5.0	144_neutral	1.0	231.20147842447386	1.2333102213169695
36.0	208.59506841690109	pulse	0.0	t		27.0	female	white	3.504576203740549	neutral	144	sub-02	1.0	5.0	144_neutral	1.0	231.52656488323737	
36.0	209.29508299648842	pulse	0.0	t		27.0	female	white	3.504576203740549	neutral	144	sub-02	1.0	5.0	144_neutral	1.0	232.2265794628247	
36.0	209.50329217945455	fix	1.0		236	27.0	female	white	3.504576203740549	neutral	144	sub-02	1.0	5.0	144_neutral	1.0	232.43478864579083	1.9999538162146564
36.0	209.99510391502645	pulse	1.0	t		27.0	female	white	3.504576203740549	neutral	144	sub-02	1.0	5.0	144_neutral	1.0	232.92660038136273	
36.0	210.69533220781705	pulse	1.0	t		27.0	female	white	3.504576203740549	neutral	144	sub-02	1.0	5.0	144_neutral	1.0	233.62682867415333	
36.0	211.39504764929006	pulse	1.0	t		27.0	female	white	3.504576203740549	neutral	144	sub-02	1.0	5.0	144_neutral	1.0	234.32654411562635	
36.0	211.5032459956692	rating	2.0		236	27.0	female	white	3.504576203740549	neutral	144	sub-02	1.0	5.0	144_neutral	1.0	234.4347424620055	2.0083040257468383
36.0	212.09503264710656	pulse	2.0	t		27.0	female	white	3.504576203740549	neutral	144	sub-02	1.0	5.0	144_neutral	1.0	235.02652911344285	
36.0	212.12833266573125	response	2.0	y		27.0	female	white	3.504576203740549	neutral	144	sub-02	1.0	5.0	144_neutral	1.0	235.05982913206753	
36.0	212.79501251339116	pulse	2.0	t		27.0	female	white	3.504576203740549	neutral	144	sub-02	1.0	5.0	144_neutral	1.0	235.72650897972744	
36.0	213.495005661287	pulse	2.0	t		27.0	female	white	3.504576203740549	neutral	144	sub-02	1.0	5.0	144_neutral	1.0	236.42650212762328	
36.0	213.51155002141604	fix	3.0		443	27.0	female	white	3.504576203740549	neutral	144	sub-02	1.0	5.0	144_neutral	1.0	236.44304648775233	3.7582097715840064
36.0	214.1951998444838	pulse	3.0	t		27.0	female	white	3.504576203740549	neutral	144	sub-02	1.0	5.0	144_neutral	1.0	237.12669631082008	
36.0	214.89497263837075	pulse	3.0	t		27.0	female	white	3.504576203740549	neutral	144	sub-02	1.0	5.0	144_neutral	1.0	237.82646910470703	
36.0	215.5949609565896	pulse	3.0	t		27.0	female	white	3.504576203740549	neutral	144	sub-02	1.0	5.0	144_neutral	1.0	238.5264574229259	
36.0	216.29496919722624	pulse	3.0	t		27.0	female	white	3.504576203740549	neutral	144	sub-02	1.0	5.0	144_neutral	1.0	239.22646566356252	
36.0	216.9951199133311	pulse	3.0	t		27.0	female	white	3.504576203740549	neutral	144	sub-02	1.0	5.0	144_neutral	1.0	239.9266163796674	
37.0	217.26975979300005	face	0.0		145	28.0	female	white	5.676880222841227	neutral	124	sub-02	1.0	5.0	124_neutral	0.0	240.20125625933633	1.2333455383295586
37.0	217.69488395342796	pulse	0.0	t		28.0	female	white	5.676880222841227	neutral	124	sub-02	1.0	5.0	124_neutral	0.0	240.62638041976425	
37.0	218.40323183867895	pulse	0.0	t		28.0	female	white	5.676880222841227	neutral	124	sub-02	1.0	5.0	124_neutral	0.0	241.33472830501523	
37.0	218.5031053313296	fix	1.0		444	28.0	female	white	5.676880222841227	neutral	124	sub-02	1.0	5.0	124_neutral	0.0	241.4346017976659	3.7665678293406017
37.0	219.09489168091113	pulse	1.0	t		28.0	female	white	5.676880222841227	neutral	124	sub-02	1.0	5.0	124_neutral	0.0	242.02638814724742	
37.0	219.79488543251682	pulse	1.0	t		28.0	female	white	5.676880222841227	neutral	124	sub-02	1.0	5.0	124_neutral	0.0	242.7263818988531	
37.0	220.4951098011952	pulse	1.0	t		28.0	female	white	5.676880222841227	neutral	124	sub-02	1.0	5.0	124_neutral	0.0	243.4266062675315	
37.0	221.19503563546914	pulse	1.0	t		28.0	female	white	5.676880222841227	neutral	124	sub-02	1.0	5.0	124_neutral	0.0	244.12653210180542	
37.0	221.89482593693447	pulse	1.0	t		28.0	female	white	5.676880222841227	neutral	124	sub-02	1.0	5.0	124_neutral	0.0	244.82632240327075	
38.0	222.2696731606702	face	0.0		145	20.0	male	black	2.609629924393156	neutral	043	sub-02	1.0	5.0	043_neutral	0.0	245.2011696270065	1.2333268233314811
38.0	222.59498842537687	pulse	0.0	t		20.0	male	black	2.609629924393156	neutral	043	sub-02	1.0	5.0	043_neutral	0.0	245.52648489171315	
38.0	223.2949447469864	pulse	0.0	t		20.0	male	black	2.609629924393156	neutral	043	sub-02	1.0	5.0	043_neutral	0.0	246.2264412133227	
38.0	223.5029999840017	fix	1.0		444	20.0	male	black	2.609629924393156	neutral	043	sub-02	1.0	5.0	043_neutral	0.0	246.43449645033797	3.758252333111159
38.0	223.99478817489762	pulse	1.0	t		20.0	male	black	2.609629924393156	neutral	043	sub-02	1.0	5.0	043_neutral	0.0	246.9262846412339	
38.0	224.69495609672776	pulse	1.0	t		20.0	male	black	2.609629924393156	neutral	043	sub-02	1.0	5.0	043_neutral	0.0	247.62645256306405	
38.0	225.3949465279302	pulse	1.0	t		20.0	male	black	2.609629924393156	neutral	043	sub-02	1.0	5.0	043_neutral	0.0	248.32644299426647	
38.0	226.09493484614904	pulse	1.0	t		20.0	male	black	2.609629924393156	neutral	043	sub-02	1.0	5.0	043_neutral	0.0	249.02643131248533	
38.0	226.79491501428765	pulse	1.0	t		20.0	male	black	2.609629924393156	neutral	043	sub-02	1.0	5.0	043_neutral	0.0	249.72641148062394	
39.0	227.26125231711285	face	0.0		146	31.0	female	white	2.1822522881018704	neutral	102	sub-02	1.0	5.0	102_neutral	0.0	250.19274878344913	1.2416353769003763
39.0	227.49484145227143	pulse	0.0	t		31.0	female	white	2.1822522881018704	neutral	102	sub-02	1.0	5.0	102_neutral	0.0	250.42633791860771	
39.0	228.19489557483848	pulse	0.0	t		31.0	female	white	2.1822522881018704	neutral	102	sub-02	1.0	5.0	102_neutral	0.0	251.12639204117477	
39.0	228.50288769401322	fix	1.0		444	31.0	female	white	2.1822522881018704	neutral	102	sub-02	1.0	5.0	102_neutral	0.0	251.4343841603495	3.749928686801468
39.0	228.89476616968295	pulse	1.0	t		31.0	female	white	2.1822522881018704	neutral	102	sub-02	1.0	5.0	102_neutral	0.0	251.82626263601924	
39.0	229.59473577290373	pulse	1.0	t		31.0	female	white	2.1822522881018704	neutral	102	sub-02	1.0	5.0	102_neutral	0.0	252.52623223924002	
39.0	230.29473254305685	pulse	1.0	t		31.0	female	white	2.1822522881018704	neutral	102	sub-02	1.0	5.0	102_neutral	0.0	253.22622900939314	
39.0	230.99494181899536	pulse	1.0	t		31.0	female	white	2.1822522881018704	neutral	102	sub-02	1.0	5.0	102_neutral	0.0	253.92643828533164	
39.0	231.69475868368318	pulse	1.0	t		31.0	female	white	2.1822522881018704	neutral	102	sub-02	1.0	5.0	102_neutral	0.0	254.62625515001946	
40.0	232.2528163808147	fix	0.0		720												255.18431284715098	5.999875937674915
40.0	232.3947503223053	pulse	0.0	t													255.32624678864158	
40.0	233.09478029648744	pulse	0.0	t													256.0262767628237	
40.0	233.79465481544412	pulse	0.0	t													256.7261512817804	
40.0	234.49463679471228	pulse	0.0	t													257.42613326104856	
40.0	235.19473830848347	pulse	0.0	t													258.12623477481975	
40.0	235.89460679034437	pulse	0.0	t													258.82610325668065	
40.0	236.59469834290758	pulse	0.0	t													259.52619480924386	
40.0	237.29472258184887	pulse	0.0	t													260.22621904818516	
40.0	237.99468826095654	pulse	0.0	t													260.9261847272928	
