trial_nr	onset	event_type	phase	response	nr_frames	trial_type	stim_name	task_probe	onset_abs	duration
0.0	0.05727845894671191	baseline	0.0		701		baseline	0.0	29.580938291520397	5.849533226819403
0.0	0.7070462873216457	pulse	0.0	t			baseline	0.0	30.23070611989533	
0.0	1.4070164942522752	pulse	0.0	t			baseline	0.0	30.93067632682596	
0.0	2.10701235884153	pulse	0.0	t			baseline	0.0	31.630672191415215	
0.0	2.806988904722857	pulse	0.0	t			baseline	0.0	32.33064873729654	
0.0	3.5069889952792437	pulse	0.0	t			baseline	0.0	33.03064882785293	
0.0	4.2069582966460075	pulse	0.0	t			baseline	0.0	33.73061812921969	
0.0	4.906943596316523	pulse	0.0	t			baseline	0.0	34.43060342889021	
0.0	5.606923160746192	pulse	0.0	t			baseline	0.0	35.13058299331988	
0.0	5.906811685766115	ISI	1.0		7		baseline	0.0	35.4304715183398	0.12501558325402584
1.0	6.031827269020141	car	0.0		45	object	car-20.jpg	0.0	35.555487101593826	0.3749226874379019
1.0	6.306866804453421	pulse	0.0	t		object	car-20.jpg	0.0	35.830526637027106	
1.0	6.406749956458043	ISI	1.0		234	object	car-20.jpg	0.0	35.93040978903173	2.016658461246152
1.0	7.006857235655843	pulse	1.0	t		object	car-20.jpg	0.0	36.53051706822953	
1.0	7.7068413279075685	pulse	1.0	t		object	car-20.jpg	0.0	37.23050116048125	
2.0	8.423408417704195	car	0.0		45	object	car-143.jpg	0.0	37.94706825027788	0.38329553608127753
2.0	8.413157126596161	pulse	0.0	t		object	car-143.jpg	0.0	37.936816959169846	
2.0	8.806703953785473	ISI	1.0		233	object	car-143.jpg	0.0	38.33036378635916	2.016658763101077
2.0	9.106815851361716	pulse	1.0	t		object	car-143.jpg	0.0	38.6304756839354	
2.0	9.806804773290423	pulse	1.0	t		object	car-143.jpg	0.0	39.33046460586411	
2.0	10.506777395059544	pulse	1.0	t		object	car-143.jpg	0.0	40.03043722763323	
3.0	10.82336271688655	adult	0.0		46	face	adult-83.jpg	0.0	40.347022549460235	0.38329131011323625
3.0	11.206654026999786	ISI	1.0		230	face	adult-83.jpg	0.0	40.73031385957347	2.016677176245139
3.0	11.28126710196193	pulse	1.0	t		face	adult-83.jpg	0.0	40.804926934535615	
3.0	11.906749201820276	pulse	1.0	t		face	adult-83.jpg	0.0	41.43040903439396	
3.0	12.60680694664552	pulse	1.0	t		face	adult-83.jpg	0.0	42.130466779219205	
4.0	13.223331203244925	number	0.0		46	character	number-109.jpg	0.0	42.74699103581861	0.38327259511515877
4.0	13.306733384628387	pulse	0.0	t		character	number-109.jpg	0.0	42.83039321720207	
4.0	13.606603798360084	ISI	1.0		233	character	number-109.jpg	0.0	43.13026363093377	2.0166572538273613
4.0	14.006712345349115	pulse	1.0	t		character	number-109.jpg	0.0	43.5303721779228	
4.0	14.70669523018114	pulse	1.0	t		character	number-109.jpg	0.0	44.230355062754825	
4.0	15.406685359528637	pulse	1.0	t		character	number-109.jpg	0.0	44.93034519210232	
5.0	15.623261052187445	limb	0.0		46	body	limb-94.jpg	0.0	45.14692088476113	0.38328165075927245
5.0	16.006542702946717	ISI	1.0		233	body	limb-94.jpg	0.0	45.5302025355204	2.016650009312798
5.0	16.106692694600497	pulse	1.0	t		body	limb-94.jpg	0.0	45.63035252717418	
5.0	16.806646299516615	pulse	1.0	t		body	limb-94.jpg	0.0	46.3303061320903	
5.0	17.50663461773547	pulse	1.0	t		body	limb-94.jpg	0.0	47.03029445030916	
6.0	18.023192712259515	house	0.0		46	place	house-113.jpg	0.0	47.5468525448332	0.38330911954653857
6.0	18.206625048938804	pulse	0.0	t		place	house-113.jpg	0.0	47.73028488151249	
6.0	18.406501831806054	ISI	1.0		233	place	house-113.jpg	0.0	47.93016166437974	2.0166786855188548
6.0	18.906608839335604	pulse	1.0	t		place	house-113.jpg	0.0	48.43026867190929	
6.0	19.606696467785696	pulse	1.0	t		place	house-113.jpg	0.0	49.13035630035938	
6.0	20.306672409958082	pulse	1.0	t		place	house-113.jpg	0.0	49.83033224253177	
7.0	20.42318051732491	number	0.0		46	character	number-93.jpg	0.0	49.946840349898594	0.3833227030136186
7.0	20.806503220338527	ISI	1.0		353	character	number-93.jpg	0.0	50.33016305291221	3.016602316252829
7.0	21.00664895583941	pulse	1.0	t		character	number-93.jpg	0.0	50.530308788413095	
7.0	21.706614031238132	pulse	1.0	t		character	number-93.jpg	0.0	51.23027386381182	
7.0	22.40660838655276	pulse	1.0	t		character	number-93.jpg	0.0	51.93026821912645	
7.0	23.106581913886657	pulse	1.0	t		character	number-93.jpg	0.0	52.63024174646034	
8.0	23.823105536591356	car	0.0		45	object	car-79.jpg	0.0	53.34676536916504	0.3833070065629727
8.0	23.813473953401626	pulse	0.0	t		object	car-79.jpg	0.0	53.33713378597531	
8.0	24.20641254315433	ISI	1.0		473	object	car-79.jpg	0.0	53.730072375728014	4.016603825526545
8.0	24.506567002258635	pulse	1.0	t		object	car-79.jpg	0.0	54.03022683483232	
8.0	25.20653992588268	pulse	1.0	t		object	car-79.jpg	0.0	54.730199758456365	
8.0	25.90653609232686	pulse	1.0	t		object	car-79.jpg	0.0	55.430195924900545	
8.0	26.60651988272366	pulse	1.0	t		object	car-79.jpg	0.0	56.130179715297345	
8.0	27.306496126750062	pulse	1.0	t		object	car-79.jpg	0.0	56.83015595932375	
8.0	28.00648384125998	pulse	1.0	t		object	car-79.jpg	0.0	57.53014367383366	
9.0	28.223016368680874	number	0.0		46	character	number-134.jpg	0.0	57.74667620125456	0.383303384305691
9.0	28.606319752986565	ISI	1.0		593	character	number-134.jpg	0.0	58.12997958556025	5.016581790125201
9.0	28.706475781736117	pulse	1.0	t		character	number-134.jpg	0.0	58.2301356143098	
9.0	29.406449309070013	pulse	1.0	t		character	number-134.jpg	0.0	58.9301091416437	
9.0	30.106445173659267	pulse	1.0	t		character	number-134.jpg	0.0	59.63010500623295	
9.0	30.80642624736265	pulse	1.0	t		character	number-134.jpg	0.0	60.330086079936336	
9.0	31.50642241380592	pulse	1.0	t		character	number-134.jpg	0.0	61.03008224637961	
9.0	32.206392922591476	pulse	1.0	t		character	number-134.jpg	0.0	61.73005275516516	
9.0	32.90637912782677	pulse	1.0	t		character	number-134.jpg	0.0	62.43003896040045	
10.0	33.622901543111766	house	0.0		45	place	house-92.jpg	0.0	63.14656137568545	0.3833067047089571
10.0	33.613195703640486	pulse	0.0	t		place	house-92.jpg	0.0	63.13685553621417	
10.0	34.00620824782072	ISI	1.0		235	place	house-92.jpg	0.0	63.52986808039441	2.016661479794493
10.0	34.30635153829735	pulse	1.0	t		place	house-92.jpg	0.0	63.830011370871034	
10.0	35.00635525111193	pulse	1.0	t		place	house-92.jpg	0.0	64.53001508368561	
10.0	35.70633753223501	pulse	1.0	t		place	house-92.jpg	0.0	65.2299973648087	
11.0	36.022869727615216	house	0.0		46	place	house-12.jpg	0.0	65.5465295601889	0.3832626339071794
11.0	36.406132361522396	ISI	1.0		355	place	house-12.jpg	0.0	65.92979219409608	3.0166134848805086
11.0	36.44243674104291	pulse	1.0	t		place	house-12.jpg	0.0	65.9660965736166	
11.0	37.10622300852083	pulse	1.0	t		place	house-12.jpg	0.0	66.62988284109451	
11.0	37.80621525085189	pulse	1.0	t		place	house-12.jpg	0.0	67.32987508342558	
11.0	38.50619421157171	pulse	1.0	t		place	house-12.jpg	0.0	68.0298540441454	
11.0	39.206188265032324	pulse	1.0	t		place	house-12.jpg	0.0	68.72984809760601	
12.0	39.422745846402904	house	0.0		46	place	house-131.jpg	0.0	68.94640567897659	0.38330730841789773
12.0	39.8060531548208	ISI	1.0		475	place	house-131.jpg	0.0	69.32971298739449	4.016646387054607
12.0	39.90617960179952	pulse	1.0	t		place	house-131.jpg	0.0	69.4298394343732	
12.0	40.60615735510055	pulse	1.0	t		place	house-131.jpg	0.0	70.12981718767423	
12.0	41.3061329954171	pulse	1.0	t		place	house-131.jpg	0.0	70.82979282799079	
12.0	42.006128860006356	pulse	1.0	t		place	house-131.jpg	0.0	71.52978869258004	
12.0	42.70616939910724	pulse	1.0	t		place	house-131.jpg	0.0	72.22982923168092	
12.0	43.406171300792266	pulse	1.0	t		place	house-131.jpg	0.0	72.92983113336595	
13.0	43.82269954187541	adult	0.0		46	face	adult-137.jpg	0.0	73.3463593744491	0.38328919712967036
13.0	44.10612158530512	pulse	0.0	t		face	adult-137.jpg	0.0	73.6297814178788	
13.0	44.20598873900508	ISI	1.0		233	face	adult-137.jpg	0.0	73.72964857157876	2.01666600761655
13.0	44.80613314634502	pulse	1.0	t		face	adult-137.jpg	0.0	74.3297929789187	
13.0	45.50612991649814	pulse	1.0	t		face	adult-137.jpg	0.0	75.02978974907182	
14.0	46.22265474662163	limb	0.0		45	body	limb-61.jpg	0.0	75.74631457919531	0.3832846693076135
14.0	46.2129990150479	pulse	0.0	t		body	limb-61.jpg	0.0	75.73665884762158	
14.0	46.60593941592924	ISI	1.0		475	body	limb-61.jpg	0.0	76.12959924850293	4.016624351653263
14.0	46.90609146019597	pulse	1.0	t		body	limb-61.jpg	0.0	76.42975129276965	
14.0	47.606069817205935	pulse	1.0	t		body	limb-61.jpg	0.0	77.12972964977962	
14.0	48.30606175768298	pulse	1.0	t		body	limb-61.jpg	0.0	77.82972159025667	
14.0	49.00604464251501	pulse	1.0	t		body	limb-61.jpg	0.0	78.52970447508869	
14.0	49.70603748855592	pulse	1.0	t		body	limb-61.jpg	0.0	79.2296973211296	
14.0	50.40603637169352	pulse	1.0	t		body	limb-61.jpg	0.0	79.9296962042672	
15.0	50.622563767582506	car	0.0		46	object	car-23.jpg	0.0	80.14622360015619	0.38329251753293647
15.0	51.00585628511544	ISI	1.0		235	object	car-23.jpg	0.0	80.52951611768913	2.0166406518128497
15.0	51.10602136950911	pulse	1.0	t		object	car-23.jpg	0.0	80.62968120208279	
15.0	51.805996707971644	pulse	1.0	t		object	car-23.jpg	0.0	81.32965654054533	
15.0	52.506004646753354	pulse	1.0	t		object	car-23.jpg	0.0	82.02966447932704	
16.0	53.02249693692829	adult	0.0		46	face	adult-63.jpg	0.0	82.54615676950198	0.38327138769636804
16.0	53.20591569014141	pulse	0.0	t		face	adult-63.jpg	0.0	82.7295755227151	
16.0	53.40576832462466	ISI	1.0		233	face	adult-63.jpg	0.0	82.92942815719834	2.016661177939568
16.0	53.905888010055605	pulse	1.0	t		face	adult-63.jpg	0.0	83.42954784262929	
16.0	54.605858216986235	pulse	1.0	t		face	adult-63.jpg	0.0	84.12951804955992	
16.0	55.30584230923796	pulse	1.0	t		face	adult-63.jpg	0.0	84.82950214181164	
17.0	55.42242950256423	limb	0.0		46	body	limb-54.jpg	0.0	84.94608933513791	0.3832928193878615
17.0	55.80572232195209	ISI	1.0		475	body	limb-54.jpg	0.0	85.32938215452577	4.016650009311888
17.0	56.00583002374697	pulse	1.0	t		body	limb-54.jpg	0.0	85.52948985632065	
17.0	56.70580294737101	pulse	1.0	t		body	limb-54.jpg	0.0	86.2294627799447	
17.0	57.405792774863585	pulse	1.0	t		body	limb-54.jpg	0.0	86.92945260743727	
17.0	58.10578230050214	pulse	1.0	t		body	limb-54.jpg	0.0	87.62944213307583	
17.0	58.80578540960687	pulse	1.0	t		body	limb-54.jpg	0.0	88.32944524218055	
17.0	59.50582775983639	pulse	1.0	t		body	limb-54.jpg	0.0	89.02948759241008	
18.0	59.82237233126398	adult	0.0		46	face	adult-59.jpg	0.0	89.34603216383766	0.3832964416451432
18.0	60.20566877290912	ISI	1.0		355	face	adult-59.jpg	0.0	89.7293286054828	3.016640349958834
18.0	60.24106185276651	pulse	1.0	t		face	adult-59.jpg	0.0	89.76472168534019	
18.0	60.905799566597125	pulse	1.0	t		face	adult-59.jpg	0.0	90.42945939917081	
18.0	61.605782149575134	pulse	1.0	t		face	adult-59.jpg	0.0	91.12944198214882	
18.0	62.305783145695386	pulse	1.0	t		face	adult-59.jpg	0.0	91.82944297826907	
18.0	63.00575516375466	pulse	1.0	t		face	adult-59.jpg	0.0	92.52941499632834	
19.0	63.222309122867955	adult	0.0		46	face	adult-42.jpg	0.0	92.74596895544164	0.3833205900291432
19.0	63.6056297128971	ISI	1.0		953	face	adult-42.jpg	0.0	93.12928954547078	8.016495761506121
19.0	63.70587659994362	pulse	1.0	t		face	adult-42.jpg	0.0	93.2295364325173	
19.0	64.40579186929972	pulse	1.0	t		face	adult-42.jpg	0.0	93.9294517018734	
19.0	65.10571559059008	pulse	1.0	t		face	adult-42.jpg	0.0	94.62937542316376	
19.0	65.80570149397045	pulse	1.0	t		face	adult-42.jpg	0.0	95.32936132654413	
19.0	66.50568830291559	pulse	1.0	t		face	adult-42.jpg	0.0	96.02934813548927	
19.0	67.20566062282978	pulse	1.0	t		face	adult-42.jpg	0.0	96.72932045540347	
19.0	67.90564863919371	pulse	1.0	t		face	adult-42.jpg	0.0	97.4293084717674	
19.0	68.6056626150712	pulse	1.0	t		face	adult-42.jpg	0.0	98.12932244764488	
19.0	69.30564942401634	pulse	1.0	t		face	adult-42.jpg	0.0	98.82930925659002	
19.0	70.0056377422352	pulse	1.0	t		face	adult-42.jpg	0.0	99.52929757480888	
19.0	70.70561217513296	pulse	1.0	t		face	adult-42.jpg	0.0	100.22927200770664	
19.0	71.40559264512649	pulse	1.0	t		face	adult-42.jpg	0.0	100.92925247770017	
20.0	71.62212547440322	number	0.0		46	character	number-41.jpg	0.0	101.1457853069769	0.3832991583376497
20.0	72.00542463274087	ISI	1.0		355	character	number-41.jpg	0.0	101.52908446531455	3.016612881171568
20.0	72.10558458560354	pulse	1.0	t		character	number-41.jpg	0.0	101.62924441817722	
20.0	72.80558226132143	pulse	1.0	t		character	number-41.jpg	0.0	102.32924209389512	
20.0	73.50555609050934	pulse	1.0	t		character	number-41.jpg	0.0	103.02921592308303	
20.0	74.20552841042354	pulse	1.0	t		character	number-41.jpg	0.0	103.72918824299722	
20.0	74.90554751783293	pulse	1.0	t		character	number-41.jpg	0.0	104.42920735040661	
21.0	75.02203751391244	adult	0.0		46	face	adult-53.jpg	0.0	104.54569734648612	0.38332028817421815
21.0	75.40535780208666	ISI	1.0		593	face	adult-53.jpg	0.0	104.92901763466034	5.016586317948168
21.0	75.60551893218326	pulse	1.0	t		face	adult-53.jpg	0.0	105.12917876475694	
21.0	76.3055084578209	pulse	1.0	t		face	adult-53.jpg	0.0	105.82916829039459	
21.0	77.0054744387844	pulse	1.0	t		face	adult-53.jpg	0.0	106.52913427135809	
21.0	77.70548871651681	pulse	1.0	t		face	adult-53.jpg	0.0	107.2291485490905	
21.0	78.40545228264182	pulse	1.0	t		face	adult-53.jpg	0.0	107.9291121152155	
21.0	79.10542792295837	pulse	1.0	t		face	adult-53.jpg	0.0	108.62908775553205	
21.0	79.80543223948189	pulse	1.0	t		face	adult-53.jpg	0.0	109.32909207205557	
22.0	80.42194412003482	limb	0.0		46	body	limb-106.jpg	0.0	109.94560395260851	0.3832556912457221
22.0	80.50533362351689	pulse	0.0	t		body	limb-106.jpg	0.0	110.02899345609057	
22.0	80.80519981128054	ISI	1.0		475	body	limb-106.jpg	0.0	110.32885964385423	4.016596581011072
22.0	81.20530473601139	pulse	1.0	t		body	limb-106.jpg	0.0	110.72896456858507	
22.0	81.90528943197296	pulse	1.0	t		body	limb-106.jpg	0.0	111.42894926454665	
22.0	82.60527684462704	pulse	1.0	t		body	limb-106.jpg	0.0	112.12893667720073	
22.0	83.30525580534777	pulse	1.0	t		body	limb-106.jpg	0.0	112.82891563792145	
22.0	84.00524985880747	pulse	1.0	t		body	limb-106.jpg	0.0	113.52890969138116	
22.0	84.70524632710658	pulse	1.0	t		body	limb-106.jpg	0.0	114.22890615968026	
23.0	84.82179639229162	adult	0.0		46	face	adult-71.jpg	0.0	114.3454562248653	0.38331606220799586
23.0	85.20511245449961	ISI	1.0		235	face	adult-71.jpg	0.0	114.7287722870733	2.016694080113666
23.0	85.40524279540477	pulse	1.0	t		face	adult-71.jpg	0.0	114.92890262797846	
23.0	86.10521481346495	pulse	1.0	t		face	adult-71.jpg	0.0	115.62887464603864	
23.0	86.80529308441601	pulse	1.0	t		face	adult-71.jpg	0.0	116.32895291698969	
24.0	87.22180653461328	adult	0.0		46	face	adult-71.jpg	1.0	116.74546636718696	0.38325750237527245
24.0	87.50516458482434	pulse	0.0	t		face	adult-71.jpg	1.0	117.02882441739803	
24.0	87.60506403698855	ISI	1.0		235	face	adult-71.jpg	1.0	117.12872386956224	2.0166472926184724
24.0	87.91349233635992	response	1.0	b		face	adult-71.jpg	1.0	117.43715216893361	
24.0	88.20516950505771	pulse	1.0	t		face	adult-71.jpg	1.0	117.7288293376314	
24.0	88.90514756021366	pulse	1.0	t		face	adult-71.jpg	1.0	118.42880739278735	
25.0	89.62171132960702	car	0.0		45	object	car-48.jpg	0.0	119.14537116218071	0.3833012713221251
25.0	89.61242959613992	pulse	0.0	t		object	car-48.jpg	0.0	119.1360894287136	
25.0	90.00501260092915	ISI	1.0		233	object	car-48.jpg	0.0	119.52867243350283	2.0166334072982863
25.0	90.30514562834287	pulse	1.0	t		object	car-48.jpg	0.0	119.82880546091656	
25.0	91.00511100559652	pulse	1.0	t		object	car-48.jpg	0.0	120.5287708381702	
25.0	91.7050944941384	pulse	1.0	t		object	car-48.jpg	0.0	121.22875432671208	
26.0	92.02164600822744	house	0.0		46	place	house-63.jpg	0.0	121.54530584080112	0.38331274180382024
26.0	92.40495875003126	ISI	1.0		233	place	house-63.jpg	0.0	121.92861858260494	2.0166937782596506
26.0	92.45419368392959	pulse	1.0	t		place	house-63.jpg	0.0	121.97785351650327	
26.0	93.10504668033718	pulse	1.0	t		place	house-63.jpg	0.0	122.62870651291087	
26.0	93.8051207253211	pulse	1.0	t		place	house-63.jpg	0.0	123.32878055789479	
27.0	94.4216525282909	limb	0.0		46	body	limb-28.jpg	0.0	123.94531236086459	0.383295234225443
27.0	94.50510994910474	pulse	0.0	t		body	limb-28.jpg	0.0	124.02876978167842	
27.0	94.80494776251635	ISI	1.0		232	body	limb-28.jpg	0.0	124.32860759509003	2.016650009312798
27.0	95.20510581369399	pulse	1.0	t		body	limb-28.jpg	0.0	124.72876564626768	
27.0	95.90508085030069	pulse	1.0	t		body	limb-28.jpg	0.0	125.42874068287438	
27.0	96.60506494255242	pulse	1.0	t		body	limb-28.jpg	0.0	126.1287247751261	
28.0	96.82159777182915	car	0.0		46	object	car-28.jpg	0.0	126.34525760440283	0.3832653505996859
28.0	97.20486312242883	ISI	1.0		473	object	car-28.jpg	0.0	126.72852295500252	4.016606542219961
28.0	97.30498685271414	pulse	1.0	t		object	car-28.jpg	0.0	126.82864668528782	
28.0	98.00494558916216	pulse	1.0	t		object	car-28.jpg	0.0	127.52860542173585	
28.0	98.70497405407059	pulse	1.0	t		object	car-28.jpg	0.0	128.22863388664427	
28.0	99.40539281724432	pulse	1.0	t		object	car-28.jpg	0.0	128.929052649818	
28.0	100.10491054381873	pulse	1.0	t		object	car-28.jpg	0.0	129.62857037639242	
28.0	100.80492512340606	pulse	1.0	t		object	car-28.jpg	0.0	130.32858495597975	
29.0	101.2214696646488	number	0.0		46	character	number-107.jpg	0.0	130.74512949722248	0.38330368616061605
29.0	101.5048992544489	pulse	0.0	t		character	number-107.jpg	0.0	131.0285590870226	
29.0	101.60477335080941	ISI	1.0		354	character	number-107.jpg	0.0	131.1284331833831	3.0166460851996817
29.0	102.2048754984753	pulse	1.0	t		character	number-107.jpg	0.0	131.728535331049	
29.0	102.90494290265451	pulse	1.0	t		character	number-107.jpg	0.0	132.4286027352282	
29.0	103.60492125966448	pulse	1.0	t		character	number-107.jpg	0.0	133.12858109223816	
29.0	104.30490112594907	pulse	1.0	t		character	number-107.jpg	0.0	133.82856095852276	
30.0	104.62141943600909	limb	0.0		46	body	limb-140.jpg	0.0	134.14507926858278	0.3833151566423112
30.0	105.0047345926514	ISI	1.0		235	body	limb-140.jpg	0.0	134.5283944252251	2.0166337091532114
30.0	105.04112651006653	pulse	1.0	t		body	limb-140.jpg	0.0	134.56478634264022	
30.0	105.704881686499	pulse	1.0	t		body	limb-140.jpg	0.0	135.22854151907268	
30.0	106.40487241955634	pulse	1.0	t		body	limb-140.jpg	0.0	135.92853225213003	
31.0	107.02136830180461	adult	0.0		46	face	adult-5.jpg	0.0	136.5450281343783	0.38331666591693647
31.0	107.10481032802272	pulse	0.0	t		face	adult-5.jpg	0.0	136.6284701605964	
31.0	107.40468496772155	ISI	1.0		352	face	adult-5.jpg	0.0	136.92834480029524	3.0166149941542244
31.0	107.80483275583538	pulse	1.0	t		face	adult-5.jpg	0.0	137.32849258840906	
31.0	108.50481201841012	pulse	1.0	t		face	adult-5.jpg	0.0	138.0284718509838	
31.0	109.20480275146747	pulse	1.0	t		face	adult-5.jpg	0.0	138.72846258404115	
31.0	109.90481250137782	pulse	1.0	t		face	adult-5.jpg	0.0	139.4284723339515	
32.0	110.42129996187577	house	0.0		46	place	house-125.jpg	0.0	139.94495979444946	0.38328316003389773
32.0	110.60469577412368	pulse	0.0	t		place	house-125.jpg	0.0	140.12835560669737	
32.0	110.80458312190967	ISI	1.0		593	place	house-125.jpg	0.0	140.32824295448336	5.0165832993998265
32.0	111.30470099621198	pulse	1.0	t		place	house-125.jpg	0.0	140.82836082878566	
32.0	112.0046609400788	pulse	1.0	t		place	house-125.jpg	0.0	141.52832077265248	
32.0	112.7046486545878	pulse	1.0	t		place	house-125.jpg	0.0	142.22830848716148	
32.0	113.40463697280666	pulse	1.0	t		place	house-125.jpg	0.0	142.92829680538034	
32.0	114.10463344110576	pulse	1.0	t		place	house-125.jpg	0.0	143.62829327367945	
32.0	114.80463473908185	pulse	1.0	t		place	house-125.jpg	0.0	144.32829457165553	
32.0	115.50460072004444	pulse	1.0	t		place	house-125.jpg	0.0	145.02826055261812	
33.0	115.8211664213095	number	0.0		46	character	number-69.jpg	0.0	145.34482625388318	0.3833097232563887
33.0	116.20447614456589	ISI	1.0		352	character	number-69.jpg	0.0	145.72813597713957	3.0166557445536455
33.0	116.26416581971262	pulse	1.0	t		character	number-69.jpg	0.0	145.7878256522863	
33.0	116.90463772744442	pulse	1.0	t		character	number-69.jpg	0.0	146.4282975600181	
33.0	117.60461065106756	pulse	1.0	t		character	number-69.jpg	0.0	147.12827048364124	
33.0	118.30460742122159	pulse	1.0	t		character	number-69.jpg	0.0	147.82826725379527	
33.0	119.00459905984371	pulse	1.0	t		character	number-69.jpg	0.0	148.5282588924174	
34.0	119.22113188911953	limb	0.0		46	body	limb-109.jpg	0.0	148.74479172169322	0.383300667612275
34.0	119.60443255673181	ISI	1.0		353	body	limb-109.jpg	0.0	149.1280923893055	3.016628577620395
34.0	119.70458466136915	pulse	1.0	t		body	limb-109.jpg	0.0	149.22824449394284	
34.0	120.40458384636077	pulse	1.0	t		body	limb-109.jpg	0.0	149.92824367893445	
34.0	121.1045730701444	pulse	1.0	t		body	limb-109.jpg	0.0	150.62823290271808	
34.0	121.80453995667176	pulse	1.0	t		body	limb-109.jpg	0.0	151.32819978924545	
34.0	122.50453672682579	pulse	1.0	t		body	limb-109.jpg	0.0	152.02819655939948	
35.0	122.6210611343522	number	0.0		46	character	number-63.jpg	0.0	152.1447209669259	0.38329613979021815
35.0	123.00435727414242	ISI	1.0		715	character	number-63.jpg	0.0	152.5280171067161	6.016535606340767
35.0	123.20451749867425	pulse	1.0	t		character	number-63.jpg	0.0	152.72817733124793	
35.0	123.90449404455558	pulse	1.0	t		character	number-63.jpg	0.0	153.42815387712926	
35.0	124.60447451455002	pulse	1.0	t		character	number-63.jpg	0.0	154.1281343471237	
35.0	125.30446132349516	pulse	1.0	t		character	number-63.jpg	0.0	154.82812115606885	
35.0	126.0044493398591	pulse	1.0	t		character	number-63.jpg	0.0	155.52810917243278	
35.0	126.70443795993287	pulse	1.0	t		character	number-63.jpg	0.0	156.22809779250656	
35.0	127.4044132983945	pulse	1.0	t		character	number-63.jpg	0.0	156.9280731309682	
35.0	128.1044046351617	pulse	1.0	t		character	number-63.jpg	0.0	157.62806446773538	
35.0	128.80438993483313	pulse	1.0	t		character	number-63.jpg	0.0	158.3280497674068	
36.0	129.0208928804832	car	0.0		46	object	car-127.jpg	0.0	158.54455271305687	0.38332723083476594
36.0	129.40422011131795	ISI	1.0		235	object	car-127.jpg	0.0	158.92787994389164	2.016640048103909
36.0	129.50439032724444	pulse	1.0	t		object	car-127.jpg	0.0	159.02805015981812	
36.0	130.204365967561	pulse	1.0	t		object	car-127.jpg	0.0	159.72802580013467	
36.0	130.9043536820709	pulse	1.0	t		object	car-127.jpg	0.0	160.4280135146446	
37.0	131.42086015942186	car	0.0		46	object	car-127.jpg	1.0	160.94451999199555	0.3833115343850295
37.0	131.60430034432648	pulse	0.0	t		object	car-127.jpg	1.0	161.12796017690016	
37.0	131.8041716938069	ISI	1.0		233	object	car-127.jpg	1.0	161.32783152638058	2.016638840684209
37.0	132.3043173387514	pulse	1.0	t		object	car-127.jpg	1.0	161.82797717132507	
37.0	133.00432346640446	pulse	1.0	t		object	car-127.jpg	1.0	162.52798329897814	
37.0	133.70428552325484	pulse	1.0	t		object	car-127.jpg	1.0	163.22794535582852	
38.0	133.8208105344911	limb	0.0		46	body	limb-100.jpg	0.0	163.3444703670648	0.38331334551457985
38.0	134.20412388000568	ISI	1.0		354	body	limb-100.jpg	0.0	163.72778371257937	3.0166282757663794
38.0	134.4042762563122	pulse	1.0	t		body	limb-100.jpg	0.0	163.92793608888587	
38.0	135.10425431146814	pulse	1.0	t		body	limb-100.jpg	0.0	164.62791414404182	
38.0	135.80424685565413	pulse	1.0	t		body	limb-100.jpg	0.0	165.3279066882278	
38.0	136.50424573879172	pulse	1.0	t		body	limb-100.jpg	0.0	166.0279055713654	
39.0	137.22075215577206	number	0.0		45	character	number-64.jpg	0.0	166.74441198834575	0.38329825277378404
39.0	137.21131043925652	pulse	0.0	t		character	number-64.jpg	0.0	166.7349702718302	
39.0	137.60405040854585	ISI	1.0		234	character	number-64.jpg	0.0	167.12771024111953	2.0166572538273613
39.0	137.90422901603506	pulse	1.0	t		character	number-64.jpg	0.0	167.42788884860875	
39.0	138.60422699360788	pulse	1.0	t		character	number-64.jpg	0.0	168.12788682618157	
39.0	139.30416460021934	pulse	1.0	t		character	number-64.jpg	0.0	168.82782443279302	
40.0	139.6207076623732	house	0.0		46	place	house-144.jpg	0.0	169.1443674949469	0.3833027805958409
40.0	140.00401044296905	ISI	1.0		355	place	house-144.jpg	0.0	169.52767027554273	3.0166258609278884
40.0	140.0410157293527	pulse	1.0	t		place	house-144.jpg	0.0	169.56467556192638	
40.0	140.70417202584758	pulse	1.0	t		place	house-144.jpg	0.0	170.22783185842127	
40.0	141.40412744189234	pulse	1.0	t		place	house-144.jpg	0.0	170.92778727446603	
40.0	142.10413658809284	pulse	1.0	t		place	house-144.jpg	0.0	171.62779642066653	
40.0	142.80409924865307	pulse	1.0	t		place	house-144.jpg	0.0	172.32775908122676	
41.0	143.02063630389694	car	0.0		46	object	car-51.jpg	0.0	172.54429613647062	0.38329281938695203
41.0	143.4039291232839	ISI	1.0		475	object	car-51.jpg	0.0	172.92758895585757	4.0165965810119815
41.0	143.5040845483245	pulse	1.0	t		object	car-51.jpg	0.0	173.02774438089818	
41.0	144.20406501831803	pulse	1.0	t		object	car-51.jpg	0.0	173.72772485089172	
41.0	144.9040786923415	pulse	1.0	t		object	car-51.jpg	0.0	174.42773852491518	
41.0	145.60406731241528	pulse	1.0	t		object	car-51.jpg	0.0	175.12772714498897	
41.0	146.30402182289527	pulse	1.0	t		object	car-51.jpg	0.0	175.82768165546895	
41.0	147.0040110466789	pulse	1.0	t		object	car-51.jpg	0.0	176.52767087925258	
42.0	147.42052570429587	house	0.0		46	place	house-135.jpg	0.0	176.94418553686955	0.38327470809872466
42.0	147.70391454369656	pulse	0.0	t		place	house-135.jpg	0.0	177.22757437627024	
42.0	147.8038004123946	ISI	1.0		235	place	house-135.jpg	0.0	177.32746024496828	2.0166382369743587
42.0	148.40390678602853	pulse	1.0	t		place	house-135.jpg	0.0	177.9275666186022	
42.0	149.10388604860327	pulse	1.0	t		place	house-135.jpg	0.0	178.62754588117696	
43.0	149.82043864936895	car	0.0		45	object	car-109.jpg	0.0	179.34409848194264	0.3833193826103525
43.0	149.8109625214056	pulse	0.0	t		object	car-109.jpg	0.0	179.33462235397928	
43.0	150.2037580319793	ISI	1.0		475	object	car-109.jpg	0.0	179.727417864553	4.016641557377625
43.0	150.50387626850716	pulse	1.0	t		object	car-109.jpg	0.0	180.02753610108084	
43.0	151.20384768285749	pulse	1.0	t		object	car-109.jpg	0.0	180.72750751543117	
43.0	151.90381970091676	pulse	1.0	t		object	car-109.jpg	0.0	181.42747953349044	
43.0	152.6038333749393	pulse	1.0	t		object	car-109.jpg	0.0	182.127493207513	
43.0	153.30382048573938	pulse	1.0	t		object	car-109.jpg	0.0	182.82748031831306	
43.0	154.00385800629192	pulse	1.0	t		object	car-109.jpg	0.0	183.5275178388656	
44.0	154.22039958935693	house	0.0		46	place	house-72.jpg	0.0	183.74405942193061	0.383303384305691
44.0	154.60370297366262	ISI	1.0		833	place	house-72.jpg	0.0	184.1273628062363	7.01652926738916
44.0	154.70385990797695	pulse	1.0	t		place	house-72.jpg	0.0	184.22751974055063	
44.0	155.40383222789114	pulse	1.0	t		place	house-72.jpg	0.0	184.92749206046483	
44.0	156.10382145167478	pulse	1.0	t		place	house-72.jpg	0.0	185.62748128424846	
44.0	156.8038067513453	pulse	1.0	t		place	house-72.jpg	0.0	186.32746658391898	
44.0	157.5037980881125	pulse	1.0	t		place	house-72.jpg	0.0	187.02745792068617	
44.0	158.2038036120548	pulse	1.0	t		place	house-72.jpg	0.0	187.72746344462848	
44.0	158.90375842439062	pulse	1.0	t		place	house-72.jpg	0.0	188.4274182569643	
44.0	159.60374281849727	pulse	1.0	t		place	house-72.jpg	0.0	189.12740265107095	
44.0	160.30373143857105	pulse	1.0	t		place	house-72.jpg	0.0	189.82739127114473	
44.0	161.00372156791855	pulse	1.0	t		place	house-72.jpg	0.0	190.52738140049223	
45.0	161.62023224105178	limb	0.0		46	body	limb-14.jpg	0.0	191.14389207362547	0.3832852730174636
45.0	161.70362959275917	pulse	0.0	t		body	limb-14.jpg	0.0	191.22728942533286	
45.0	162.00351751406924	ISI	1.0		352	body	limb-14.jpg	0.0	191.52717734664293	3.0166026181068446
45.0	162.4036148924297	pulse	1.0	t		body	limb-14.jpg	0.0	191.92727472500337	
45.0	163.10359536242413	pulse	1.0	t		body	limb-14.jpg	0.0	192.62725519499782	
45.0	163.80361869580065	pulse	1.0	t		body	limb-14.jpg	0.0	193.32727852837434	
45.0	164.50356686732994	pulse	1.0	t		body	limb-14.jpg	0.0	194.02722669990362	
46.0	165.0201201321761	house	0.0		46	place	house-134.jpg	0.0	194.54377996474977	0.38331274180472974
46.0	165.20355246885538	pulse	0.0	t		place	house-134.jpg	0.0	194.72721230142906	
46.0	165.40343287398082	ISI	1.0		230	place	house-134.jpg	0.0	194.9270927065545	2.016634312862152
46.0	165.90360840255107	pulse	1.0	t		place	house-134.jpg	0.0	195.42726823512476	
46.0	166.60353061456772	pulse	1.0	t		place	house-134.jpg	0.0	196.1271904471414	
46.0	167.30350233077206	pulse	1.0	t		place	house-134.jpg	0.0	196.82716216334575	
47.0	167.42006718684297	number	0.0		46	character	number-136.jpg	0.0	196.94372701941666	0.3833556051877167
47.0	167.8034227920307	ISI	1.0		353	character	number-136.jpg	0.0	197.32708262460437	3.0165905439152993
47.0	168.00358331841653	pulse	1.0	t		character	number-136.jpg	0.0	197.52724315099022	
47.0	168.70356439212082	pulse	1.0	t		character	number-136.jpg	0.0	198.2272242246945	
47.0	169.4035629734026	pulse	1.0	t		character	number-136.jpg	0.0	198.92722280597627	
47.0	170.1035380100102	pulse	1.0	t		character	number-136.jpg	0.0	199.62719784258388	
48.0	170.820013335946	limb	0.0		45	body	limb-123.jpg	0.0	200.34367316851967	0.383322099302859
48.0	170.81062323660262	pulse	0.0	t		body	limb-123.jpg	0.0	200.3342830691763	
48.0	171.20333543524885	ISI	1.0		233	body	limb-123.jpg	0.0	200.72699526782253	2.0166539334250047
48.0	171.503533361446	pulse	1.0	t		body	limb-123.jpg	0.0	201.02719319401967	
48.0	172.2034905886203	pulse	1.0	t		body	limb-123.jpg	0.0	201.72715042119398	
48.0	172.9034668326467	pulse	1.0	t		body	limb-123.jpg	0.0	202.42712666522038	
49.0	173.21998936867385	house	0.0		46	place	house-47.jpg	0.0	202.74364920124754	0.38331213809487963
49.0	173.60330150676873	ISI	1.0		593	place	house-47.jpg	0.0	203.12696133934242	5.016590543915299
49.0	173.65575330734828	pulse	1.0	t		place	house-47.jpg	0.0	203.17941313992196	
49.0	174.30344045053698	pulse	1.0	t		place	house-47.jpg	0.0	203.82710028311067	
49.0	175.00343782439995	pulse	1.0	t		place	house-47.jpg	0.0	204.52709765697364	
49.0	175.70343519826292	pulse	1.0	t		place	house-47.jpg	0.0	205.2270950308366	
49.0	176.4033933310011	pulse	1.0	t		place	house-47.jpg	0.0	205.92705316357478	
49.0	177.1033759139791	pulse	1.0	t		place	house-47.jpg	0.0	206.6270357465528	
49.0	177.8033621192144	pulse	1.0	t		place	house-47.jpg	0.0	207.32702195178808	
49.0	178.50337337839846	pulse	1.0	t		place	house-47.jpg	0.0	208.02703321097215	
50.0	178.61989205068403	limb	0.0		46	body	limb-90.jpg	0.0	208.14355188325771	0.38329553608036804
50.0	179.0031875867644	ISI	1.0		235	body	limb-90.jpg	0.0	208.52684741933808	2.0166651020526842
50.0	179.20335022613472	pulse	1.0	t		body	limb-90.jpg	0.0	208.7270100587084	
50.0	179.90334578886905	pulse	1.0	t		body	limb-90.jpg	0.0	209.42700562144273	
50.0	180.6033214291865	pulse	1.0	t		body	limb-90.jpg	0.0	210.1269812617602	
51.0	181.01985268881708	adult	0.0		46	face	adult-106.jpg	0.0	210.54351252139077	0.3832490504400994
51.0	181.30319172217514	pulse	0.0	t		face	adult-106.jpg	0.0	210.82685155474883	
51.0	181.40310173925718	ISI	1.0		235	face	adult-106.jpg	0.0	210.92676157183087	2.016649405602948
51.0	182.0032295445826	pulse	1.0	t		face	adult-106.jpg	0.0	211.5268893771563	
51.0	182.7031825457898	pulse	1.0	t		face	adult-106.jpg	0.0	212.22684237836347	
52.0	183.41975114486013	number	0.0		45	character	number-138.jpg	0.0	212.9434109774338	0.3832970453540838
52.0	183.41006945377285	pulse	0.0	t		character	number-138.jpg	0.0	212.93372928634653	
52.0	183.8030481902142	ISI	1.0		355	character	number-138.jpg	0.0	213.3267080227879	3.0166321998794956
52.0	184.103156767389	pulse	1.0	t		character	number-138.jpg	0.0	213.6268165999627	
52.0	184.8031339169802	pulse	1.0	t		character	number-138.jpg	0.0	214.32679374955387	
52.0	185.50312012221548	pulse	1.0	t		character	number-138.jpg	0.0	215.02677995478916	
52.0	186.20312775914226	pulse	1.0	t		character	number-138.jpg	0.0	215.72678759171595	
53.0	186.8196803900937	adult	0.0		46	face	adult-87.jpg	0.0	216.3433402226674	0.38332723083476594
53.0	186.90312392558553	pulse	0.0	t		face	adult-87.jpg	0.0	216.42678375815922	
53.0	187.20300762092847	ISI	1.0		355	face	adult-87.jpg	0.0	216.72666745350216	3.0166234460893975
53.0	187.6031883112164	pulse	1.0	t		face	adult-87.jpg	0.0	217.12684814379008	
53.0	188.30314765137337	pulse	1.0	t		face	adult-87.jpg	0.0	217.82680748394705	
53.0	189.00313415846358	pulse	1.0	t		face	adult-87.jpg	0.0	218.52679399103727	
53.0	189.7031257970857	pulse	1.0	t		face	adult-87.jpg	0.0	219.2267856296594	
54.0	190.21963106701787	house	0.0		46	place	house-121.jpg	0.0	219.74329089959156	0.3833151566432207
54.0	190.4030627999873	pulse	0.0	t		place	house-121.jpg	0.0	219.926722632561	
54.0	190.6029462236611	ISI	1.0		235	place	house-121.jpg	0.0	220.12660605623478	2.0166503111668135
54.0	191.10310786691025	pulse	1.0	t		place	house-121.jpg	0.0	220.62676769948393	
54.0	191.80307867754982	pulse	1.0	t		place	house-121.jpg	0.0	221.3267385101235	
54.0	192.50307303286536	pulse	1.0	t		place	house-121.jpg	0.0	222.02673286543904	
55.0	192.6195965348279	house	0.0		46	place	house-121.jpg	1.0	222.1432563674016	0.38328648043625435
55.0	193.00288301526416	ISI	1.0		235	place	house-121.jpg	1.0	222.52654284783785	2.016644274071041
55.0	193.2030372026993	pulse	1.0	t		place	house-121.jpg	1.0	222.726697035273	
55.0	193.3697002974177	response	1.0	b		place	house-121.jpg	1.0	222.89336012999138	
55.0	193.90301495600033	pulse	1.0	t		place	house-121.jpg	1.0	223.42667478857402	
55.0	194.6030174613952	pulse	1.0	t		place	house-121.jpg	1.0	224.1266772939689	
56.0	195.0195272893352	adult	0.0		46	face	adult-126.jpg	0.0	224.5431871219089	0.3833211937389933
56.0	195.3029644255057	pulse	0.0	t		face	adult-126.jpg	0.0	224.8266242580794	
56.0	195.4028484830742	ISI	1.0		355	face	adult-126.jpg	0.0	224.92650831564788	3.0166125793157335
56.0	196.00299077743057	pulse	1.0	t		face	adult-126.jpg	0.0	225.52665061000425	
56.0	196.7029483064589	pulse	1.0	t		face	adult-126.jpg	0.0	226.22660813903258	
56.0	197.40295473596598	pulse	1.0	t		face	adult-126.jpg	0.0	226.92661456853966	
56.0	198.10293520596042	pulse	1.0	t		face	adult-126.jpg	0.0	227.6265950385341	
57.0	198.41946106238993	car	0.0		46	object	car-98.jpg	0.0	227.9431208949636	0.3832798396306316
57.0	198.80274090202056	ISI	1.0		233	object	car-98.jpg	0.0	228.32640073459424	2.016649405602948
57.0	198.8522635035506	pulse	1.0	t		object	car-98.jpg	0.0	228.3759233361243	
57.0	199.5028541881302	pulse	1.0	t		object	car-98.jpg	0.0	229.02651402070387	
57.0	200.20282379135097	pulse	1.0	t		object	car-98.jpg	0.0	229.72648362392465	
58.0	200.8193903076235	number	0.0		46	character	number-48.jpg	0.0	230.3430501401972	0.3832991583385592
58.0	200.90281754295665	pulse	0.0	t		character	number-48.jpg	0.0	230.42647737553034	
58.0	201.20268946596207	ISI	1.0		232	character	number-48.jpg	0.0	230.72634929853575	2.0166506130217385
58.0	201.60281008714264	pulse	1.0	t		character	number-48.jpg	0.0	231.12646991971633	
58.0	202.30278542560518	pulse	1.0	t		character	number-48.jpg	0.0	231.82644525817886	
58.0	203.00276891414705	pulse	1.0	t		character	number-48.jpg	0.0	232.52642874672074	
59.0	203.2193400789838	car	0.0		46	object	car-91.jpg	0.0	232.7429999115575	0.3832997620474998
59.0	203.6026398410313	ISI	1.0		235	object	car-91.jpg	0.0	233.126299673605	2.016668724309966
59.0	203.70276568430018	pulse	1.0	t		object	car-91.jpg	0.0	233.22642551687386	
59.0	204.40272985413503	pulse	1.0	t		object	car-91.jpg	0.0	233.92638968670872	
59.0	205.10279363605605	pulse	1.0	t		object	car-91.jpg	0.0	234.62645346862973	
60.0	205.61930856534127	adult	0.0		46	face	adult-1.jpg	0.0	235.14296839791496	0.3833157603530708
60.0	205.80276625782426	pulse	0.0	t		face	adult-1.jpg	0.0	235.32642609039794	
60.0	206.00262432569434	ISI	1.0		355	face	adult-1.jpg	0.0	235.52628415826803	3.0166306906048703
60.0	206.50278113926652	pulse	1.0	t		face	adult-1.jpg	0.0	236.0264409718402	
60.0	207.20277247603372	pulse	1.0	t		face	adult-1.jpg	0.0	236.7264323086074	
60.0	207.90273634401365	pulse	1.0	t		face	adult-1.jpg	0.0	237.42639617658733	
60.0	208.60272164368416	pulse	1.0	t		face	adult-1.jpg	0.0	238.12638147625785	
61.0	209.0192550162992	limb	0.0		46	body	limb-130.jpg	0.0	238.5429148488729	0.383289800838611
61.0	209.30266709852094	pulse	0.0	t		body	limb-130.jpg	0.0	238.82632693109463	
61.0	209.40254481713782	ISI	1.0		232	body	limb-130.jpg	0.0	238.9262046497115	2.016640048103909
61.0	210.00269556342846	pulse	1.0	t		body	limb-130.jpg	0.0	239.52635539600215	
61.0	210.7026736185844	pulse	1.0	t		body	limb-130.jpg	0.0	240.2263334511581	
62.0	211.41918486524173	number	0.0		45	character	number-89.jpg	0.0	240.94284469781542	0.3833178733366367
62.0	211.4103438397924	pulse	0.0	t		character	number-89.jpg	0.0	240.9340036723661	
62.0	211.80250273857837	ISI	1.0		714	character	number-89.jpg	0.0	241.32616257115205	6.016565489965615
62.0	212.1026725922784	pulse	1.0	t		character	number-89.jpg	0.0	241.62633242485208	
62.0	212.80263585654757	pulse	1.0	t		character	number-89.jpg	0.0	242.32629568912125	
62.0	213.502621156219	pulse	1.0	t		character	number-89.jpg	0.0	243.02628098879268	
62.0	214.2026025317773	pulse	1.0	t		character	number-89.jpg	0.0	243.726262364351	
62.0	214.90259054814123	pulse	1.0	t		character	number-89.jpg	0.0	244.42625038071492	
62.0	215.60257554595773	pulse	1.0	t		character	number-89.jpg	0.0	245.12623537853142	
62.0	216.3025602419184	pulse	1.0	t		character	number-89.jpg	0.0	245.82622007449208	
62.0	217.00254252304148	pulse	1.0	t		character	number-89.jpg	0.0	246.52620235561517	
62.0	217.70253446351853	pulse	1.0	t		character	number-89.jpg	0.0	247.22619429609222	
63.0	217.81906822854398	number	0.0		46	character	number-50.jpg	0.0	247.34272806111767	0.38326716172923625
63.0	218.20233539027322	ISI	1.0		234	character	number-50.jpg	0.0	247.7259952228469	2.016651216730679
63.0	218.40244248835825	pulse	1.0	t		character	number-50.jpg	0.0	247.92610232093193	
63.0	219.10242205278792	pulse	1.0	t		character	number-50.jpg	0.0	248.6260818853616	
63.0	219.80240493762085	pulse	1.0	t		character	number-50.jpg	0.0	249.32606477019453	
64.0	220.2189866070039	car	0.0		46	object	car-135.jpg	0.0	249.74264643957758	0.3832979509197685
64.0	220.50242434688425	pulse	0.0	t		object	car-135.jpg	0.0	250.02608417945794	
64.0	220.60228455792367	ISI	1.0		233	object	car-135.jpg	0.0	250.12594439049735	2.016634614717077
64.0	221.202384592606	pulse	1.0	t		object	car-135.jpg	0.0	250.72604442517968	
64.0	221.9023656663103	pulse	1.0	t		object	car-135.jpg	0.0	251.42602549888397	
65.0	222.61891917264074	limb	0.0		45	body	limb-62.jpg	0.0	252.14257900521443	0.38332149559391837
65.0	222.60932954726923	pulse	0.0	t		body	limb-62.jpg	0.0	252.1329893798429	
65.0	223.00224066823466	ISI	1.0		239	body	limb-62.jpg	0.0	252.52590050080835	2.0000307891896227
65.0	223.30234169903815	pulse	1.0	t		body	limb-62.jpg	0.0	252.82600153161184	
65.0	224.0023792195907	pulse	1.0	t		body	limb-62.jpg	0.0	253.52603905216438	
65.0	224.7024049678057	pulse	1.0	t		body	limb-62.jpg	0.0	254.2260648003794	
66.0	225.00227145742429	baseline	0.0		708		baseline	0.0	254.52593128999797	5.899871138182789
66.0	225.40237517473633	pulse	0.0	t			baseline	0.0	254.92603500731002	
66.0	226.10235896513313	pulse	0.0	t			baseline	0.0	255.62601879770682	
66.0	226.80234124625622	pulse	0.0	t			baseline	0.0	256.3260010788299	
66.0	230.90214259560707	ISI	1.0		12		baseline	0.0	260.42580242818076	0.10000147908885992
