trial_nr	onset	event_type	phase	response	nr_frames	trial_type	stim_name	task_probe	onset_abs	duration
0.0	0.05910428658989986	baseline	0.0		700		baseline	0.0	31.7170714995068	5.841174020266408
0.0	0.700583478473618	pulse	0.0	t			baseline	0.0	32.35855069139052	
0.0	1.4005421248521088	pulse	0.0	t			baseline	0.0	33.05850933776901	
0.0	2.1005240137765213	pulse	0.0	t			baseline	0.0	33.75849122669342	
0.0	2.8004932249486956	pulse	0.0	t			baseline	0.0	34.4584604378656	
0.0	3.50046968055085	pulse	0.0	t			baseline	0.0	35.15843689346775	
0.0	4.200442815789302	pulse	0.0	t			baseline	0.0	35.8584100287062	
0.0	4.900416554730327	pulse	0.0	t			baseline	0.0	36.55838376764723	
0.0	5.600387878861056	pulse	0.0	t			baseline	0.0	37.25835509177796	
0.0	5.900278306856308	ISI	1.0		5		baseline	0.0	37.55824551977321	0.1250098856285149
1.0	6.0252881924848225	house	0.0		45	place	house-64.jpg	0.0	37.683255405401724	0.37492612190544605
1.0	6.300322980841884	pulse	0.0	t		place	house-64.jpg	0.0	37.958290193758785	
1.0	6.4002143143902686	ISI	1.0		475	place	house-64.jpg	0.0	38.05818152730717	4.016561370887757
1.0	7.000310001237722	pulse	1.0	t		place	house-64.jpg	0.0	38.65827721415462	
1.0	7.70028343832746	pulse	1.0	t		place	house-64.jpg	0.0	39.35825065124436	
1.0	8.40025204579706	pulse	1.0	t		place	house-64.jpg	0.0	40.05821925871396	
1.0	9.10024299025963	pulse	1.0	t		place	house-64.jpg	0.0	40.75821020317653	
1.0	9.800207673662953	pulse	1.0	t		place	house-64.jpg	0.0	41.458174886579855	
2.0	10.416775685278026	adult	0.0		46	face	adult-77.jpg	0.0	42.07474289819493	0.3833000793870269
2.0	10.50018654407495	pulse	0.0	t		face	adult-77.jpg	0.0	42.15815375699185	
2.0	10.800075764665053	ISI	1.0		834	face	adult-77.jpg	0.0	42.458042977581954	7.0164916432477185
2.0	11.20016450893354	pulse	1.0	t		face	adult-77.jpg	0.0	42.85813172185044	
2.0	11.900135531212982	pulse	1.0	t		face	adult-77.jpg	0.0	43.55810274412988	
2.0	12.600198919976265	pulse	1.0	t		face	adult-77.jpg	0.0	44.258166132893166	
2.0	13.300167225594578	pulse	1.0	t		face	adult-77.jpg	0.0	44.95813443851148	
2.0	14.000145492304455	pulse	1.0	t		face	adult-77.jpg	0.0	45.658112705221356	
2.0	14.700121646055322	pulse	1.0	t		face	adult-77.jpg	0.0	46.35808885897222	
2.0	15.400102629426328	pulse	1.0	t		face	adult-77.jpg	0.0	47.05806984234323	
2.0	16.100076066516067	pulse	1.0	t		face	adult-77.jpg	0.0	47.75804327943297	
2.0	16.800055842481925	pulse	1.0	t		face	adult-77.jpg	0.0	48.458023055398826	
2.0	17.500028977720376	pulse	1.0	t		face	adult-77.jpg	0.0	49.15799619063728	
3.0	17.81656740791277	adult	0.0		46	face	adult-36.jpg	0.0	49.47453462082967	0.38325359429381933
3.0	18.19982100220659	ISI	1.0		233	face	adult-36.jpg	0.0	49.85778821512349	2.0166347207423314
3.0	18.251959769264886	pulse	1.0	t		face	adult-36.jpg	0.0	49.90992698218179	
3.0	18.899905218706408	pulse	1.0	t		face	adult-36.jpg	0.0	50.55787243162331	
3.0	19.59989948353268	pulse	1.0	t		face	adult-36.jpg	0.0	51.25786669644958	
4.0	20.216455722948922	car	0.0		46	object	car-10.jpg	0.0	51.87442293586582	0.38328740163433395
4.0	20.29986567619244	pulse	0.0	t		object	car-10.jpg	0.0	51.95783288910934	
4.0	20.599743124583256	ISI	1.0		353	object	car-10.jpg	0.0	52.25771033750016	3.016602120806965
4.0	20.999836094769307	pulse	1.0	t		object	car-10.jpg	0.0	52.65780330768621	
4.0	21.699821304057878	pulse	1.0	t		object	car-10.jpg	0.0	53.35778851697478	
4.0	22.399798363362606	pulse	1.0	t		object	car-10.jpg	0.0	54.05776557627951	
4.0	23.099778139328464	pulse	1.0	t		object	car-10.jpg	0.0	54.757745352245365	
5.0	23.61634524539022	number	0.0		46	character	number-99.jpg	0.0	55.27431245830712	0.3833193978671261
5.0	23.799748557905787	pulse	0.0	t		character	number-99.jpg	0.0	55.45771577082269	
5.0	23.999664643257347	ISI	1.0		230	character	number-99.jpg	0.0	55.65763185617425	2.016633513337183
5.0	24.499805909644238	pulse	1.0	t		character	number-99.jpg	0.0	56.15777312256114	
5.0	25.199779950436096	pulse	1.0	t		character	number-99.jpg	0.0	56.857747163353	
5.0	25.89975127456728	pulse	1.0	t		character	number-99.jpg	0.0	57.55771848748418	
6.0	26.01629815659453	house	0.0		46	place	house-43.jpg	0.0	57.67426536951143	0.3832572165088095
6.0	26.39955537310334	ISI	1.0		233	place	house-43.jpg	0.0	58.05752258602024	2.0166323059324895
6.0	26.599659209934543	pulse	1.0	t		place	house-43.jpg	0.0	58.257626422851445	
6.0	27.29964109885941	pulse	1.0	t		place	house-43.jpg	0.0	58.95760831177631	
6.0	27.999613026692714	pulse	1.0	t		place	house-43.jpg	0.0	59.657580239609615	
7.0	28.41618767903583	adult	0.0		46	face	adult-99.jpg	0.0	60.07415489195273	0.38328619422918564
7.0	28.699597330427878	pulse	0.0	t		face	adult-99.jpg	0.0	60.35756454334478	
7.0	28.799473873265015	ISI	1.0		473	face	adult-99.jpg	0.0	60.457441086181916	4.016590348608133
7.0	29.39959521746914	pulse	1.0	t		face	adult-99.jpg	0.0	61.05756243038604	
7.0	30.099554165698464	pulse	1.0	t		face	adult-99.jpg	0.0	61.757521378615365	
7.0	30.799521565762916	pulse	1.0	t		face	adult-99.jpg	0.0	62.45748877867982	
7.0	31.499501945431348	pulse	1.0	t		face	adult-99.jpg	0.0	63.15746915834825	
7.0	32.19954843052437	pulse	1.0	t		face	adult-99.jpg	0.0	63.857515643441275	
8.0	32.81606422187315	limb	0.0		46	body	limb-133.jpg	0.0	64.47403143479005	0.3832641590875028
8.0	32.89960849892395	pulse	0.0	t		body	limb-133.jpg	0.0	64.55757571184085	
8.0	33.19932838096065	ISI	1.0		233	body	limb-133.jpg	0.0	64.85729559387755	2.0166374374034604
8.0	33.59944187703195	pulse	1.0	t		body	limb-133.jpg	0.0	65.25740908994885	
8.0	34.29940716413785	pulse	1.0	t		body	limb-133.jpg	0.0	65.95737437705475	
8.0	34.999400825261546	pulse	1.0	t		body	limb-133.jpg	0.0	66.65736803817845	
9.0	35.21596581836411	number	0.0		46	character	number-1.jpg	0.0	66.87393303128101	0.3832849868244921
9.0	35.5992508051886	ISI	1.0		233	character	number-1.jpg	0.0	67.2572180181055	2.016635324444451
9.0	35.69941078635293	pulse	1.0	t		character	number-1.jpg	0.0	67.35737799926983	
9.0	36.399335625390904	pulse	1.0	t		character	number-1.jpg	0.0	68.0573028383078	
9.0	37.099321438381594	pulse	1.0	t		character	number-1.jpg	0.0	68.7572886512985	
10.0	37.615886129633054	car	0.0		46	object	car-121.jpg	0.0	69.27385334254996	0.38329494791560137
10.0	37.79930362915775	pulse	0.0	t		object	car-121.jpg	0.0	69.45727084207465	
10.0	37.999181077548656	ISI	1.0		715	object	car-121.jpg	0.0	69.65714829046556	6.024865902580586
10.0	38.49926559589994	pulse	1.0	t		object	car-121.jpg	0.0	70.15723280881684	
10.0	39.199357660532314	pulse	1.0	t		object	car-121.jpg	0.0	70.85732487344922	
10.0	39.89928581993399	pulse	1.0	t		object	car-121.jpg	0.0	71.5572530328509	
10.0	40.59926710515629	pulse	1.0	t		object	car-121.jpg	0.0	72.25723431807319	
10.0	41.29923571262589	pulse	1.0	t		object	car-121.jpg	0.0	72.95720292554279	
10.0	41.99922967560087	pulse	1.0	t		object	car-121.jpg	0.0	73.65719688851777	
10.0	42.69920552750045	pulse	1.0	t		object	car-121.jpg	0.0	74.35717274041735	
10.0	43.399193151598865	pulse	1.0	t		object	car-121.jpg	0.0	75.05716036451577	
11.0	44.02404698012924	limb	0.0		46	body	limb-25.jpg	0.0	75.68201419304614	0.38324997207882916
11.0	44.099093842536604	pulse	0.0	t		body	limb-25.jpg	0.0	75.7570610554535	
11.0	44.40729695220807	ISI	1.0		233	body	limb-25.jpg	0.0	76.06526416512497	2.016632607783322
11.0	44.7990591296425	pulse	1.0	t		body	limb-25.jpg	0.0	76.4570263425594	
11.0	45.49903679264935	pulse	1.0	t		body	limb-25.jpg	0.0	77.15700400556625	
11.0	46.199010531590375	pulse	1.0	t		body	limb-25.jpg	0.0	77.85697774450728	
12.0	46.42392955999139	house	0.0		46	place	house-22.jpg	0.0	78.0818967729083	0.3832991738331657
12.0	46.80722873382456	ISI	1.0		233	place	house-22.jpg	0.0	78.46519594674146	2.0166202318823707
12.0	46.89900268345764	pulse	1.0	t		place	house-22.jpg	0.0	78.55696989637454	
12.0	47.59897038537383	pulse	1.0	t		place	house-22.jpg	0.0	79.25693759829073	
12.0	48.29896947981979	pulse	1.0	t		place	house-22.jpg	0.0	79.95693669273669	
13.0	48.82384896570693	adult	0.0		46	face	adult-122.jpg	0.0	80.48181617862383	0.38328800533645335
13.0	48.998933861371825	pulse	0.0	t		face	adult-122.jpg	0.0	80.65690107428873	
13.0	49.20713697104338	ISI	1.0		353	face	adult-122.jpg	0.0	80.86510418396028	3.016622042990093
13.0	49.69891031697398	pulse	1.0	t		face	adult-122.jpg	0.0	81.35687752989088	
13.0	50.39893174841336	pulse	1.0	t		face	adult-122.jpg	0.0	82.05689896133026	
13.0	51.098929635454624	pulse	1.0	t		face	adult-122.jpg	0.0	82.75689684837153	
13.0	51.79890035588278	pulse	1.0	t		face	adult-122.jpg	0.0	83.45686756879968	
14.0	52.223759014033476	adult	0.0		46	face	adult-124.jpg	0.0	83.88172622695038	0.3832668757486317
14.0	52.49882096900319	pulse	0.0	t		face	adult-124.jpg	0.0	84.15678818192009	
14.0	52.60702588978211	ISI	1.0		234	face	adult-124.jpg	0.0	84.26499310269901	2.0166956946954997
14.0	53.19880708384562	pulse	1.0	t		face	adult-124.jpg	0.0	84.85677429676252	
14.0	53.8987738802075	pulse	1.0	t		face	adult-124.jpg	0.0	85.5567410931244	
14.0	54.598779011678744	pulse	1.0	t		face	adult-124.jpg	0.0	86.25674622459564	
15.0	54.62372158447761	number	0.0		46	character	number-82.jpg	0.0	86.28168879739451	0.38323880358257156
15.0	55.00696038806018	ISI	1.0		353	character	number-82.jpg	0.0	86.66492760097708	3.016573746789163
15.0	55.298715321064265	pulse	1.0	t		character	number-82.jpg	0.0	86.95668253398117	
15.0	55.998687550748855	pulse	1.0	t		character	number-82.jpg	0.0	87.65665476366576	
15.0	56.698669137822435	pulse	1.0	t		character	number-82.jpg	0.0	88.35663635073934	
15.0	57.39864921563958	pulse	1.0	t		character	number-82.jpg	0.0	89.05661642855648	
16.0	58.02353413484934	adult	0.0		46	face	adult-8.jpg	0.0	89.68150134776624	0.3833393200497994
16.0	58.09863050086187	pulse	0.0	t		face	adult-8.jpg	0.0	89.75659771377877	
16.0	58.40687345489914	ISI	1.0		233	face	adult-8.jpg	0.0	90.06484066781604	2.0166344188910443
16.0	58.798684230385334	pulse	1.0	t		face	adult-8.jpg	0.0	90.45665144330223	
16.0	59.49865495081349	pulse	1.0	t		face	adult-8.jpg	0.0	91.15662216373039	
16.0	60.19861329534069	pulse	1.0	t		face	adult-8.jpg	0.0	91.8565805082576	
17.0	60.423507873790186	limb	0.0		46	body	limb-17.jpg	0.0	92.08147508670709	0.3832572165088095
17.0	60.806765090298995	ISI	1.0		233	body	limb-17.jpg	0.0	92.4647323032159	2.016626872609777
17.0	60.898548397321065	pulse	1.0	t		body	limb-17.jpg	0.0	92.55651561023797	
17.0	61.598537228824625	pulse	1.0	t		body	limb-17.jpg	0.0	93.25650444174153	
17.0	62.298478065979	pulse	1.0	t		body	limb-17.jpg	0.0	93.9564452788959	
18.0	62.82339196290877	house	0.0		46	place	house-115.jpg	0.0	94.48135917582567	0.383296457171582
18.0	62.99847384006125	pulse	0.0	t		place	house-115.jpg	0.0	94.65644105297815	
18.0	63.206688420080354	ISI	1.0		353	place	house-115.jpg	0.0	94.86465563299726	3.016589443054272
18.0	63.6984527104737	pulse	1.0	t		place	house-115.jpg	0.0	95.3564199233906	
18.0	64.39842675126556	pulse	1.0	t		place	house-115.jpg	0.0	96.05639396418246	
18.0	65.09840109390916	pulse	1.0	t		place	house-115.jpg	0.0	96.75636830682606	
18.0	65.79837604025488	pulse	1.0	t		place	house-115.jpg	0.0	97.45634325317178	
19.0	66.22327786313463	number	0.0		46	character	number-18.jpg	0.0	97.88124507605153	0.38332815155354183
19.0	66.498378455065	pulse	0.0	t		character	number-18.jpg	0.0	98.1563456679819	
19.0	66.60660601468817	ISI	1.0		353	character	number-18.jpg	0.0	98.26457322760507	3.016589141202985
19.0	67.19840562167792	pulse	1.0	t		character	number-18.jpg	0.0	98.85637283459482	
19.0	67.89836577731239	pulse	1.0	t		character	number-18.jpg	0.0	99.5563329902293	
19.0	68.5983398181047	pulse	1.0	t		character	number-18.jpg	0.0	100.2563070310216	
19.0	69.29833227182326	pulse	1.0	t		character	number-18.jpg	0.0	100.95629948474016	
20.0	69.62319515589115	adult	0.0		46	face	adult-133.jpg	0.0	101.28116236880805	0.3832732146252056
20.0	69.9982453386624	pulse	0.0	t		face	adult-133.jpg	0.0	101.6562125515793	
20.0	70.00646837051636	ISI	1.0		230	face	adult-133.jpg	0.0	101.66443558343326	2.0166199300310836
20.0	70.69821787019828	pulse	1.0	t		face	adult-133.jpg	0.0	102.35618508311518	
20.0	71.39819372209786	pulse	1.0	t		face	adult-133.jpg	0.0	103.05616093501476	
21.0	72.02308830054744	limb	0.0		46	body	limb-45.jpg	0.0	103.68105551346434	0.3832979664280174
21.0	72.09817862953514	pulse	0.0	t		body	limb-45.jpg	0.0	103.75614584245204	
21.0	72.40638626697546	ISI	1.0		356	body	limb-45.jpg	0.0	104.06435347989236	3.0165966874842525
21.0	72.79814301108718	pulse	1.0	t		body	limb-45.jpg	0.0	104.45611022400408	
21.0	73.49811584447434	pulse	1.0	t		body	limb-45.jpg	0.0	105.15608305739124	
21.0	74.19808384824137	pulse	1.0	t		body	limb-45.jpg	0.0	105.85605106115827	
21.0	74.89809320563018	pulse	1.0	t		body	limb-45.jpg	0.0	106.55606041854708	
22.0	75.42298295445971	limb	0.0		46	body	limb-45.jpg	1.0	107.08095016737661	0.3833254348924129
22.0	75.5980603038438	pulse	0.0	t		body	limb-45.jpg	1.0	107.2560275167607	
22.0	75.80630838935213	ISI	1.0		473	body	limb-45.jpg	1.0	107.46427560226903	4.0248879377218145
22.0	76.02311275049897	response	1.0	b		body	limb-45.jpg	1.0	107.68107996341587	
22.0	76.29808867786141	pulse	1.0	t		body	limb-45.jpg	1.0	107.95605589077832	
22.0	76.99808384824155	pulse	1.0	t		body	limb-45.jpg	1.0	108.65605106115845	
22.0	77.69806302050483	pulse	1.0	t		body	limb-45.jpg	1.0	109.35603023342173	
22.0	78.39803343908216	pulse	1.0	t		body	limb-45.jpg	1.0	110.05600065199906	
22.0	79.0980192520733	pulse	1.0	t		body	limb-45.jpg	1.0	110.7559864649902	
22.0	79.79799027435274	pulse	1.0	t		body	limb-45.jpg	1.0	111.45595748726964	
23.0	79.83119632707394	car	0.0		45	object	car-17.jpg	0.0	111.48916353999084	0.3749635514614056
23.0	80.20615987853535	ISI	1.0		593	object	car-17.jpg	0.0	111.86412709145225	5.016526657993381
23.0	80.49797095587246	pulse	1.0	t		object	car-17.jpg	0.0	112.15593816878936	
23.0	81.1979410725985	pulse	1.0	t		object	car-17.jpg	0.0	112.8559082855154	
23.0	81.89792748929221	pulse	1.0	t		object	car-17.jpg	0.0	113.55589470220912	
23.0	82.59789126714168	pulse	1.0	t		object	car-17.jpg	0.0	114.25585848005858	
23.0	83.29787104310753	pulse	1.0	t		object	car-17.jpg	0.0	114.95583825602444	
23.0	83.9978505172221	pulse	1.0	t		object	car-17.jpg	0.0	115.655817730139	
23.0	84.69781972839428	pulse	1.0	t		object	car-17.jpg	0.0	116.35578694131118	
24.0	85.22268653652873	number	0.0		46	character	number-32.jpg	0.0	116.88065374944563	0.3832560091036612
24.0	85.39773973781212	pulse	0.0	t		character	number-32.jpg	0.0	117.05570695072902	
24.0	85.60594254563239	ISI	1.0		233	character	number-32.jpg	0.0	117.26390975854929	2.0166332114863508
24.0	86.0976929508679	pulse	1.0	t		character	number-32.jpg	0.0	117.7556601637848	
24.0	86.7976739342389	pulse	1.0	t		character	number-32.jpg	0.0	118.4556411471558	
24.0	87.49851670293947	pulse	1.0	t		character	number-32.jpg	0.0	119.15648391585637	
25.0	87.62257575711874	limb	0.0		46	body	limb-85.jpg	0.0	119.28054297003564	0.3832910238493241
25.0	88.00586678096806	ISI	1.0		233	body	limb-85.jpg	0.0	119.66383399388496	2.0166310985268865
25.0	88.19763861764204	pulse	1.0	t		body	limb-85.jpg	0.0	119.85560583055894	
25.0	88.89760390474794	pulse	1.0	t		body	limb-85.jpg	0.0	120.55557111766484	
25.0	89.59759877327679	pulse	1.0	t		body	limb-85.jpg	0.0	121.25556598619369	
26.0	90.02249787949495	car	0.0		46	object	car-55.jpg	0.0	121.68046509241185	0.38329766457718506
26.0	90.2975830770115	pulse	0.0	t		object	car-55.jpg	0.0	121.9555502899284	
26.0	90.40579554407213	ISI	1.0		233	object	car-55.jpg	0.0	122.06376275698904	2.024990868999339
26.0	90.99754836411739	pulse	1.0	t		object	car-55.jpg	0.0	122.6555155770343	
26.0	91.69759484921042	pulse	1.0	t		object	car-55.jpg	0.0	123.35556206212732	
26.0	92.39757553073014	pulse	1.0	t		object	car-55.jpg	0.0	124.05554274364704	
27.0	92.43078641307147	number	0.0		45	character	number-5.jpg	0.0	124.08875362598837	0.3749650607173862
27.0	92.80575147378886	ISI	1.0		233	character	number-5.jpg	0.0	124.46371868670576	2.016623854097361
27.0	93.09754625115875	pulse	1.0	t		character	number-5.jpg	0.0	124.75551346407565	
27.0	93.79752572527332	pulse	1.0	t		character	number-5.jpg	0.0	125.45549293819022	
27.0	94.49752149935557	pulse	1.0	t		character	number-5.jpg	0.0	126.15548871227247	
28.0	94.82237532788622	limb	0.0		46	body	limb-70.jpg	0.0	126.48034254080312	0.3832674794512059
28.0	95.19741856807832	pulse	0.0	t		body	limb-70.jpg	0.0	126.85538578099522	
28.0	95.20564280733743	ISI	1.0		236	body	limb-70.jpg	0.0	126.86361002025433	2.0166184207746483
28.0	95.89738113852263	pulse	1.0	t		body	limb-70.jpg	0.0	127.55534835143953	
28.0	96.59735910338122	pulse	1.0	t		body	limb-70.jpg	0.0	128.25532631629812	
29.0	97.22226122811207	limb	0.0		46	body	limb-70.jpg	1.0	128.88022844102898	0.38329977753573985
29.0	97.29734914228993	pulse	0.0	t		body	limb-70.jpg	1.0	128.95531635520683	
29.0	97.60556100564781	ISI	1.0		353	body	limb-70.jpg	1.0	129.26352821856472	3.016592461566688
29.0	97.99732620159466	pulse	1.0	t		body	limb-70.jpg	1.0	129.65529341451156	
29.0	98.1139576019732	response	1.0	b		body	limb-70.jpg	1.0	129.7719248148901	
29.0	98.69727186836872	pulse	1.0	t		body	limb-70.jpg	1.0	130.35523908128562	
29.0	99.39727760354253	pulse	1.0	t		body	limb-70.jpg	1.0	131.05524481645944	
29.0	100.09723866473087	pulse	1.0	t		body	limb-70.jpg	1.0	131.75520587764777	
30.0	100.6221534672145	car	0.0		46	object	car-34.jpg	0.0	132.2801206801314	0.38332935895869014
30.0	100.79724228694613	pulse	0.0	t		object	car-34.jpg	0.0	132.45520949986303	
30.0	101.00548282617319	ISI	1.0		233	object	car-34.jpg	0.0	132.6634500390901	2.0166057430219553
30.0	101.49727579243518	pulse	1.0	t		object	car-34.jpg	0.0	133.15524300535208	
30.0	102.19725587025232	pulse	1.0	t		object	car-34.jpg	0.0	133.85522308316922	
30.0	102.89721844069709	pulse	1.0	t		object	car-34.jpg	0.0	134.555185653614	
31.0	103.02208856919515	adult	0.0		46	face	adult-68.jpg	0.0	134.68005578211205	0.3832711016666508
31.0	103.4053596708618	ISI	1.0		233	face	adult-68.jpg	0.0	135.0633268837787	2.0166350225931637
31.0	103.5971456945449	pulse	1.0	t		face	adult-68.jpg	0.0	135.2551129074618	
31.0	104.29711732052692	pulse	1.0	t		face	adult-68.jpg	0.0	135.95508453344382	
31.0	104.99709377612908	pulse	1.0	t		face	adult-68.jpg	0.0	136.65506098904598	
32.0	105.42199469345496	house	0.0		46	place	house-36.jpg	0.0	137.07996190637186	0.3832834775680567
32.0	105.69705876138369	pulse	0.0	t		place	house-36.jpg	0.0	137.3550259743006	
32.0	105.80527817102302	ISI	1.0		234	place	house-36.jpg	0.0	137.46324538393992	2.016823679627123
32.0	106.39703914105212	pulse	1.0	t		place	house-36.jpg	0.0	138.05500635396902	
32.0	107.09701137073671	pulse	1.0	t		place	house-36.jpg	0.0	138.7549785836536	
32.0	107.79699899483558	pulse	1.0	t		place	house-36.jpg	0.0	139.45496620775248	
33.0	107.82210185065014	adult	0.0		46	face	adult-27.jpg	0.0	139.48006906356704	0.3831105167996611
33.0	108.2052123674498	ISI	1.0		473	face	adult-27.jpg	0.0	139.8631795803667	4.016591556012827
33.0	108.49698178931385	pulse	1.0	t		face	adult-27.jpg	0.0	140.15494900223075	
33.0	109.19702616144832	pulse	1.0	t		face	adult-27.jpg	0.0	140.85499337436522	
33.0	109.8970044281582	pulse	1.0	t		face	adult-27.jpg	0.0	141.5549716410751	
33.0	110.59697545043764	pulse	1.0	t		face	adult-27.jpg	0.0	142.25494266335454	
33.0	111.2969540189988	pulse	1.0	t		face	adult-27.jpg	0.0	142.9549212319157	
33.0	111.99692655053468	pulse	1.0	t		face	adult-27.jpg	0.0	143.65489376345158	
34.0	112.22180392346263	number	0.0		46	character	number-80.jpg	0.0	143.87977113637953	0.38326234798023506
34.0	112.60506627144287	ISI	1.0		354	character	number-80.jpg	0.0	144.26303348435977	3.016592159715401
34.0	112.69684233403495	pulse	1.0	t		character	number-80.jpg	0.0	144.35480954695186	
34.0	113.39680098041299	pulse	1.0	t		character	number-80.jpg	0.0	145.0547681933299	
34.0	114.0967852841477	pulse	1.0	t		character	number-80.jpg	0.0	145.7547524970646	
34.0	114.79677079528756	pulse	1.0	t		character	number-80.jpg	0.0	146.45473800820446	
34.0	115.49675841938642	pulse	1.0	t		character	number-80.jpg	0.0	147.15472563230333	
35.0	115.62165843115827	adult	0.0		46	face	adult-96.jpg	0.0	147.27962564407517	0.3832994756844528
35.0	116.00495790684272	ISI	1.0		353	face	adult-96.jpg	0.0	147.66292511975962	3.0249552505515567
35.0	116.19673155462488	pulse	1.0	t		face	adult-96.jpg	0.0	147.85469876754178	
35.0	116.89670046394576	pulse	1.0	t		face	adult-96.jpg	0.0	148.55466767686266	
35.0	117.59666514734909	pulse	1.0	t		face	adult-96.jpg	0.0	149.254632360266	
35.0	118.29670710467326	pulse	1.0	t		face	adult-96.jpg	0.0	149.95467431759016	
35.0	118.99668657878783	pulse	1.0	t		face	adult-96.jpg	0.0	150.65465379170473	
36.0	119.02991315739428	number	0.0		45	character	number-89.jpg	0.0	150.68788037031118	0.374961136651109
36.0	119.40487429404538	ISI	1.0		354	character	number-89.jpg	0.0	151.0628415069623	3.0165942726744106
36.0	119.69665277144759	pulse	1.0	t		character	number-89.jpg	0.0	151.3546199843645	
36.0	120.39663918814085	pulse	1.0	t		character	number-89.jpg	0.0	152.05460640105775	
36.0	121.09663254741326	pulse	1.0	t		character	number-89.jpg	0.0	152.75459976033017	
36.0	121.79660809746201	pulse	1.0	t		character	number-89.jpg	0.0	153.4545753103789	
37.0	122.4214685667198	number	0.0		46	character	number-74.jpg	0.0	154.0794357796367	0.383262046128948
37.0	122.4965268994747	pulse	0.0	t		character	number-74.jpg	0.0	154.1544941123916	
37.0	122.80473061284874	ISI	1.0		234	character	number-74.jpg	0.0	154.46269782576564	2.016624457799935
37.0	123.19648765881175	pulse	1.0	t		character	number-74.jpg	0.0	154.85445487172865	
37.0	123.89645415332234	pulse	1.0	t		character	number-74.jpg	0.0	155.55442136623924	
37.0	124.59643785335493	pulse	1.0	t		character	number-74.jpg	0.0	156.25440506627183	
38.0	124.82135507064868	car	0.0		46	object	car-72.jpg	0.0	156.47932228356558	0.38329706087415616
38.0	125.20465213152283	ISI	1.0		233	object	car-72.jpg	0.0	156.86261934443974	2.016633211485896
38.0	125.2964333255859	pulse	1.0	t		object	car-72.jpg	0.0	156.9544005385028	
38.0	125.99639951824565	pulse	1.0	t		object	car-72.jpg	0.0	157.65436673116255	
38.0	126.6963762756991	pulse	1.0	t		object	car-72.jpg	0.0	158.354343488616	
39.0	127.22128534300873	number	0.0		46	character	number-97.jpg	0.0	158.87925255592563	0.3832801572043536
39.0	127.39636118313638	pulse	0.0	t		character	number-97.jpg	0.0	159.05432839605328	
39.0	127.60456550021308	ISI	1.0		593	character	number-97.jpg	0.0	159.26253271312999	5.016567106061302
39.0	128.09633673318467	pulse	1.0	t		character	number-97.jpg	0.0	159.75430394610157	
39.0	128.79637446459174	pulse	1.0	t		character	number-97.jpg	0.0	160.45434167750864	
39.0	129.49636027758243	pulse	1.0	t		character	number-97.jpg	0.0	161.15432749049933	
39.0	130.1963156035972	pulse	1.0	t		character	number-97.jpg	0.0	161.85428281651411	
39.0	130.89630866101834	pulse	1.0	t		character	number-97.jpg	0.0	162.55427587393524	
39.0	131.59628934253806	pulse	1.0	t		character	number-97.jpg	0.0	163.25425655545496	
39.0	132.29625855371023	pulse	1.0	t		character	number-97.jpg	0.0	163.95422576662713	
40.0	132.6211326062744	limb	0.0		46	body	limb-62.jpg	0.0	164.2790998191913	0.3832686868563542
40.0	132.99617735572292	pulse	0.0	t		body	limb-62.jpg	0.0	164.65414456863982	
40.0	133.00440129313074	ISI	1.0		234	body	limb-62.jpg	0.0	164.66236850604764	2.0166196281797966
40.0	133.69614596319252	pulse	1.0	t		body	limb-62.jpg	0.0	165.35411317610942	
40.0	134.39612483360452	pulse	1.0	t		body	limb-62.jpg	0.0	166.05409204652142	
41.0	135.02102092131054	limb	0.0		46	body	limb-77.jpg	0.0	166.67898813422744	0.38329042014674997
41.0	135.0961088354884	pulse	0.0	t		body	limb-77.jpg	0.0	166.7540760484053	
41.0	135.4043113414573	ISI	1.0		233	body	limb-77.jpg	0.0	167.0622785543742	2.0166320040812025
41.0	135.79608891330554	pulse	1.0	t		body	limb-77.jpg	0.0	167.45405612622244	
41.0	136.4960427300639	pulse	1.0	t		body	limb-77.jpg	0.0	168.1540099429808	
41.0	137.19602582639345	pulse	1.0	t		body	limb-77.jpg	0.0	168.85399303931035	
42.0	137.4209433455385	house	0.0		46	place	house-18.jpg	0.0	169.0789105584554	0.3832991738331657
42.0	137.80424251937166	ISI	1.0		953	place	house-18.jpg	0.0	169.46220973228856	8.016456326651223
42.0	137.89603578748483	pulse	1.0	t		place	house-18.jpg	0.0	169.55400300040174	
42.0	138.5960025838467	pulse	1.0	t		place	house-18.jpg	0.0	170.2539697967636	
42.0	139.29604152265847	pulse	1.0	t		place	house-18.jpg	0.0	170.95400873557537	
42.0	139.99601103568193	pulse	1.0	t		place	house-18.jpg	0.0	171.65397824859883	
42.0	140.69598779313537	pulse	1.0	t		place	house-18.jpg	0.0	172.35395500605227	
42.0	141.3959612302251	pulse	1.0	t		place	house-18.jpg	0.0	173.053928443142	
42.0	142.09592802658744	pulse	1.0	t		place	house-18.jpg	0.0	173.75389523950435	
42.0	142.7959180654957	pulse	1.0	t		place	house-18.jpg	0.0	174.4538852784126	
42.0	143.4958830507503	pulse	1.0	t		place	house-18.jpg	0.0	175.1538502636672	
42.0	144.19585799709648	pulse	1.0	t		place	house-18.jpg	0.0	175.85382521001338	
42.0	144.89584833785648	pulse	1.0	t		place	house-18.jpg	0.0	176.55381555077338	
42.0	145.5958229823509	pulse	1.0	t		place	house-18.jpg	0.0	177.2537901952678	
43.0	145.82069884602288	house	0.0		46	place	house-34.jpg	0.0	177.47866605893978	0.38326446093878985
43.0	146.20396330696167	ISI	1.0		353	place	house-34.jpg	0.0	177.86193051987857	3.0165758597481727
43.0	146.2957414825123	pulse	1.0	t		place	house-34.jpg	0.0	177.9537086954292	
43.0	146.9957137121969	pulse	1.0	t		place	house-34.jpg	0.0	178.6536809251138	
43.0	147.69567990485666	pulse	1.0	t		place	house-34.jpg	0.0	179.35364711777356	
43.0	148.39567205672392	pulse	1.0	t		place	house-34.jpg	0.0	180.05363926964083	
43.0	149.0956415697474	pulse	1.0	t		place	house-34.jpg	0.0	180.7536087826643	
44.0	149.22053916670984	limb	0.0		46	body	limb-89.jpg	0.0	180.87850637962674	0.3833136626931264
44.0	149.60385282940297	ISI	1.0		354	body	limb-89.jpg	0.0	181.26182004231987	3.024961891278963
44.0	149.7956246660774	pulse	1.0	t		body	limb-89.jpg	0.0	181.4535918789943	
44.0	150.49559900872055	pulse	1.0	t		body	limb-89.jpg	0.0	182.15356622163745	
44.0	151.195574256918	pulse	1.0	t		body	limb-89.jpg	0.0	182.8535414698349	
44.0	151.8956068568532	pulse	1.0	t		body	limb-89.jpg	0.0	183.5535740697701	
44.0	152.59559961242303	pulse	1.0	t		body	limb-89.jpg	0.0	184.25356682533993	
45.0	152.62881472068193	house	0.0		45	place	house-85.jpg	0.0	184.28678193359883	0.37495691073354465
45.0	153.00377163141547	ISI	1.0		353	place	house-85.jpg	0.0	184.66173884433238	3.016577067152866
45.0	153.2955778791329	pulse	1.0	t		place	house-85.jpg	0.0	184.9535450920498	
45.0	153.99552777182498	pulse	1.0	t		place	house-85.jpg	0.0	185.65349498474188	
45.0	154.6955368273625	pulse	1.0	t		place	house-85.jpg	0.0	186.3535040402794	
45.0	155.3954960774431	pulse	1.0	t		place	house-85.jpg	0.0	187.05346329036	
46.0	156.02034869856834	house	0.0		46	place	house-75.jpg	0.0	187.67831591148524	0.38327472388164097
46.0	156.09541367205065	pulse	0.0	t		place	house-75.jpg	0.0	187.75338088496756	
46.0	156.40362342244998	ISI	1.0		353	place	house-75.jpg	0.0	188.06159063536688	3.016595178228272
46.0	156.7953855998844	pulse	1.0	t		place	house-75.jpg	0.0	188.4533528128013	
46.0	157.49534726477486	pulse	1.0	t		place	house-75.jpg	0.0	189.15331447769177	
46.0	158.19533066295617	pulse	1.0	t		place	house-75.jpg	0.0	189.85329787587307	
46.0	158.8953179852033	pulse	1.0	t		place	house-75.jpg	0.0	190.5532851981202	
47.0	159.42021860067825	limb	0.0		46	body	limb-14.jpg	0.0	191.07818581359516	0.3832931368078789
47.0	159.5952887056319	pulse	0.0	t		body	limb-14.jpg	0.0	191.2532559185488	
47.0	159.80351173748613	ISI	1.0		233	body	limb-14.jpg	0.0	191.46147895040303	2.016626872609777
47.0	160.29527965009402	pulse	1.0	t		body	limb-14.jpg	0.0	191.95324686301092	
47.0	160.99526848159803	pulse	1.0	t		body	limb-14.jpg	0.0	192.65323569451493	
47.0	161.69522712797607	pulse	1.0	t		body	limb-14.jpg	0.0	193.35319434089297	
48.0	161.8201386100959	adult	0.0		46	face	adult-58.jpg	0.0	193.4781058230128	0.38332452933855166
48.0	162.20346313943446	ISI	1.0		473	face	adult-58.jpg	0.0	193.86143035235136	4.0165652949540345
48.0	162.3952793482431	pulse	1.0	t		face	adult-58.jpg	0.0	194.05324656116	
48.0	163.09525610569654	pulse	1.0	t		face	adult-58.jpg	0.0	194.75322331861344	
48.0	163.79521535577715	pulse	1.0	t		face	adult-58.jpg	0.0	195.45318256869405	
48.0	164.4951939243383	pulse	1.0	t		face	adult-58.jpg	0.0	196.1531611372552	
48.0	165.19517913362688	pulse	1.0	t		face	adult-58.jpg	0.0	196.85314634654378	
48.0	165.8951450244349	pulse	1.0	t		face	adult-58.jpg	0.0	197.5531122373518	
49.0	166.2200284343885	car	0.0		46	object	car-80.jpg	0.0	197.8779956473054	0.3832548016985129
49.0	166.5950626190429	pulse	0.0	t		object	car-80.jpg	0.0	198.2530298319598	
49.0	166.603283236087	ISI	1.0		593	object	car-80.jpg	0.0	198.2612504490039	5.016549296837638
49.0	167.2950466209263	pulse	1.0	t		object	car-80.jpg	0.0	198.95301383384322	
49.0	167.9950248876362	pulse	1.0	t		object	car-80.jpg	0.0	199.6529921005531	
49.0	168.69498353401423	pulse	1.0	t		object	car-80.jpg	0.0	200.35295074693113	
49.0	169.39497055441052	pulse	1.0	t		object	car-80.jpg	0.0	201.05293776732742	
49.0	170.0949524433354	pulse	1.0	t		object	car-80.jpg	0.0	201.7529196562523	
49.0	170.79491742858954	pulse	1.0	t		object	car-80.jpg	0.0	202.45288464150644	
49.0	171.49490776934954	pulse	1.0	t		object	car-80.jpg	0.0	203.15287498226644	
50.0	171.61983253292465	adult	0.0		46	face	adult-111.jpg	0.0	203.27779974584155	0.38327713869148283
50.0	172.00310967161613	ISI	1.0		231	face	adult-111.jpg	0.0	203.66107688453303	2.016649209602747
50.0	172.194880904588	pulse	1.0	t		face	adult-111.jpg	0.0	203.8528481175049	
50.0	172.89492195635876	pulse	1.0	t		face	adult-111.jpg	0.0	204.55288916927566	
50.0	173.5949056563909	pulse	1.0	t		face	adult-111.jpg	0.0	205.2528728693078	
51.0	174.01975888121888	house	0.0		46	place	house-93.jpg	0.0	205.67772609413578	0.3832759312863345
51.0	174.2948081584359	pulse	0.0	t		place	house-93.jpg	0.0	205.9527753713528	
51.0	174.4030348125052	ISI	1.0		354	place	house-93.jpg	0.0	206.0610020254221	3.0165930652692623
51.0	174.99479427327833	pulse	1.0	t		place	house-93.jpg	0.0	206.65276148619523	
51.0	175.69476288074793	pulse	1.0	t		place	house-93.jpg	0.0	207.35273009366483	
51.0	176.3947444678215	pulse	1.0	t		place	house-93.jpg	0.0	208.0527116807384	
51.0	177.0947106604808	pulse	1.0	t		place	house-93.jpg	0.0	208.75267787339772	
52.0	177.41962787777447	house	0.0		46	place	house-117.jpg	0.0	209.07759509069137	0.3832994756844528
52.0	177.79470552900966	pulse	0.0	t		place	house-117.jpg	0.0	209.45267274192656	
52.0	177.80292735345893	ISI	1.0		234	place	house-117.jpg	0.0	209.46089456637583	2.016604837468094
52.0	178.49467504203312	pulse	1.0	t		place	house-117.jpg	0.0	210.15264225495002	
52.0	179.19465361059383	pulse	1.0	t		place	house-117.jpg	0.0	210.85262082351073	
53.0	179.81953219092702	house	0.0		46	place	house-9.jpg	0.0	211.47749940384392	0.3833477718849281
53.0	179.89463972543626	pulse	0.0	t		place	house-9.jpg	0.0	211.55260693835316	
53.0	180.20287996281195	ISI	1.0		232	place	house-9.jpg	0.0	211.86084717572885	2.016620533733658
53.0	180.5946732309253	pulse	1.0	t		place	house-9.jpg	0.0	212.2526404438422	
53.0	181.2946385180312	pulse	1.0	t		place	house-9.jpg	0.0	212.9526057309481	
53.0	181.99463097174976	pulse	1.0	t		place	house-9.jpg	0.0	213.65259818466666	
54.0	182.2195004965456	number	0.0		46	character	number-63.jpg	0.0	213.8774677094625	0.38326808315378
54.0	182.6027685796994	ISI	1.0		353	character	number-63.jpg	0.0	214.2607357926163	3.0165876319470044
54.0	182.69454252933247	pulse	1.0	t		character	number-63.jpg	0.0	214.35250974224937	
54.0	183.39451445716577	pulse	1.0	t		character	number-63.jpg	0.0	215.05248167008267	
54.0	184.0944939312808	pulse	1.0	t		character	number-63.jpg	0.0	215.7524611441977	
54.0	184.79447008503166	pulse	1.0	t		character	number-63.jpg	0.0	216.45243729794856	
54.0	185.4944365795427	pulse	1.0	t		character	number-63.jpg	0.0	217.1524037924596	
55.0	185.6193562116464	house	0.0		46	place	house-27.jpg	0.0	217.2773234245633	0.38330189049429464
55.0	186.00265810214069	ISI	1.0		714	place	house-27.jpg	0.0	217.6606253150576	6.016524846885659
55.0	186.1944154499547	pulse	1.0	t		place	house-27.jpg	0.0	217.8523826628716	
55.0	186.89438918889573	pulse	1.0	t		place	house-27.jpg	0.0	218.55235640181263	
55.0	187.59437500188687	pulse	1.0	t		place	house-27.jpg	0.0	219.25234221480378	
55.0	188.2944211851286	pulse	1.0	t		place	house-27.jpg	0.0	219.9523883980455	
55.0	188.99440397960734	pulse	1.0	t		place	house-27.jpg	0.0	220.65237119252424	
55.0	189.69437077596922	pulse	1.0	t		place	house-27.jpg	0.0	221.35233798888612	
55.0	190.39434843897652	pulse	1.0	t		place	house-27.jpg	0.0	222.05231565189342	
55.0	191.09433817603394	pulse	1.0	t		place	house-27.jpg	0.0	222.75230538895084	
55.0	191.79429742611455	pulse	1.0	t		place	house-27.jpg	0.0	223.45226463903145	
56.0	192.01918294902634	limb	0.0		46	body	limb-140.jpg	0.0	223.67715016194325	0.3832439350539971
56.0	192.40242688408034	ISI	1.0		473	body	limb-140.jpg	0.0	224.06039409699724	4.0165743504912825
56.0	192.49422256700382	pulse	1.0	t		body	limb-140.jpg	0.0	224.15218977992072	
56.0	193.19419389113455	pulse	1.0	t		body	limb-140.jpg	0.0	224.85216110405145	
56.0	193.894163404158	pulse	1.0	t		body	limb-140.jpg	0.0	225.5521306170749	
56.0	194.5941392560576	pulse	1.0	t		body	limb-140.jpg	0.0	226.2521064689745	
56.0	195.294123257941	pulse	1.0	t		body	limb-140.jpg	0.0	226.9520904708579	
56.0	195.99413593569398	pulse	1.0	t		body	limb-140.jpg	0.0	227.65210314861088	
57.0	196.41900123457162	car	0.0		46	object	car-36.jpg	0.0	228.07696844748853	0.3832982682797592
57.0	196.69404296550783	pulse	0.0	t		object	car-36.jpg	0.0	228.35201017842473	
57.0	196.80229950285138	ISI	1.0		236	object	car-36.jpg	0.0	228.46026671576828	2.0249923782557744
57.0	197.3940450784662	pulse	1.0	t		object	car-36.jpg	0.0	229.0520122913831	
57.0	198.09410243020466	pulse	1.0	t		object	car-36.jpg	0.0	229.75206964312156	
57.0	198.7940758672944	pulse	1.0	t		object	car-36.jpg	0.0	230.4520430802113	
58.0	198.82729188110716	car	0.0		45	object	car-36.jpg	1.0	230.48525909402406	0.37496143850239605
58.0	199.20225331960955	ISI	1.0		233	object	car-36.jpg	1.0	230.86022053252645	2.016624155948193
58.0	199.4940604728804	pulse	1.0	t		object	car-36.jpg	1.0	231.1520276857973	
58.0	199.63568877928356	response	1.0	b		object	car-36.jpg	1.0	231.29365599220046	
58.0	200.19401157297716	pulse	1.0	t		object	car-36.jpg	1.0	231.85197878589406	
58.0	200.8940097618697	pulse	1.0	t		object	car-36.jpg	1.0	232.5519769747866	
59.0	201.21887747555775	car	0.0		46	object	car-6.jpg	0.0	232.87684468847465	0.3832683850050671
59.0	201.593921923155	pulse	0.0	t		object	car-6.jpg	0.0	233.2518891360719	
59.0	201.6021458605628	ISI	1.0		233	object	car-6.jpg	0.0	233.26011307347972	2.0166193263285095
59.0	202.2938754380616	pulse	1.0	t		object	car-6.jpg	0.0	233.9518426509785	
59.0	202.99387241954946	pulse	1.0	t		object	car-6.jpg	0.0	234.65183963246636	
60.0	203.61876518689132	car	0.0		46	object	car-113.jpg	0.0	235.27673239980822	0.38329524976688845
60.0	203.69389777505467	pulse	0.0	t		object	car-113.jpg	0.0	235.35186498797157	
60.0	204.0020604366582	ISI	1.0		591	object	car-113.jpg	0.0	235.6600276495751	5.016546278324768
60.0	204.39380691782708	pulse	1.0	t		object	car-113.jpg	0.0	236.05177413074398	
60.0	205.09379605118193	pulse	1.0	t		object	car-113.jpg	0.0	236.75176326409883	
60.0	205.79376616790796	pulse	1.0	t		object	car-113.jpg	0.0	237.45173338082486	
60.0	206.4937486605354	pulse	1.0	t		object	car-113.jpg	0.0	238.1517158734523	
60.0	207.19375439570922	pulse	1.0	t		object	car-113.jpg	0.0	238.85172160862612	
60.0	207.89378246787555	pulse	1.0	t		object	car-113.jpg	0.0	239.55174968079245	
60.0	208.59374141610533	pulse	1.0	t		object	car-113.jpg	0.0	240.25170862902223	
61.0	209.01860671498298	car	0.0		46	object	car-123.jpg	0.0	240.67657392789988	0.38328076090692775
61.0	209.293658105159	pulse	0.0	t		object	car-123.jpg	0.0	240.9516253180759	
61.0	209.4018874758899	ISI	1.0		233	object	car-123.jpg	0.0	241.0598546888068	2.024956457956705
61.0	209.99364693666257	pulse	1.0	t		object	car-123.jpg	0.0	241.65161414957947	
61.0	210.69362158115746	pulse	1.0	t		object	car-123.jpg	0.0	242.35158879407436	
61.0	211.39359652750318	pulse	1.0	t		object	car-123.jpg	0.0	243.05156374042008	
62.0	211.4268439338466	number	0.0		45	character	number-46.jpg	0.0	243.0848111467635	0.374961136651109
62.0	211.80180507049772	ISI	1.0		473	character	number-46.jpg	0.0	243.45977228341462	4.016589744905559
62.0	212.09359079232945	pulse	1.0	t		character	number-46.jpg	0.0	243.75155800524635	
62.0	212.79364361629905	pulse	1.0	t		character	number-46.jpg	0.0	244.45161082921595	
62.0	213.4935271017148	pulse	1.0	t		character	number-46.jpg	0.0	245.1514943146317	
62.0	214.19349933139983	pulse	1.0	t		character	number-46.jpg	0.0	245.85146654431674	
62.0	214.89347095738185	pulse	1.0	t		character	number-46.jpg	0.0	246.55143817029875	
62.0	215.59352891282242	pulse	1.0	t		character	number-46.jpg	0.0	247.25149612573932	
63.0	215.81839481540328	number	0.0		46	character	number-22.jpg	0.0	247.47636202832018	0.3832686868563542
63.0	216.20166350225963	ISI	1.0		233	character	number-22.jpg	0.0	247.85963071517654	2.016624155948193
63.0	216.29345405371168	pulse	1.0	t		character	number-22.jpg	0.0	247.95142126662859	
63.0	216.99341451119744	pulse	1.0	t		character	number-22.jpg	0.0	248.65138172411434	
63.0	217.69338975939445	pulse	1.0	t		character	number-22.jpg	0.0	249.35135697231135	
64.0	218.21828765820783	adult	0.0		46	face	adult-129.jpg	0.0	249.87625487112473	0.38328619422918564
64.0	218.3933698372116	pulse	0.0	t		face	adult-129.jpg	0.0	250.0513370501285	
64.0	218.601573852437	ISI	1.0		233	face	adult-129.jpg	0.0	250.25954106535391	2.0166317022299154
64.0	219.0933336150615	pulse	1.0	t		face	adult-129.jpg	0.0	250.7513008279784	
64.0	219.79330856140723	pulse	1.0	t		face	adult-129.jpg	0.0	251.45127577432413	
64.0	220.49328260219954	pulse	1.0	t		face	adult-129.jpg	0.0	252.15124981511644	
65.0	220.61820555466693	car	0.0		46	object	car-46.jpg	0.0	252.27617276758383	0.38328740163433395
65.0	221.00149295630126	ISI	1.0		479	object	car-46.jpg	0.0	252.65946016921816	3.999952005650357
65.0	221.19327324481083	pulse	1.0	t		object	car-46.jpg	0.0	252.85124045772773	
65.0	221.8932992040186	pulse	1.0	t		object	car-46.jpg	0.0	253.5512664169355	
65.0	222.59331520213482	pulse	1.0	t		object	car-46.jpg	0.0	254.25128241505172	
65.0	223.29325875595032	pulse	1.0	t		object	car-46.jpg	0.0	254.95122596886722	
65.0	223.9932472856026	pulse	1.0	t		object	car-46.jpg	0.0	255.6512144985195	
65.0	224.6932270615689	pulse	1.0	t		object	car-46.jpg	0.0	256.3511942744858	
66.0	225.00144496195162	baseline	0.0		708		baseline	0.0	256.6594121748685	5.899805305941754
66.0	225.3932506059664	pulse	0.0	t			baseline	0.0	257.0512178188833	
66.0	226.09316699316923	pulse	0.0	t			baseline	0.0	257.75113420608614	
66.0	226.79315310801167	pulse	0.0	t			baseline	0.0	258.45112032092857	
66.0	227.49314676913536	pulse	0.0	t			baseline	0.0	259.15111398205227	
66.0	228.1931057173647	pulse	0.0	t			baseline	0.0	259.8510729302816	
66.0	228.893074022983	pulse	0.0	t			baseline	0.0	260.5510412358999	
66.0	229.59305832671816	pulse	0.0	t			baseline	0.0	261.25102553963507	
66.0	230.29303478232032	pulse	0.0	t			baseline	0.0	261.9510019952372	
66.0	230.90125026789337	ISI	1.0		12		baseline	0.0	262.5592174808103	0.10000241480975092
66.0	230.99304202675012	pulse	1.0	t			baseline	0.0	262.651009239667	
